,level_0,index,subject_id,task_part,timeout,stimulus,environment,score,isCatch,correct,block_condition,block_order,rewardMap,trial_num,age,gender,rest,subject_condition,rt0,rt1,response0,response1,is_optimal_first,is_optimal_second,optimal_score,categorical_age,trial_bin,is_optimal
1,1,134,3,value training,False,./assets/img/ocean/memory/20.jpg,ocean,10.0,False,False,revaluation,1.0,"{""ArrowUp,ArrowLeft"":26,""ArrowUp,ArrowRight"":10,""ArrowDown,ArrowLeft"":5,""ArrowDown,ArrowRight"":17}",1,,,False,8,532.9000000003725,603.1000000005588,ArrowUp,ArrowRight,True,False,26.0,,0,False
2,2,136,3,value training,False,./assets/img/ocean/memory/13.jpg,ocean,26.0,False,True,revaluation,1.0,"{""ArrowUp,ArrowLeft"":26,""ArrowUp,ArrowRight"":10,""ArrowDown,ArrowLeft"":5,""ArrowDown,ArrowRight"":17}",2,,,False,8,467.0,282.20000000018626,ArrowUp,ArrowLeft,True,True,26.0,,0,True
3,3,138,3,value training,False,./assets/img/ocean/memory/20.jpg,ocean,5.0,False,False,revaluation,1.0,"{""ArrowUp,ArrowLeft"":26,""ArrowUp,ArrowRight"":10,""ArrowDown,ArrowLeft"":5,""ArrowDown,ArrowRight"":17}",3,,,False,8,686.5,408.6000000005588,ArrowDown,ArrowLeft,False,False,26.0,,0,False
4,4,140,3,value training,False,./assets/img/ocean/memory/41.jpg,ocean,17.0,False,False,revaluation,1.0,"{""ArrowUp,ArrowLeft"":26,""ArrowUp,ArrowRight"":10,""ArrowDown,ArrowLeft"":5,""ArrowDown,ArrowRight"":17}",4,,,False,8,653.0999999996275,285.59999999962747,ArrowDown,ArrowRight,False,True,26.0,,0,False
5,5,142,3,value training,False,./assets/img/ocean/memory/23.jpg,ocean,26.0,False,True,revaluation,1.0,"{""ArrowUp,ArrowLeft"":26,""ArrowUp,ArrowRight"":10,""ArrowDown,ArrowLeft"":5,""ArrowDown,ArrowRight"":17}",5,,,False,8,521.0,208.09999999962747,ArrowUp,ArrowLeft,True,True,26.0,,0,True
6,6,144,3,value training,False,./assets/img/ocean/memory/35.jpg,ocean,26.0,False,True,revaluation,1.0,"{""ArrowUp,ArrowLeft"":26,""ArrowUp,ArrowRight"":10,""ArrowDown,ArrowLeft"":5,""ArrowDown,ArrowRight"":17}",6,,,False,8,576.3000000007451,271.69999999925494,ArrowUp,ArrowLeft,True,True,26.0,,5,True
7,7,146,3,value training,False,./assets/img/ocean/memory/21.jpg,ocean,26.0,False,True,revaluation,1.0,"{""ArrowUp,ArrowLeft"":26,""ArrowUp,ArrowRight"":10,""ArrowDown,ArrowLeft"":5,""ArrowDown,ArrowRight"":17}",7,,,False,8,390.70000000018626,230.30000000074506,ArrowUp,ArrowLeft,True,True,26.0,,5,True
8,8,148,3,value training,False,./assets/img/ocean/memory/31.jpg,ocean,26.0,False,True,revaluation,1.0,"{""ArrowUp,ArrowLeft"":26,""ArrowUp,ArrowRight"":10,""ArrowDown,ArrowLeft"":5,""ArrowDown,ArrowRight"":17}",8,,,False,8,551.1000000005588,253.29999999981374,ArrowUp,ArrowLeft,True,True,26.0,,5,True
9,9,150,3,value training,False,./assets/img/ocean/memory/26.jpg,ocean,26.0,False,True,revaluation,1.0,"{""ArrowUp,ArrowLeft"":26,""ArrowUp,ArrowRight"":10,""ArrowDown,ArrowLeft"":5,""ArrowDown,ArrowRight"":17}",9,,,False,8,485.59999999962747,292.20000000018626,ArrowUp,ArrowLeft,True,True,26.0,,5,True
10,10,152,3,value training,False,./assets/img/ocean/memory/16.jpg,ocean,26.0,False,True,revaluation,1.0,"{""ArrowUp,ArrowLeft"":26,""ArrowUp,ArrowRight"":10,""ArrowDown,ArrowLeft"":5,""ArrowDown,ArrowRight"":17}",10,,,False,8,468.09999999962747,226.6000000005588,ArrowUp,ArrowLeft,True,True,26.0,,5,True
11,11,154,3,value training,False,./assets/img/ocean/memory/35.jpg,ocean,26.0,False,True,revaluation,1.0,"{""ArrowUp,ArrowLeft"":26,""ArrowUp,ArrowRight"":10,""ArrowDown,ArrowLeft"":5,""ArrowDown,ArrowRight"":17}",11,,,False,8,652.0,227.0,ArrowUp,ArrowLeft,True,True,26.0,,10,True
12,12,156,3,value training,False,./assets/img/ocean/memory/33.jpg,ocean,26.0,False,True,revaluation,1.0,"{""ArrowUp,ArrowLeft"":26,""ArrowUp,ArrowRight"":10,""ArrowDown,ArrowLeft"":5,""ArrowDown,ArrowRight"":17}",12,,,False,8,410.5,177.79999999981374,ArrowUp,ArrowLeft,True,True,26.0,,10,True
13,13,158,3,value training,False,./assets/img/ocean/memory/8.jpg,ocean,26.0,False,True,revaluation,1.0,"{""ArrowUp,ArrowLeft"":26,""ArrowUp,ArrowRight"":10,""ArrowDown,ArrowLeft"":5,""ArrowDown,ArrowRight"":17}",13,,,False,8,408.59999999962747,271.69999999925494,ArrowUp,ArrowLeft,True,True,26.0,,10,True
14,14,160,3,value training,False,./assets/img/ocean/memory/8.jpg,ocean,26.0,False,True,revaluation,1.0,"{""ArrowUp,ArrowLeft"":26,""ArrowUp,ArrowRight"":10,""ArrowDown,ArrowLeft"":5,""ArrowDown,ArrowRight"":17}",14,,,False,8,415.20000000018626,255.09999999962747,ArrowUp,ArrowLeft,True,True,26.0,,10,True
16,16,164,3,value training,False,./assets/img/ocean/memory/27.jpg,ocean,26.0,False,True,revaluation,1.0,"{""ArrowUp,ArrowLeft"":26,""ArrowUp,ArrowRight"":10,""ArrowDown,ArrowLeft"":5,""ArrowDown,ArrowRight"":17}",15,,,False,8,678.9000000003725,214.59999999962747,ArrowUp,ArrowLeft,True,True,26.0,,10,True
17,17,166,3,value training,False,./assets/img/ocean/memory/4.jpg,ocean,26.0,False,True,revaluation,1.0,"{""ArrowUp,ArrowLeft"":26,""ArrowUp,ArrowRight"":10,""ArrowDown,ArrowLeft"":5,""ArrowDown,ArrowRight"":17}",16,,,False,8,533.7000000001863,365.0,ArrowUp,ArrowLeft,True,True,26.0,,15,True
19,19,170,3,value training,False,./assets/img/ocean/memory/4.jpg,ocean,26.0,False,True,revaluation,1.0,"{""ArrowUp,ArrowLeft"":26,""ArrowUp,ArrowRight"":10,""ArrowDown,ArrowLeft"":5,""ArrowDown,ArrowRight"":17}",17,,,False,8,597.4000000003725,219.90000000037253,ArrowUp,ArrowLeft,True,True,26.0,,15,True
20,20,172,3,value training,False,./assets/img/ocean/memory/3.jpg,ocean,26.0,False,True,revaluation,1.0,"{""ArrowUp,ArrowLeft"":26,""ArrowUp,ArrowRight"":10,""ArrowDown,ArrowLeft"":5,""ArrowDown,ArrowRight"":17}",18,,,False,8,459.09999999962747,42.200000000186265,ArrowUp,ArrowLeft,True,True,26.0,,15,True
21,21,174,3,value training,False,./assets/img/ocean/memory/1.jpg,ocean,26.0,False,True,revaluation,1.0,"{""ArrowUp,ArrowLeft"":26,""ArrowUp,ArrowRight"":10,""ArrowDown,ArrowLeft"":5,""ArrowDown,ArrowRight"":17}",19,,,False,8,562.5,113.09999999962747,ArrowUp,ArrowLeft,True,True,26.0,,15,True
22,22,176,3,value training,False,./assets/img/ocean/memory/13.jpg,ocean,26.0,False,True,revaluation,1.0,"{""ArrowUp,ArrowLeft"":26,""ArrowUp,ArrowRight"":10,""ArrowDown,ArrowLeft"":5,""ArrowDown,ArrowRight"":17}",20,,,False,8,385.0,112.0,ArrowUp,ArrowLeft,True,True,26.0,,15,True
23,23,178,3,value training,False,./assets/img/ocean/memory/27.jpg,ocean,26.0,False,True,revaluation,1.0,"{""ArrowUp,ArrowLeft"":26,""ArrowUp,ArrowRight"":10,""ArrowDown,ArrowLeft"":5,""ArrowDown,ArrowRight"":17}",21,,,False,8,352.79999999981374,167.20000000018626,ArrowUp,ArrowLeft,True,True,26.0,,20,True
25,25,182,3,value training,False,./assets/img/ocean/memory/24.jpg,ocean,26.0,False,True,revaluation,1.0,"{""ArrowUp,ArrowLeft"":26,""ArrowUp,ArrowRight"":10,""ArrowDown,ArrowLeft"":5,""ArrowDown,ArrowRight"":17}",22,,,False,8,823.3000000007451,286.5,ArrowUp,ArrowLeft,True,True,26.0,,20,True
26,26,184,3,value training,False,./assets/img/ocean/memory/7.jpg,ocean,26.0,False,True,revaluation,1.0,"{""ArrowUp,ArrowLeft"":26,""ArrowUp,ArrowRight"":10,""ArrowDown,ArrowLeft"":5,""ArrowDown,ArrowRight"":17}",23,,,False,8,470.5,326.20000000018626,ArrowUp,ArrowLeft,True,True,26.0,,20,True
27,27,186,3,value training,False,./assets/img/ocean/memory/1.jpg,ocean,26.0,False,True,revaluation,1.0,"{""ArrowUp,ArrowLeft"":26,""ArrowUp,ArrowRight"":10,""ArrowDown,ArrowLeft"":5,""ArrowDown,ArrowRight"":17}",24,,,False,8,479.09999999962747,429.40000000037253,ArrowUp,ArrowLeft,True,True,26.0,,20,True
28,28,188,3,value training,False,./assets/img/ocean/memory/6.jpg,ocean,26.0,False,True,revaluation,1.0,"{""ArrowUp,ArrowLeft"":26,""ArrowUp,ArrowRight"":10,""ArrowDown,ArrowLeft"":5,""ArrowDown,ArrowRight"":17}",25,,,False,8,541.8000000007451,245.5,ArrowUp,ArrowLeft,True,True,26.0,,20,True
29,29,190,3,value training,False,./assets/img/ocean/memory/16.jpg,ocean,26.0,False,True,revaluation,1.0,"{""ArrowUp,ArrowLeft"":26,""ArrowUp,ArrowRight"":10,""ArrowDown,ArrowLeft"":5,""ArrowDown,ArrowRight"":17}",26,,,False,8,421.90000000037253,245.20000000018626,ArrowUp,ArrowLeft,True,True,26.0,,25,True
31,31,194,3,value training,False,./assets/img/ocean/memory/31.jpg,ocean,26.0,False,True,revaluation,1.0,"{""ArrowUp,ArrowLeft"":26,""ArrowUp,ArrowRight"":10,""ArrowDown,ArrowLeft"":5,""ArrowDown,ArrowRight"":17}",27,,,False,8,613.3999999994412,228.90000000037253,ArrowUp,ArrowLeft,True,True,26.0,,25,True
32,32,196,3,value training,False,./assets/img/ocean/memory/3.jpg,ocean,26.0,False,True,revaluation,1.0,"{""ArrowUp,ArrowLeft"":26,""ArrowUp,ArrowRight"":10,""ArrowDown,ArrowLeft"":5,""ArrowDown,ArrowRight"":17}",28,,,False,8,499.79999999981374,251.40000000037253,ArrowUp,ArrowLeft,True,True,26.0,,25,True
33,33,198,3,value training,False,./assets/img/ocean/memory/41.jpg,ocean,26.0,False,True,revaluation,1.0,"{""ArrowUp,ArrowLeft"":26,""ArrowUp,ArrowRight"":10,""ArrowDown,ArrowLeft"":5,""ArrowDown,ArrowRight"":17}",29,,,False,8,427.6000000005588,170.29999999981374,ArrowUp,ArrowLeft,True,True,26.0,,25,True
34,34,200,3,value training,False,./assets/img/ocean/memory/26.jpg,ocean,26.0,False,True,revaluation,1.0,"{""ArrowUp,ArrowLeft"":26,""ArrowUp,ArrowRight"":10,""ArrowDown,ArrowLeft"":5,""ArrowDown,ArrowRight"":17}",30,,,False,8,402.6000000005588,218.1000000005588,ArrowUp,ArrowLeft,True,True,26.0,,25,True
36,36,204,3,value training,False,./assets/img/ocean/memory/34.jpg,ocean,26.0,False,True,revaluation,1.0,"{""ArrowUp,ArrowLeft"":26,""ArrowUp,ArrowRight"":10,""ArrowDown,ArrowLeft"":5,""ArrowDown,ArrowRight"":17}",31,,,False,8,466.09999999962747,225.5,ArrowUp,ArrowLeft,True,True,26.0,,30,True
37,37,206,3,value training,False,./assets/img/ocean/memory/7.jpg,ocean,26.0,False,True,revaluation,1.0,"{""ArrowUp,ArrowLeft"":26,""ArrowUp,ArrowRight"":10,""ArrowDown,ArrowLeft"":5,""ArrowDown,ArrowRight"":17}",32,,,False,8,1442.0999999996275,409.3999999994412,ArrowUp,ArrowLeft,True,True,26.0,,30,True
39,39,210,3,value training,False,./assets/img/ocean/memory/21.jpg,ocean,26.0,False,True,revaluation,1.0,"{""ArrowUp,ArrowLeft"":26,""ArrowUp,ArrowRight"":10,""ArrowDown,ArrowLeft"":5,""ArrowDown,ArrowRight"":17}",33,,,False,8,594.1999999992549,208.5,ArrowUp,ArrowLeft,True,True,26.0,,30,True
40,40,212,3,value training,False,./assets/img/ocean/memory/6.jpg,ocean,26.0,False,True,revaluation,1.0,"{""ArrowUp,ArrowLeft"":26,""ArrowUp,ArrowRight"":10,""ArrowDown,ArrowLeft"":5,""ArrowDown,ArrowRight"":17}",34,,,False,8,400.30000000074506,208.0,ArrowUp,ArrowLeft,True,True,26.0,,30,True
41,41,214,3,value training,False,./assets/img/ocean/memory/14.jpg,ocean,26.0,False,True,revaluation,1.0,"{""ArrowUp,ArrowLeft"":26,""ArrowUp,ArrowRight"":10,""ArrowDown,ArrowLeft"":5,""ArrowDown,ArrowRight"":17}",35,,,False,8,384.20000000018626,270.90000000037253,ArrowUp,ArrowLeft,True,True,26.0,,30,True
42,42,216,3,value training,False,./assets/img/ocean/memory/33.jpg,ocean,26.0,False,True,revaluation,1.0,"{""ArrowUp,ArrowLeft"":26,""ArrowUp,ArrowRight"":10,""ArrowDown,ArrowLeft"":5,""ArrowDown,ArrowRight"":17}",36,,,False,8,590.8000000007451,236.40000000037253,ArrowUp,ArrowLeft,True,True,26.0,,35,True
43,43,218,3,value training,False,./assets/img/ocean/memory/24.jpg,ocean,26.0,False,True,revaluation,1.0,"{""ArrowUp,ArrowLeft"":26,""ArrowUp,ArrowRight"":10,""ArrowDown,ArrowLeft"":5,""ArrowDown,ArrowRight"":17}",37,,,False,8,1085.4000000003725,755.4000000003725,ArrowUp,ArrowLeft,True,True,26.0,,35,True
44,44,220,3,value training,False,./assets/img/ocean/memory/14.jpg,ocean,26.0,False,True,revaluation,1.0,"{""ArrowUp,ArrowLeft"":26,""ArrowUp,ArrowRight"":10,""ArrowDown,ArrowLeft"":5,""ArrowDown,ArrowRight"":17}",38,,,False,8,594.0999999996275,177.79999999981374,ArrowUp,ArrowLeft,True,True,26.0,,35,True
45,45,222,3,value training,False,./assets/img/ocean/memory/29.jpg,ocean,26.0,False,True,revaluation,1.0,"{""ArrowUp,ArrowLeft"":26,""ArrowUp,ArrowRight"":10,""ArrowDown,ArrowLeft"":5,""ArrowDown,ArrowRight"":17}",39,,,False,8,458.3999999994412,257.8999999994412,ArrowUp,ArrowLeft,True,True,26.0,,35,True
47,47,226,3,value training,False,./assets/img/ocean/memory/23.jpg,ocean,26.0,False,True,revaluation,1.0,"{""ArrowUp,ArrowLeft"":26,""ArrowUp,ArrowRight"":10,""ArrowDown,ArrowLeft"":5,""ArrowDown,ArrowRight"":17}",40,,,False,8,609.6000000005588,527.9000000003725,ArrowUp,ArrowLeft,True,True,26.0,,35,True
48,48,228,3,value training,False,./assets/img/ocean/memory/34.jpg,ocean,26.0,False,True,revaluation,1.0,"{""ArrowUp,ArrowLeft"":26,""ArrowUp,ArrowRight"":10,""ArrowDown,ArrowLeft"":5,""ArrowDown,ArrowRight"":17}",41,,,False,8,446.90000000037253,221.6000000005588,ArrowUp,ArrowLeft,True,True,26.0,,40,True
49,49,230,3,value training,False,./assets/img/ocean/memory/29.jpg,ocean,26.0,False,True,revaluation,1.0,"{""ArrowUp,ArrowLeft"":26,""ArrowUp,ArrowRight"":10,""ArrowDown,ArrowLeft"":5,""ArrowDown,ArrowRight"":17}",42,,,False,8,358.19999999925494,229.0,ArrowUp,ArrowLeft,True,True,26.0,,40,True
80,80,312,3,value training,False,./assets/img/canyon/memory/1.jpg,canyon,10.0,False,False,original,2.0,"{""ArrowUp,ArrowLeft"":23,""ArrowUp,ArrowRight"":10,""ArrowDown,ArrowLeft"":8,""ArrowDown,ArrowRight"":30}",1,,,False,8,907.1000000005588,325.0,ArrowUp,ArrowRight,False,False,30.0,,0,False
81,81,314,3,value training,False,./assets/img/canyon/memory/24.jpg,canyon,23.0,False,False,original,2.0,"{""ArrowUp,ArrowLeft"":23,""ArrowUp,ArrowRight"":10,""ArrowDown,ArrowLeft"":8,""ArrowDown,ArrowRight"":30}",2,,,False,8,650.4000000003725,287.90000000037253,ArrowUp,ArrowLeft,False,True,30.0,,0,False
82,82,316,3,value training,False,./assets/img/canyon/memory/4.jpg,canyon,30.0,False,True,original,2.0,"{""ArrowUp,ArrowLeft"":23,""ArrowUp,ArrowRight"":10,""ArrowDown,ArrowLeft"":8,""ArrowDown,ArrowRight"":30}",3,,,False,8,429.0,386.90000000037253,ArrowDown,ArrowRight,True,True,30.0,,0,True
83,83,318,3,value training,False,./assets/img/canyon/memory/24.jpg,canyon,8.0,False,False,original,2.0,"{""ArrowUp,ArrowLeft"":23,""ArrowUp,ArrowRight"":10,""ArrowDown,ArrowLeft"":8,""ArrowDown,ArrowRight"":30}",4,,,False,8,598.3000000007451,287.0,ArrowDown,ArrowLeft,True,False,30.0,,0,False
85,85,322,3,value training,False,./assets/img/canyon/memory/41.jpg,canyon,30.0,False,True,original,2.0,"{""ArrowUp,ArrowLeft"":23,""ArrowUp,ArrowRight"":10,""ArrowDown,ArrowLeft"":8,""ArrowDown,ArrowRight"":30}",5,,,False,8,383.69999999925494,253.40000000037253,ArrowDown,ArrowRight,True,True,30.0,,0,True
86,86,324,3,value training,False,./assets/img/canyon/memory/23.jpg,canyon,30.0,False,True,original,2.0,"{""ArrowUp,ArrowLeft"":23,""ArrowUp,ArrowRight"":10,""ArrowDown,ArrowLeft"":8,""ArrowDown,ArrowRight"":30}",6,,,False,8,365.5,243.90000000037253,ArrowDown,ArrowRight,True,True,30.0,,5,True
87,87,326,3,value training,False,./assets/img/canyon/memory/31.jpg,canyon,30.0,False,True,original,2.0,"{""ArrowUp,ArrowLeft"":23,""ArrowUp,ArrowRight"":10,""ArrowDown,ArrowLeft"":8,""ArrowDown,ArrowRight"":30}",7,,,False,8,378.6000000005588,353.5,ArrowDown,ArrowRight,True,True,30.0,,5,True
88,88,328,3,value training,False,./assets/img/canyon/memory/35.jpg,canyon,30.0,False,True,original,2.0,"{""ArrowUp,ArrowLeft"":23,""ArrowUp,ArrowRight"":10,""ArrowDown,ArrowLeft"":8,""ArrowDown,ArrowRight"":30}",8,,,False,8,433.5,255.80000000074506,ArrowDown,ArrowRight,True,True,30.0,,5,True
89,89,330,3,value training,False,./assets/img/canyon/memory/27.jpg,canyon,30.0,False,True,original,2.0,"{""ArrowUp,ArrowLeft"":23,""ArrowUp,ArrowRight"":10,""ArrowDown,ArrowLeft"":8,""ArrowDown,ArrowRight"":30}",9,,,False,8,367.0,246.20000000018626,ArrowDown,ArrowRight,True,True,30.0,,5,True
90,90,332,3,value training,False,./assets/img/canyon/memory/41.jpg,canyon,30.0,False,True,original,2.0,"{""ArrowUp,ArrowLeft"":23,""ArrowUp,ArrowRight"":10,""ArrowDown,ArrowLeft"":8,""ArrowDown,ArrowRight"":30}",10,,,False,8,470.40000000037253,269.6000000005588,ArrowDown,ArrowRight,True,True,30.0,,5,True
91,91,334,3,value training,False,./assets/img/canyon/memory/31.jpg,canyon,30.0,False,True,original,2.0,"{""ArrowUp,ArrowLeft"":23,""ArrowUp,ArrowRight"":10,""ArrowDown,ArrowLeft"":8,""ArrowDown,ArrowRight"":30}",11,,,False,8,412.29999999981374,396.0,ArrowDown,ArrowRight,True,True,30.0,,10,True
92,92,336,3,value training,False,./assets/img/canyon/memory/23.jpg,canyon,30.0,False,True,original,2.0,"{""ArrowUp,ArrowLeft"":23,""ArrowUp,ArrowRight"":10,""ArrowDown,ArrowLeft"":8,""ArrowDown,ArrowRight"":30}",12,,,False,8,371.59999999962747,291.20000000018626,ArrowDown,ArrowRight,True,True,30.0,,10,True
93,93,338,3,value training,False,./assets/img/canyon/memory/21.jpg,canyon,30.0,False,True,original,2.0,"{""ArrowUp,ArrowLeft"":23,""ArrowUp,ArrowRight"":10,""ArrowDown,ArrowLeft"":8,""ArrowDown,ArrowRight"":30}",13,,,False,8,396.1000000005588,306.79999999981374,ArrowDown,ArrowRight,True,True,30.0,,10,True
94,94,340,3,value training,False,./assets/img/canyon/memory/1.jpg,canyon,30.0,False,True,original,2.0,"{""ArrowUp,ArrowLeft"":23,""ArrowUp,ArrowRight"":10,""ArrowDown,ArrowLeft"":8,""ArrowDown,ArrowRight"":30}",14,,,False,8,426.59999999962747,249.59999999962747,ArrowDown,ArrowRight,True,True,30.0,,10,True
95,95,342,3,value training,False,./assets/img/canyon/memory/3.jpg,canyon,30.0,False,True,original,2.0,"{""ArrowUp,ArrowLeft"":23,""ArrowUp,ArrowRight"":10,""ArrowDown,ArrowLeft"":8,""ArrowDown,ArrowRight"":30}",15,,,False,8,585.8000000007451,385.40000000037253,ArrowDown,ArrowRight,True,True,30.0,,10,True
96,96,344,3,value training,False,./assets/img/canyon/memory/7.jpg,canyon,30.0,False,True,original,2.0,"{""ArrowUp,ArrowLeft"":23,""ArrowUp,ArrowRight"":10,""ArrowDown,ArrowLeft"":8,""ArrowDown,ArrowRight"":30}",16,,,False,8,578.0,241.0,ArrowDown,ArrowRight,True,True,30.0,,15,True
97,97,346,3,value training,False,./assets/img/canyon/memory/34.jpg,canyon,30.0,False,True,original,2.0,"{""ArrowUp,ArrowLeft"":23,""ArrowUp,ArrowRight"":10,""ArrowDown,ArrowLeft"":8,""ArrowDown,ArrowRight"":30}",17,,,False,8,552.2999999998137,295.40000000037253,ArrowDown,ArrowRight,True,True,30.0,,15,True
98,98,348,3,value training,False,./assets/img/canyon/memory/29.jpg,canyon,30.0,False,True,original,2.0,"{""ArrowUp,ArrowLeft"":23,""ArrowUp,ArrowRight"":10,""ArrowDown,ArrowLeft"":8,""ArrowDown,ArrowRight"":30}",18,,,False,8,455.79999999981374,302.20000000018626,ArrowDown,ArrowRight,True,True,30.0,,15,True
99,99,350,3,value training,False,./assets/img/canyon/memory/26.jpg,canyon,30.0,False,True,original,2.0,"{""ArrowUp,ArrowLeft"":23,""ArrowUp,ArrowRight"":10,""ArrowDown,ArrowLeft"":8,""ArrowDown,ArrowRight"":30}",19,,,False,8,485.90000000037253,381.5,ArrowDown,ArrowRight,True,True,30.0,,15,True
100,100,352,3,value training,False,./assets/img/canyon/memory/26.jpg,canyon,30.0,False,True,original,2.0,"{""ArrowUp,ArrowLeft"":23,""ArrowUp,ArrowRight"":10,""ArrowDown,ArrowLeft"":8,""ArrowDown,ArrowRight"":30}",20,,,False,8,494.19999999925494,308.90000000037253,ArrowDown,ArrowRight,True,True,30.0,,15,True
101,101,354,3,value training,False,./assets/img/canyon/memory/6.jpg,canyon,30.0,False,True,original,2.0,"{""ArrowUp,ArrowLeft"":23,""ArrowUp,ArrowRight"":10,""ArrowDown,ArrowLeft"":8,""ArrowDown,ArrowRight"":30}",21,,,False,8,398.1000000005588,356.6000000005588,ArrowDown,ArrowRight,True,True,30.0,,20,True
102,102,356,3,value training,False,./assets/img/canyon/memory/13.jpg,canyon,30.0,False,True,original,2.0,"{""ArrowUp,ArrowLeft"":23,""ArrowUp,ArrowRight"":10,""ArrowDown,ArrowLeft"":8,""ArrowDown,ArrowRight"":30}",22,,,False,8,376.30000000074506,296.0,ArrowDown,ArrowRight,True,True,30.0,,20,True
103,103,358,3,value training,False,./assets/img/canyon/memory/35.jpg,canyon,30.0,False,True,original,2.0,"{""ArrowUp,ArrowLeft"":23,""ArrowUp,ArrowRight"":10,""ArrowDown,ArrowLeft"":8,""ArrowDown,ArrowRight"":30}",23,,,False,8,391.79999999981374,271.3999999994412,ArrowDown,ArrowRight,True,True,30.0,,20,True
104,104,360,3,value training,False,./assets/img/canyon/memory/29.jpg,canyon,30.0,False,True,original,2.0,"{""ArrowUp,ArrowLeft"":23,""ArrowUp,ArrowRight"":10,""ArrowDown,ArrowLeft"":8,""ArrowDown,ArrowRight"":30}",24,,,False,8,399.90000000037253,319.29999999981374,ArrowDown,ArrowRight,True,True,30.0,,20,True
105,105,362,3,value training,False,./assets/img/canyon/memory/6.jpg,canyon,30.0,False,True,original,2.0,"{""ArrowUp,ArrowLeft"":23,""ArrowUp,ArrowRight"":10,""ArrowDown,ArrowLeft"":8,""ArrowDown,ArrowRight"":30}",25,,,False,8,407.79999999981374,358.79999999981374,ArrowDown,ArrowRight,True,True,30.0,,20,True
106,106,364,3,value training,False,./assets/img/canyon/memory/27.jpg,canyon,30.0,False,True,original,2.0,"{""ArrowUp,ArrowLeft"":23,""ArrowUp,ArrowRight"":10,""ArrowDown,ArrowLeft"":8,""ArrowDown,ArrowRight"":30}",26,,,False,8,1031.5,423.1000000005588,ArrowDown,ArrowRight,True,True,30.0,,25,True
107,107,366,3,value training,False,./assets/img/canyon/memory/7.jpg,canyon,30.0,False,True,original,2.0,"{""ArrowUp,ArrowLeft"":23,""ArrowUp,ArrowRight"":10,""ArrowDown,ArrowLeft"":8,""ArrowDown,ArrowRight"":30}",27,,,False,8,463.20000000018626,333.5,ArrowDown,ArrowRight,True,True,30.0,,25,True
109,109,370,3,value training,False,./assets/img/canyon/memory/20.jpg,canyon,30.0,False,True,original,2.0,"{""ArrowUp,ArrowLeft"":23,""ArrowUp,ArrowRight"":10,""ArrowDown,ArrowLeft"":8,""ArrowDown,ArrowRight"":30}",28,,,False,8,380.20000000018626,219.90000000037253,ArrowDown,ArrowRight,True,True,30.0,,25,True
110,110,372,3,value training,False,./assets/img/canyon/memory/33.jpg,canyon,30.0,False,True,original,2.0,"{""ArrowUp,ArrowLeft"":23,""ArrowUp,ArrowRight"":10,""ArrowDown,ArrowLeft"":8,""ArrowDown,ArrowRight"":30}",29,,,False,8,387.79999999981374,203.29999999981374,ArrowDown,ArrowRight,True,True,30.0,,25,True
112,112,376,3,value training,False,./assets/img/canyon/memory/14.jpg,canyon,30.0,False,True,original,2.0,"{""ArrowUp,ArrowLeft"":23,""ArrowUp,ArrowRight"":10,""ArrowDown,ArrowLeft"":8,""ArrowDown,ArrowRight"":30}",30,,,False,8,423.0,206.0,ArrowDown,ArrowRight,True,True,30.0,,25,True
113,113,378,3,value training,False,./assets/img/canyon/memory/33.jpg,canyon,30.0,False,True,original,2.0,"{""ArrowUp,ArrowLeft"":23,""ArrowUp,ArrowRight"":10,""ArrowDown,ArrowLeft"":8,""ArrowDown,ArrowRight"":30}",31,,,False,8,350.0,228.8999999994412,ArrowDown,ArrowRight,True,True,30.0,,30,True
114,114,380,3,value training,False,./assets/img/canyon/memory/4.jpg,canyon,30.0,False,True,original,2.0,"{""ArrowUp,ArrowLeft"":23,""ArrowUp,ArrowRight"":10,""ArrowDown,ArrowLeft"":8,""ArrowDown,ArrowRight"":30}",32,,,False,8,517.7000000001863,652.2999999998137,ArrowDown,ArrowRight,True,True,30.0,,30,True
116,116,384,3,value training,False,./assets/img/canyon/memory/14.jpg,canyon,30.0,False,True,original,2.0,"{""ArrowUp,ArrowLeft"":23,""ArrowUp,ArrowRight"":10,""ArrowDown,ArrowLeft"":8,""ArrowDown,ArrowRight"":30}",33,,,False,8,516.3999999994412,331.59999999962747,ArrowDown,ArrowRight,True,True,30.0,,30,True
117,117,386,3,value training,False,./assets/img/canyon/memory/34.jpg,canyon,30.0,False,True,original,2.0,"{""ArrowUp,ArrowLeft"":23,""ArrowUp,ArrowRight"":10,""ArrowDown,ArrowLeft"":8,""ArrowDown,ArrowRight"":30}",34,,,False,8,459.09999999962747,241.5,ArrowDown,ArrowRight,True,True,30.0,,30,True
118,118,388,3,value training,False,./assets/img/canyon/memory/21.jpg,canyon,30.0,False,True,original,2.0,"{""ArrowUp,ArrowLeft"":23,""ArrowUp,ArrowRight"":10,""ArrowDown,ArrowLeft"":8,""ArrowDown,ArrowRight"":30}",35,,,False,8,465.29999999981374,248.30000000074506,ArrowDown,ArrowRight,True,True,30.0,,30,True
120,120,392,3,value training,False,./assets/img/canyon/memory/8.jpg,canyon,30.0,False,True,original,2.0,"{""ArrowUp,ArrowLeft"":23,""ArrowUp,ArrowRight"":10,""ArrowDown,ArrowLeft"":8,""ArrowDown,ArrowRight"":30}",36,,,False,8,767.1000000005588,294.40000000037253,ArrowDown,ArrowRight,True,True,30.0,,35,True
121,121,394,3,value training,False,./assets/img/canyon/memory/3.jpg,canyon,30.0,False,True,original,2.0,"{""ArrowUp,ArrowLeft"":23,""ArrowUp,ArrowRight"":10,""ArrowDown,ArrowLeft"":8,""ArrowDown,ArrowRight"":30}",37,,,False,8,471.0,229.70000000018626,ArrowDown,ArrowRight,True,True,30.0,,35,True
122,122,396,3,value training,False,./assets/img/canyon/memory/8.jpg,canyon,30.0,False,True,original,2.0,"{""ArrowUp,ArrowLeft"":23,""ArrowUp,ArrowRight"":10,""ArrowDown,ArrowLeft"":8,""ArrowDown,ArrowRight"":30}",38,,,False,8,444.59999999962747,243.19999999925494,ArrowDown,ArrowRight,True,True,30.0,,35,True
123,123,398,3,value training,False,./assets/img/canyon/memory/20.jpg,canyon,30.0,False,True,original,2.0,"{""ArrowUp,ArrowLeft"":23,""ArrowUp,ArrowRight"":10,""ArrowDown,ArrowLeft"":8,""ArrowDown,ArrowRight"":30}",39,,,False,8,523.5,251.20000000018626,ArrowDown,ArrowRight,True,True,30.0,,35,True
126,126,404,3,value training,False,./assets/img/canyon/memory/16.jpg,canyon,30.0,False,True,original,2.0,"{""ArrowUp,ArrowLeft"":23,""ArrowUp,ArrowRight"":10,""ArrowDown,ArrowLeft"":8,""ArrowDown,ArrowRight"":30}",40,,,False,8,594.5,225.79999999981374,ArrowDown,ArrowRight,True,True,30.0,,35,True
128,128,408,3,value training,False,./assets/img/canyon/memory/16.jpg,canyon,30.0,False,True,original,2.0,"{""ArrowUp,ArrowLeft"":23,""ArrowUp,ArrowRight"":10,""ArrowDown,ArrowLeft"":8,""ArrowDown,ArrowRight"":30}",41,,,False,8,465.5,229.29999999981374,ArrowDown,ArrowRight,True,True,30.0,,40,True
129,129,410,3,value training,False,./assets/img/canyon/memory/13.jpg,canyon,30.0,False,True,original,2.0,"{""ArrowUp,ArrowLeft"":23,""ArrowUp,ArrowRight"":10,""ArrowDown,ArrowLeft"":8,""ArrowDown,ArrowRight"":30}",42,,,False,8,598.2000000001863,341.29999999981374,ArrowDown,ArrowRight,True,True,30.0,,40,True
160,0,136,5,value training,False,./assets/img/ocean/memory/27.jpg,ocean,8.0,False,False,revaluation,1.0,"{""ArrowUp,ArrowLeft"":23,""ArrowUp,ArrowRight"":10,""ArrowDown,ArrowLeft"":8,""ArrowDown,ArrowRight"":30}",1,,,True,2,994.5999999940395,523.6999999880791,ArrowDown,ArrowLeft,True,False,30.0,,0,False
161,1,138,5,value training,False,./assets/img/ocean/memory/15.jpg,ocean,30.0,False,True,revaluation,1.0,"{""ArrowUp,ArrowLeft"":23,""ArrowUp,ArrowRight"":10,""ArrowDown,ArrowLeft"":8,""ArrowDown,ArrowRight"":30}",2,,,True,2,646.0,339.20000000298023,ArrowDown,ArrowRight,True,True,30.0,,0,True
162,2,140,5,value training,False,./assets/img/ocean/memory/3.jpg,ocean,23.0,False,False,revaluation,1.0,"{""ArrowUp,ArrowLeft"":23,""ArrowUp,ArrowRight"":10,""ArrowDown,ArrowLeft"":8,""ArrowDown,ArrowRight"":30}",3,,,True,2,602.2999999970198,416.6000000089407,ArrowUp,ArrowLeft,False,True,30.0,,0,False
163,3,142,5,value training,False,./assets/img/ocean/memory/7.jpg,ocean,10.0,False,False,revaluation,1.0,"{""ArrowUp,ArrowLeft"":23,""ArrowUp,ArrowRight"":10,""ArrowDown,ArrowLeft"":8,""ArrowDown,ArrowRight"":30}",4,,,True,2,517.3999999910593,342.79999999701977,ArrowUp,ArrowRight,False,False,30.0,,0,False
164,4,144,5,value training,False,./assets/img/ocean/memory/41.jpg,ocean,30.0,False,True,revaluation,1.0,"{""ArrowUp,ArrowLeft"":23,""ArrowUp,ArrowRight"":10,""ArrowDown,ArrowLeft"":8,""ArrowDown,ArrowRight"":30}",5,,,True,2,522.3999999910593,343.29999999701977,ArrowDown,ArrowRight,True,True,30.0,,0,True
165,5,146,5,value training,False,./assets/img/ocean/memory/9.jpg,ocean,30.0,False,True,revaluation,1.0,"{""ArrowUp,ArrowLeft"":23,""ArrowUp,ArrowRight"":10,""ArrowDown,ArrowLeft"":8,""ArrowDown,ArrowRight"":30}",6,,,True,2,426.0,403.5,ArrowDown,ArrowRight,True,True,30.0,,5,True
166,6,148,5,value training,False,./assets/img/ocean/memory/34.jpg,ocean,30.0,False,True,revaluation,1.0,"{""ArrowUp,ArrowLeft"":23,""ArrowUp,ArrowRight"":10,""ArrowDown,ArrowLeft"":8,""ArrowDown,ArrowRight"":30}",7,,,True,2,464.5,429.1000000089407,ArrowDown,ArrowRight,True,True,30.0,,5,True
168,8,152,5,value training,False,./assets/img/ocean/memory/34.jpg,ocean,30.0,False,True,revaluation,1.0,"{""ArrowUp,ArrowLeft"":23,""ArrowUp,ArrowRight"":10,""ArrowDown,ArrowLeft"":8,""ArrowDown,ArrowRight"":30}",8,,,True,2,595.3999999910593,338.20000000298023,ArrowDown,ArrowRight,True,True,30.0,,5,True
169,9,154,5,value training,False,./assets/img/ocean/memory/26.jpg,ocean,30.0,False,True,revaluation,1.0,"{""ArrowUp,ArrowLeft"":23,""ArrowUp,ArrowRight"":10,""ArrowDown,ArrowLeft"":8,""ArrowDown,ArrowRight"":30}",9,,,True,2,839.3999999910593,404.59999999403954,ArrowDown,ArrowRight,True,True,30.0,,5,True
170,10,156,5,value training,False,./assets/img/ocean/memory/1.jpg,ocean,30.0,False,True,revaluation,1.0,"{""ArrowUp,ArrowLeft"":23,""ArrowUp,ArrowRight"":10,""ArrowDown,ArrowLeft"":8,""ArrowDown,ArrowRight"":30}",10,,,True,2,608.0,376.90000000596046,ArrowDown,ArrowRight,True,True,30.0,,5,True
172,12,160,5,value training,False,./assets/img/ocean/memory/36.jpg,ocean,30.0,False,True,revaluation,1.0,"{""ArrowUp,ArrowLeft"":23,""ArrowUp,ArrowRight"":10,""ArrowDown,ArrowLeft"":8,""ArrowDown,ArrowRight"":30}",11,,,True,2,744.7000000029802,313.79999999701977,ArrowDown,ArrowRight,True,True,30.0,,10,True
174,14,164,5,value training,False,./assets/img/ocean/memory/2.jpg,ocean,30.0,False,True,revaluation,1.0,"{""ArrowUp,ArrowLeft"":23,""ArrowUp,ArrowRight"":10,""ArrowDown,ArrowLeft"":8,""ArrowDown,ArrowRight"":30}",12,,,True,2,669.5,378.8999999910593,ArrowDown,ArrowRight,True,True,30.0,,10,True
175,15,166,5,value training,False,./assets/img/ocean/memory/27.jpg,ocean,30.0,False,True,revaluation,1.0,"{""ArrowUp,ArrowLeft"":23,""ArrowUp,ArrowRight"":10,""ArrowDown,ArrowLeft"":8,""ArrowDown,ArrowRight"":30}",13,,,True,2,841.2000000029802,369.79999999701977,ArrowDown,ArrowRight,True,True,30.0,,10,True
176,16,168,5,value training,False,./assets/img/ocean/memory/28.jpg,ocean,30.0,False,True,revaluation,1.0,"{""ArrowUp,ArrowLeft"":23,""ArrowUp,ArrowRight"":10,""ArrowDown,ArrowLeft"":8,""ArrowDown,ArrowRight"":30}",14,,,True,2,923.0999999940395,393.29999999701977,ArrowDown,ArrowRight,True,True,30.0,,10,True
177,17,170,5,value training,False,./assets/img/ocean/memory/23.jpg,ocean,30.0,False,True,revaluation,1.0,"{""ArrowUp,ArrowLeft"":23,""ArrowUp,ArrowRight"":10,""ArrowDown,ArrowLeft"":8,""ArrowDown,ArrowRight"":30}",15,,,True,2,826.1999999880791,430.70000000298023,ArrowDown,ArrowRight,True,True,30.0,,10,True
178,18,172,5,value training,False,./assets/img/ocean/memory/13.jpg,ocean,30.0,False,True,revaluation,1.0,"{""ArrowUp,ArrowLeft"":23,""ArrowUp,ArrowRight"":10,""ArrowDown,ArrowLeft"":8,""ArrowDown,ArrowRight"":30}",16,,,True,2,879.1000000089407,387.0,ArrowDown,ArrowRight,True,True,30.0,,15,True
179,19,174,5,value training,False,./assets/img/ocean/memory/30.jpg,ocean,30.0,False,True,revaluation,1.0,"{""ArrowUp,ArrowLeft"":23,""ArrowUp,ArrowRight"":10,""ArrowDown,ArrowLeft"":8,""ArrowDown,ArrowRight"":30}",17,,,True,2,972.5,425.20000000298023,ArrowDown,ArrowRight,True,True,30.0,,15,True
180,20,176,5,value training,False,./assets/img/ocean/memory/6.jpg,ocean,30.0,False,True,revaluation,1.0,"{""ArrowUp,ArrowLeft"":23,""ArrowUp,ArrowRight"":10,""ArrowDown,ArrowLeft"":8,""ArrowDown,ArrowRight"":30}",18,,,True,2,853.2000000029802,444.20000000298023,ArrowDown,ArrowRight,True,True,30.0,,15,True
181,21,178,5,value training,False,./assets/img/ocean/memory/22.jpg,ocean,30.0,False,True,revaluation,1.0,"{""ArrowUp,ArrowLeft"":23,""ArrowUp,ArrowRight"":10,""ArrowDown,ArrowLeft"":8,""ArrowDown,ArrowRight"":30}",19,,,True,2,1008.3000000119209,532.0999999940395,ArrowDown,ArrowRight,True,True,30.0,,15,True
183,23,182,5,value training,False,./assets/img/ocean/memory/28.jpg,ocean,30.0,False,True,revaluation,1.0,"{""ArrowUp,ArrowLeft"":23,""ArrowUp,ArrowRight"":10,""ArrowDown,ArrowLeft"":8,""ArrowDown,ArrowRight"":30}",20,,,True,2,791.2999999970198,455.20000000298023,ArrowDown,ArrowRight,True,True,30.0,,15,True
184,24,184,5,value training,False,./assets/img/ocean/memory/40.jpg,ocean,30.0,False,True,revaluation,1.0,"{""ArrowUp,ArrowLeft"":23,""ArrowUp,ArrowRight"":10,""ArrowDown,ArrowLeft"":8,""ArrowDown,ArrowRight"":30}",21,,,True,2,925.6000000089407,359.40000000596046,ArrowDown,ArrowRight,True,True,30.0,,20,True
185,25,186,5,value training,False,./assets/img/ocean/memory/2.jpg,ocean,30.0,False,True,revaluation,1.0,"{""ArrowUp,ArrowLeft"":23,""ArrowUp,ArrowRight"":10,""ArrowDown,ArrowLeft"":8,""ArrowDown,ArrowRight"":30}",22,,,True,2,836.5,398.70000000298023,ArrowDown,ArrowRight,True,True,30.0,,20,True
186,26,188,5,value training,False,./assets/img/ocean/memory/25.jpg,ocean,30.0,False,True,revaluation,1.0,"{""ArrowUp,ArrowLeft"":23,""ArrowUp,ArrowRight"":10,""ArrowDown,ArrowLeft"":8,""ArrowDown,ArrowRight"":30}",23,,,True,2,908.0,441.09999999403954,ArrowDown,ArrowRight,True,True,30.0,,20,True
188,28,192,5,value training,False,./assets/img/ocean/memory/14.jpg,ocean,30.0,False,True,revaluation,1.0,"{""ArrowUp,ArrowLeft"":23,""ArrowUp,ArrowRight"":10,""ArrowDown,ArrowLeft"":8,""ArrowDown,ArrowRight"":30}",24,,,True,2,1176.7999999970198,525.4000000059605,ArrowDown,ArrowRight,True,True,30.0,,20,True
190,30,196,5,value training,False,./assets/img/ocean/memory/40.jpg,ocean,30.0,False,True,revaluation,1.0,"{""ArrowUp,ArrowLeft"":23,""ArrowUp,ArrowRight"":10,""ArrowDown,ArrowLeft"":8,""ArrowDown,ArrowRight"":30}",25,,,True,2,607.5999999940395,421.5,ArrowDown,ArrowRight,True,True,30.0,,20,True
191,31,198,5,value training,False,./assets/img/ocean/memory/9.jpg,ocean,30.0,False,True,revaluation,1.0,"{""ArrowUp,ArrowLeft"":23,""ArrowUp,ArrowRight"":10,""ArrowDown,ArrowLeft"":8,""ArrowDown,ArrowRight"":30}",26,,,True,2,784.1000000089407,384.5,ArrowDown,ArrowRight,True,True,30.0,,25,True
192,32,200,5,value training,False,./assets/img/ocean/memory/3.jpg,ocean,30.0,False,True,revaluation,1.0,"{""ArrowUp,ArrowLeft"":23,""ArrowUp,ArrowRight"":10,""ArrowDown,ArrowLeft"":8,""ArrowDown,ArrowRight"":30}",27,,,True,2,905.7999999970198,344.6000000089407,ArrowDown,ArrowRight,True,True,30.0,,25,True
193,33,202,5,value training,False,./assets/img/ocean/memory/41.jpg,ocean,30.0,False,True,revaluation,1.0,"{""ArrowUp,ArrowLeft"":23,""ArrowUp,ArrowRight"":10,""ArrowDown,ArrowLeft"":8,""ArrowDown,ArrowRight"":30}",28,,,True,2,684.9000000059605,372.90000000596046,ArrowDown,ArrowRight,True,True,30.0,,25,True
194,34,204,5,value training,False,./assets/img/ocean/memory/1.jpg,ocean,30.0,False,True,revaluation,1.0,"{""ArrowUp,ArrowLeft"":23,""ArrowUp,ArrowRight"":10,""ArrowDown,ArrowLeft"":8,""ArrowDown,ArrowRight"":30}",29,,,True,2,666.2000000029802,427.8999999910593,ArrowDown,ArrowRight,True,True,30.0,,25,True
195,35,206,5,value training,False,./assets/img/ocean/memory/36.jpg,ocean,30.0,False,True,revaluation,1.0,"{""ArrowUp,ArrowLeft"":23,""ArrowUp,ArrowRight"":10,""ArrowDown,ArrowLeft"":8,""ArrowDown,ArrowRight"":30}",30,,,True,2,561.7000000029802,338.0,ArrowDown,ArrowRight,True,True,30.0,,25,True
197,37,210,5,value training,False,./assets/img/ocean/memory/22.jpg,ocean,30.0,False,True,revaluation,1.0,"{""ArrowUp,ArrowLeft"":23,""ArrowUp,ArrowRight"":10,""ArrowDown,ArrowLeft"":8,""ArrowDown,ArrowRight"":30}",31,,,True,2,617.7999999970198,474.59999999403954,ArrowDown,ArrowRight,True,True,30.0,,30,True
198,38,212,5,value training,False,./assets/img/ocean/memory/23.jpg,ocean,30.0,False,True,revaluation,1.0,"{""ArrowUp,ArrowLeft"":23,""ArrowUp,ArrowRight"":10,""ArrowDown,ArrowLeft"":8,""ArrowDown,ArrowRight"":30}",32,,,True,2,610.0999999940395,345.79999999701977,ArrowDown,ArrowRight,True,True,30.0,,30,True
199,39,214,5,value training,False,./assets/img/ocean/memory/30.jpg,ocean,30.0,False,True,revaluation,1.0,"{""ArrowUp,ArrowLeft"":23,""ArrowUp,ArrowRight"":10,""ArrowDown,ArrowLeft"":8,""ArrowDown,ArrowRight"":30}",33,,,True,2,768.9000000059605,347.0,ArrowDown,ArrowRight,True,True,30.0,,30,True
200,40,216,5,value training,False,./assets/img/ocean/memory/16.jpg,ocean,30.0,False,True,revaluation,1.0,"{""ArrowUp,ArrowLeft"":23,""ArrowUp,ArrowRight"":10,""ArrowDown,ArrowLeft"":8,""ArrowDown,ArrowRight"":30}",34,,,True,2,896.0,339.70000000298023,ArrowDown,ArrowRight,True,True,30.0,,30,True
201,41,218,5,value training,False,./assets/img/ocean/memory/16.jpg,ocean,30.0,False,True,revaluation,1.0,"{""ArrowUp,ArrowLeft"":23,""ArrowUp,ArrowRight"":10,""ArrowDown,ArrowLeft"":8,""ArrowDown,ArrowRight"":30}",35,,,True,2,683.6000000089407,444.20000000298023,ArrowDown,ArrowRight,True,True,30.0,,30,True
202,42,220,5,value training,False,./assets/img/ocean/memory/25.jpg,ocean,30.0,False,True,revaluation,1.0,"{""ArrowUp,ArrowLeft"":23,""ArrowUp,ArrowRight"":10,""ArrowDown,ArrowLeft"":8,""ArrowDown,ArrowRight"":30}",36,,,True,2,659.5,352.5,ArrowDown,ArrowRight,True,True,30.0,,35,True
203,43,222,5,value training,False,./assets/img/ocean/memory/14.jpg,ocean,30.0,False,True,revaluation,1.0,"{""ArrowUp,ArrowLeft"":23,""ArrowUp,ArrowRight"":10,""ArrowDown,ArrowLeft"":8,""ArrowDown,ArrowRight"":30}",37,,,True,2,799.2999999970198,373.69999998807907,ArrowDown,ArrowRight,True,True,30.0,,35,True
204,44,224,5,value training,False,./assets/img/ocean/memory/6.jpg,ocean,30.0,False,True,revaluation,1.0,"{""ArrowUp,ArrowLeft"":23,""ArrowUp,ArrowRight"":10,""ArrowDown,ArrowLeft"":8,""ArrowDown,ArrowRight"":30}",38,,,True,2,698.0,358.5,ArrowDown,ArrowRight,True,True,30.0,,35,True
205,45,226,5,value training,False,./assets/img/ocean/memory/15.jpg,ocean,30.0,False,True,revaluation,1.0,"{""ArrowUp,ArrowLeft"":23,""ArrowUp,ArrowRight"":10,""ArrowDown,ArrowLeft"":8,""ArrowDown,ArrowRight"":30}",39,,,True,2,1012.7999999970198,414.40000000596046,ArrowDown,ArrowRight,True,True,30.0,,35,True
206,46,228,5,value training,False,./assets/img/ocean/memory/13.jpg,ocean,30.0,False,True,revaluation,1.0,"{""ArrowUp,ArrowLeft"":23,""ArrowUp,ArrowRight"":10,""ArrowDown,ArrowLeft"":8,""ArrowDown,ArrowRight"":30}",40,,,True,2,574.8999999910593,389.0,ArrowDown,ArrowRight,True,True,30.0,,35,True
207,47,230,5,value training,False,./assets/img/ocean/memory/7.jpg,ocean,30.0,False,True,revaluation,1.0,"{""ArrowUp,ArrowLeft"":23,""ArrowUp,ArrowRight"":10,""ArrowDown,ArrowLeft"":8,""ArrowDown,ArrowRight"":30}",41,,,True,2,586.0999999940395,441.59999999403954,ArrowDown,ArrowRight,True,True,30.0,,40,True
209,49,234,5,value training,False,./assets/img/ocean/memory/26.jpg,ocean,30.0,False,True,revaluation,1.0,"{""ArrowUp,ArrowLeft"":23,""ArrowUp,ArrowRight"":10,""ArrowDown,ArrowLeft"":8,""ArrowDown,ArrowRight"":30}",42,,,True,2,697.7999999970198,349.29999999701977,ArrowDown,ArrowRight,True,True,30.0,,40,True
240,80,318,5,value training,False,./assets/img/canyon/memory/36.jpg,canyon,10.0,False,False,original,2.0,"{""ArrowUp,ArrowLeft"":26,""ArrowUp,ArrowRight"":10,""ArrowDown,ArrowLeft"":5,""ArrowDown,ArrowRight"":17}",1,,,True,2,825.1000000089407,421.09999999403954,ArrowUp,ArrowRight,True,False,26.0,,0,False
241,81,320,5,value training,False,./assets/img/canyon/memory/1.jpg,canyon,26.0,False,True,original,2.0,"{""ArrowUp,ArrowLeft"":26,""ArrowUp,ArrowRight"":10,""ArrowDown,ArrowLeft"":5,""ArrowDown,ArrowRight"":17}",2,,,True,2,614.4000000059605,362.5,ArrowUp,ArrowLeft,True,True,26.0,,0,True
242,82,322,5,value training,False,./assets/img/canyon/memory/3.jpg,canyon,5.0,False,False,original,2.0,"{""ArrowUp,ArrowLeft"":26,""ArrowUp,ArrowRight"":10,""ArrowDown,ArrowLeft"":5,""ArrowDown,ArrowRight"":17}",3,,,True,2,676.2000000029802,391.0,ArrowDown,ArrowLeft,False,False,26.0,,0,False
243,83,324,5,value training,False,./assets/img/canyon/memory/27.jpg,canyon,17.0,False,False,original,2.0,"{""ArrowUp,ArrowLeft"":26,""ArrowUp,ArrowRight"":10,""ArrowDown,ArrowLeft"":5,""ArrowDown,ArrowRight"":17}",4,,,True,2,640.6000000089407,329.59999999403954,ArrowDown,ArrowRight,False,True,26.0,,0,False
244,84,326,5,value training,False,./assets/img/canyon/memory/13.jpg,canyon,26.0,False,True,original,2.0,"{""ArrowUp,ArrowLeft"":26,""ArrowUp,ArrowRight"":10,""ArrowDown,ArrowLeft"":5,""ArrowDown,ArrowRight"":17}",5,,,True,2,584.2000000029802,326.20000000298023,ArrowUp,ArrowLeft,True,True,26.0,,0,True
246,86,330,5,value training,False,./assets/img/canyon/memory/2.jpg,canyon,26.0,False,True,original,2.0,"{""ArrowUp,ArrowLeft"":26,""ArrowUp,ArrowRight"":10,""ArrowDown,ArrowLeft"":5,""ArrowDown,ArrowRight"":17}",6,,,True,2,621.4000000059605,287.90000000596046,ArrowUp,ArrowLeft,True,True,26.0,,5,True
247,87,332,5,value training,False,./assets/img/canyon/memory/23.jpg,canyon,26.0,False,True,original,2.0,"{""ArrowUp,ArrowLeft"":26,""ArrowUp,ArrowRight"":10,""ArrowDown,ArrowLeft"":5,""ArrowDown,ArrowRight"":17}",7,,,True,2,779.7000000029802,490.1000000089407,ArrowUp,ArrowLeft,True,True,26.0,,5,True
248,88,334,5,value training,False,./assets/img/canyon/memory/30.jpg,canyon,26.0,False,True,original,2.0,"{""ArrowUp,ArrowLeft"":26,""ArrowUp,ArrowRight"":10,""ArrowDown,ArrowLeft"":5,""ArrowDown,ArrowRight"":17}",8,,,True,2,745.7000000029802,441.79999999701977,ArrowUp,ArrowLeft,True,True,26.0,,5,True
249,89,336,5,value training,False,./assets/img/canyon/memory/27.jpg,canyon,26.0,False,True,original,2.0,"{""ArrowUp,ArrowLeft"":26,""ArrowUp,ArrowRight"":10,""ArrowDown,ArrowLeft"":5,""ArrowDown,ArrowRight"":17}",9,,,True,2,662.7999999970198,292.79999999701977,ArrowUp,ArrowLeft,True,True,26.0,,5,True
250,90,338,5,value training,False,./assets/img/canyon/memory/34.jpg,canyon,26.0,False,True,original,2.0,"{""ArrowUp,ArrowLeft"":26,""ArrowUp,ArrowRight"":10,""ArrowDown,ArrowLeft"":5,""ArrowDown,ArrowRight"":17}",10,,,True,2,883.2999999970198,466.79999999701977,ArrowUp,ArrowLeft,True,True,26.0,,5,True
252,92,342,5,value training,False,./assets/img/canyon/memory/2.jpg,canyon,26.0,False,True,original,2.0,"{""ArrowUp,ArrowLeft"":26,""ArrowUp,ArrowRight"":10,""ArrowDown,ArrowLeft"":5,""ArrowDown,ArrowRight"":17}",11,,,True,2,856.0999999940395,379.29999999701977,ArrowUp,ArrowLeft,True,True,26.0,,10,True
253,93,344,5,value training,False,./assets/img/canyon/memory/13.jpg,canyon,26.0,False,True,original,2.0,"{""ArrowUp,ArrowLeft"":26,""ArrowUp,ArrowRight"":10,""ArrowDown,ArrowLeft"":5,""ArrowDown,ArrowRight"":17}",12,,,True,2,574.7000000029802,318.79999999701977,ArrowUp,ArrowLeft,True,True,26.0,,10,True
254,94,346,5,value training,False,./assets/img/canyon/memory/25.jpg,canyon,26.0,False,True,original,2.0,"{""ArrowUp,ArrowLeft"":26,""ArrowUp,ArrowRight"":10,""ArrowDown,ArrowLeft"":5,""ArrowDown,ArrowRight"":17}",13,,,True,2,537.5,322.80000001192093,ArrowUp,ArrowLeft,True,True,26.0,,10,True
255,95,348,5,value training,False,./assets/img/canyon/memory/7.jpg,canyon,26.0,False,True,original,2.0,"{""ArrowUp,ArrowLeft"":26,""ArrowUp,ArrowRight"":10,""ArrowDown,ArrowLeft"":5,""ArrowDown,ArrowRight"":17}",14,,,True,2,540.2999999970198,400.59999999403954,ArrowUp,ArrowLeft,True,True,26.0,,10,True
256,96,350,5,value training,False,./assets/img/canyon/memory/9.jpg,canyon,26.0,False,True,original,2.0,"{""ArrowUp,ArrowLeft"":26,""ArrowUp,ArrowRight"":10,""ArrowDown,ArrowLeft"":5,""ArrowDown,ArrowRight"":17}",15,,,True,2,553.5,432.5,ArrowUp,ArrowLeft,True,True,26.0,,10,True
257,97,352,5,value training,False,./assets/img/canyon/memory/26.jpg,canyon,26.0,False,True,original,2.0,"{""ArrowUp,ArrowLeft"":26,""ArrowUp,ArrowRight"":10,""ArrowDown,ArrowLeft"":5,""ArrowDown,ArrowRight"":17}",16,,,True,2,845.0,495.29999999701977,ArrowUp,ArrowLeft,True,True,26.0,,15,True
258,98,354,5,value training,False,./assets/img/canyon/memory/9.jpg,canyon,26.0,False,True,original,2.0,"{""ArrowUp,ArrowLeft"":26,""ArrowUp,ArrowRight"":10,""ArrowDown,ArrowLeft"":5,""ArrowDown,ArrowRight"":17}",17,,,True,2,870.3000000119209,454.20000000298023,ArrowUp,ArrowLeft,True,True,26.0,,15,True
259,99,356,5,value training,False,./assets/img/canyon/memory/15.jpg,canyon,26.0,False,True,original,2.0,"{""ArrowUp,ArrowLeft"":26,""ArrowUp,ArrowRight"":10,""ArrowDown,ArrowLeft"":5,""ArrowDown,ArrowRight"":17}",18,,,True,2,809.0,307.59999999403954,ArrowUp,ArrowLeft,True,True,26.0,,15,True
260,100,358,5,value training,False,./assets/img/canyon/memory/14.jpg,canyon,26.0,False,True,original,2.0,"{""ArrowUp,ArrowLeft"":26,""ArrowUp,ArrowRight"":10,""ArrowDown,ArrowLeft"":5,""ArrowDown,ArrowRight"":17}",19,,,True,2,768.4000000059605,386.3999999910593,ArrowUp,ArrowLeft,True,True,26.0,,15,True
262,102,362,5,value training,False,./assets/img/canyon/memory/1.jpg,canyon,26.0,False,True,original,2.0,"{""ArrowUp,ArrowLeft"":26,""ArrowUp,ArrowRight"":10,""ArrowDown,ArrowLeft"":5,""ArrowDown,ArrowRight"":17}",20,,,True,2,660.5,370.1000000089407,ArrowUp,ArrowLeft,True,True,26.0,,15,True
263,103,364,5,value training,False,./assets/img/canyon/memory/3.jpg,canyon,26.0,False,True,original,2.0,"{""ArrowUp,ArrowLeft"":26,""ArrowUp,ArrowRight"":10,""ArrowDown,ArrowLeft"":5,""ArrowDown,ArrowRight"":17}",21,,,True,2,683.4000000059605,486.70000000298023,ArrowUp,ArrowLeft,True,True,26.0,,20,True
264,104,366,5,value training,False,./assets/img/canyon/memory/22.jpg,canyon,26.0,False,True,original,2.0,"{""ArrowUp,ArrowLeft"":26,""ArrowUp,ArrowRight"":10,""ArrowDown,ArrowLeft"":5,""ArrowDown,ArrowRight"":17}",22,,,True,2,720.7000000029802,381.5,ArrowUp,ArrowLeft,True,True,26.0,,20,True
265,105,368,5,value training,False,./assets/img/canyon/memory/25.jpg,canyon,26.0,False,True,original,2.0,"{""ArrowUp,ArrowLeft"":26,""ArrowUp,ArrowRight"":10,""ArrowDown,ArrowLeft"":5,""ArrowDown,ArrowRight"":17}",23,,,True,2,641.2999999970198,431.70000000298023,ArrowUp,ArrowLeft,True,True,26.0,,20,True
266,106,370,5,value training,False,./assets/img/canyon/memory/34.jpg,canyon,26.0,False,True,original,2.0,"{""ArrowUp,ArrowLeft"":26,""ArrowUp,ArrowRight"":10,""ArrowDown,ArrowLeft"":5,""ArrowDown,ArrowRight"":17}",24,,,True,2,749.1999999880791,348.79999999701977,ArrowUp,ArrowLeft,True,True,26.0,,20,True
268,108,374,5,value training,False,./assets/img/canyon/memory/15.jpg,canyon,26.0,False,True,original,2.0,"{""ArrowUp,ArrowLeft"":26,""ArrowUp,ArrowRight"":10,""ArrowDown,ArrowLeft"":5,""ArrowDown,ArrowRight"":17}",25,,,True,2,782.7999999970198,377.90000000596046,ArrowUp,ArrowLeft,True,True,26.0,,20,True
269,109,376,5,value training,False,./assets/img/canyon/memory/16.jpg,canyon,26.0,False,True,original,2.0,"{""ArrowUp,ArrowLeft"":26,""ArrowUp,ArrowRight"":10,""ArrowDown,ArrowLeft"":5,""ArrowDown,ArrowRight"":17}",26,,,True,2,515.0,338.70000000298023,ArrowUp,ArrowLeft,True,True,26.0,,25,True
270,110,378,5,value training,False,./assets/img/canyon/memory/26.jpg,canyon,26.0,False,True,original,2.0,"{""ArrowUp,ArrowLeft"":26,""ArrowUp,ArrowRight"":10,""ArrowDown,ArrowLeft"":5,""ArrowDown,ArrowRight"":17}",27,,,True,2,863.2999999970198,436.29999999701977,ArrowUp,ArrowLeft,True,True,26.0,,25,True
271,111,380,5,value training,False,./assets/img/canyon/memory/6.jpg,canyon,26.0,False,True,original,2.0,"{""ArrowUp,ArrowLeft"":26,""ArrowUp,ArrowRight"":10,""ArrowDown,ArrowLeft"":5,""ArrowDown,ArrowRight"":17}",28,,,True,2,866.6999999880791,745.0999999940395,ArrowUp,ArrowLeft,True,True,26.0,,25,True
272,112,382,5,value training,False,./assets/img/canyon/memory/6.jpg,canyon,26.0,False,True,original,2.0,"{""ArrowUp,ArrowLeft"":26,""ArrowUp,ArrowRight"":10,""ArrowDown,ArrowLeft"":5,""ArrowDown,ArrowRight"":17}",29,,,True,2,546.8999999910593,327.59999999403954,ArrowUp,ArrowLeft,True,True,26.0,,25,True
273,113,384,5,value training,False,./assets/img/canyon/memory/30.jpg,canyon,26.0,False,True,original,2.0,"{""ArrowUp,ArrowLeft"":26,""ArrowUp,ArrowRight"":10,""ArrowDown,ArrowLeft"":5,""ArrowDown,ArrowRight"":17}",30,,,True,2,636.5999999940395,344.20000000298023,ArrowUp,ArrowLeft,True,True,26.0,,25,True
274,114,386,5,value training,False,./assets/img/canyon/memory/40.jpg,canyon,26.0,False,True,original,2.0,"{""ArrowUp,ArrowLeft"":26,""ArrowUp,ArrowRight"":10,""ArrowDown,ArrowLeft"":5,""ArrowDown,ArrowRight"":17}",31,,,True,2,624.2000000029802,356.70000000298023,ArrowUp,ArrowLeft,True,True,26.0,,30,True
275,115,388,5,value training,False,./assets/img/canyon/memory/22.jpg,canyon,26.0,False,True,original,2.0,"{""ArrowUp,ArrowLeft"":26,""ArrowUp,ArrowRight"":10,""ArrowDown,ArrowLeft"":5,""ArrowDown,ArrowRight"":17}",32,,,True,2,891.1999999880791,333.20000000298023,ArrowUp,ArrowLeft,True,True,26.0,,30,True
277,117,392,5,value training,False,./assets/img/canyon/memory/36.jpg,canyon,26.0,False,True,original,2.0,"{""ArrowUp,ArrowLeft"":26,""ArrowUp,ArrowRight"":10,""ArrowDown,ArrowLeft"":5,""ArrowDown,ArrowRight"":17}",33,,,True,2,743.1000000089407,429.70000000298023,ArrowUp,ArrowLeft,True,True,26.0,,30,True
278,118,394,5,value training,False,./assets/img/canyon/memory/40.jpg,canyon,26.0,False,True,original,2.0,"{""ArrowUp,ArrowLeft"":26,""ArrowUp,ArrowRight"":10,""ArrowDown,ArrowLeft"":5,""ArrowDown,ArrowRight"":17}",34,,,True,2,737.0999999940395,276.09999999403954,ArrowUp,ArrowLeft,True,True,26.0,,30,True
279,119,396,5,value training,False,./assets/img/canyon/memory/16.jpg,canyon,26.0,False,True,original,2.0,"{""ArrowUp,ArrowLeft"":26,""ArrowUp,ArrowRight"":10,""ArrowDown,ArrowLeft"":5,""ArrowDown,ArrowRight"":17}",35,,,True,2,663.7000000029802,462.3999999910593,ArrowUp,ArrowLeft,True,True,26.0,,30,True
280,120,398,5,value training,False,./assets/img/canyon/memory/23.jpg,canyon,26.0,False,True,original,2.0,"{""ArrowUp,ArrowLeft"":26,""ArrowUp,ArrowRight"":10,""ArrowDown,ArrowLeft"":5,""ArrowDown,ArrowRight"":17}",36,,,True,2,591.2999999970198,441.69999998807907,ArrowUp,ArrowLeft,True,True,26.0,,35,True
281,121,400,5,value training,False,./assets/img/canyon/memory/14.jpg,canyon,26.0,False,True,original,2.0,"{""ArrowUp,ArrowLeft"":26,""ArrowUp,ArrowRight"":10,""ArrowDown,ArrowLeft"":5,""ArrowDown,ArrowRight"":17}",37,,,True,2,538.7000000029802,317.79999999701977,ArrowUp,ArrowLeft,True,True,26.0,,35,True
282,122,402,5,value training,False,./assets/img/canyon/memory/41.jpg,canyon,26.0,False,True,original,2.0,"{""ArrowUp,ArrowLeft"":26,""ArrowUp,ArrowRight"":10,""ArrowDown,ArrowLeft"":5,""ArrowDown,ArrowRight"":17}",38,,,True,2,551.0,391.09999999403954,ArrowUp,ArrowLeft,True,True,26.0,,35,True
283,123,404,5,value training,False,./assets/img/canyon/memory/28.jpg,canyon,26.0,False,True,original,2.0,"{""ArrowUp,ArrowLeft"":26,""ArrowUp,ArrowRight"":10,""ArrowDown,ArrowLeft"":5,""ArrowDown,ArrowRight"":17}",39,,,True,2,603.2000000029802,506.59999999403954,ArrowUp,ArrowLeft,True,True,26.0,,35,True
284,124,406,5,value training,False,./assets/img/canyon/memory/28.jpg,canyon,26.0,False,True,original,2.0,"{""ArrowUp,ArrowLeft"":26,""ArrowUp,ArrowRight"":10,""ArrowDown,ArrowLeft"":5,""ArrowDown,ArrowRight"":17}",40,,,True,2,451.19999998807907,309.79999999701977,ArrowUp,ArrowLeft,True,True,26.0,,35,True
286,126,410,5,value training,False,./assets/img/canyon/memory/7.jpg,canyon,26.0,False,True,original,2.0,"{""ArrowUp,ArrowLeft"":26,""ArrowUp,ArrowRight"":10,""ArrowDown,ArrowLeft"":5,""ArrowDown,ArrowRight"":17}",41,,,True,2,531.2000000029802,538.5999999940395,ArrowUp,ArrowLeft,True,True,26.0,,40,True
288,128,414,5,value training,False,./assets/img/canyon/memory/41.jpg,canyon,26.0,False,True,original,2.0,"{""ArrowUp,ArrowLeft"":26,""ArrowUp,ArrowRight"":10,""ArrowDown,ArrowLeft"":5,""ArrowDown,ArrowRight"":17}",42,,,True,2,612.1000000089407,573.4000000059605,ArrowUp,ArrowLeft,True,True,26.0,,40,True
320,0,132,7,value training,False,./assets/img/ocean/memory/2.jpg,ocean,10.0,False,False,original,1.0,"{""ArrowUp,ArrowLeft"":26,""ArrowUp,ArrowRight"":10,""ArrowDown,ArrowLeft"":5,""ArrowDown,ArrowRight"":17}",1,,,False,5,842.5999999940395,477.30000001192093,ArrowUp,ArrowRight,True,False,26.0,,0,False
321,1,134,7,value training,False,./assets/img/ocean/memory/2.jpg,ocean,26.0,False,True,original,1.0,"{""ArrowUp,ArrowLeft"":26,""ArrowUp,ArrowRight"":10,""ArrowDown,ArrowLeft"":5,""ArrowDown,ArrowRight"":17}",2,,,False,5,331.7000000178814,343.2999999821186,ArrowUp,ArrowLeft,True,True,26.0,,0,True
322,2,136,7,value training,False,./assets/img/ocean/memory/17.jpg,ocean,5.0,False,False,original,1.0,"{""ArrowUp,ArrowLeft"":26,""ArrowUp,ArrowRight"":10,""ArrowDown,ArrowLeft"":5,""ArrowDown,ArrowRight"":17}",3,,,False,5,423.59999999403954,369.30000001192093,ArrowDown,ArrowLeft,False,False,26.0,,0,False
323,3,138,7,value training,False,./assets/img/ocean/memory/30.jpg,ocean,17.0,False,False,original,1.0,"{""ArrowUp,ArrowLeft"":26,""ArrowUp,ArrowRight"":10,""ArrowDown,ArrowLeft"":5,""ArrowDown,ArrowRight"":17}",4,,,False,5,213.0,315.19999998807907,ArrowDown,ArrowRight,False,True,26.0,,0,False
324,4,140,7,value training,False,./assets/img/ocean/memory/24.jpg,ocean,26.0,False,True,original,1.0,"{""ArrowUp,ArrowLeft"":26,""ArrowUp,ArrowRight"":10,""ArrowDown,ArrowLeft"":5,""ArrowDown,ArrowRight"":17}",5,,,False,5,424.59999999403954,394.7999999821186,ArrowUp,ArrowLeft,True,True,26.0,,0,True
325,5,142,7,value training,False,./assets/img/ocean/memory/34.jpg,ocean,26.0,False,True,original,1.0,"{""ArrowUp,ArrowLeft"":26,""ArrowUp,ArrowRight"":10,""ArrowDown,ArrowLeft"":5,""ArrowDown,ArrowRight"":17}",6,,,False,5,407.90000000596046,329.59999999403954,ArrowUp,ArrowLeft,True,True,26.0,,5,True
326,6,144,7,value training,False,./assets/img/ocean/memory/6.jpg,ocean,26.0,False,True,original,1.0,"{""ArrowUp,ArrowLeft"":26,""ArrowUp,ArrowRight"":10,""ArrowDown,ArrowLeft"":5,""ArrowDown,ArrowRight"":17}",7,,,False,5,523.9000000059605,444.80000001192093,ArrowUp,ArrowLeft,True,True,26.0,,5,True
329,9,150,7,value training,False,./assets/img/ocean/memory/7.jpg,ocean,26.0,False,True,original,1.0,"{""ArrowUp,ArrowLeft"":26,""ArrowUp,ArrowRight"":10,""ArrowDown,ArrowLeft"":5,""ArrowDown,ArrowRight"":17}",8,,,False,5,621.0,328.2999999821186,ArrowUp,ArrowLeft,True,True,26.0,,5,True
330,10,152,7,value training,False,./assets/img/ocean/memory/27.jpg,ocean,26.0,False,True,original,1.0,"{""ArrowUp,ArrowLeft"":26,""ArrowUp,ArrowRight"":10,""ArrowDown,ArrowLeft"":5,""ArrowDown,ArrowRight"":17}",9,,,False,5,730.2000000178814,342.59999999403954,ArrowUp,ArrowLeft,True,True,26.0,,5,True
331,11,154,7,value training,False,./assets/img/ocean/memory/22.jpg,ocean,26.0,False,True,original,1.0,"{""ArrowUp,ArrowLeft"":26,""ArrowUp,ArrowRight"":10,""ArrowDown,ArrowLeft"":5,""ArrowDown,ArrowRight"":17}",10,,,False,5,632.0999999940395,363.19999998807907,ArrowUp,ArrowLeft,True,True,26.0,,5,True
332,12,156,7,value training,False,./assets/img/ocean/memory/34.jpg,ocean,26.0,False,True,original,1.0,"{""ArrowUp,ArrowLeft"":26,""ArrowUp,ArrowRight"":10,""ArrowDown,ArrowLeft"":5,""ArrowDown,ArrowRight"":17}",11,,,False,5,641.5999999940395,512.0,ArrowUp,ArrowLeft,True,True,26.0,,10,True
333,13,158,7,value training,False,./assets/img/ocean/memory/39.jpg,ocean,26.0,False,True,original,1.0,"{""ArrowUp,ArrowLeft"":26,""ArrowUp,ArrowRight"":10,""ArrowDown,ArrowLeft"":5,""ArrowDown,ArrowRight"":17}",12,,,False,5,833.4000000059605,417.30000001192093,ArrowUp,ArrowLeft,True,True,26.0,,10,True
334,14,160,7,value training,False,./assets/img/ocean/memory/10.jpg,ocean,26.0,False,True,original,1.0,"{""ArrowUp,ArrowLeft"":26,""ArrowUp,ArrowRight"":10,""ArrowDown,ArrowLeft"":5,""ArrowDown,ArrowRight"":17}",13,,,False,5,1130.0,347.0,ArrowUp,ArrowLeft,True,True,26.0,,10,True
335,15,162,7,value training,False,./assets/img/ocean/memory/26.jpg,ocean,26.0,False,True,original,1.0,"{""ArrowUp,ArrowLeft"":26,""ArrowUp,ArrowRight"":10,""ArrowDown,ArrowLeft"":5,""ArrowDown,ArrowRight"":17}",14,,,False,5,491.80000001192093,311.5,ArrowUp,ArrowLeft,True,True,26.0,,10,True
336,16,164,7,value training,False,./assets/img/ocean/memory/7.jpg,ocean,26.0,False,True,original,1.0,"{""ArrowUp,ArrowLeft"":26,""ArrowUp,ArrowRight"":10,""ArrowDown,ArrowLeft"":5,""ArrowDown,ArrowRight"":17}",15,,,False,5,537.4000000059605,372.40000000596046,ArrowUp,ArrowLeft,True,True,26.0,,10,True
337,17,166,7,value training,False,./assets/img/ocean/memory/39.jpg,ocean,26.0,False,True,original,1.0,"{""ArrowUp,ArrowLeft"":26,""ArrowUp,ArrowRight"":10,""ArrowDown,ArrowLeft"":5,""ArrowDown,ArrowRight"":17}",16,,,False,5,583.0999999940395,423.40000000596046,ArrowUp,ArrowLeft,True,True,26.0,,15,True
338,18,168,7,value training,False,./assets/img/ocean/memory/30.jpg,ocean,26.0,False,True,original,1.0,"{""ArrowUp,ArrowLeft"":26,""ArrowUp,ArrowRight"":10,""ArrowDown,ArrowLeft"":5,""ArrowDown,ArrowRight"":17}",17,,,False,5,871.2999999821186,318.59999999403954,ArrowUp,ArrowLeft,True,True,26.0,,15,True
339,19,170,7,value training,False,./assets/img/ocean/memory/40.jpg,ocean,26.0,False,True,original,1.0,"{""ArrowUp,ArrowLeft"":26,""ArrowUp,ArrowRight"":10,""ArrowDown,ArrowLeft"":5,""ArrowDown,ArrowRight"":17}",18,,,False,5,540.5,305.19999998807907,ArrowUp,ArrowLeft,True,True,26.0,,15,True
340,20,172,7,value training,False,./assets/img/ocean/memory/16.jpg,ocean,26.0,False,True,original,1.0,"{""ArrowUp,ArrowLeft"":26,""ArrowUp,ArrowRight"":10,""ArrowDown,ArrowLeft"":5,""ArrowDown,ArrowRight"":17}",19,,,False,5,484.90000000596046,343.69999998807907,ArrowUp,ArrowLeft,True,True,26.0,,15,True
341,21,174,7,value training,False,./assets/img/ocean/memory/22.jpg,ocean,26.0,False,True,original,1.0,"{""ArrowUp,ArrowLeft"":26,""ArrowUp,ArrowRight"":10,""ArrowDown,ArrowLeft"":5,""ArrowDown,ArrowRight"":17}",20,,,False,5,628.6999999880791,316.89999997615814,ArrowUp,ArrowLeft,True,True,26.0,,15,True
342,22,176,7,value training,False,./assets/img/ocean/memory/9.jpg,ocean,26.0,False,True,original,1.0,"{""ArrowUp,ArrowLeft"":26,""ArrowUp,ArrowRight"":10,""ArrowDown,ArrowLeft"":5,""ArrowDown,ArrowRight"":17}",21,,,False,5,577.5999999940395,406.59999999403954,ArrowUp,ArrowLeft,True,True,26.0,,20,True
343,23,178,7,value training,False,./assets/img/ocean/memory/24.jpg,ocean,26.0,False,True,original,1.0,"{""ArrowUp,ArrowLeft"":26,""ArrowUp,ArrowRight"":10,""ArrowDown,ArrowLeft"":5,""ArrowDown,ArrowRight"":17}",22,,,False,5,831.9000000059605,464.69999998807907,ArrowUp,ArrowLeft,True,True,26.0,,20,True
344,24,180,7,value training,False,./assets/img/ocean/memory/41.jpg,ocean,26.0,False,True,original,1.0,"{""ArrowUp,ArrowLeft"":26,""ArrowUp,ArrowRight"":10,""ArrowDown,ArrowLeft"":5,""ArrowDown,ArrowRight"":17}",23,,,False,5,671.5999999940395,355.30000001192093,ArrowUp,ArrowLeft,True,True,26.0,,20,True
345,25,182,7,value training,False,./assets/img/ocean/memory/6.jpg,ocean,26.0,False,True,original,1.0,"{""ArrowUp,ArrowLeft"":26,""ArrowUp,ArrowRight"":10,""ArrowDown,ArrowLeft"":5,""ArrowDown,ArrowRight"":17}",24,,,False,5,665.0999999940395,318.69999998807907,ArrowUp,ArrowLeft,True,True,26.0,,20,True
346,26,184,7,value training,False,./assets/img/ocean/memory/28.jpg,ocean,26.0,False,True,original,1.0,"{""ArrowUp,ArrowLeft"":26,""ArrowUp,ArrowRight"":10,""ArrowDown,ArrowLeft"":5,""ArrowDown,ArrowRight"":17}",25,,,False,5,499.90000000596046,143.40000000596046,ArrowUp,ArrowLeft,True,True,26.0,,20,True
347,27,186,7,value training,False,./assets/img/ocean/memory/27.jpg,ocean,26.0,False,True,original,1.0,"{""ArrowUp,ArrowLeft"":26,""ArrowUp,ArrowRight"":10,""ArrowDown,ArrowLeft"":5,""ArrowDown,ArrowRight"":17}",26,,,False,5,635.6999999880791,329.19999998807907,ArrowUp,ArrowLeft,True,True,26.0,,25,True
348,28,188,7,value training,False,./assets/img/ocean/memory/17.jpg,ocean,26.0,False,True,original,1.0,"{""ArrowUp,ArrowLeft"":26,""ArrowUp,ArrowRight"":10,""ArrowDown,ArrowLeft"":5,""ArrowDown,ArrowRight"":17}",27,,,False,5,565.0,425.5,ArrowUp,ArrowLeft,True,True,26.0,,25,True
349,29,190,7,value training,False,./assets/img/ocean/memory/26.jpg,ocean,26.0,False,True,original,1.0,"{""ArrowUp,ArrowLeft"":26,""ArrowUp,ArrowRight"":10,""ArrowDown,ArrowLeft"":5,""ArrowDown,ArrowRight"":17}",28,,,False,5,530.0,334.7999999821186,ArrowUp,ArrowLeft,True,True,26.0,,25,True
351,31,194,7,value training,False,./assets/img/ocean/memory/13.jpg,ocean,26.0,False,True,original,1.0,"{""ArrowUp,ArrowLeft"":26,""ArrowUp,ArrowRight"":10,""ArrowDown,ArrowLeft"":5,""ArrowDown,ArrowRight"":17}",29,,,False,5,541.0,336.2999999821186,ArrowUp,ArrowLeft,True,True,26.0,,25,True
352,32,196,7,value training,False,./assets/img/ocean/memory/28.jpg,ocean,26.0,False,True,original,1.0,"{""ArrowUp,ArrowLeft"":26,""ArrowUp,ArrowRight"":10,""ArrowDown,ArrowLeft"":5,""ArrowDown,ArrowRight"":17}",30,,,False,5,581.0,355.0,ArrowUp,ArrowLeft,True,True,26.0,,25,True
354,34,200,7,value training,False,./assets/img/ocean/memory/40.jpg,ocean,26.0,False,True,original,1.0,"{""ArrowUp,ArrowLeft"":26,""ArrowUp,ArrowRight"":10,""ArrowDown,ArrowLeft"":5,""ArrowDown,ArrowRight"":17}",31,,,False,5,566.5999999940395,533.5999999940395,ArrowUp,ArrowLeft,True,True,26.0,,30,True
356,36,204,7,value training,False,./assets/img/ocean/memory/41.jpg,ocean,26.0,False,True,original,1.0,"{""ArrowUp,ArrowLeft"":26,""ArrowUp,ArrowRight"":10,""ArrowDown,ArrowLeft"":5,""ArrowDown,ArrowRight"":17}",32,,,False,5,490.0,469.69999998807907,ArrowUp,ArrowLeft,True,True,26.0,,30,True
357,37,206,7,value training,False,./assets/img/ocean/memory/15.jpg,ocean,26.0,False,True,original,1.0,"{""ArrowUp,ArrowLeft"":26,""ArrowUp,ArrowRight"":10,""ArrowDown,ArrowLeft"":5,""ArrowDown,ArrowRight"":17}",33,,,False,5,664.2999999821186,439.59999999403954,ArrowUp,ArrowLeft,True,True,26.0,,30,True
359,39,210,7,value training,False,./assets/img/ocean/memory/16.jpg,ocean,26.0,False,True,original,1.0,"{""ArrowUp,ArrowLeft"":26,""ArrowUp,ArrowRight"":10,""ArrowDown,ArrowLeft"":5,""ArrowDown,ArrowRight"":17}",34,,,False,5,647.5999999940395,478.09999999403954,ArrowUp,ArrowLeft,True,True,26.0,,30,True
360,40,212,7,value training,False,./assets/img/ocean/memory/15.jpg,ocean,26.0,False,True,original,1.0,"{""ArrowUp,ArrowLeft"":26,""ArrowUp,ArrowRight"":10,""ArrowDown,ArrowLeft"":5,""ArrowDown,ArrowRight"":17}",35,,,False,5,644.6999999880791,621.0,ArrowUp,ArrowLeft,True,True,26.0,,30,True
361,41,214,7,value training,False,./assets/img/ocean/memory/20.jpg,ocean,26.0,False,True,original,1.0,"{""ArrowUp,ArrowLeft"":26,""ArrowUp,ArrowRight"":10,""ArrowDown,ArrowLeft"":5,""ArrowDown,ArrowRight"":17}",36,,,False,5,818.7999999821186,855.9000000059605,ArrowUp,ArrowLeft,True,True,26.0,,35,True
362,42,216,7,value training,False,./assets/img/ocean/memory/13.jpg,ocean,26.0,False,True,original,1.0,"{""ArrowUp,ArrowLeft"":26,""ArrowUp,ArrowRight"":10,""ArrowDown,ArrowLeft"":5,""ArrowDown,ArrowRight"":17}",37,,,False,5,598.0999999940395,846.4000000059605,ArrowUp,ArrowLeft,True,True,26.0,,35,True
363,43,218,7,value training,False,./assets/img/ocean/memory/18.jpg,ocean,26.0,False,True,original,1.0,"{""ArrowUp,ArrowLeft"":26,""ArrowUp,ArrowRight"":10,""ArrowDown,ArrowLeft"":5,""ArrowDown,ArrowRight"":17}",38,,,False,5,525.0999999940395,404.90000000596046,ArrowUp,ArrowLeft,True,True,26.0,,35,True
365,45,222,7,value training,False,./assets/img/ocean/memory/10.jpg,ocean,26.0,False,True,original,1.0,"{""ArrowUp,ArrowLeft"":26,""ArrowUp,ArrowRight"":10,""ArrowDown,ArrowLeft"":5,""ArrowDown,ArrowRight"":17}",39,,,False,5,674.0,398.90000000596046,ArrowUp,ArrowLeft,True,True,26.0,,35,True
366,46,224,7,value training,False,./assets/img/ocean/memory/20.jpg,ocean,26.0,False,True,original,1.0,"{""ArrowUp,ArrowLeft"":26,""ArrowUp,ArrowRight"":10,""ArrowDown,ArrowLeft"":5,""ArrowDown,ArrowRight"":17}",40,,,False,5,780.5999999940395,837.5999999940395,ArrowUp,ArrowLeft,True,True,26.0,,35,True
368,48,228,7,value training,False,./assets/img/ocean/memory/9.jpg,ocean,26.0,False,True,original,1.0,"{""ArrowUp,ArrowLeft"":26,""ArrowUp,ArrowRight"":10,""ArrowDown,ArrowLeft"":5,""ArrowDown,ArrowRight"":17}",41,,,False,5,669.2999999821186,469.40000000596046,ArrowUp,ArrowLeft,True,True,26.0,,40,True
369,49,230,7,value training,False,./assets/img/ocean/memory/18.jpg,ocean,26.0,False,True,original,1.0,"{""ArrowUp,ArrowLeft"":26,""ArrowUp,ArrowRight"":10,""ArrowDown,ArrowLeft"":5,""ArrowDown,ArrowRight"":17}",42,,,False,5,498.80000001192093,380.5,ArrowUp,ArrowLeft,True,True,26.0,,40,True
400,80,312,7,value training,False,./assets/img/canyon/memory/30.jpg,canyon,23.0,False,False,revaluation,2.0,"{""ArrowUp,ArrowLeft"":23,""ArrowUp,ArrowRight"":10,""ArrowDown,ArrowLeft"":8,""ArrowDown,ArrowRight"":30}",1,,,False,5,697.8000000119209,612.6999999880791,ArrowUp,ArrowLeft,False,True,30.0,,0,False
401,81,314,7,value training,False,./assets/img/canyon/memory/18.jpg,canyon,10.0,False,False,revaluation,2.0,"{""ArrowUp,ArrowLeft"":23,""ArrowUp,ArrowRight"":10,""ArrowDown,ArrowLeft"":8,""ArrowDown,ArrowRight"":30}",2,,,False,5,376.5,334.90000000596046,ArrowUp,ArrowRight,False,False,30.0,,0,False
402,82,316,7,value training,False,./assets/img/canyon/memory/34.jpg,canyon,8.0,False,False,revaluation,2.0,"{""ArrowUp,ArrowLeft"":23,""ArrowUp,ArrowRight"":10,""ArrowDown,ArrowLeft"":8,""ArrowDown,ArrowRight"":30}",3,,,False,5,472.40000000596046,538.9000000059605,ArrowDown,ArrowLeft,True,False,30.0,,0,False
403,83,318,7,value training,False,./assets/img/canyon/memory/6.jpg,canyon,30.0,False,True,revaluation,2.0,"{""ArrowUp,ArrowLeft"":23,""ArrowUp,ArrowRight"":10,""ArrowDown,ArrowLeft"":8,""ArrowDown,ArrowRight"":30}",4,,,False,5,450.19999998807907,339.59999999403954,ArrowDown,ArrowRight,True,True,30.0,,0,True
404,84,320,7,value training,False,./assets/img/canyon/memory/30.jpg,canyon,30.0,False,True,revaluation,2.0,"{""ArrowUp,ArrowLeft"":23,""ArrowUp,ArrowRight"":10,""ArrowDown,ArrowLeft"":8,""ArrowDown,ArrowRight"":30}",5,,,False,5,497.90000000596046,324.90000000596046,ArrowDown,ArrowRight,True,True,30.0,,0,True
406,86,324,7,value training,False,./assets/img/canyon/memory/27.jpg,canyon,30.0,False,True,revaluation,2.0,"{""ArrowUp,ArrowLeft"":23,""ArrowUp,ArrowRight"":10,""ArrowDown,ArrowLeft"":8,""ArrowDown,ArrowRight"":30}",6,,,False,5,715.5999999940395,21.599999994039536,ArrowDown,ArrowRight,True,True,30.0,,5,True
407,87,326,7,value training,False,./assets/img/canyon/memory/22.jpg,canyon,30.0,False,True,revaluation,2.0,"{""ArrowUp,ArrowLeft"":23,""ArrowUp,ArrowRight"":10,""ArrowDown,ArrowLeft"":8,""ArrowDown,ArrowRight"":30}",7,,,False,5,524.5,294.5,ArrowDown,ArrowRight,True,True,30.0,,5,True
408,88,328,7,value training,False,./assets/img/canyon/memory/2.jpg,canyon,30.0,False,True,revaluation,2.0,"{""ArrowUp,ArrowLeft"":23,""ArrowUp,ArrowRight"":10,""ArrowDown,ArrowLeft"":8,""ArrowDown,ArrowRight"":30}",8,,,False,5,541.4000000059605,311.10000002384186,ArrowDown,ArrowRight,True,True,30.0,,5,True
410,90,332,7,value training,False,./assets/img/canyon/memory/18.jpg,canyon,30.0,False,True,revaluation,2.0,"{""ArrowUp,ArrowLeft"":23,""ArrowUp,ArrowRight"":10,""ArrowDown,ArrowLeft"":8,""ArrowDown,ArrowRight"":30}",9,,,False,5,507.7000000178814,337.2000000178814,ArrowDown,ArrowRight,True,True,30.0,,5,True
411,91,334,7,value training,False,./assets/img/canyon/memory/17.jpg,canyon,30.0,False,True,revaluation,2.0,"{""ArrowUp,ArrowLeft"":23,""ArrowUp,ArrowRight"":10,""ArrowDown,ArrowLeft"":8,""ArrowDown,ArrowRight"":30}",10,,,False,5,546.7999999821186,297.0,ArrowDown,ArrowRight,True,True,30.0,,5,True
412,92,336,7,value training,False,./assets/img/canyon/memory/41.jpg,canyon,30.0,False,True,revaluation,2.0,"{""ArrowUp,ArrowLeft"":23,""ArrowUp,ArrowRight"":10,""ArrowDown,ArrowLeft"":8,""ArrowDown,ArrowRight"":30}",11,,,False,5,508.19999998807907,674.5,ArrowDown,ArrowRight,True,True,30.0,,10,True
413,93,338,7,value training,False,./assets/img/canyon/memory/13.jpg,canyon,30.0,False,True,revaluation,2.0,"{""ArrowUp,ArrowLeft"":23,""ArrowUp,ArrowRight"":10,""ArrowDown,ArrowLeft"":8,""ArrowDown,ArrowRight"":30}",12,,,False,5,420.7999999821186,457.0,ArrowDown,ArrowRight,True,True,30.0,,10,True
414,94,340,7,value training,False,./assets/img/canyon/memory/17.jpg,canyon,30.0,False,True,revaluation,2.0,"{""ArrowUp,ArrowLeft"":23,""ArrowUp,ArrowRight"":10,""ArrowDown,ArrowLeft"":8,""ArrowDown,ArrowRight"":30}",13,,,False,5,412.40000000596046,408.0,ArrowDown,ArrowRight,True,True,30.0,,10,True
415,95,342,7,value training,False,./assets/img/canyon/memory/28.jpg,canyon,30.0,False,True,revaluation,2.0,"{""ArrowUp,ArrowLeft"":23,""ArrowUp,ArrowRight"":10,""ArrowDown,ArrowLeft"":8,""ArrowDown,ArrowRight"":30}",14,,,False,5,513.4000000059605,455.2999999821186,ArrowDown,ArrowRight,True,True,30.0,,10,True
416,96,344,7,value training,False,./assets/img/canyon/memory/15.jpg,canyon,30.0,False,True,revaluation,2.0,"{""ArrowUp,ArrowLeft"":23,""ArrowUp,ArrowRight"":10,""ArrowDown,ArrowLeft"":8,""ArrowDown,ArrowRight"":30}",15,,,False,5,410.09999999403954,596.5999999940395,ArrowDown,ArrowRight,True,True,30.0,,10,True
417,97,346,7,value training,False,./assets/img/canyon/memory/10.jpg,canyon,30.0,False,True,revaluation,2.0,"{""ArrowUp,ArrowLeft"":23,""ArrowUp,ArrowRight"":10,""ArrowDown,ArrowLeft"":8,""ArrowDown,ArrowRight"":30}",16,,,False,5,476.30000001192093,381.90000000596046,ArrowDown,ArrowRight,True,True,30.0,,15,True
418,98,348,7,value training,False,./assets/img/canyon/memory/7.jpg,canyon,30.0,False,True,revaluation,2.0,"{""ArrowUp,ArrowLeft"":23,""ArrowUp,ArrowRight"":10,""ArrowDown,ArrowLeft"":8,""ArrowDown,ArrowRight"":30}",17,,,False,5,419.39999997615814,536.0,ArrowDown,ArrowRight,True,True,30.0,,15,True
419,99,350,7,value training,False,./assets/img/canyon/memory/26.jpg,canyon,30.0,False,True,revaluation,2.0,"{""ArrowUp,ArrowLeft"":23,""ArrowUp,ArrowRight"":10,""ArrowDown,ArrowLeft"":8,""ArrowDown,ArrowRight"":30}",18,,,False,5,450.90000000596046,270.19999998807907,ArrowDown,ArrowRight,True,True,30.0,,15,True
420,100,352,7,value training,False,./assets/img/canyon/memory/40.jpg,canyon,30.0,False,True,revaluation,2.0,"{""ArrowUp,ArrowLeft"":23,""ArrowUp,ArrowRight"":10,""ArrowDown,ArrowLeft"":8,""ArrowDown,ArrowRight"":30}",19,,,False,5,456.40000000596046,402.19999998807907,ArrowDown,ArrowRight,True,True,30.0,,15,True
421,101,354,7,value training,False,./assets/img/canyon/memory/6.jpg,canyon,30.0,False,True,revaluation,2.0,"{""ArrowUp,ArrowLeft"":23,""ArrowUp,ArrowRight"":10,""ArrowDown,ArrowLeft"":8,""ArrowDown,ArrowRight"":30}",20,,,False,5,507.2999999821186,392.2999999821186,ArrowDown,ArrowRight,True,True,30.0,,15,True
422,102,356,7,value training,False,./assets/img/canyon/memory/20.jpg,canyon,30.0,False,True,revaluation,2.0,"{""ArrowUp,ArrowLeft"":23,""ArrowUp,ArrowRight"":10,""ArrowDown,ArrowLeft"":8,""ArrowDown,ArrowRight"":30}",21,,,False,5,477.59999999403954,382.90000000596046,ArrowDown,ArrowRight,True,True,30.0,,20,True
423,103,358,7,value training,False,./assets/img/canyon/memory/16.jpg,canyon,30.0,False,True,revaluation,2.0,"{""ArrowUp,ArrowLeft"":23,""ArrowUp,ArrowRight"":10,""ArrowDown,ArrowLeft"":8,""ArrowDown,ArrowRight"":30}",22,,,False,5,539.9000000059605,404.5,ArrowDown,ArrowRight,True,True,30.0,,20,True
425,105,362,7,value training,False,./assets/img/canyon/memory/34.jpg,canyon,30.0,False,True,revaluation,2.0,"{""ArrowUp,ArrowLeft"":23,""ArrowUp,ArrowRight"":10,""ArrowDown,ArrowLeft"":8,""ArrowDown,ArrowRight"":30}",23,,,False,5,930.2000000178814,432.90000000596046,ArrowDown,ArrowRight,True,True,30.0,,20,True
426,106,364,7,value training,False,./assets/img/canyon/memory/15.jpg,canyon,30.0,False,True,revaluation,2.0,"{""ArrowUp,ArrowLeft"":23,""ArrowUp,ArrowRight"":10,""ArrowDown,ArrowLeft"":8,""ArrowDown,ArrowRight"":30}",24,,,False,5,575.5999999940395,379.5,ArrowDown,ArrowRight,True,True,30.0,,20,True
427,107,366,7,value training,False,./assets/img/canyon/memory/10.jpg,canyon,30.0,False,True,revaluation,2.0,"{""ArrowUp,ArrowLeft"":23,""ArrowUp,ArrowRight"":10,""ArrowDown,ArrowLeft"":8,""ArrowDown,ArrowRight"":30}",25,,,False,5,796.1999999880791,338.80000001192093,ArrowDown,ArrowRight,True,True,30.0,,20,True
428,108,368,7,value training,False,./assets/img/canyon/memory/27.jpg,canyon,30.0,False,True,revaluation,2.0,"{""ArrowUp,ArrowLeft"":23,""ArrowUp,ArrowRight"":10,""ArrowDown,ArrowLeft"":8,""ArrowDown,ArrowRight"":30}",26,,,False,5,760.5,343.30000001192093,ArrowDown,ArrowRight,True,True,30.0,,25,True
429,109,370,7,value training,False,./assets/img/canyon/memory/24.jpg,canyon,30.0,False,True,revaluation,2.0,"{""ArrowUp,ArrowLeft"":23,""ArrowUp,ArrowRight"":10,""ArrowDown,ArrowLeft"":8,""ArrowDown,ArrowRight"":30}",27,,,False,5,841.0,303.39999997615814,ArrowDown,ArrowRight,True,True,30.0,,25,True
430,110,372,7,value training,False,./assets/img/canyon/memory/24.jpg,canyon,30.0,False,True,revaluation,2.0,"{""ArrowUp,ArrowLeft"":23,""ArrowUp,ArrowRight"":10,""ArrowDown,ArrowLeft"":8,""ArrowDown,ArrowRight"":30}",28,,,False,5,700.1000000238419,378.59999999403954,ArrowDown,ArrowRight,True,True,30.0,,25,True
431,111,374,7,value training,False,./assets/img/canyon/memory/20.jpg,canyon,30.0,False,True,revaluation,2.0,"{""ArrowUp,ArrowLeft"":23,""ArrowUp,ArrowRight"":10,""ArrowDown,ArrowLeft"":8,""ArrowDown,ArrowRight"":30}",29,,,False,5,825.5,292.5,ArrowDown,ArrowRight,True,True,30.0,,25,True
432,112,376,7,value training,False,./assets/img/canyon/memory/22.jpg,canyon,30.0,False,True,revaluation,2.0,"{""ArrowUp,ArrowLeft"":23,""ArrowUp,ArrowRight"":10,""ArrowDown,ArrowLeft"":8,""ArrowDown,ArrowRight"":30}",30,,,False,5,656.5999999940395,386.90000000596046,ArrowDown,ArrowRight,True,True,30.0,,25,True
436,116,384,7,value training,False,./assets/img/canyon/memory/9.jpg,canyon,30.0,False,True,revaluation,2.0,"{""ArrowUp,ArrowLeft"":23,""ArrowUp,ArrowRight"":10,""ArrowDown,ArrowLeft"":8,""ArrowDown,ArrowRight"":30}",31,,,False,5,624.5,414.7000000178814,ArrowDown,ArrowRight,True,True,30.0,,30,True
437,117,386,7,value training,False,./assets/img/canyon/memory/26.jpg,canyon,30.0,False,True,revaluation,2.0,"{""ArrowUp,ArrowLeft"":23,""ArrowUp,ArrowRight"":10,""ArrowDown,ArrowLeft"":8,""ArrowDown,ArrowRight"":30}",32,,,False,5,670.0,349.5,ArrowDown,ArrowRight,True,True,30.0,,30,True
438,118,388,7,value training,False,./assets/img/canyon/memory/41.jpg,canyon,30.0,False,True,revaluation,2.0,"{""ArrowUp,ArrowLeft"":23,""ArrowUp,ArrowRight"":10,""ArrowDown,ArrowLeft"":8,""ArrowDown,ArrowRight"":30}",33,,,False,5,545.7999999821186,380.90000000596046,ArrowDown,ArrowRight,True,True,30.0,,30,True
439,119,390,7,value training,False,./assets/img/canyon/memory/28.jpg,canyon,30.0,False,True,revaluation,2.0,"{""ArrowUp,ArrowLeft"":23,""ArrowUp,ArrowRight"":10,""ArrowDown,ArrowLeft"":8,""ArrowDown,ArrowRight"":30}",34,,,False,5,647.1999999880791,431.69999998807907,ArrowDown,ArrowRight,True,True,30.0,,30,True
440,120,392,7,value training,False,./assets/img/canyon/memory/9.jpg,canyon,30.0,False,True,revaluation,2.0,"{""ArrowUp,ArrowLeft"":23,""ArrowUp,ArrowRight"":10,""ArrowDown,ArrowLeft"":8,""ArrowDown,ArrowRight"":30}",35,,,False,5,668.5,377.30000001192093,ArrowDown,ArrowRight,True,True,30.0,,30,True
441,121,394,7,value training,False,./assets/img/canyon/memory/13.jpg,canyon,30.0,False,True,revaluation,2.0,"{""ArrowUp,ArrowLeft"":23,""ArrowUp,ArrowRight"":10,""ArrowDown,ArrowLeft"":8,""ArrowDown,ArrowRight"":30}",36,,,False,5,446.69999998807907,448.09999999403954,ArrowDown,ArrowRight,True,True,30.0,,35,True
442,122,396,7,value training,False,./assets/img/canyon/memory/39.jpg,canyon,30.0,False,True,revaluation,2.0,"{""ArrowUp,ArrowLeft"":23,""ArrowUp,ArrowRight"":10,""ArrowDown,ArrowLeft"":8,""ArrowDown,ArrowRight"":30}",37,,,False,5,461.40000000596046,431.80000001192093,ArrowDown,ArrowRight,True,True,30.0,,35,True
443,123,398,7,value training,False,./assets/img/canyon/memory/39.jpg,canyon,30.0,False,True,revaluation,2.0,"{""ArrowUp,ArrowLeft"":23,""ArrowUp,ArrowRight"":10,""ArrowDown,ArrowLeft"":8,""ArrowDown,ArrowRight"":30}",38,,,False,5,416.60000002384186,422.5,ArrowDown,ArrowRight,True,True,30.0,,35,True
444,124,400,7,value training,False,./assets/img/canyon/memory/16.jpg,canyon,30.0,False,True,revaluation,2.0,"{""ArrowUp,ArrowLeft"":23,""ArrowUp,ArrowRight"":10,""ArrowDown,ArrowLeft"":8,""ArrowDown,ArrowRight"":30}",39,,,False,5,437.19999998807907,417.5,ArrowDown,ArrowRight,True,True,30.0,,35,True
446,126,404,7,value training,False,./assets/img/canyon/memory/7.jpg,canyon,30.0,False,True,revaluation,2.0,"{""ArrowUp,ArrowLeft"":23,""ArrowUp,ArrowRight"":10,""ArrowDown,ArrowLeft"":8,""ArrowDown,ArrowRight"":30}",40,,,False,5,559.0,327.39999997615814,ArrowDown,ArrowRight,True,True,30.0,,35,True
448,128,408,7,value training,False,./assets/img/canyon/memory/40.jpg,canyon,30.0,False,True,revaluation,2.0,"{""ArrowUp,ArrowLeft"":23,""ArrowUp,ArrowRight"":10,""ArrowDown,ArrowLeft"":8,""ArrowDown,ArrowRight"":30}",41,,,False,5,465.40000000596046,516.5999999940395,ArrowDown,ArrowRight,True,True,30.0,,40,True
449,129,410,7,value training,False,./assets/img/canyon/memory/2.jpg,canyon,30.0,False,True,revaluation,2.0,"{""ArrowUp,ArrowLeft"":23,""ArrowUp,ArrowRight"":10,""ArrowDown,ArrowLeft"":8,""ArrowDown,ArrowRight"":30}",42,,,False,5,576.1999999880791,431.2999999821186,ArrowDown,ArrowRight,True,True,30.0,,40,True
480,0,138,8,value training,False,./assets/img/ocean/memory/7.jpg,ocean,10.0,False,False,revaluation,1.0,"{""ArrowUp,ArrowLeft"":26,""ArrowUp,ArrowRight"":10,""ArrowDown,ArrowLeft"":5,""ArrowDown,ArrowRight"":17}",1,,,True,4,924.9000000059605,827.3000000119209,ArrowUp,ArrowRight,True,False,26.0,,0,False
483,3,144,8,value training,False,./assets/img/ocean/memory/7.jpg,ocean,26.0,False,True,revaluation,1.0,"{""ArrowUp,ArrowLeft"":26,""ArrowUp,ArrowRight"":10,""ArrowDown,ArrowLeft"":5,""ArrowDown,ArrowRight"":17}",2,,,True,4,690.3000000119209,448.5,ArrowUp,ArrowLeft,True,True,26.0,,0,True
484,4,146,8,value training,False,./assets/img/ocean/memory/23.jpg,ocean,5.0,False,False,revaluation,1.0,"{""ArrowUp,ArrowLeft"":26,""ArrowUp,ArrowRight"":10,""ArrowDown,ArrowLeft"":5,""ArrowDown,ArrowRight"":17}",3,,,True,4,1036.699999988079,636.3999999761581,ArrowDown,ArrowLeft,False,False,26.0,,0,False
486,6,150,8,value training,False,./assets/img/ocean/memory/39.jpg,ocean,17.0,False,False,revaluation,1.0,"{""ArrowUp,ArrowLeft"":26,""ArrowUp,ArrowRight"":10,""ArrowDown,ArrowLeft"":5,""ArrowDown,ArrowRight"":17}",4,,,True,4,881.0,558.0999999940395,ArrowDown,ArrowRight,False,True,26.0,,0,False
487,7,152,8,value training,False,./assets/img/ocean/memory/41.jpg,ocean,26.0,False,True,revaluation,1.0,"{""ArrowUp,ArrowLeft"":26,""ArrowUp,ArrowRight"":10,""ArrowDown,ArrowLeft"":5,""ArrowDown,ArrowRight"":17}",5,,,True,4,760.6999999880791,584.0,ArrowUp,ArrowLeft,True,True,26.0,,0,True
488,8,154,8,value training,False,./assets/img/ocean/memory/27.jpg,ocean,26.0,False,True,revaluation,1.0,"{""ArrowUp,ArrowLeft"":26,""ArrowUp,ArrowRight"":10,""ArrowDown,ArrowLeft"":5,""ArrowDown,ArrowRight"":17}",6,,,True,4,882.3000000119209,575.1999999880791,ArrowUp,ArrowLeft,True,True,26.0,,5,True
489,9,156,8,value training,False,./assets/img/ocean/memory/34.jpg,ocean,26.0,False,True,revaluation,1.0,"{""ArrowUp,ArrowLeft"":26,""ArrowUp,ArrowRight"":10,""ArrowDown,ArrowLeft"":5,""ArrowDown,ArrowRight"":17}",7,,,True,4,887.2999999821186,607.6000000238419,ArrowUp,ArrowLeft,True,True,26.0,,5,True
490,10,158,8,value training,False,./assets/img/ocean/memory/35.jpg,ocean,26.0,False,True,revaluation,1.0,"{""ArrowUp,ArrowLeft"":26,""ArrowUp,ArrowRight"":10,""ArrowDown,ArrowLeft"":5,""ArrowDown,ArrowRight"":17}",8,,,True,4,970.7999999821186,431.40000000596046,ArrowUp,ArrowLeft,True,True,26.0,,5,True
491,11,160,8,value training,False,./assets/img/ocean/memory/29.jpg,ocean,26.0,False,True,revaluation,1.0,"{""ArrowUp,ArrowLeft"":26,""ArrowUp,ArrowRight"":10,""ArrowDown,ArrowLeft"":5,""ArrowDown,ArrowRight"":17}",9,,,True,4,964.9000000059605,530.1999999880791,ArrowUp,ArrowLeft,True,True,26.0,,5,True
493,13,164,8,value training,False,./assets/img/ocean/memory/5.jpg,ocean,26.0,False,True,revaluation,1.0,"{""ArrowUp,ArrowLeft"":26,""ArrowUp,ArrowRight"":10,""ArrowDown,ArrowLeft"":5,""ArrowDown,ArrowRight"":17}",10,,,True,4,1549.199999988079,514.3000000119209,ArrowUp,ArrowLeft,True,True,26.0,,5,True
494,14,166,8,value training,False,./assets/img/ocean/memory/30.jpg,ocean,26.0,False,True,revaluation,1.0,"{""ArrowUp,ArrowLeft"":26,""ArrowUp,ArrowRight"":10,""ArrowDown,ArrowLeft"":5,""ArrowDown,ArrowRight"":17}",11,,,True,4,1058.300000011921,507.90000000596046,ArrowUp,ArrowLeft,True,True,26.0,,10,True
495,15,168,8,value training,False,./assets/img/ocean/memory/6.jpg,ocean,26.0,False,True,revaluation,1.0,"{""ArrowUp,ArrowLeft"":26,""ArrowUp,ArrowRight"":10,""ArrowDown,ArrowLeft"":5,""ArrowDown,ArrowRight"":17}",12,,,True,4,952.0,433.2999999821186,ArrowUp,ArrowLeft,True,True,26.0,,10,True
496,16,170,8,value training,False,./assets/img/ocean/memory/3.jpg,ocean,26.0,False,True,revaluation,1.0,"{""ArrowUp,ArrowLeft"":26,""ArrowUp,ArrowRight"":10,""ArrowDown,ArrowLeft"":5,""ArrowDown,ArrowRight"":17}",13,,,True,4,1052.800000011921,497.7999999821186,ArrowUp,ArrowLeft,True,True,26.0,,10,True
497,17,172,8,value training,False,./assets/img/ocean/memory/28.jpg,ocean,26.0,False,True,revaluation,1.0,"{""ArrowUp,ArrowLeft"":26,""ArrowUp,ArrowRight"":10,""ArrowDown,ArrowLeft"":5,""ArrowDown,ArrowRight"":17}",14,,,True,4,967.7000000178814,640.4000000059605,ArrowUp,ArrowLeft,True,True,26.0,,10,True
498,18,174,8,value training,False,./assets/img/ocean/memory/38.jpg,ocean,26.0,False,True,revaluation,1.0,"{""ArrowUp,ArrowLeft"":26,""ArrowUp,ArrowRight"":10,""ArrowDown,ArrowLeft"":5,""ArrowDown,ArrowRight"":17}",15,,,True,4,1441.4000000059605,583.2999999821186,ArrowUp,ArrowLeft,True,True,26.0,,10,True
499,19,176,8,value training,False,./assets/img/ocean/memory/39.jpg,ocean,26.0,False,True,revaluation,1.0,"{""ArrowUp,ArrowLeft"":26,""ArrowUp,ArrowRight"":10,""ArrowDown,ArrowLeft"":5,""ArrowDown,ArrowRight"":17}",16,,,True,4,1088.300000011921,416.90000000596046,ArrowUp,ArrowLeft,True,True,26.0,,15,True
500,20,178,8,value training,False,./assets/img/ocean/memory/0.jpg,ocean,26.0,False,True,revaluation,1.0,"{""ArrowUp,ArrowLeft"":26,""ArrowUp,ArrowRight"":10,""ArrowDown,ArrowLeft"":5,""ArrowDown,ArrowRight"":17}",17,,,True,4,1120.7000000178814,442.59999999403954,ArrowUp,ArrowLeft,True,True,26.0,,15,True
501,21,180,8,value training,False,./assets/img/ocean/memory/13.jpg,ocean,10.0,False,False,revaluation,1.0,"{""ArrowUp,ArrowLeft"":26,""ArrowUp,ArrowRight"":10,""ArrowDown,ArrowLeft"":5,""ArrowDown,ArrowRight"":17}",18,,,True,4,1598.8999999761581,938.2000000178814,ArrowUp,ArrowRight,True,False,26.0,,15,False
503,23,184,8,value training,False,./assets/img/ocean/memory/5.jpg,ocean,26.0,False,True,revaluation,1.0,"{""ArrowUp,ArrowLeft"":26,""ArrowUp,ArrowRight"":10,""ArrowDown,ArrowLeft"":5,""ArrowDown,ArrowRight"":17}",19,,,True,4,899.6999999880791,312.40000000596046,ArrowUp,ArrowLeft,True,True,26.0,,15,True
504,24,186,8,value training,False,./assets/img/ocean/memory/23.jpg,ocean,26.0,False,True,revaluation,1.0,"{""ArrowUp,ArrowLeft"":26,""ArrowUp,ArrowRight"":10,""ArrowDown,ArrowLeft"":5,""ArrowDown,ArrowRight"":17}",20,,,True,4,1194.699999988079,503.59999999403954,ArrowUp,ArrowLeft,True,True,26.0,,15,True
505,25,188,8,value training,False,./assets/img/ocean/memory/38.jpg,ocean,26.0,False,True,revaluation,1.0,"{""ArrowUp,ArrowLeft"":26,""ArrowUp,ArrowRight"":10,""ArrowDown,ArrowLeft"":5,""ArrowDown,ArrowRight"":17}",21,,,True,4,1107.0,496.40000000596046,ArrowUp,ArrowLeft,True,True,26.0,,20,True
506,26,190,8,value training,False,./assets/img/ocean/memory/9.jpg,ocean,26.0,False,True,revaluation,1.0,"{""ArrowUp,ArrowLeft"":26,""ArrowUp,ArrowRight"":10,""ArrowDown,ArrowLeft"":5,""ArrowDown,ArrowRight"":17}",22,,,True,4,1008.1000000238419,396.59999999403954,ArrowUp,ArrowLeft,True,True,26.0,,20,True
507,27,192,8,value training,False,./assets/img/ocean/memory/20.jpg,ocean,26.0,False,True,revaluation,1.0,"{""ArrowUp,ArrowLeft"":26,""ArrowUp,ArrowRight"":10,""ArrowDown,ArrowLeft"":5,""ArrowDown,ArrowRight"":17}",23,,,True,4,1189.7999999821186,494.69999998807907,ArrowUp,ArrowLeft,True,True,26.0,,20,True
508,28,194,8,value training,False,./assets/img/ocean/memory/15.jpg,ocean,26.0,False,True,revaluation,1.0,"{""ArrowUp,ArrowLeft"":26,""ArrowUp,ArrowRight"":10,""ArrowDown,ArrowLeft"":5,""ArrowDown,ArrowRight"":17}",24,,,True,4,985.5999999940395,349.30000001192093,ArrowUp,ArrowLeft,True,True,26.0,,20,True
509,29,196,8,value training,False,./assets/img/ocean/memory/6.jpg,ocean,26.0,False,True,revaluation,1.0,"{""ArrowUp,ArrowLeft"":26,""ArrowUp,ArrowRight"":10,""ArrowDown,ArrowLeft"":5,""ArrowDown,ArrowRight"":17}",25,,,True,4,711.3000000119209,371.69999998807907,ArrowUp,ArrowLeft,True,True,26.0,,20,True
512,32,202,8,value training,False,./assets/img/ocean/memory/41.jpg,ocean,26.0,False,True,revaluation,1.0,"{""ArrowUp,ArrowLeft"":26,""ArrowUp,ArrowRight"":10,""ArrowDown,ArrowLeft"":5,""ArrowDown,ArrowRight"":17}",26,,,True,4,769.3000000119209,300.0,ArrowUp,ArrowLeft,True,True,26.0,,25,True
513,33,204,8,value training,False,./assets/img/ocean/memory/27.jpg,ocean,26.0,False,True,revaluation,1.0,"{""ArrowUp,ArrowLeft"":26,""ArrowUp,ArrowRight"":10,""ArrowDown,ArrowLeft"":5,""ArrowDown,ArrowRight"":17}",27,,,True,4,741.1999999880791,359.5,ArrowUp,ArrowLeft,True,True,26.0,,25,True
515,35,208,8,value training,False,./assets/img/ocean/memory/9.jpg,ocean,26.0,False,True,revaluation,1.0,"{""ArrowUp,ArrowLeft"":26,""ArrowUp,ArrowRight"":10,""ArrowDown,ArrowLeft"":5,""ArrowDown,ArrowRight"":17}",28,,,True,4,868.0999999940395,323.69999998807907,ArrowUp,ArrowLeft,True,True,26.0,,25,True
516,36,210,8,value training,False,./assets/img/ocean/memory/34.jpg,ocean,17.0,False,False,revaluation,1.0,"{""ArrowUp,ArrowLeft"":26,""ArrowUp,ArrowRight"":10,""ArrowDown,ArrowLeft"":5,""ArrowDown,ArrowRight"":17}",29,,,True,4,738.4000000059605,271.40000000596046,ArrowDown,ArrowRight,False,True,26.0,,25,False
518,38,214,8,value training,False,./assets/img/ocean/memory/20.jpg,ocean,5.0,False,False,revaluation,1.0,"{""ArrowUp,ArrowLeft"":26,""ArrowUp,ArrowRight"":10,""ArrowDown,ArrowLeft"":5,""ArrowDown,ArrowRight"":17}",31,,,True,4,939.4000000059605,263.80000001192093,ArrowDown,ArrowLeft,False,False,26.0,,30,False
519,39,216,8,value training,False,./assets/img/ocean/memory/35.jpg,ocean,26.0,False,True,revaluation,1.0,"{""ArrowUp,ArrowLeft"":26,""ArrowUp,ArrowRight"":10,""ArrowDown,ArrowLeft"":5,""ArrowDown,ArrowRight"":17}",32,,,True,4,808.7000000178814,436.2000000178814,ArrowUp,ArrowLeft,True,True,26.0,,30,True
520,40,218,8,value training,False,./assets/img/ocean/memory/0.jpg,ocean,26.0,False,True,revaluation,1.0,"{""ArrowUp,ArrowLeft"":26,""ArrowUp,ArrowRight"":10,""ArrowDown,ArrowLeft"":5,""ArrowDown,ArrowRight"":17}",33,,,True,4,840.5,406.7000000178814,ArrowUp,ArrowLeft,True,True,26.0,,30,True
521,41,220,8,value training,False,./assets/img/ocean/memory/10.jpg,ocean,26.0,False,True,revaluation,1.0,"{""ArrowUp,ArrowLeft"":26,""ArrowUp,ArrowRight"":10,""ArrowDown,ArrowLeft"":5,""ArrowDown,ArrowRight"":17}",34,,,True,4,680.9000000059605,435.90000000596046,ArrowUp,ArrowLeft,True,True,26.0,,30,True
522,42,222,8,value training,False,./assets/img/ocean/memory/1.jpg,ocean,26.0,False,True,revaluation,1.0,"{""ArrowUp,ArrowLeft"":26,""ArrowUp,ArrowRight"":10,""ArrowDown,ArrowLeft"":5,""ArrowDown,ArrowRight"":17}",35,,,True,4,851.1999999880791,456.59999999403954,ArrowUp,ArrowLeft,True,True,26.0,,30,True
523,43,224,8,value training,False,./assets/img/ocean/memory/28.jpg,ocean,26.0,False,True,revaluation,1.0,"{""ArrowUp,ArrowLeft"":26,""ArrowUp,ArrowRight"":10,""ArrowDown,ArrowLeft"":5,""ArrowDown,ArrowRight"":17}",36,,,True,4,748.6999999880791,417.80000001192093,ArrowUp,ArrowLeft,True,True,26.0,,35,True
524,44,226,8,value training,False,./assets/img/ocean/memory/3.jpg,ocean,26.0,False,True,revaluation,1.0,"{""ArrowUp,ArrowLeft"":26,""ArrowUp,ArrowRight"":10,""ArrowDown,ArrowLeft"":5,""ArrowDown,ArrowRight"":17}",37,,,True,4,861.5999999940395,514.5999999940395,ArrowUp,ArrowLeft,True,True,26.0,,35,True
525,45,228,8,value training,False,./assets/img/ocean/memory/29.jpg,ocean,26.0,False,True,revaluation,1.0,"{""ArrowUp,ArrowLeft"":26,""ArrowUp,ArrowRight"":10,""ArrowDown,ArrowLeft"":5,""ArrowDown,ArrowRight"":17}",38,,,True,4,634.5999999940395,396.80000001192093,ArrowUp,ArrowLeft,True,True,26.0,,35,True
526,46,230,8,value training,False,./assets/img/ocean/memory/15.jpg,ocean,26.0,False,True,revaluation,1.0,"{""ArrowUp,ArrowLeft"":26,""ArrowUp,ArrowRight"":10,""ArrowDown,ArrowLeft"":5,""ArrowDown,ArrowRight"":17}",39,,,True,4,744.5999999940395,385.09999999403954,ArrowUp,ArrowLeft,True,True,26.0,,35,True
527,47,232,8,value training,False,./assets/img/ocean/memory/30.jpg,ocean,26.0,False,True,revaluation,1.0,"{""ArrowUp,ArrowLeft"":26,""ArrowUp,ArrowRight"":10,""ArrowDown,ArrowLeft"":5,""ArrowDown,ArrowRight"":17}",40,,,True,4,766.4000000059605,563.5,ArrowUp,ArrowLeft,True,True,26.0,,35,True
528,48,234,8,value training,False,./assets/img/ocean/memory/10.jpg,ocean,26.0,False,True,revaluation,1.0,"{""ArrowUp,ArrowLeft"":26,""ArrowUp,ArrowRight"":10,""ArrowDown,ArrowLeft"":5,""ArrowDown,ArrowRight"":17}",41,,,True,4,578.5,361.30000001192093,ArrowUp,ArrowLeft,True,True,26.0,,40,True
529,49,236,8,value training,False,./assets/img/ocean/memory/1.jpg,ocean,26.0,False,True,revaluation,1.0,"{""ArrowUp,ArrowLeft"":26,""ArrowUp,ArrowRight"":10,""ArrowDown,ArrowLeft"":5,""ArrowDown,ArrowRight"":17}",42,,,True,4,599.2000000178814,430.90000000596046,ArrowUp,ArrowLeft,True,True,26.0,,40,True
560,80,320,8,value training,False,./assets/img/canyon/memory/35.jpg,canyon,10.0,False,False,original,2.0,"{""ArrowUp,ArrowLeft"":23,""ArrowUp,ArrowRight"":10,""ArrowDown,ArrowLeft"":8,""ArrowDown,ArrowRight"":30}",1,,,True,4,1061.199999988079,605.5,ArrowUp,ArrowRight,False,False,30.0,,0,False
561,81,322,8,value training,False,./assets/img/canyon/memory/29.jpg,canyon,23.0,False,False,original,2.0,"{""ArrowUp,ArrowLeft"":23,""ArrowUp,ArrowRight"":10,""ArrowDown,ArrowLeft"":8,""ArrowDown,ArrowRight"":30}",2,,,True,4,509.09999999403954,283.59999999403954,ArrowUp,ArrowLeft,False,True,30.0,,0,False
562,82,324,8,value training,False,./assets/img/canyon/memory/20.jpg,canyon,30.0,False,True,original,2.0,"{""ArrowUp,ArrowLeft"":23,""ArrowUp,ArrowRight"":10,""ArrowDown,ArrowLeft"":8,""ArrowDown,ArrowRight"":30}",3,,,True,4,492.5,405.19999998807907,ArrowDown,ArrowRight,True,True,30.0,,0,True
563,83,326,8,value training,False,./assets/img/canyon/memory/30.jpg,canyon,8.0,False,False,original,2.0,"{""ArrowUp,ArrowLeft"":23,""ArrowUp,ArrowRight"":10,""ArrowDown,ArrowLeft"":8,""ArrowDown,ArrowRight"":30}",4,,,True,4,603.5999999940395,274.7000000178814,ArrowDown,ArrowLeft,True,False,30.0,,0,False
564,84,328,8,value training,False,./assets/img/canyon/memory/5.jpg,canyon,30.0,False,True,original,2.0,"{""ArrowUp,ArrowLeft"":23,""ArrowUp,ArrowRight"":10,""ArrowDown,ArrowLeft"":8,""ArrowDown,ArrowRight"":30}",5,,,True,4,577.6999999880791,420.90000000596046,ArrowDown,ArrowRight,True,True,30.0,,0,True
565,85,330,8,value training,False,./assets/img/canyon/memory/30.jpg,canyon,30.0,False,True,original,2.0,"{""ArrowUp,ArrowLeft"":23,""ArrowUp,ArrowRight"":10,""ArrowDown,ArrowLeft"":8,""ArrowDown,ArrowRight"":30}",6,,,True,4,643.1999999880791,402.90000000596046,ArrowDown,ArrowRight,True,True,30.0,,5,True
566,86,332,8,value training,False,./assets/img/canyon/memory/41.jpg,canyon,30.0,False,True,original,2.0,"{""ArrowUp,ArrowLeft"":23,""ArrowUp,ArrowRight"":10,""ArrowDown,ArrowLeft"":8,""ArrowDown,ArrowRight"":30}",7,,,True,4,849.0,382.69999998807907,ArrowDown,ArrowRight,True,True,30.0,,5,True
567,87,334,8,value training,False,./assets/img/canyon/memory/9.jpg,canyon,30.0,False,True,original,2.0,"{""ArrowUp,ArrowLeft"":23,""ArrowUp,ArrowRight"":10,""ArrowDown,ArrowLeft"":8,""ArrowDown,ArrowRight"":30}",8,,,True,4,899.3000000119209,343.19999998807907,ArrowDown,ArrowRight,True,True,30.0,,5,True
569,89,338,8,value training,False,./assets/img/canyon/memory/41.jpg,canyon,30.0,False,True,original,2.0,"{""ArrowUp,ArrowLeft"":23,""ArrowUp,ArrowRight"":10,""ArrowDown,ArrowLeft"":8,""ArrowDown,ArrowRight"":30}",9,,,True,4,507.0,334.7000000178814,ArrowDown,ArrowRight,True,True,30.0,,5,True
572,92,344,8,value training,False,./assets/img/canyon/memory/39.jpg,canyon,30.0,False,True,original,2.0,"{""ArrowUp,ArrowLeft"":23,""ArrowUp,ArrowRight"":10,""ArrowDown,ArrowLeft"":8,""ArrowDown,ArrowRight"":30}",10,,,True,4,1576.199999988079,519.8000000119209,ArrowDown,ArrowRight,True,True,30.0,,5,True
573,93,346,8,value training,False,./assets/img/canyon/memory/6.jpg,canyon,30.0,False,True,original,2.0,"{""ArrowUp,ArrowLeft"":23,""ArrowUp,ArrowRight"":10,""ArrowDown,ArrowLeft"":8,""ArrowDown,ArrowRight"":30}",11,,,True,4,1272.0,480.09999999403954,ArrowDown,ArrowRight,True,True,30.0,,10,True
574,94,348,8,value training,False,./assets/img/canyon/memory/6.jpg,canyon,30.0,False,True,original,2.0,"{""ArrowUp,ArrowLeft"":23,""ArrowUp,ArrowRight"":10,""ArrowDown,ArrowLeft"":8,""ArrowDown,ArrowRight"":30}",12,,,True,4,1188.7000000178814,354.5,ArrowDown,ArrowRight,True,True,30.0,,10,True
575,95,350,8,value training,False,./assets/img/canyon/memory/23.jpg,canyon,30.0,False,True,original,2.0,"{""ArrowUp,ArrowLeft"":23,""ArrowUp,ArrowRight"":10,""ArrowDown,ArrowLeft"":8,""ArrowDown,ArrowRight"":30}",13,,,True,4,939.8000000119209,369.0,ArrowDown,ArrowRight,True,True,30.0,,10,True
576,96,352,8,value training,False,./assets/img/canyon/memory/15.jpg,canyon,30.0,False,True,original,2.0,"{""ArrowUp,ArrowLeft"":23,""ArrowUp,ArrowRight"":10,""ArrowDown,ArrowLeft"":8,""ArrowDown,ArrowRight"":30}",14,,,True,4,1394.5999999940395,502.59999999403954,ArrowDown,ArrowRight,True,True,30.0,,10,True
578,98,356,8,value training,False,./assets/img/canyon/memory/15.jpg,canyon,30.0,False,True,original,2.0,"{""ArrowUp,ArrowLeft"":23,""ArrowUp,ArrowRight"":10,""ArrowDown,ArrowLeft"":8,""ArrowDown,ArrowRight"":30}",15,,,True,4,1236.0999999940395,345.19999998807907,ArrowDown,ArrowRight,True,True,30.0,,10,True
579,99,358,8,value training,False,./assets/img/canyon/memory/23.jpg,canyon,30.0,False,True,original,2.0,"{""ArrowUp,ArrowLeft"":23,""ArrowUp,ArrowRight"":10,""ArrowDown,ArrowLeft"":8,""ArrowDown,ArrowRight"":30}",16,,,True,4,767.9000000059605,595.8999999761581,ArrowDown,ArrowRight,True,True,30.0,,15,True
580,100,360,8,value training,False,./assets/img/canyon/memory/28.jpg,canyon,30.0,False,True,original,2.0,"{""ArrowUp,ArrowLeft"":23,""ArrowUp,ArrowRight"":10,""ArrowDown,ArrowLeft"":8,""ArrowDown,ArrowRight"":30}",17,,,True,4,1343.4000000059605,349.2000000178814,ArrowDown,ArrowRight,True,True,30.0,,15,True
581,101,362,8,value training,False,./assets/img/canyon/memory/9.jpg,canyon,30.0,False,True,original,2.0,"{""ArrowUp,ArrowLeft"":23,""ArrowUp,ArrowRight"":10,""ArrowDown,ArrowLeft"":8,""ArrowDown,ArrowRight"":30}",18,,,True,4,955.6000000238419,299.80000001192093,ArrowDown,ArrowRight,True,True,30.0,,15,True
582,102,364,8,value training,False,./assets/img/canyon/memory/35.jpg,canyon,30.0,False,True,original,2.0,"{""ArrowUp,ArrowLeft"":23,""ArrowUp,ArrowRight"":10,""ArrowDown,ArrowLeft"":8,""ArrowDown,ArrowRight"":30}",19,,,True,4,1179.0,369.80000001192093,ArrowDown,ArrowRight,True,True,30.0,,15,True
584,104,368,8,value training,False,./assets/img/canyon/memory/5.jpg,canyon,30.0,False,True,original,2.0,"{""ArrowUp,ArrowLeft"":23,""ArrowUp,ArrowRight"":10,""ArrowDown,ArrowLeft"":8,""ArrowDown,ArrowRight"":30}",20,,,True,4,1037.5999999940395,569.2999999821186,ArrowDown,ArrowRight,True,True,30.0,,15,True
585,105,370,8,value training,False,./assets/img/canyon/memory/13.jpg,canyon,30.0,False,True,original,2.0,"{""ArrowUp,ArrowLeft"":23,""ArrowUp,ArrowRight"":10,""ArrowDown,ArrowLeft"":8,""ArrowDown,ArrowRight"":30}",21,,,True,4,1037.4000000059605,658.2999999821186,ArrowDown,ArrowRight,True,True,30.0,,20,True
586,106,372,8,value training,False,./assets/img/canyon/memory/10.jpg,canyon,30.0,False,True,original,2.0,"{""ArrowUp,ArrowLeft"":23,""ArrowUp,ArrowRight"":10,""ArrowDown,ArrowLeft"":8,""ArrowDown,ArrowRight"":30}",22,,,True,4,1178.4000000059605,342.19999998807907,ArrowDown,ArrowRight,True,True,30.0,,20,True
587,107,374,8,value training,False,./assets/img/canyon/memory/0.jpg,canyon,30.0,False,True,original,2.0,"{""ArrowUp,ArrowLeft"":23,""ArrowUp,ArrowRight"":10,""ArrowDown,ArrowLeft"":8,""ArrowDown,ArrowRight"":30}",23,,,True,4,1245.0,530.8999999761581,ArrowDown,ArrowRight,True,True,30.0,,20,True
588,108,376,8,value training,False,./assets/img/canyon/memory/27.jpg,canyon,30.0,False,True,original,2.0,"{""ArrowUp,ArrowLeft"":23,""ArrowUp,ArrowRight"":10,""ArrowDown,ArrowLeft"":8,""ArrowDown,ArrowRight"":30}",24,,,True,4,1016.9000000059605,391.09999999403954,ArrowDown,ArrowRight,True,True,30.0,,20,True
589,109,378,8,value training,False,./assets/img/canyon/memory/29.jpg,canyon,30.0,False,True,original,2.0,"{""ArrowUp,ArrowLeft"":23,""ArrowUp,ArrowRight"":10,""ArrowDown,ArrowLeft"":8,""ArrowDown,ArrowRight"":30}",25,,,True,4,1062.5,416.09999999403954,ArrowDown,ArrowRight,True,True,30.0,,20,True
590,110,380,8,value training,False,./assets/img/canyon/memory/7.jpg,canyon,30.0,False,True,original,2.0,"{""ArrowUp,ArrowLeft"":23,""ArrowUp,ArrowRight"":10,""ArrowDown,ArrowLeft"":8,""ArrowDown,ArrowRight"":30}",26,,,True,4,1241.800000011921,443.90000000596046,ArrowDown,ArrowRight,True,True,30.0,,25,True
592,112,384,8,value training,False,./assets/img/canyon/memory/3.jpg,canyon,30.0,False,True,original,2.0,"{""ArrowUp,ArrowLeft"":23,""ArrowUp,ArrowRight"":10,""ArrowDown,ArrowLeft"":8,""ArrowDown,ArrowRight"":30}",27,,,True,4,1304.699999988079,490.69999998807907,ArrowDown,ArrowRight,True,True,30.0,,25,True
593,113,386,8,value training,False,./assets/img/canyon/memory/0.jpg,canyon,30.0,False,True,original,2.0,"{""ArrowUp,ArrowLeft"":23,""ArrowUp,ArrowRight"":10,""ArrowDown,ArrowLeft"":8,""ArrowDown,ArrowRight"":30}",28,,,True,4,1003.8000000119209,455.59999999403954,ArrowDown,ArrowRight,True,True,30.0,,25,True
594,114,388,8,value training,False,./assets/img/canyon/memory/34.jpg,canyon,30.0,False,True,original,2.0,"{""ArrowUp,ArrowLeft"":23,""ArrowUp,ArrowRight"":10,""ArrowDown,ArrowLeft"":8,""ArrowDown,ArrowRight"":30}",29,,,True,4,1296.800000011921,506.59999999403954,ArrowDown,ArrowRight,True,True,30.0,,25,True
596,116,392,8,value training,False,./assets/img/canyon/memory/38.jpg,canyon,30.0,False,True,original,2.0,"{""ArrowUp,ArrowLeft"":23,""ArrowUp,ArrowRight"":10,""ArrowDown,ArrowLeft"":8,""ArrowDown,ArrowRight"":30}",30,,,True,4,1421.300000011921,513.3000000119209,ArrowDown,ArrowRight,True,True,30.0,,25,True
597,117,394,8,value training,False,./assets/img/canyon/memory/1.jpg,canyon,30.0,False,True,original,2.0,"{""ArrowUp,ArrowLeft"":23,""ArrowUp,ArrowRight"":10,""ArrowDown,ArrowLeft"":8,""ArrowDown,ArrowRight"":30}",31,,,True,4,1281.7000000178814,387.5,ArrowDown,ArrowRight,True,True,30.0,,30,True
598,118,396,8,value training,False,./assets/img/canyon/memory/38.jpg,canyon,30.0,False,True,original,2.0,"{""ArrowUp,ArrowLeft"":23,""ArrowUp,ArrowRight"":10,""ArrowDown,ArrowLeft"":8,""ArrowDown,ArrowRight"":30}",32,,,True,4,1175.0,367.59999999403954,ArrowDown,ArrowRight,True,True,30.0,,30,True
599,119,398,8,value training,False,./assets/img/canyon/memory/10.jpg,canyon,30.0,False,True,original,2.0,"{""ArrowUp,ArrowLeft"":23,""ArrowUp,ArrowRight"":10,""ArrowDown,ArrowLeft"":8,""ArrowDown,ArrowRight"":30}",33,,,True,4,1346.0,497.69999998807907,ArrowDown,ArrowRight,True,True,30.0,,30,True
600,120,400,8,value training,False,./assets/img/canyon/memory/20.jpg,canyon,30.0,False,True,original,2.0,"{""ArrowUp,ArrowLeft"":23,""ArrowUp,ArrowRight"":10,""ArrowDown,ArrowLeft"":8,""ArrowDown,ArrowRight"":30}",34,,,True,4,933.0,409.59999999403954,ArrowDown,ArrowRight,True,True,30.0,,30,True
601,121,402,8,value training,False,./assets/img/canyon/memory/27.jpg,canyon,30.0,False,True,original,2.0,"{""ArrowUp,ArrowLeft"":23,""ArrowUp,ArrowRight"":10,""ArrowDown,ArrowLeft"":8,""ArrowDown,ArrowRight"":30}",35,,,True,4,1389.4000000059605,424.40000000596046,ArrowDown,ArrowRight,True,True,30.0,,30,True
602,122,404,8,value training,False,./assets/img/canyon/memory/1.jpg,canyon,30.0,False,True,original,2.0,"{""ArrowUp,ArrowLeft"":23,""ArrowUp,ArrowRight"":10,""ArrowDown,ArrowLeft"":8,""ArrowDown,ArrowRight"":30}",36,,,True,4,1458.5999999940395,496.09999999403954,ArrowDown,ArrowRight,True,True,30.0,,35,True
604,124,408,8,value training,False,./assets/img/canyon/memory/13.jpg,canyon,30.0,False,True,original,2.0,"{""ArrowUp,ArrowLeft"":23,""ArrowUp,ArrowRight"":10,""ArrowDown,ArrowLeft"":8,""ArrowDown,ArrowRight"":30}",37,,,True,4,1039.800000011921,336.19999998807907,ArrowDown,ArrowRight,True,True,30.0,,35,True
605,125,410,8,value training,False,./assets/img/canyon/memory/7.jpg,canyon,30.0,False,True,original,2.0,"{""ArrowUp,ArrowLeft"":23,""ArrowUp,ArrowRight"":10,""ArrowDown,ArrowLeft"":8,""ArrowDown,ArrowRight"":30}",38,,,True,4,951.5,384.2000000178814,ArrowDown,ArrowRight,True,True,30.0,,35,True
