,level_0,index,subject_id,task_part,timeout,stimulus,environment,score,isCatch,correct,block_condition,block_order,rewardMap,trial_num,age,gender,rest,subject_condition,rt0,rt1,response0,response1,is_optimal_first,is_optimal_second,optimal_score,categorical_age,trial
50,50,234,3,revaluation,False,./assets/img/ocean/animals/octopus.jpg,ocean,2.0,,False,revaluation,1.0,"{""ArrowUp,ArrowLeft"":2,""ArrowUp,ArrowRight"":11,""ArrowDown,ArrowLeft"":8,""ArrowDown,ArrowRight"":27}",0,,,False,8,811.8000000007451,,ArrowLeft,,,,,,0
51,51,236,3,revaluation,False,./assets/img/ocean/animals/octopus.jpg,ocean,11.0,,True,revaluation,1.0,"{""ArrowUp,ArrowLeft"":2,""ArrowUp,ArrowRight"":11,""ArrowDown,ArrowLeft"":8,""ArrowDown,ArrowRight"":27}",0,,,False,8,1272.9000000003725,,ArrowRight,,,,,,1
52,52,238,3,revaluation,False,./assets/img/ocean/animals/seahorse.jpg,ocean,8.0,,False,revaluation,1.0,"{""ArrowUp,ArrowLeft"":2,""ArrowUp,ArrowRight"":11,""ArrowDown,ArrowLeft"":8,""ArrowDown,ArrowRight"":27}",1,,,False,8,1045.7000000001863,,ArrowLeft,,,,,,0
53,53,240,3,revaluation,False,./assets/img/ocean/animals/seahorse.jpg,ocean,27.0,,True,revaluation,1.0,"{""ArrowUp,ArrowLeft"":2,""ArrowUp,ArrowRight"":11,""ArrowDown,ArrowLeft"":8,""ArrowDown,ArrowRight"":27}",1,,,False,8,357.5,,ArrowRight,,,,,,1
54,54,243,3,revaluation,False,./assets/img/ocean/animals/octopus.jpg,ocean,11.0,,True,revaluation,1.0,"{""ArrowUp,ArrowLeft"":2,""ArrowUp,ArrowRight"":11,""ArrowDown,ArrowLeft"":8,""ArrowDown,ArrowRight"":27}",2,,,False,8,1150.7000000001863,,ArrowRight,,,,,,2
55,55,245,3,revaluation,False,./assets/img/ocean/animals/seahorse.jpg,ocean,8.0,,False,revaluation,1.0,"{""ArrowUp,ArrowLeft"":2,""ArrowUp,ArrowRight"":11,""ArrowDown,ArrowLeft"":8,""ArrowDown,ArrowRight"":27}",2,,,False,8,660.1000000005588,,ArrowLeft,,,,,,2
56,56,247,3,revaluation,False,./assets/img/ocean/animals/seahorse.jpg,ocean,27.0,,True,revaluation,1.0,"{""ArrowUp,ArrowLeft"":2,""ArrowUp,ArrowRight"":11,""ArrowDown,ArrowLeft"":8,""ArrowDown,ArrowRight"":27}",3,,,False,8,626.6000000005588,,ArrowRight,,,,,,3
57,57,249,3,revaluation,False,./assets/img/ocean/animals/seahorse.jpg,ocean,27.0,,True,revaluation,1.0,"{""ArrowUp,ArrowLeft"":2,""ArrowUp,ArrowRight"":11,""ArrowDown,ArrowLeft"":8,""ArrowDown,ArrowRight"":27}",3,,,False,8,512.0999999996275,,ArrowRight,,,,,,4
58,58,252,3,revaluation,False,./assets/img/ocean/animals/seahorse.jpg,ocean,27.0,,True,revaluation,1.0,"{""ArrowUp,ArrowLeft"":2,""ArrowUp,ArrowRight"":11,""ArrowDown,ArrowLeft"":8,""ArrowDown,ArrowRight"":27}",4,,,False,8,1088.2999999998137,,ArrowRight,,,,,,5
59,59,254,3,revaluation,False,./assets/img/ocean/animals/octopus.jpg,ocean,2.0,,False,revaluation,1.0,"{""ArrowUp,ArrowLeft"":2,""ArrowUp,ArrowRight"":11,""ArrowDown,ArrowLeft"":8,""ArrowDown,ArrowRight"":27}",4,,,False,8,439.09999999962747,,ArrowLeft,,,,,,3
60,60,256,3,revaluation,False,./assets/img/ocean/animals/octopus.jpg,ocean,11.0,,True,revaluation,1.0,"{""ArrowUp,ArrowLeft"":2,""ArrowUp,ArrowRight"":11,""ArrowDown,ArrowLeft"":8,""ArrowDown,ArrowRight"":27}",5,,,False,8,618.7000000001863,,ArrowRight,,,,,,4
61,61,258,3,revaluation,False,./assets/img/ocean/animals/seahorse.jpg,ocean,27.0,,True,revaluation,1.0,"{""ArrowUp,ArrowLeft"":2,""ArrowUp,ArrowRight"":11,""ArrowDown,ArrowLeft"":8,""ArrowDown,ArrowRight"":27}",5,,,False,8,313.90000000037253,,ArrowRight,,,,,,6
62,62,261,3,revaluation,False,./assets/img/ocean/animals/octopus.jpg,ocean,11.0,,True,revaluation,1.0,"{""ArrowUp,ArrowLeft"":2,""ArrowUp,ArrowRight"":11,""ArrowDown,ArrowLeft"":8,""ArrowDown,ArrowRight"":27}",6,,,False,8,893.7999999998137,,ArrowRight,,,,,,5
63,63,263,3,revaluation,False,./assets/img/ocean/animals/seahorse.jpg,ocean,27.0,,True,revaluation,1.0,"{""ArrowUp,ArrowLeft"":2,""ArrowUp,ArrowRight"":11,""ArrowDown,ArrowLeft"":8,""ArrowDown,ArrowRight"":27}",6,,,False,8,444.29999999981374,,ArrowRight,,,,,,7
64,64,265,3,revaluation,False,./assets/img/ocean/animals/octopus.jpg,ocean,11.0,,True,revaluation,1.0,"{""ArrowUp,ArrowLeft"":2,""ArrowUp,ArrowRight"":11,""ArrowDown,ArrowLeft"":8,""ArrowDown,ArrowRight"":27}",7,,,False,8,324.0,,ArrowRight,,,,,,6
65,65,267,3,revaluation,False,./assets/img/ocean/animals/octopus.jpg,ocean,11.0,,True,revaluation,1.0,"{""ArrowUp,ArrowLeft"":2,""ArrowUp,ArrowRight"":11,""ArrowDown,ArrowLeft"":8,""ArrowDown,ArrowRight"":27}",7,,,False,8,331.59999999962747,,ArrowRight,,,,,,7
66,66,270,3,revaluation,False,./assets/img/ocean/animals/octopus.jpg,ocean,11.0,,True,revaluation,1.0,"{""ArrowUp,ArrowLeft"":2,""ArrowUp,ArrowRight"":11,""ArrowDown,ArrowLeft"":8,""ArrowDown,ArrowRight"":27}",8,,,False,8,1058.9000000003725,,ArrowRight,,,,,,8
67,67,272,3,revaluation,False,./assets/img/ocean/animals/seahorse.jpg,ocean,27.0,,True,revaluation,1.0,"{""ArrowUp,ArrowLeft"":2,""ArrowUp,ArrowRight"":11,""ArrowDown,ArrowLeft"":8,""ArrowDown,ArrowRight"":27}",8,,,False,8,843.2999999998137,,ArrowRight,,,,,,8
130,130,414,3,revaluation,False,./assets/img/canyon/animals/giraffe.jpg,canyon,10.0,,False,original,2.0,"{""ArrowUp,ArrowLeft"":23,""ArrowUp,ArrowRight"":10,""ArrowDown,ArrowLeft"":8,""ArrowDown,ArrowRight"":30}",0,,,False,8,1830.0,,ArrowRight,,,,,,0
131,131,416,3,revaluation,False,./assets/img/canyon/animals/lion.jpg,canyon,8.0,,False,original,2.0,"{""ArrowUp,ArrowLeft"":23,""ArrowUp,ArrowRight"":10,""ArrowDown,ArrowLeft"":8,""ArrowDown,ArrowRight"":30}",0,,,False,8,551.5999999996275,,ArrowLeft,,,,,,0
132,132,418,3,revaluation,False,./assets/img/canyon/animals/giraffe.jpg,canyon,10.0,,False,original,2.0,"{""ArrowUp,ArrowLeft"":23,""ArrowUp,ArrowRight"":10,""ArrowDown,ArrowLeft"":8,""ArrowDown,ArrowRight"":30}",1,,,False,8,834.7000000001863,,ArrowRight,,,,,,1
133,133,420,3,revaluation,False,./assets/img/canyon/animals/lion.jpg,canyon,30.0,,True,original,2.0,"{""ArrowUp,ArrowLeft"":23,""ArrowUp,ArrowRight"":10,""ArrowDown,ArrowLeft"":8,""ArrowDown,ArrowRight"":30}",1,,,False,8,725.2000000001863,,ArrowRight,,,,,,1
134,134,423,3,revaluation,False,./assets/img/canyon/animals/giraffe.jpg,canyon,23.0,,True,original,2.0,"{""ArrowUp,ArrowLeft"":23,""ArrowUp,ArrowRight"":10,""ArrowDown,ArrowLeft"":8,""ArrowDown,ArrowRight"":30}",2,,,False,8,734.6999999992549,,ArrowLeft,,,,,,2
135,135,425,3,revaluation,False,./assets/img/canyon/animals/lion.jpg,canyon,30.0,,True,original,2.0,"{""ArrowUp,ArrowLeft"":23,""ArrowUp,ArrowRight"":10,""ArrowDown,ArrowLeft"":8,""ArrowDown,ArrowRight"":30}",2,,,False,8,834.2999999998137,,ArrowRight,,,,,,2
136,136,427,3,revaluation,False,./assets/img/canyon/animals/giraffe.jpg,canyon,23.0,,True,original,2.0,"{""ArrowUp,ArrowLeft"":23,""ArrowUp,ArrowRight"":10,""ArrowDown,ArrowLeft"":8,""ArrowDown,ArrowRight"":30}",3,,,False,8,801.4000000003725,,ArrowLeft,,,,,,3
137,137,429,3,revaluation,False,./assets/img/canyon/animals/lion.jpg,canyon,30.0,,True,original,2.0,"{""ArrowUp,ArrowLeft"":23,""ArrowUp,ArrowRight"":10,""ArrowDown,ArrowLeft"":8,""ArrowDown,ArrowRight"":30}",3,,,False,8,380.3999999994412,,ArrowRight,,,,,,3
138,138,432,3,revaluation,False,./assets/img/canyon/animals/lion.jpg,canyon,8.0,,False,original,2.0,"{""ArrowUp,ArrowLeft"":23,""ArrowUp,ArrowRight"":10,""ArrowDown,ArrowLeft"":8,""ArrowDown,ArrowRight"":30}",4,,,False,8,1005.3999999994412,,ArrowLeft,,,,,,4
139,139,434,3,revaluation,False,./assets/img/canyon/animals/lion.jpg,canyon,30.0,,True,original,2.0,"{""ArrowUp,ArrowLeft"":23,""ArrowUp,ArrowRight"":10,""ArrowDown,ArrowLeft"":8,""ArrowDown,ArrowRight"":30}",4,,,False,8,835.7000000001863,,ArrowRight,,,,,,5
140,140,436,3,revaluation,False,./assets/img/canyon/animals/giraffe.jpg,canyon,23.0,,True,original,2.0,"{""ArrowUp,ArrowLeft"":23,""ArrowUp,ArrowRight"":10,""ArrowDown,ArrowLeft"":8,""ArrowDown,ArrowRight"":30}",5,,,False,8,578.7999999998137,,ArrowLeft,,,,,,4
141,141,438,3,revaluation,False,./assets/img/canyon/animals/lion.jpg,canyon,30.0,,True,original,2.0,"{""ArrowUp,ArrowLeft"":23,""ArrowUp,ArrowRight"":10,""ArrowDown,ArrowLeft"":8,""ArrowDown,ArrowRight"":30}",5,,,False,8,290.09999999962747,,ArrowRight,,,,,,6
142,142,441,3,revaluation,False,./assets/img/canyon/animals/giraffe.jpg,canyon,10.0,,False,original,2.0,"{""ArrowUp,ArrowLeft"":23,""ArrowUp,ArrowRight"":10,""ArrowDown,ArrowLeft"":8,""ArrowDown,ArrowRight"":30}",6,,,False,8,936.0,,ArrowRight,,,,,,5
143,143,443,3,revaluation,False,./assets/img/canyon/animals/giraffe.jpg,canyon,23.0,,True,original,2.0,"{""ArrowUp,ArrowLeft"":23,""ArrowUp,ArrowRight"":10,""ArrowDown,ArrowLeft"":8,""ArrowDown,ArrowRight"":30}",6,,,False,8,589.8000000007451,,ArrowLeft,,,,,,6
144,144,445,3,revaluation,False,./assets/img/canyon/animals/lion.jpg,canyon,30.0,,True,original,2.0,"{""ArrowUp,ArrowLeft"":23,""ArrowUp,ArrowRight"":10,""ArrowDown,ArrowLeft"":8,""ArrowDown,ArrowRight"":30}",7,,,False,8,509.0,,ArrowRight,,,,,,7
145,145,447,3,revaluation,False,./assets/img/canyon/animals/giraffe.jpg,canyon,23.0,,True,original,2.0,"{""ArrowUp,ArrowLeft"":23,""ArrowUp,ArrowRight"":10,""ArrowDown,ArrowLeft"":8,""ArrowDown,ArrowRight"":30}",7,,,False,8,372.0,,ArrowLeft,,,,,,7
146,146,450,3,revaluation,False,./assets/img/canyon/animals/lion.jpg,canyon,30.0,,True,original,2.0,"{""ArrowUp,ArrowLeft"":23,""ArrowUp,ArrowRight"":10,""ArrowDown,ArrowLeft"":8,""ArrowDown,ArrowRight"":30}",8,,,False,8,1182.5999999996275,,ArrowRight,,,,,,8
147,147,452,3,revaluation,False,./assets/img/canyon/animals/giraffe.jpg,canyon,23.0,,True,original,2.0,"{""ArrowUp,ArrowLeft"":23,""ArrowUp,ArrowRight"":10,""ArrowDown,ArrowLeft"":8,""ArrowDown,ArrowRight"":30}",8,,,False,8,629.0999999996275,,ArrowLeft,,,,,,8
210,50,238,5,revaluation,False,./assets/img/ocean/animals/seahorse.jpg,ocean,7.0,,False,revaluation,1.0,"{""ArrowUp,ArrowLeft"":27,""ArrowUp,ArrowRight"":15,""ArrowDown,ArrowLeft"":21,""ArrowDown,ArrowRight"":7}",0,,,True,2,782.8999999910593,,ArrowRight,,,,,,0
211,51,240,5,revaluation,False,./assets/img/ocean/animals/octopus.jpg,ocean,27.0,,True,revaluation,1.0,"{""ArrowUp,ArrowLeft"":27,""ArrowUp,ArrowRight"":15,""ArrowDown,ArrowLeft"":21,""ArrowDown,ArrowRight"":7}",0,,,True,2,881.3999999910593,,ArrowLeft,,,,,,0
212,52,242,5,revaluation,False,./assets/img/ocean/animals/seahorse.jpg,ocean,7.0,,False,revaluation,1.0,"{""ArrowUp,ArrowLeft"":27,""ArrowUp,ArrowRight"":15,""ArrowDown,ArrowLeft"":21,""ArrowDown,ArrowRight"":7}",1,,,True,2,502.59999999403954,,ArrowRight,,,,,,1
213,53,244,5,revaluation,False,./assets/img/ocean/animals/octopus.jpg,ocean,27.0,,True,revaluation,1.0,"{""ArrowUp,ArrowLeft"":27,""ArrowUp,ArrowRight"":15,""ArrowDown,ArrowLeft"":21,""ArrowDown,ArrowRight"":7}",1,,,True,2,501.1000000089407,,ArrowLeft,,,,,,1
214,54,247,5,revaluation,False,./assets/img/ocean/animals/seahorse.jpg,ocean,7.0,,False,revaluation,1.0,"{""ArrowUp,ArrowLeft"":27,""ArrowUp,ArrowRight"":15,""ArrowDown,ArrowLeft"":21,""ArrowDown,ArrowRight"":7}",2,,,True,2,1428.7000000029802,,ArrowRight,,,,,,2
215,55,249,5,revaluation,False,./assets/img/ocean/animals/seahorse.jpg,ocean,21.0,,True,revaluation,1.0,"{""ArrowUp,ArrowLeft"":27,""ArrowUp,ArrowRight"":15,""ArrowDown,ArrowLeft"":21,""ArrowDown,ArrowRight"":7}",2,,,True,2,503.29999999701977,,ArrowLeft,,,,,,3
216,56,251,5,revaluation,False,./assets/img/ocean/animals/octopus.jpg,ocean,27.0,,True,revaluation,1.0,"{""ArrowUp,ArrowLeft"":27,""ArrowUp,ArrowRight"":15,""ArrowDown,ArrowLeft"":21,""ArrowDown,ArrowRight"":7}",3,,,True,2,770.8999999910593,,ArrowLeft,,,,,,2
217,57,253,5,revaluation,False,./assets/img/ocean/animals/octopus.jpg,ocean,27.0,,True,revaluation,1.0,"{""ArrowUp,ArrowLeft"":27,""ArrowUp,ArrowRight"":15,""ArrowDown,ArrowLeft"":21,""ArrowDown,ArrowRight"":7}",3,,,True,2,509.70000000298023,,ArrowLeft,,,,,,3
218,58,256,5,revaluation,False,./assets/img/ocean/animals/seahorse.jpg,ocean,21.0,,True,revaluation,1.0,"{""ArrowUp,ArrowLeft"":27,""ArrowUp,ArrowRight"":15,""ArrowDown,ArrowLeft"":21,""ArrowDown,ArrowRight"":7}",4,,,True,2,1166.4000000059605,,ArrowLeft,,,,,,4
219,59,258,5,revaluation,False,./assets/img/ocean/animals/octopus.jpg,ocean,27.0,,True,revaluation,1.0,"{""ArrowUp,ArrowLeft"":27,""ArrowUp,ArrowRight"":15,""ArrowDown,ArrowLeft"":21,""ArrowDown,ArrowRight"":7}",4,,,True,2,631.8999999910593,,ArrowLeft,,,,,,4
220,60,260,5,revaluation,False,./assets/img/ocean/animals/seahorse.jpg,ocean,21.0,,True,revaluation,1.0,"{""ArrowUp,ArrowLeft"":27,""ArrowUp,ArrowRight"":15,""ArrowDown,ArrowLeft"":21,""ArrowDown,ArrowRight"":7}",5,,,True,2,721.4000000059605,,ArrowLeft,,,,,,5
221,61,262,5,revaluation,False,./assets/img/ocean/animals/octopus.jpg,ocean,27.0,,True,revaluation,1.0,"{""ArrowUp,ArrowLeft"":27,""ArrowUp,ArrowRight"":15,""ArrowDown,ArrowLeft"":21,""ArrowDown,ArrowRight"":7}",5,,,True,2,610.9000000059605,,ArrowLeft,,,,,,5
222,62,265,5,revaluation,False,./assets/img/ocean/animals/seahorse.jpg,ocean,21.0,,True,revaluation,1.0,"{""ArrowUp,ArrowLeft"":27,""ArrowUp,ArrowRight"":15,""ArrowDown,ArrowLeft"":21,""ArrowDown,ArrowRight"":7}",6,,,True,2,947.1999999880791,,ArrowLeft,,,,,,6
223,63,267,5,revaluation,False,./assets/img/ocean/animals/octopus.jpg,ocean,27.0,,True,revaluation,1.0,"{""ArrowUp,ArrowLeft"":27,""ArrowUp,ArrowRight"":15,""ArrowDown,ArrowLeft"":21,""ArrowDown,ArrowRight"":7}",6,,,True,2,427.5,,ArrowLeft,,,,,,6
224,64,269,5,revaluation,False,./assets/img/ocean/animals/seahorse.jpg,ocean,21.0,,True,revaluation,1.0,"{""ArrowUp,ArrowLeft"":27,""ArrowUp,ArrowRight"":15,""ArrowDown,ArrowLeft"":21,""ArrowDown,ArrowRight"":7}",7,,,True,2,826.5999999940395,,ArrowLeft,,,,,,7
225,65,271,5,revaluation,False,./assets/img/ocean/animals/octopus.jpg,ocean,27.0,,True,revaluation,1.0,"{""ArrowUp,ArrowLeft"":27,""ArrowUp,ArrowRight"":15,""ArrowDown,ArrowLeft"":21,""ArrowDown,ArrowRight"":7}",7,,,True,2,387.20000000298023,,ArrowLeft,,,,,,7
226,66,274,5,revaluation,False,./assets/img/ocean/animals/seahorse.jpg,ocean,21.0,,True,revaluation,1.0,"{""ArrowUp,ArrowLeft"":27,""ArrowUp,ArrowRight"":15,""ArrowDown,ArrowLeft"":21,""ArrowDown,ArrowRight"":7}",8,,,True,2,1110.2000000029802,,ArrowLeft,,,,,,8
227,67,276,5,revaluation,False,./assets/img/ocean/animals/octopus.jpg,ocean,27.0,,True,revaluation,1.0,"{""ArrowUp,ArrowLeft"":27,""ArrowUp,ArrowRight"":15,""ArrowDown,ArrowLeft"":21,""ArrowDown,ArrowRight"":7}",8,,,True,2,566.2000000029802,,ArrowLeft,,,,,,8
290,130,420,5,revaluation,False,./assets/img/canyon/animals/giraffe.jpg,canyon,26.0,,True,original,2.0,"{""ArrowUp,ArrowLeft"":26,""ArrowUp,ArrowRight"":10,""ArrowDown,ArrowLeft"":5,""ArrowDown,ArrowRight"":17}",0,,,True,2,645.5,,ArrowLeft,,,,,,0
291,131,422,5,revaluation,False,./assets/img/canyon/animals/lion.jpg,canyon,17.0,,True,original,2.0,"{""ArrowUp,ArrowLeft"":26,""ArrowUp,ArrowRight"":10,""ArrowDown,ArrowLeft"":5,""ArrowDown,ArrowRight"":17}",0,,,True,2,754.4000000059605,,ArrowRight,,,,,,0
292,132,424,5,revaluation,False,./assets/img/canyon/animals/lion.jpg,canyon,5.0,,False,original,2.0,"{""ArrowUp,ArrowLeft"":26,""ArrowUp,ArrowRight"":10,""ArrowDown,ArrowLeft"":5,""ArrowDown,ArrowRight"":17}",1,,,True,2,736.5,,ArrowLeft,,,,,,1
293,133,426,5,revaluation,True,./assets/img/canyon/animals/lion.jpg,canyon,-5.0,,False,original,2.0,"{""ArrowUp,ArrowLeft"":26,""ArrowUp,ArrowRight"":10,""ArrowDown,ArrowLeft"":5,""ArrowDown,ArrowRight"":17}",1,,,True,2,,,,,,,,,2
294,134,429,5,revaluation,False,./assets/img/canyon/animals/lion.jpg,canyon,17.0,,True,original,2.0,"{""ArrowUp,ArrowLeft"":26,""ArrowUp,ArrowRight"":10,""ArrowDown,ArrowLeft"":5,""ArrowDown,ArrowRight"":17}",2,,,True,2,710.5,,ArrowRight,,,,,,3
295,135,431,5,revaluation,False,./assets/img/canyon/animals/lion.jpg,canyon,17.0,,True,original,2.0,"{""ArrowUp,ArrowLeft"":26,""ArrowUp,ArrowRight"":10,""ArrowDown,ArrowLeft"":5,""ArrowDown,ArrowRight"":17}",2,,,True,2,875.3999999910593,,ArrowRight,,,,,,4
296,136,433,5,revaluation,False,./assets/img/canyon/animals/lion.jpg,canyon,17.0,,True,original,2.0,"{""ArrowUp,ArrowLeft"":26,""ArrowUp,ArrowRight"":10,""ArrowDown,ArrowLeft"":5,""ArrowDown,ArrowRight"":17}",3,,,True,2,974.0999999940395,,ArrowRight,,,,,,5
297,137,435,5,revaluation,False,./assets/img/canyon/animals/giraffe.jpg,canyon,26.0,,True,original,2.0,"{""ArrowUp,ArrowLeft"":26,""ArrowUp,ArrowRight"":10,""ArrowDown,ArrowLeft"":5,""ArrowDown,ArrowRight"":17}",3,,,True,2,519.0,,ArrowLeft,,,,,,1
298,138,438,5,revaluation,False,./assets/img/canyon/animals/giraffe.jpg,canyon,26.0,,True,original,2.0,"{""ArrowUp,ArrowLeft"":26,""ArrowUp,ArrowRight"":10,""ArrowDown,ArrowLeft"":5,""ArrowDown,ArrowRight"":17}",4,,,True,2,1077.7000000029802,,ArrowLeft,,,,,,2
299,139,440,5,revaluation,False,./assets/img/canyon/animals/giraffe.jpg,canyon,26.0,,True,original,2.0,"{""ArrowUp,ArrowLeft"":26,""ArrowUp,ArrowRight"":10,""ArrowDown,ArrowLeft"":5,""ArrowDown,ArrowRight"":17}",4,,,True,2,543.1999999880791,,ArrowLeft,,,,,,3
300,140,442,5,revaluation,False,./assets/img/canyon/animals/giraffe.jpg,canyon,26.0,,True,original,2.0,"{""ArrowUp,ArrowLeft"":26,""ArrowUp,ArrowRight"":10,""ArrowDown,ArrowLeft"":5,""ArrowDown,ArrowRight"":17}",5,,,True,2,1507.1000000089407,,ArrowLeft,,,,,,4
301,141,444,5,revaluation,False,./assets/img/canyon/animals/giraffe.jpg,canyon,26.0,,True,original,2.0,"{""ArrowUp,ArrowLeft"":26,""ArrowUp,ArrowRight"":10,""ArrowDown,ArrowLeft"":5,""ArrowDown,ArrowRight"":17}",5,,,True,2,601.6999999880791,,ArrowLeft,,,,,,5
302,142,447,5,revaluation,False,./assets/img/canyon/animals/lion.jpg,canyon,17.0,,True,original,2.0,"{""ArrowUp,ArrowLeft"":26,""ArrowUp,ArrowRight"":10,""ArrowDown,ArrowLeft"":5,""ArrowDown,ArrowRight"":17}",6,,,True,2,706.8999999910593,,ArrowRight,,,,,,6
303,143,449,5,revaluation,False,./assets/img/canyon/animals/giraffe.jpg,canyon,26.0,,True,original,2.0,"{""ArrowUp,ArrowLeft"":26,""ArrowUp,ArrowRight"":10,""ArrowDown,ArrowLeft"":5,""ArrowDown,ArrowRight"":17}",6,,,True,2,691.4000000059605,,ArrowLeft,,,,,,6
304,144,451,5,revaluation,False,./assets/img/canyon/animals/giraffe.jpg,canyon,26.0,,True,original,2.0,"{""ArrowUp,ArrowLeft"":26,""ArrowUp,ArrowRight"":10,""ArrowDown,ArrowLeft"":5,""ArrowDown,ArrowRight"":17}",7,,,True,2,863.6000000089407,,ArrowLeft,,,,,,7
305,145,453,5,revaluation,False,./assets/img/canyon/animals/giraffe.jpg,canyon,26.0,,True,original,2.0,"{""ArrowUp,ArrowLeft"":26,""ArrowUp,ArrowRight"":10,""ArrowDown,ArrowLeft"":5,""ArrowDown,ArrowRight"":17}",7,,,True,2,1065.2000000029802,,ArrowLeft,,,,,,8
306,146,456,5,revaluation,False,./assets/img/canyon/animals/lion.jpg,canyon,17.0,,True,original,2.0,"{""ArrowUp,ArrowLeft"":26,""ArrowUp,ArrowRight"":10,""ArrowDown,ArrowLeft"":5,""ArrowDown,ArrowRight"":17}",8,,,True,2,729.0999999940395,,ArrowRight,,,,,,7
307,147,458,5,revaluation,False,./assets/img/canyon/animals/lion.jpg,canyon,17.0,,True,original,2.0,"{""ArrowUp,ArrowLeft"":26,""ArrowUp,ArrowRight"":10,""ArrowDown,ArrowLeft"":5,""ArrowDown,ArrowRight"":17}",8,,,True,2,597.5,,ArrowRight,,,,,,8
370,50,234,7,revaluation,False,./assets/img/ocean/animals/seahorse.jpg,ocean,17.0,,True,original,1.0,"{""ArrowUp,ArrowLeft"":26,""ArrowUp,ArrowRight"":10,""ArrowDown,ArrowLeft"":5,""ArrowDown,ArrowRight"":17}",0,,,False,5,827.5,,ArrowRight,,,,,,0
371,51,236,7,revaluation,False,./assets/img/ocean/animals/seahorse.jpg,ocean,17.0,,True,original,1.0,"{""ArrowUp,ArrowLeft"":26,""ArrowUp,ArrowRight"":10,""ArrowDown,ArrowLeft"":5,""ArrowDown,ArrowRight"":17}",0,,,False,5,1148.8999999761581,,ArrowRight,,,,,,1
372,52,238,7,revaluation,False,./assets/img/ocean/animals/octopus.jpg,ocean,26.0,,True,original,1.0,"{""ArrowUp,ArrowLeft"":26,""ArrowUp,ArrowRight"":10,""ArrowDown,ArrowLeft"":5,""ArrowDown,ArrowRight"":17}",1,,,False,5,1167.5999999940395,,ArrowLeft,,,,,,0
373,53,240,7,revaluation,False,./assets/img/ocean/animals/octopus.jpg,ocean,26.0,,True,original,1.0,"{""ArrowUp,ArrowLeft"":26,""ArrowUp,ArrowRight"":10,""ArrowDown,ArrowLeft"":5,""ArrowDown,ArrowRight"":17}",1,,,False,5,999.5,,ArrowLeft,,,,,,1
374,54,243,7,revaluation,False,./assets/img/ocean/animals/octopus.jpg,ocean,26.0,,True,original,1.0,"{""ArrowUp,ArrowLeft"":26,""ArrowUp,ArrowRight"":10,""ArrowDown,ArrowLeft"":5,""ArrowDown,ArrowRight"":17}",2,,,False,5,1310.5999999940395,,ArrowLeft,,,,,,2
375,55,245,7,revaluation,False,./assets/img/ocean/animals/octopus.jpg,ocean,26.0,,True,original,1.0,"{""ArrowUp,ArrowLeft"":26,""ArrowUp,ArrowRight"":10,""ArrowDown,ArrowLeft"":5,""ArrowDown,ArrowRight"":17}",2,,,False,5,701.6999999880791,,ArrowLeft,,,,,,3
376,56,247,7,revaluation,False,./assets/img/ocean/animals/seahorse.jpg,ocean,17.0,,True,original,1.0,"{""ArrowUp,ArrowLeft"":26,""ArrowUp,ArrowRight"":10,""ArrowDown,ArrowLeft"":5,""ArrowDown,ArrowRight"":17}",3,,,False,5,841.5999999940395,,ArrowRight,,,,,,2
377,57,249,7,revaluation,False,./assets/img/ocean/animals/octopus.jpg,ocean,26.0,,True,original,1.0,"{""ArrowUp,ArrowLeft"":26,""ArrowUp,ArrowRight"":10,""ArrowDown,ArrowLeft"":5,""ArrowDown,ArrowRight"":17}",3,,,False,5,893.1999999880791,,ArrowLeft,,,,,,4
378,58,252,7,revaluation,False,./assets/img/ocean/animals/octopus.jpg,ocean,26.0,,True,original,1.0,"{""ArrowUp,ArrowLeft"":26,""ArrowUp,ArrowRight"":10,""ArrowDown,ArrowLeft"":5,""ArrowDown,ArrowRight"":17}",4,,,False,5,1399.7999999821186,,ArrowLeft,,,,,,5
379,59,254,7,revaluation,False,./assets/img/ocean/animals/seahorse.jpg,ocean,17.0,,True,original,1.0,"{""ArrowUp,ArrowLeft"":26,""ArrowUp,ArrowRight"":10,""ArrowDown,ArrowLeft"":5,""ArrowDown,ArrowRight"":17}",4,,,False,5,887.0999999940395,,ArrowRight,,,,,,3
380,60,256,7,revaluation,False,./assets/img/ocean/animals/seahorse.jpg,ocean,17.0,,True,original,1.0,"{""ArrowUp,ArrowLeft"":26,""ArrowUp,ArrowRight"":10,""ArrowDown,ArrowLeft"":5,""ArrowDown,ArrowRight"":17}",5,,,False,5,766.8000000119209,,ArrowRight,,,,,,4
381,61,258,7,revaluation,False,./assets/img/ocean/animals/seahorse.jpg,ocean,17.0,,True,original,1.0,"{""ArrowUp,ArrowLeft"":26,""ArrowUp,ArrowRight"":10,""ArrowDown,ArrowLeft"":5,""ArrowDown,ArrowRight"":17}",5,,,False,5,686.8999999761581,,ArrowRight,,,,,,5
382,62,261,7,revaluation,False,./assets/img/ocean/animals/octopus.jpg,ocean,26.0,,True,original,1.0,"{""ArrowUp,ArrowLeft"":26,""ArrowUp,ArrowRight"":10,""ArrowDown,ArrowLeft"":5,""ArrowDown,ArrowRight"":17}",6,,,False,5,967.3000000119209,,ArrowLeft,,,,,,6
383,63,263,7,revaluation,False,./assets/img/ocean/animals/seahorse.jpg,ocean,17.0,,True,original,1.0,"{""ArrowUp,ArrowLeft"":26,""ArrowUp,ArrowRight"":10,""ArrowDown,ArrowLeft"":5,""ArrowDown,ArrowRight"":17}",6,,,False,5,922.5999999940395,,ArrowRight,,,,,,6
384,64,265,7,revaluation,False,./assets/img/ocean/animals/seahorse.jpg,ocean,17.0,,True,original,1.0,"{""ArrowUp,ArrowLeft"":26,""ArrowUp,ArrowRight"":10,""ArrowDown,ArrowLeft"":5,""ArrowDown,ArrowRight"":17}",7,,,False,5,1088.5,,ArrowRight,,,,,,7
385,65,267,7,revaluation,False,./assets/img/ocean/animals/octopus.jpg,ocean,26.0,,True,original,1.0,"{""ArrowUp,ArrowLeft"":26,""ArrowUp,ArrowRight"":10,""ArrowDown,ArrowLeft"":5,""ArrowDown,ArrowRight"":17}",7,,,False,5,676.5999999940395,,ArrowLeft,,,,,,7
386,66,270,7,revaluation,False,./assets/img/ocean/animals/octopus.jpg,ocean,26.0,,True,original,1.0,"{""ArrowUp,ArrowLeft"":26,""ArrowUp,ArrowRight"":10,""ArrowDown,ArrowLeft"":5,""ArrowDown,ArrowRight"":17}",8,,,False,5,932.0999999940395,,ArrowLeft,,,,,,8
387,67,272,7,revaluation,False,./assets/img/ocean/animals/seahorse.jpg,ocean,17.0,,True,original,1.0,"{""ArrowUp,ArrowLeft"":26,""ArrowUp,ArrowRight"":10,""ArrowDown,ArrowLeft"":5,""ArrowDown,ArrowRight"":17}",8,,,False,5,519.2999999821186,,ArrowRight,,,,,,8
450,130,414,7,revaluation,False,./assets/img/canyon/animals/lion.jpg,canyon,27.0,,True,revaluation,2.0,"{""ArrowUp,ArrowLeft"":27,""ArrowUp,ArrowRight"":15,""ArrowDown,ArrowLeft"":21,""ArrowDown,ArrowRight"":7}",0,,,False,5,700.8000000119209,,ArrowLeft,,,,,,0
451,131,416,7,revaluation,True,./assets/img/canyon/animals/lion.jpg,canyon,-5.0,,False,revaluation,2.0,"{""ArrowUp,ArrowLeft"":27,""ArrowUp,ArrowRight"":15,""ArrowDown,ArrowLeft"":21,""ArrowDown,ArrowRight"":7}",0,,,False,5,,,,,,,,,1
452,132,418,7,revaluation,False,./assets/img/canyon/animals/giraffe.jpg,canyon,7.0,,False,revaluation,2.0,"{""ArrowUp,ArrowLeft"":27,""ArrowUp,ArrowRight"":15,""ArrowDown,ArrowLeft"":21,""ArrowDown,ArrowRight"":7}",1,,,False,5,643.6999999880791,,ArrowRight,,,,,,0
453,133,420,7,revaluation,False,./assets/img/canyon/animals/giraffe.jpg,canyon,21.0,,True,revaluation,2.0,"{""ArrowUp,ArrowLeft"":27,""ArrowUp,ArrowRight"":15,""ArrowDown,ArrowLeft"":21,""ArrowDown,ArrowRight"":7}",1,,,False,5,1144.5999999940395,,ArrowLeft,,,,,,1
454,134,423,7,revaluation,False,./assets/img/canyon/animals/lion.jpg,canyon,27.0,,True,revaluation,2.0,"{""ArrowUp,ArrowLeft"":27,""ArrowUp,ArrowRight"":15,""ArrowDown,ArrowLeft"":21,""ArrowDown,ArrowRight"":7}",2,,,False,5,1258.7000000178814,,ArrowLeft,,,,,,2
455,135,425,7,revaluation,False,./assets/img/canyon/animals/giraffe.jpg,canyon,21.0,,True,revaluation,2.0,"{""ArrowUp,ArrowLeft"":27,""ArrowUp,ArrowRight"":15,""ArrowDown,ArrowLeft"":21,""ArrowDown,ArrowRight"":7}",2,,,False,5,731.1999999880791,,ArrowLeft,,,,,,2
456,136,427,7,revaluation,False,./assets/img/canyon/animals/giraffe.jpg,canyon,21.0,,True,revaluation,2.0,"{""ArrowUp,ArrowLeft"":27,""ArrowUp,ArrowRight"":15,""ArrowDown,ArrowLeft"":21,""ArrowDown,ArrowRight"":7}",3,,,False,5,796.5,,ArrowLeft,,,,,,3
457,137,429,7,revaluation,False,./assets/img/canyon/animals/lion.jpg,canyon,27.0,,True,revaluation,2.0,"{""ArrowUp,ArrowLeft"":27,""ArrowUp,ArrowRight"":15,""ArrowDown,ArrowLeft"":21,""ArrowDown,ArrowRight"":7}",3,,,False,5,754.4000000059605,,ArrowLeft,,,,,,3
458,138,432,7,revaluation,False,./assets/img/canyon/animals/lion.jpg,canyon,27.0,,True,revaluation,2.0,"{""ArrowUp,ArrowLeft"":27,""ArrowUp,ArrowRight"":15,""ArrowDown,ArrowLeft"":21,""ArrowDown,ArrowRight"":7}",4,,,False,5,1022.5999999940395,,ArrowLeft,,,,,,4
459,139,434,7,revaluation,False,./assets/img/canyon/animals/lion.jpg,canyon,27.0,,True,revaluation,2.0,"{""ArrowUp,ArrowLeft"":27,""ArrowUp,ArrowRight"":15,""ArrowDown,ArrowLeft"":21,""ArrowDown,ArrowRight"":7}",4,,,False,5,635.3000000119209,,ArrowLeft,,,,,,5
460,140,436,7,revaluation,False,./assets/img/canyon/animals/giraffe.jpg,canyon,21.0,,True,revaluation,2.0,"{""ArrowUp,ArrowLeft"":27,""ArrowUp,ArrowRight"":15,""ArrowDown,ArrowLeft"":21,""ArrowDown,ArrowRight"":7}",5,,,False,5,1048.2999999821186,,ArrowLeft,,,,,,4
461,141,438,7,revaluation,False,./assets/img/canyon/animals/giraffe.jpg,canyon,7.0,,False,revaluation,2.0,"{""ArrowUp,ArrowLeft"":27,""ArrowUp,ArrowRight"":15,""ArrowDown,ArrowLeft"":21,""ArrowDown,ArrowRight"":7}",5,,,False,5,602.4000000059605,,ArrowRight,,,,,,5
462,142,441,7,revaluation,False,./assets/img/canyon/animals/giraffe.jpg,canyon,21.0,,True,revaluation,2.0,"{""ArrowUp,ArrowLeft"":27,""ArrowUp,ArrowRight"":15,""ArrowDown,ArrowLeft"":21,""ArrowDown,ArrowRight"":7}",6,,,False,5,1035.0,,ArrowLeft,,,,,,6
463,143,443,7,revaluation,False,./assets/img/canyon/animals/lion.jpg,canyon,27.0,,True,revaluation,2.0,"{""ArrowUp,ArrowLeft"":27,""ArrowUp,ArrowRight"":15,""ArrowDown,ArrowLeft"":21,""ArrowDown,ArrowRight"":7}",6,,,False,5,506.59999999403954,,ArrowLeft,,,,,,6
464,144,445,7,revaluation,False,./assets/img/canyon/animals/lion.jpg,canyon,27.0,,True,revaluation,2.0,"{""ArrowUp,ArrowLeft"":27,""ArrowUp,ArrowRight"":15,""ArrowDown,ArrowLeft"":21,""ArrowDown,ArrowRight"":7}",7,,,False,5,481.90000000596046,,ArrowLeft,,,,,,7
465,145,447,7,revaluation,True,./assets/img/canyon/animals/giraffe.jpg,canyon,-5.0,,False,revaluation,2.0,"{""ArrowUp,ArrowLeft"":27,""ArrowUp,ArrowRight"":15,""ArrowDown,ArrowLeft"":21,""ArrowDown,ArrowRight"":7}",7,,,False,5,,,,,,,,,7
466,146,450,7,revaluation,False,./assets/img/canyon/animals/giraffe.jpg,canyon,21.0,,True,revaluation,2.0,"{""ArrowUp,ArrowLeft"":27,""ArrowUp,ArrowRight"":15,""ArrowDown,ArrowLeft"":21,""ArrowDown,ArrowRight"":7}",8,,,False,5,842.5,,ArrowLeft,,,,,,8
467,147,452,7,revaluation,False,./assets/img/canyon/animals/lion.jpg,canyon,27.0,,True,revaluation,2.0,"{""ArrowUp,ArrowLeft"":27,""ArrowUp,ArrowRight"":15,""ArrowDown,ArrowLeft"":21,""ArrowDown,ArrowRight"":7}",8,,,False,5,716.9000000059605,,ArrowLeft,,,,,,8
530,50,240,8,revaluation,False,./assets/img/ocean/animals/octopus.jpg,ocean,2.0,,False,revaluation,1.0,"{""ArrowUp,ArrowLeft"":2,""ArrowUp,ArrowRight"":11,""ArrowDown,ArrowLeft"":8,""ArrowDown,ArrowRight"":27}",0,,,True,4,856.5999999940395,,ArrowLeft,,,,,,0
531,51,242,8,revaluation,False,./assets/img/ocean/animals/seahorse.jpg,ocean,8.0,,False,revaluation,1.0,"{""ArrowUp,ArrowLeft"":2,""ArrowUp,ArrowRight"":11,""ArrowDown,ArrowLeft"":8,""ArrowDown,ArrowRight"":27}",0,,,True,4,1024.5,,ArrowLeft,,,,,,0
532,52,244,8,revaluation,False,./assets/img/ocean/animals/octopus.jpg,ocean,2.0,,False,revaluation,1.0,"{""ArrowUp,ArrowLeft"":2,""ArrowUp,ArrowRight"":11,""ArrowDown,ArrowLeft"":8,""ArrowDown,ArrowRight"":27}",1,,,True,4,1715.4000000059605,,ArrowLeft,,,,,,1
533,53,246,8,revaluation,False,./assets/img/ocean/animals/seahorse.jpg,ocean,27.0,,True,revaluation,1.0,"{""ArrowUp,ArrowLeft"":2,""ArrowUp,ArrowRight"":11,""ArrowDown,ArrowLeft"":8,""ArrowDown,ArrowRight"":27}",1,,,True,4,803.4000000059605,,ArrowRight,,,,,,1
534,54,249,8,revaluation,False,./assets/img/ocean/animals/seahorse.jpg,ocean,27.0,,True,revaluation,1.0,"{""ArrowUp,ArrowLeft"":2,""ArrowUp,ArrowRight"":11,""ArrowDown,ArrowLeft"":8,""ArrowDown,ArrowRight"":27}",2,,,True,4,1186.699999988079,,ArrowRight,,,,,,2
535,55,251,8,revaluation,False,./assets/img/ocean/animals/octopus.jpg,ocean,11.0,,True,revaluation,1.0,"{""ArrowUp,ArrowLeft"":2,""ArrowUp,ArrowRight"":11,""ArrowDown,ArrowLeft"":8,""ArrowDown,ArrowRight"":27}",2,,,True,4,572.2000000178814,,ArrowRight,,,,,,2
536,56,253,8,revaluation,False,./assets/img/ocean/animals/seahorse.jpg,ocean,27.0,,True,revaluation,1.0,"{""ArrowUp,ArrowLeft"":2,""ArrowUp,ArrowRight"":11,""ArrowDown,ArrowLeft"":8,""ArrowDown,ArrowRight"":27}",3,,,True,4,688.0999999940395,,ArrowRight,,,,,,3
537,57,255,8,revaluation,False,./assets/img/ocean/animals/seahorse.jpg,ocean,27.0,,True,revaluation,1.0,"{""ArrowUp,ArrowLeft"":2,""ArrowUp,ArrowRight"":11,""ArrowDown,ArrowLeft"":8,""ArrowDown,ArrowRight"":27}",3,,,True,4,631.0999999940395,,ArrowRight,,,,,,4
538,58,258,8,revaluation,False,./assets/img/ocean/animals/octopus.jpg,ocean,11.0,,True,revaluation,1.0,"{""ArrowUp,ArrowLeft"":2,""ArrowUp,ArrowRight"":11,""ArrowDown,ArrowLeft"":8,""ArrowDown,ArrowRight"":27}",4,,,True,4,1486.699999988079,,ArrowRight,,,,,,3
539,59,260,8,revaluation,False,./assets/img/ocean/animals/seahorse.jpg,ocean,27.0,,True,revaluation,1.0,"{""ArrowUp,ArrowLeft"":2,""ArrowUp,ArrowRight"":11,""ArrowDown,ArrowLeft"":8,""ArrowDown,ArrowRight"":27}",4,,,True,4,651.2000000178814,,ArrowRight,,,,,,5
540,60,262,8,revaluation,False,./assets/img/ocean/animals/octopus.jpg,ocean,11.0,,True,revaluation,1.0,"{""ArrowUp,ArrowLeft"":2,""ArrowUp,ArrowRight"":11,""ArrowDown,ArrowLeft"":8,""ArrowDown,ArrowRight"":27}",5,,,True,4,656.5,,ArrowRight,,,,,,4
541,61,264,8,revaluation,False,./assets/img/ocean/animals/octopus.jpg,ocean,11.0,,True,revaluation,1.0,"{""ArrowUp,ArrowLeft"":2,""ArrowUp,ArrowRight"":11,""ArrowDown,ArrowLeft"":8,""ArrowDown,ArrowRight"":27}",5,,,True,4,510.69999998807907,,ArrowRight,,,,,,5
542,62,267,8,revaluation,False,./assets/img/ocean/animals/seahorse.jpg,ocean,27.0,,True,revaluation,1.0,"{""ArrowUp,ArrowLeft"":2,""ArrowUp,ArrowRight"":11,""ArrowDown,ArrowLeft"":8,""ArrowDown,ArrowRight"":27}",6,,,True,4,1827.0,,ArrowRight,,,,,,6
543,63,269,8,revaluation,False,./assets/img/ocean/animals/octopus.jpg,ocean,11.0,,True,revaluation,1.0,"{""ArrowUp,ArrowLeft"":2,""ArrowUp,ArrowRight"":11,""ArrowDown,ArrowLeft"":8,""ArrowDown,ArrowRight"":27}",6,,,True,4,863.7000000178814,,ArrowRight,,,,,,6
544,64,271,8,revaluation,False,./assets/img/ocean/animals/octopus.jpg,ocean,11.0,,True,revaluation,1.0,"{""ArrowUp,ArrowLeft"":2,""ArrowUp,ArrowRight"":11,""ArrowDown,ArrowLeft"":8,""ArrowDown,ArrowRight"":27}",7,,,True,4,1769.0,,ArrowRight,,,,,,7
545,65,273,8,revaluation,False,./assets/img/ocean/animals/seahorse.jpg,ocean,27.0,,True,revaluation,1.0,"{""ArrowUp,ArrowLeft"":2,""ArrowUp,ArrowRight"":11,""ArrowDown,ArrowLeft"":8,""ArrowDown,ArrowRight"":27}",7,,,True,4,366.59999999403954,,ArrowRight,,,,,,7
546,66,276,8,revaluation,False,./assets/img/ocean/animals/octopus.jpg,ocean,11.0,,True,revaluation,1.0,"{""ArrowUp,ArrowLeft"":2,""ArrowUp,ArrowRight"":11,""ArrowDown,ArrowLeft"":8,""ArrowDown,ArrowRight"":27}",8,,,True,4,1988.9000000059605,,ArrowRight,,,,,,8
547,67,278,8,revaluation,False,./assets/img/ocean/animals/seahorse.jpg,ocean,27.0,,True,revaluation,1.0,"{""ArrowUp,ArrowLeft"":2,""ArrowUp,ArrowRight"":11,""ArrowDown,ArrowLeft"":8,""ArrowDown,ArrowRight"":27}",8,,,True,4,1488.5,,ArrowRight,,,,,,8
610,130,422,8,revaluation,False,./assets/img/canyon/animals/lion.jpg,canyon,10.0,,False,original,2.0,"{""ArrowUp,ArrowLeft"":23,""ArrowUp,ArrowRight"":10,""ArrowDown,ArrowLeft"":8,""ArrowDown,ArrowRight"":30}",0,,,True,4,1144.4000000059605,,ArrowRight,,,,,,0
611,131,424,8,revaluation,False,./assets/img/canyon/animals/giraffe.jpg,canyon,30.0,,True,original,2.0,"{""ArrowUp,ArrowLeft"":23,""ArrowUp,ArrowRight"":10,""ArrowDown,ArrowLeft"":8,""ArrowDown,ArrowRight"":30}",0,,,True,4,848.1999999880791,,ArrowRight,,,,,,0
612,132,426,8,revaluation,False,./assets/img/canyon/animals/lion.jpg,canyon,10.0,,False,original,2.0,"{""ArrowUp,ArrowLeft"":23,""ArrowUp,ArrowRight"":10,""ArrowDown,ArrowLeft"":8,""ArrowDown,ArrowRight"":30}",1,,,True,4,668.6999999880791,,ArrowRight,,,,,,1
613,133,428,8,revaluation,False,./assets/img/canyon/animals/lion.jpg,canyon,10.0,,False,original,2.0,"{""ArrowUp,ArrowLeft"":23,""ArrowUp,ArrowRight"":10,""ArrowDown,ArrowLeft"":8,""ArrowDown,ArrowRight"":30}",1,,,True,4,804.7000000178814,,ArrowRight,,,,,,2
614,134,431,8,revaluation,False,./assets/img/canyon/animals/giraffe.jpg,canyon,30.0,,True,original,2.0,"{""ArrowUp,ArrowLeft"":23,""ArrowUp,ArrowRight"":10,""ArrowDown,ArrowLeft"":8,""ArrowDown,ArrowRight"":30}",2,,,True,4,1092.300000011921,,ArrowRight,,,,,,1
615,135,433,8,revaluation,False,./assets/img/canyon/animals/giraffe.jpg,canyon,8.0,,False,original,2.0,"{""ArrowUp,ArrowLeft"":23,""ArrowUp,ArrowRight"":10,""ArrowDown,ArrowLeft"":8,""ArrowDown,ArrowRight"":30}",2,,,True,4,724.6999999880791,,ArrowLeft,,,,,,2
616,136,435,8,revaluation,False,./assets/img/canyon/animals/giraffe.jpg,canyon,30.0,,True,original,2.0,"{""ArrowUp,ArrowLeft"":23,""ArrowUp,ArrowRight"":10,""ArrowDown,ArrowLeft"":8,""ArrowDown,ArrowRight"":30}",3,,,True,4,772.5,,ArrowRight,,,,,,3
617,137,437,8,revaluation,False,./assets/img/canyon/animals/giraffe.jpg,canyon,30.0,,True,original,2.0,"{""ArrowUp,ArrowLeft"":23,""ArrowUp,ArrowRight"":10,""ArrowDown,ArrowLeft"":8,""ArrowDown,ArrowRight"":30}",3,,,True,4,705.6999999880791,,ArrowRight,,,,,,4
618,138,440,8,revaluation,False,./assets/img/canyon/animals/lion.jpg,canyon,23.0,,True,original,2.0,"{""ArrowUp,ArrowLeft"":23,""ArrowUp,ArrowRight"":10,""ArrowDown,ArrowLeft"":8,""ArrowDown,ArrowRight"":30}",4,,,True,4,1088.4000000059605,,ArrowLeft,,,,,,3
619,139,442,8,revaluation,False,./assets/img/canyon/animals/giraffe.jpg,canyon,30.0,,True,original,2.0,"{""ArrowUp,ArrowLeft"":23,""ArrowUp,ArrowRight"":10,""ArrowDown,ArrowLeft"":8,""ArrowDown,ArrowRight"":30}",4,,,True,4,508.60000002384186,,ArrowRight,,,,,,5
620,140,444,8,revaluation,False,./assets/img/canyon/animals/lion.jpg,canyon,23.0,,True,original,2.0,"{""ArrowUp,ArrowLeft"":23,""ArrowUp,ArrowRight"":10,""ArrowDown,ArrowLeft"":8,""ArrowDown,ArrowRight"":30}",5,,,True,4,580.1999999880791,,ArrowLeft,,,,,,4
621,141,446,8,revaluation,False,./assets/img/canyon/animals/lion.jpg,canyon,23.0,,True,original,2.0,"{""ArrowUp,ArrowLeft"":23,""ArrowUp,ArrowRight"":10,""ArrowDown,ArrowLeft"":8,""ArrowDown,ArrowRight"":30}",5,,,True,4,836.5999999940395,,ArrowLeft,,,,,,5
622,142,449,8,revaluation,False,./assets/img/canyon/animals/lion.jpg,canyon,23.0,,True,original,2.0,"{""ArrowUp,ArrowLeft"":23,""ArrowUp,ArrowRight"":10,""ArrowDown,ArrowLeft"":8,""ArrowDown,ArrowRight"":30}",6,,,True,4,996.4000000059605,,ArrowLeft,,,,,,6
623,143,451,8,revaluation,False,./assets/img/canyon/animals/lion.jpg,canyon,23.0,,True,original,2.0,"{""ArrowUp,ArrowLeft"":23,""ArrowUp,ArrowRight"":10,""ArrowDown,ArrowLeft"":8,""ArrowDown,ArrowRight"":30}",6,,,True,4,613.0,,ArrowLeft,,,,,,7
624,144,453,8,revaluation,False,./assets/img/canyon/animals/giraffe.jpg,canyon,30.0,,True,original,2.0,"{""ArrowUp,ArrowLeft"":23,""ArrowUp,ArrowRight"":10,""ArrowDown,ArrowLeft"":8,""ArrowDown,ArrowRight"":30}",7,,,True,4,559.5,,ArrowRight,,,,,,6
625,145,455,8,revaluation,False,./assets/img/canyon/animals/giraffe.jpg,canyon,30.0,,True,original,2.0,"{""ArrowUp,ArrowLeft"":23,""ArrowUp,ArrowRight"":10,""ArrowDown,ArrowLeft"":8,""ArrowDown,ArrowRight"":30}",7,,,True,4,1524.2999999821186,,ArrowRight,,,,,,7
626,146,458,8,revaluation,False,./assets/img/canyon/animals/giraffe.jpg,canyon,30.0,,True,original,2.0,"{""ArrowUp,ArrowLeft"":23,""ArrowUp,ArrowRight"":10,""ArrowDown,ArrowLeft"":8,""ArrowDown,ArrowRight"":30}",8,,,True,4,1233.4000000059605,,ArrowRight,,,,,,8
627,147,460,8,revaluation,False,./assets/img/canyon/animals/lion.jpg,canyon,23.0,,True,original,2.0,"{""ArrowUp,ArrowLeft"":23,""ArrowUp,ArrowRight"":10,""ArrowDown,ArrowLeft"":8,""ArrowDown,ArrowRight"":30}",8,,,True,4,619.0999999940395,,ArrowLeft,,,,,,8
690,50,236,9,revaluation,True,./assets/img/ocean/animals/octopus.jpg,ocean,-5.0,,False,original,1.0,"{""ArrowUp,ArrowLeft"":26,""ArrowUp,ArrowRight"":10,""ArrowDown,ArrowLeft"":5,""ArrowDown,ArrowRight"":17}",0,,,True,1,,,,,,,,,0
691,51,238,9,revaluation,False,./assets/img/ocean/animals/seahorse.jpg,ocean,17.0,,True,original,1.0,"{""ArrowUp,ArrowLeft"":26,""ArrowUp,ArrowRight"":10,""ArrowDown,ArrowLeft"":5,""ArrowDown,ArrowRight"":17}",0,,,True,1,1403.7999999970198,,ArrowRight,,,,,,0
692,52,240,9,revaluation,False,./assets/img/ocean/animals/seahorse.jpg,ocean,17.0,,True,original,1.0,"{""ArrowUp,ArrowLeft"":26,""ArrowUp,ArrowRight"":10,""ArrowDown,ArrowLeft"":5,""ArrowDown,ArrowRight"":17}",1,,,True,1,820.7999999970198,,ArrowRight,,,,,,1
693,53,242,9,revaluation,False,./assets/img/ocean/animals/octopus.jpg,ocean,26.0,,True,original,1.0,"{""ArrowUp,ArrowLeft"":26,""ArrowUp,ArrowRight"":10,""ArrowDown,ArrowLeft"":5,""ArrowDown,ArrowRight"":17}",1,,,True,1,1298.5,,ArrowLeft,,,,,,1
694,54,245,9,revaluation,False,./assets/img/ocean/animals/octopus.jpg,ocean,26.0,,True,original,1.0,"{""ArrowUp,ArrowLeft"":26,""ArrowUp,ArrowRight"":10,""ArrowDown,ArrowLeft"":5,""ArrowDown,ArrowRight"":17}",2,,,True,1,1281.0,,ArrowLeft,,,,,,2
695,55,247,9,revaluation,False,./assets/img/ocean/animals/seahorse.jpg,ocean,17.0,,True,original,1.0,"{""ArrowUp,ArrowLeft"":26,""ArrowUp,ArrowRight"":10,""ArrowDown,ArrowLeft"":5,""ArrowDown,ArrowRight"":17}",2,,,True,1,791.8999999985099,,ArrowRight,,,,,,2
696,56,249,9,revaluation,False,./assets/img/ocean/animals/octopus.jpg,ocean,26.0,,True,original,1.0,"{""ArrowUp,ArrowLeft"":26,""ArrowUp,ArrowRight"":10,""ArrowDown,ArrowLeft"":5,""ArrowDown,ArrowRight"":17}",3,,,True,1,868.6000000014901,,ArrowLeft,,,,,,3
697,57,251,9,revaluation,False,./assets/img/ocean/animals/seahorse.jpg,ocean,17.0,,True,original,1.0,"{""ArrowUp,ArrowLeft"":26,""ArrowUp,ArrowRight"":10,""ArrowDown,ArrowLeft"":5,""ArrowDown,ArrowRight"":17}",3,,,True,1,784.5,,ArrowRight,,,,,,3
698,58,254,9,revaluation,False,./assets/img/ocean/animals/octopus.jpg,ocean,26.0,,True,original,1.0,"{""ArrowUp,ArrowLeft"":26,""ArrowUp,ArrowRight"":10,""ArrowDown,ArrowLeft"":5,""ArrowDown,ArrowRight"":17}",4,,,True,1,1115.6000000014901,,ArrowLeft,,,,,,4
699,59,256,9,revaluation,False,./assets/img/ocean/animals/seahorse.jpg,ocean,17.0,,True,original,1.0,"{""ArrowUp,ArrowLeft"":26,""ArrowUp,ArrowRight"":10,""ArrowDown,ArrowLeft"":5,""ArrowDown,ArrowRight"":17}",4,,,True,1,1155.8999999985099,,ArrowRight,,,,,,4
700,60,258,9,revaluation,False,./assets/img/ocean/animals/seahorse.jpg,ocean,17.0,,True,original,1.0,"{""ArrowUp,ArrowLeft"":26,""ArrowUp,ArrowRight"":10,""ArrowDown,ArrowLeft"":5,""ArrowDown,ArrowRight"":17}",5,,,True,1,944.8000000044703,,ArrowRight,,,,,,5
701,61,260,9,revaluation,False,./assets/img/ocean/animals/seahorse.jpg,ocean,17.0,,True,original,1.0,"{""ArrowUp,ArrowLeft"":26,""ArrowUp,ArrowRight"":10,""ArrowDown,ArrowLeft"":5,""ArrowDown,ArrowRight"":17}",5,,,True,1,560.2000000029802,,ArrowRight,,,,,,6
702,62,263,9,revaluation,False,./assets/img/ocean/animals/octopus.jpg,ocean,26.0,,True,original,1.0,"{""ArrowUp,ArrowLeft"":26,""ArrowUp,ArrowRight"":10,""ArrowDown,ArrowLeft"":5,""ArrowDown,ArrowRight"":17}",6,,,True,1,1389.6000000014901,,ArrowLeft,,,,,,5
703,63,265,9,revaluation,False,./assets/img/ocean/animals/seahorse.jpg,ocean,17.0,,True,original,1.0,"{""ArrowUp,ArrowLeft"":26,""ArrowUp,ArrowRight"":10,""ArrowDown,ArrowLeft"":5,""ArrowDown,ArrowRight"":17}",6,,,True,1,1158.7000000029802,,ArrowRight,,,,,,7
704,64,267,9,revaluation,False,./assets/img/ocean/animals/octopus.jpg,ocean,26.0,,True,original,1.0,"{""ArrowUp,ArrowLeft"":26,""ArrowUp,ArrowRight"":10,""ArrowDown,ArrowLeft"":5,""ArrowDown,ArrowRight"":17}",7,,,True,1,588.9000000059605,,ArrowLeft,,,,,,6
705,65,269,9,revaluation,False,./assets/img/ocean/animals/seahorse.jpg,ocean,17.0,,True,original,1.0,"{""ArrowUp,ArrowLeft"":26,""ArrowUp,ArrowRight"":10,""ArrowDown,ArrowLeft"":5,""ArrowDown,ArrowRight"":17}",7,,,True,1,561.0,,ArrowRight,,,,,,8
706,66,272,9,revaluation,False,./assets/img/ocean/animals/octopus.jpg,ocean,26.0,,True,original,1.0,"{""ArrowUp,ArrowLeft"":26,""ArrowUp,ArrowRight"":10,""ArrowDown,ArrowLeft"":5,""ArrowDown,ArrowRight"":17}",8,,,True,1,799.9000000059605,,ArrowLeft,,,,,,7
707,67,274,9,revaluation,False,./assets/img/ocean/animals/octopus.jpg,ocean,26.0,,True,original,1.0,"{""ArrowUp,ArrowLeft"":26,""ArrowUp,ArrowRight"":10,""ArrowDown,ArrowLeft"":5,""ArrowDown,ArrowRight"":17}",8,,,True,1,949.7999999970198,,ArrowLeft,,,,,,8
770,130,418,9,revaluation,False,./assets/img/canyon/animals/giraffe.jpg,canyon,7.0,,False,revaluation,2.0,"{""ArrowUp,ArrowLeft"":27,""ArrowUp,ArrowRight"":15,""ArrowDown,ArrowLeft"":21,""ArrowDown,ArrowRight"":7}",0,,,True,1,1328.6999999955297,,ArrowRight,,,,,,0
771,131,420,9,revaluation,False,./assets/img/canyon/animals/giraffe.jpg,canyon,7.0,,False,revaluation,2.0,"{""ArrowUp,ArrowLeft"":27,""ArrowUp,ArrowRight"":15,""ArrowDown,ArrowLeft"":21,""ArrowDown,ArrowRight"":7}",0,,,True,1,721.0999999940395,,ArrowRight,,,,,,1
772,132,422,9,revaluation,False,./assets/img/canyon/animals/lion.jpg,canyon,27.0,,True,revaluation,2.0,"{""ArrowUp,ArrowLeft"":27,""ArrowUp,ArrowRight"":15,""ArrowDown,ArrowLeft"":21,""ArrowDown,ArrowRight"":7}",1,,,True,1,521.8999999985099,,ArrowLeft,,,,,,0
773,133,424,9,revaluation,False,./assets/img/canyon/animals/giraffe.jpg,canyon,21.0,,True,revaluation,2.0,"{""ArrowUp,ArrowLeft"":27,""ArrowUp,ArrowRight"":15,""ArrowDown,ArrowLeft"":21,""ArrowDown,ArrowRight"":7}",1,,,True,1,989.6000000014901,,ArrowLeft,,,,,,2
774,134,427,9,revaluation,False,./assets/img/canyon/animals/lion.jpg,canyon,27.0,,True,revaluation,2.0,"{""ArrowUp,ArrowLeft"":27,""ArrowUp,ArrowRight"":15,""ArrowDown,ArrowLeft"":21,""ArrowDown,ArrowRight"":7}",2,,,True,1,1362.5,,ArrowLeft,,,,,,1
775,135,429,9,revaluation,False,./assets/img/canyon/animals/giraffe.jpg,canyon,7.0,,False,revaluation,2.0,"{""ArrowUp,ArrowLeft"":27,""ArrowUp,ArrowRight"":15,""ArrowDown,ArrowLeft"":21,""ArrowDown,ArrowRight"":7}",2,,,True,1,1087.2999999970198,,ArrowRight,,,,,,3
776,136,431,9,revaluation,False,./assets/img/canyon/animals/giraffe.jpg,canyon,21.0,,True,revaluation,2.0,"{""ArrowUp,ArrowLeft"":27,""ArrowUp,ArrowRight"":15,""ArrowDown,ArrowLeft"":21,""ArrowDown,ArrowRight"":7}",3,,,True,1,407.19999999552965,,ArrowLeft,,,,,,4
777,137,433,9,revaluation,False,./assets/img/canyon/animals/giraffe.jpg,canyon,21.0,,True,revaluation,2.0,"{""ArrowUp,ArrowLeft"":27,""ArrowUp,ArrowRight"":15,""ArrowDown,ArrowLeft"":21,""ArrowDown,ArrowRight"":7}",3,,,True,1,404.70000000298023,,ArrowLeft,,,,,,5
778,138,436,9,revaluation,False,./assets/img/canyon/animals/lion.jpg,canyon,27.0,,True,revaluation,2.0,"{""ArrowUp,ArrowLeft"":27,""ArrowUp,ArrowRight"":15,""ArrowDown,ArrowLeft"":21,""ArrowDown,ArrowRight"":7}",4,,,True,1,1197.1000000014901,,ArrowLeft,,,,,,2
779,139,438,9,revaluation,False,./assets/img/canyon/animals/giraffe.jpg,canyon,21.0,,True,revaluation,2.0,"{""ArrowUp,ArrowLeft"":27,""ArrowUp,ArrowRight"":15,""ArrowDown,ArrowLeft"":21,""ArrowDown,ArrowRight"":7}",4,,,True,1,1294.0,,ArrowLeft,,,,,,6
780,140,440,9,revaluation,False,./assets/img/canyon/animals/lion.jpg,canyon,15.0,,False,revaluation,2.0,"{""ArrowUp,ArrowLeft"":27,""ArrowUp,ArrowRight"":15,""ArrowDown,ArrowLeft"":21,""ArrowDown,ArrowRight"":7}",5,,,True,1,530.1000000014901,,ArrowRight,,,,,,3
781,141,442,9,revaluation,False,./assets/img/canyon/animals/giraffe.jpg,canyon,21.0,,True,revaluation,2.0,"{""ArrowUp,ArrowLeft"":27,""ArrowUp,ArrowRight"":15,""ArrowDown,ArrowLeft"":21,""ArrowDown,ArrowRight"":7}",5,,,True,1,541.7999999970198,,ArrowLeft,,,,,,7
782,142,445,9,revaluation,False,./assets/img/canyon/animals/giraffe.jpg,canyon,21.0,,True,revaluation,2.0,"{""ArrowUp,ArrowLeft"":27,""ArrowUp,ArrowRight"":15,""ArrowDown,ArrowLeft"":21,""ArrowDown,ArrowRight"":7}",6,,,True,1,1142.1000000014901,,ArrowLeft,,,,,,8
783,143,447,9,revaluation,False,./assets/img/canyon/animals/lion.jpg,canyon,15.0,,False,revaluation,2.0,"{""ArrowUp,ArrowLeft"":27,""ArrowUp,ArrowRight"":15,""ArrowDown,ArrowLeft"":21,""ArrowDown,ArrowRight"":7}",6,,,True,1,914.6000000014901,,ArrowRight,,,,,,4
784,144,449,9,revaluation,False,./assets/img/canyon/animals/lion.jpg,canyon,27.0,,True,revaluation,2.0,"{""ArrowUp,ArrowLeft"":27,""ArrowUp,ArrowRight"":15,""ArrowDown,ArrowLeft"":21,""ArrowDown,ArrowRight"":7}",7,,,True,1,730.3999999985099,,ArrowLeft,,,,,,5
785,145,451,9,revaluation,False,./assets/img/canyon/animals/lion.jpg,canyon,27.0,,True,revaluation,2.0,"{""ArrowUp,ArrowLeft"":27,""ArrowUp,ArrowRight"":15,""ArrowDown,ArrowLeft"":21,""ArrowDown,ArrowRight"":7}",7,,,True,1,680.2000000029802,,ArrowLeft,,,,,,6
786,146,454,9,revaluation,False,./assets/img/canyon/animals/lion.jpg,canyon,27.0,,True,revaluation,2.0,"{""ArrowUp,ArrowLeft"":27,""ArrowUp,ArrowRight"":15,""ArrowDown,ArrowLeft"":21,""ArrowDown,ArrowRight"":7}",8,,,True,1,1109.7000000029802,,ArrowLeft,,,,,,7
787,147,456,9,revaluation,False,./assets/img/canyon/animals/lion.jpg,canyon,27.0,,True,revaluation,2.0,"{""ArrowUp,ArrowLeft"":27,""ArrowUp,ArrowRight"":15,""ArrowDown,ArrowLeft"":21,""ArrowDown,ArrowRight"":7}",8,,,True,1,724.1000000014901,,ArrowLeft,,,,,,8
850,50,240,10,revaluation,False,./assets/img/canyon/animals/lion.jpg,canyon,11.0,,True,revaluation,1.0,"{""ArrowUp,ArrowLeft"":2,""ArrowUp,ArrowRight"":11,""ArrowDown,ArrowLeft"":8,""ArrowDown,ArrowRight"":27}",0,,,True,4,680.2999999998137,,ArrowRight,,,,,,0
851,51,242,10,revaluation,False,./assets/img/canyon/animals/lion.jpg,canyon,2.0,,False,revaluation,1.0,"{""ArrowUp,ArrowLeft"":2,""ArrowUp,ArrowRight"":11,""ArrowDown,ArrowLeft"":8,""ArrowDown,ArrowRight"":27}",0,,,True,4,492.69999999995343,,ArrowLeft,,,,,,1
852,52,244,10,revaluation,False,./assets/img/canyon/animals/lion.jpg,canyon,11.0,,True,revaluation,1.0,"{""ArrowUp,ArrowLeft"":2,""ArrowUp,ArrowRight"":11,""ArrowDown,ArrowLeft"":8,""ArrowDown,ArrowRight"":27}",1,,,True,4,816.8999999999069,,ArrowRight,,,,,,2
853,53,246,10,revaluation,False,./assets/img/canyon/animals/giraffe.jpg,canyon,27.0,,True,revaluation,1.0,"{""ArrowUp,ArrowLeft"":2,""ArrowUp,ArrowRight"":11,""ArrowDown,ArrowLeft"":8,""ArrowDown,ArrowRight"":27}",1,,,True,4,797.6000000000931,,ArrowRight,,,,,,0
854,54,249,10,revaluation,False,./assets/img/canyon/animals/giraffe.jpg,canyon,27.0,,True,revaluation,1.0,"{""ArrowUp,ArrowLeft"":2,""ArrowUp,ArrowRight"":11,""ArrowDown,ArrowLeft"":8,""ArrowDown,ArrowRight"":27}",2,,,True,4,981.8000000000466,,ArrowRight,,,,,,1
855,55,251,10,revaluation,False,./assets/img/canyon/animals/lion.jpg,canyon,2.0,,False,revaluation,1.0,"{""ArrowUp,ArrowLeft"":2,""ArrowUp,ArrowRight"":11,""ArrowDown,ArrowLeft"":8,""ArrowDown,ArrowRight"":27}",2,,,True,4,721.0,,ArrowLeft,,,,,,3
856,56,253,10,revaluation,False,./assets/img/canyon/animals/giraffe.jpg,canyon,27.0,,True,revaluation,1.0,"{""ArrowUp,ArrowLeft"":2,""ArrowUp,ArrowRight"":11,""ArrowDown,ArrowLeft"":8,""ArrowDown,ArrowRight"":27}",3,,,True,4,575.0999999998603,,ArrowRight,,,,,,2
857,57,255,10,revaluation,False,./assets/img/canyon/animals/lion.jpg,canyon,11.0,,True,revaluation,1.0,"{""ArrowUp,ArrowLeft"":2,""ArrowUp,ArrowRight"":11,""ArrowDown,ArrowLeft"":8,""ArrowDown,ArrowRight"":27}",3,,,True,4,512.1999999999534,,ArrowRight,,,,,,4
858,58,258,10,revaluation,False,./assets/img/canyon/animals/giraffe.jpg,canyon,27.0,,True,revaluation,1.0,"{""ArrowUp,ArrowLeft"":2,""ArrowUp,ArrowRight"":11,""ArrowDown,ArrowLeft"":8,""ArrowDown,ArrowRight"":27}",4,,,True,4,817.8999999999069,,ArrowRight,,,,,,3
859,59,260,10,revaluation,False,./assets/img/canyon/animals/lion.jpg,canyon,11.0,,True,revaluation,1.0,"{""ArrowUp,ArrowLeft"":2,""ArrowUp,ArrowRight"":11,""ArrowDown,ArrowLeft"":8,""ArrowDown,ArrowRight"":27}",4,,,True,4,1125.8000000000466,,ArrowRight,,,,,,5
860,60,262,10,revaluation,False,./assets/img/canyon/animals/lion.jpg,canyon,11.0,,True,revaluation,1.0,"{""ArrowUp,ArrowLeft"":2,""ArrowUp,ArrowRight"":11,""ArrowDown,ArrowLeft"":8,""ArrowDown,ArrowRight"":27}",5,,,True,4,1699.1000000000931,,ArrowRight,,,,,,6
861,61,264,10,revaluation,False,./assets/img/canyon/animals/lion.jpg,canyon,11.0,,True,revaluation,1.0,"{""ArrowUp,ArrowLeft"":2,""ArrowUp,ArrowRight"":11,""ArrowDown,ArrowLeft"":8,""ArrowDown,ArrowRight"":27}",5,,,True,4,823.3000000000466,,ArrowRight,,,,,,7
862,62,267,10,revaluation,False,./assets/img/canyon/animals/giraffe.jpg,canyon,27.0,,True,revaluation,1.0,"{""ArrowUp,ArrowLeft"":2,""ArrowUp,ArrowRight"":11,""ArrowDown,ArrowLeft"":8,""ArrowDown,ArrowRight"":27}",6,,,True,4,893.5999999998603,,ArrowRight,,,,,,4
863,63,269,10,revaluation,False,./assets/img/canyon/animals/giraffe.jpg,canyon,27.0,,True,revaluation,1.0,"{""ArrowUp,ArrowLeft"":2,""ArrowUp,ArrowRight"":11,""ArrowDown,ArrowLeft"":8,""ArrowDown,ArrowRight"":27}",6,,,True,4,960.3000000000466,,ArrowRight,,,,,,5
864,64,271,10,revaluation,True,./assets/img/canyon/animals/lion.jpg,canyon,-5.0,,False,revaluation,1.0,"{""ArrowUp,ArrowLeft"":2,""ArrowUp,ArrowRight"":11,""ArrowDown,ArrowLeft"":8,""ArrowDown,ArrowRight"":27}",7,,,True,4,,,,,,,,,8
865,65,273,10,revaluation,False,./assets/img/canyon/animals/giraffe.jpg,canyon,8.0,,False,revaluation,1.0,"{""ArrowUp,ArrowLeft"":2,""ArrowUp,ArrowRight"":11,""ArrowDown,ArrowLeft"":8,""ArrowDown,ArrowRight"":27}",7,,,True,4,400.30000000004657,,ArrowLeft,,,,,,6
866,66,276,10,revaluation,False,./assets/img/canyon/animals/giraffe.jpg,canyon,27.0,,True,revaluation,1.0,"{""ArrowUp,ArrowLeft"":2,""ArrowUp,ArrowRight"":11,""ArrowDown,ArrowLeft"":8,""ArrowDown,ArrowRight"":27}",8,,,True,4,756.5999999998603,,ArrowRight,,,,,,7
867,67,278,10,revaluation,False,./assets/img/canyon/animals/giraffe.jpg,canyon,8.0,,False,revaluation,1.0,"{""ArrowUp,ArrowLeft"":2,""ArrowUp,ArrowRight"":11,""ArrowDown,ArrowLeft"":8,""ArrowDown,ArrowRight"":27}",8,,,True,4,1650.5,,ArrowLeft,,,,,,8
930,130,422,10,revaluation,False,./assets/img/ocean/animals/octopus.jpg,ocean,10.0,,False,original,2.0,"{""ArrowUp,ArrowLeft"":23,""ArrowUp,ArrowRight"":10,""ArrowDown,ArrowLeft"":8,""ArrowDown,ArrowRight"":30}",0,,,True,4,649.5,,ArrowRight,,,,,,0
931,131,424,10,revaluation,False,./assets/img/ocean/animals/seahorse.jpg,ocean,8.0,,False,original,2.0,"{""ArrowUp,ArrowLeft"":23,""ArrowUp,ArrowRight"":10,""ArrowDown,ArrowLeft"":8,""ArrowDown,ArrowRight"":30}",0,,,True,4,776.1999999999534,,ArrowLeft,,,,,,0
932,132,426,10,revaluation,False,./assets/img/ocean/animals/seahorse.jpg,ocean,30.0,,True,original,2.0,"{""ArrowUp,ArrowLeft"":23,""ArrowUp,ArrowRight"":10,""ArrowDown,ArrowLeft"":8,""ArrowDown,ArrowRight"":30}",1,,,True,4,1230.0,,ArrowRight,,,,,,1
933,133,428,10,revaluation,False,./assets/img/ocean/animals/octopus.jpg,ocean,10.0,,False,original,2.0,"{""ArrowUp,ArrowLeft"":23,""ArrowUp,ArrowRight"":10,""ArrowDown,ArrowLeft"":8,""ArrowDown,ArrowRight"":30}",1,,,True,4,566.0,,ArrowRight,,,,,,1
934,134,431,10,revaluation,False,./assets/img/ocean/animals/octopus.jpg,ocean,10.0,,False,original,2.0,"{""ArrowUp,ArrowLeft"":23,""ArrowUp,ArrowRight"":10,""ArrowDown,ArrowLeft"":8,""ArrowDown,ArrowRight"":30}",2,,,True,4,731.3000000000466,,ArrowRight,,,,,,2
935,135,433,10,revaluation,False,./assets/img/ocean/animals/octopus.jpg,ocean,10.0,,False,original,2.0,"{""ArrowUp,ArrowLeft"":23,""ArrowUp,ArrowRight"":10,""ArrowDown,ArrowLeft"":8,""ArrowDown,ArrowRight"":30}",2,,,True,4,1742.3000000000466,,ArrowRight,,,,,,3
936,136,435,10,revaluation,True,./assets/img/ocean/animals/seahorse.jpg,ocean,-5.0,,False,original,2.0,"{""ArrowUp,ArrowLeft"":23,""ArrowUp,ArrowRight"":10,""ArrowDown,ArrowLeft"":8,""ArrowDown,ArrowRight"":30}",3,,,True,4,,,,,,,,,2
937,137,437,10,revaluation,False,./assets/img/ocean/animals/octopus.jpg,ocean,23.0,,True,original,2.0,"{""ArrowUp,ArrowLeft"":23,""ArrowUp,ArrowRight"":10,""ArrowDown,ArrowLeft"":8,""ArrowDown,ArrowRight"":30}",3,,,True,4,418.5,,ArrowLeft,,,,,,4
938,138,440,10,revaluation,False,./assets/img/ocean/animals/octopus.jpg,ocean,10.0,,False,original,2.0,"{""ArrowUp,ArrowLeft"":23,""ArrowUp,ArrowRight"":10,""ArrowDown,ArrowLeft"":8,""ArrowDown,ArrowRight"":30}",4,,,True,4,765.6000000000931,,ArrowRight,,,,,,5
939,139,442,10,revaluation,False,./assets/img/ocean/animals/seahorse.jpg,ocean,8.0,,False,original,2.0,"{""ArrowUp,ArrowLeft"":23,""ArrowUp,ArrowRight"":10,""ArrowDown,ArrowLeft"":8,""ArrowDown,ArrowRight"":30}",4,,,True,4,804.1000000000931,,ArrowLeft,,,,,,3
940,140,444,10,revaluation,False,./assets/img/ocean/animals/seahorse.jpg,ocean,30.0,,True,original,2.0,"{""ArrowUp,ArrowLeft"":23,""ArrowUp,ArrowRight"":10,""ArrowDown,ArrowLeft"":8,""ArrowDown,ArrowRight"":30}",5,,,True,4,748.9000000001397,,ArrowRight,,,,,,4
941,141,446,10,revaluation,False,./assets/img/ocean/animals/octopus.jpg,ocean,10.0,,False,original,2.0,"{""ArrowUp,ArrowLeft"":23,""ArrowUp,ArrowRight"":10,""ArrowDown,ArrowLeft"":8,""ArrowDown,ArrowRight"":30}",5,,,True,4,738.5999999998603,,ArrowRight,,,,,,6
942,142,449,10,revaluation,False,./assets/img/ocean/animals/octopus.jpg,ocean,10.0,,False,original,2.0,"{""ArrowUp,ArrowLeft"":23,""ArrowUp,ArrowRight"":10,""ArrowDown,ArrowLeft"":8,""ArrowDown,ArrowRight"":30}",6,,,True,4,752.9000000001397,,ArrowRight,,,,,,7
943,143,451,10,revaluation,True,./assets/img/ocean/animals/octopus.jpg,ocean,-5.0,,False,original,2.0,"{""ArrowUp,ArrowLeft"":23,""ArrowUp,ArrowRight"":10,""ArrowDown,ArrowLeft"":8,""ArrowDown,ArrowRight"":30}",6,,,True,4,,,,,,,,,8
944,144,453,10,revaluation,False,./assets/img/ocean/animals/seahorse.jpg,ocean,8.0,,False,original,2.0,"{""ArrowUp,ArrowLeft"":23,""ArrowUp,ArrowRight"":10,""ArrowDown,ArrowLeft"":8,""ArrowDown,ArrowRight"":30}",7,,,True,4,378.19999999995343,,ArrowLeft,,,,,,5
945,145,455,10,revaluation,False,./assets/img/ocean/animals/seahorse.jpg,ocean,30.0,,True,original,2.0,"{""ArrowUp,ArrowLeft"":23,""ArrowUp,ArrowRight"":10,""ArrowDown,ArrowLeft"":8,""ArrowDown,ArrowRight"":30}",7,,,True,4,574.3999999999069,,ArrowRight,,,,,,6
946,146,458,10,revaluation,False,./assets/img/ocean/animals/seahorse.jpg,ocean,30.0,,True,original,2.0,"{""ArrowUp,ArrowLeft"":23,""ArrowUp,ArrowRight"":10,""ArrowDown,ArrowLeft"":8,""ArrowDown,ArrowRight"":30}",8,,,True,4,909.9000000001397,,ArrowRight,,,,,,7
947,147,460,10,revaluation,False,./assets/img/ocean/animals/seahorse.jpg,ocean,30.0,,True,original,2.0,"{""ArrowUp,ArrowLeft"":23,""ArrowUp,ArrowRight"":10,""ArrowDown,ArrowLeft"":8,""ArrowDown,ArrowRight"":30}",8,,,True,4,392.80000000004657,,ArrowRight,,,,,,8
1010,50,231,11,revaluation,False,./assets/img/ocean/animals/octopus.jpg,ocean,2.0,,False,revaluation,1.0,"{""ArrowUp,ArrowLeft"":2,""ArrowUp,ArrowRight"":11,""ArrowDown,ArrowLeft"":8,""ArrowDown,ArrowRight"":27}",0,,,False,8,1350.8000000715256,,ArrowLeft,,,,,,0
1011,51,233,11,revaluation,False,./assets/img/ocean/animals/seahorse.jpg,ocean,27.0,,True,revaluation,1.0,"{""ArrowUp,ArrowLeft"":2,""ArrowUp,ArrowRight"":11,""ArrowDown,ArrowLeft"":8,""ArrowDown,ArrowRight"":27}",0,,,False,8,1509.1000000238419,,ArrowRight,,,,,,0
1012,52,235,11,revaluation,False,./assets/img/ocean/animals/octopus.jpg,ocean,2.0,,False,revaluation,1.0,"{""ArrowUp,ArrowLeft"":2,""ArrowUp,ArrowRight"":11,""ArrowDown,ArrowLeft"":8,""ArrowDown,ArrowRight"":27}",1,,,False,8,954.8999999761581,,ArrowLeft,,,,,,1
1013,53,237,11,revaluation,False,./assets/img/ocean/animals/octopus.jpg,ocean,2.0,,False,revaluation,1.0,"{""ArrowUp,ArrowLeft"":2,""ArrowUp,ArrowRight"":11,""ArrowDown,ArrowLeft"":8,""ArrowDown,ArrowRight"":27}",1,,,False,8,652.5,,ArrowLeft,,,,,,2
1014,54,240,11,revaluation,False,./assets/img/ocean/animals/octopus.jpg,ocean,2.0,,False,revaluation,1.0,"{""ArrowUp,ArrowLeft"":2,""ArrowUp,ArrowRight"":11,""ArrowDown,ArrowLeft"":8,""ArrowDown,ArrowRight"":27}",2,,,False,8,994.7999999523163,,ArrowLeft,,,,,,3
1015,55,242,11,revaluation,False,./assets/img/ocean/animals/seahorse.jpg,ocean,27.0,,True,revaluation,1.0,"{""ArrowUp,ArrowLeft"":2,""ArrowUp,ArrowRight"":11,""ArrowDown,ArrowLeft"":8,""ArrowDown,ArrowRight"":27}",2,,,False,8,1081.1000000238419,,ArrowRight,,,,,,1
1016,56,244,11,revaluation,False,./assets/img/ocean/animals/seahorse.jpg,ocean,27.0,,True,revaluation,1.0,"{""ArrowUp,ArrowLeft"":2,""ArrowUp,ArrowRight"":11,""ArrowDown,ArrowLeft"":8,""ArrowDown,ArrowRight"":27}",3,,,False,8,484.7000000476837,,ArrowRight,,,,,,2
1017,57,246,11,revaluation,False,./assets/img/ocean/animals/seahorse.jpg,ocean,27.0,,True,revaluation,1.0,"{""ArrowUp,ArrowLeft"":2,""ArrowUp,ArrowRight"":11,""ArrowDown,ArrowLeft"":8,""ArrowDown,ArrowRight"":27}",3,,,False,8,565.5,,ArrowRight,,,,,,3
1018,58,249,11,revaluation,True,./assets/img/ocean/animals/octopus.jpg,ocean,-5.0,,False,revaluation,1.0,"{""ArrowUp,ArrowLeft"":2,""ArrowUp,ArrowRight"":11,""ArrowDown,ArrowLeft"":8,""ArrowDown,ArrowRight"":27}",4,,,False,8,,,,,,,,,4
1019,59,251,11,revaluation,False,./assets/img/ocean/animals/seahorse.jpg,ocean,27.0,,True,revaluation,1.0,"{""ArrowUp,ArrowLeft"":2,""ArrowUp,ArrowRight"":11,""ArrowDown,ArrowLeft"":8,""ArrowDown,ArrowRight"":27}",4,,,False,8,524.5,,ArrowRight,,,,,,4
1020,60,253,11,revaluation,False,./assets/img/ocean/animals/seahorse.jpg,ocean,27.0,,True,revaluation,1.0,"{""ArrowUp,ArrowLeft"":2,""ArrowUp,ArrowRight"":11,""ArrowDown,ArrowLeft"":8,""ArrowDown,ArrowRight"":27}",5,,,False,8,903.6000000238419,,ArrowRight,,,,,,5
1021,61,255,11,revaluation,False,./assets/img/ocean/animals/octopus.jpg,ocean,2.0,,False,revaluation,1.0,"{""ArrowUp,ArrowLeft"":2,""ArrowUp,ArrowRight"":11,""ArrowDown,ArrowLeft"":8,""ArrowDown,ArrowRight"":27}",5,,,False,8,1088.0,,ArrowLeft,,,,,,5
1022,62,258,11,revaluation,False,./assets/img/ocean/animals/seahorse.jpg,ocean,27.0,,True,revaluation,1.0,"{""ArrowUp,ArrowLeft"":2,""ArrowUp,ArrowRight"":11,""ArrowDown,ArrowLeft"":8,""ArrowDown,ArrowRight"":27}",6,,,False,8,732.2999999523163,,ArrowRight,,,,,,6
1023,63,260,11,revaluation,False,./assets/img/ocean/animals/octopus.jpg,ocean,2.0,,False,revaluation,1.0,"{""ArrowUp,ArrowLeft"":2,""ArrowUp,ArrowRight"":11,""ArrowDown,ArrowLeft"":8,""ArrowDown,ArrowRight"":27}",6,,,False,8,529.1000000238419,,ArrowLeft,,,,,,6
1024,64,262,11,revaluation,False,./assets/img/ocean/animals/octopus.jpg,ocean,2.0,,False,revaluation,1.0,"{""ArrowUp,ArrowLeft"":2,""ArrowUp,ArrowRight"":11,""ArrowDown,ArrowLeft"":8,""ArrowDown,ArrowRight"":27}",7,,,False,8,345.0,,ArrowLeft,,,,,,7
1025,65,264,11,revaluation,False,./assets/img/ocean/animals/seahorse.jpg,ocean,27.0,,True,revaluation,1.0,"{""ArrowUp,ArrowLeft"":2,""ArrowUp,ArrowRight"":11,""ArrowDown,ArrowLeft"":8,""ArrowDown,ArrowRight"":27}",7,,,False,8,803.5999999046326,,ArrowRight,,,,,,7
1026,66,267,11,revaluation,False,./assets/img/ocean/animals/seahorse.jpg,ocean,27.0,,True,revaluation,1.0,"{""ArrowUp,ArrowLeft"":2,""ArrowUp,ArrowRight"":11,""ArrowDown,ArrowLeft"":8,""ArrowDown,ArrowRight"":27}",8,,,False,8,1115.0999999046326,,ArrowRight,,,,,,8
1027,67,269,11,revaluation,False,./assets/img/ocean/animals/octopus.jpg,ocean,11.0,,True,revaluation,1.0,"{""ArrowUp,ArrowLeft"":2,""ArrowUp,ArrowRight"":11,""ArrowDown,ArrowLeft"":8,""ArrowDown,ArrowRight"":27}",8,,,False,8,514.8999999761581,,ArrowRight,,,,,,8
1090,130,411,11,revaluation,False,./assets/img/canyon/animals/giraffe.jpg,canyon,30.0,,True,original,2.0,"{""ArrowUp,ArrowLeft"":23,""ArrowUp,ArrowRight"":10,""ArrowDown,ArrowLeft"":8,""ArrowDown,ArrowRight"":30}",0,,,False,8,762.3999999761581,,ArrowRight,,,,,,0
1091,131,413,11,revaluation,False,./assets/img/canyon/animals/giraffe.jpg,canyon,30.0,,True,original,2.0,"{""ArrowUp,ArrowLeft"":23,""ArrowUp,ArrowRight"":10,""ArrowDown,ArrowLeft"":8,""ArrowDown,ArrowRight"":30}",0,,,False,8,862.8000000715256,,ArrowRight,,,,,,1
1092,132,415,11,revaluation,False,./assets/img/canyon/animals/lion.jpg,canyon,23.0,,True,original,2.0,"{""ArrowUp,ArrowLeft"":23,""ArrowUp,ArrowRight"":10,""ArrowDown,ArrowLeft"":8,""ArrowDown,ArrowRight"":30}",1,,,False,8,420.5,,ArrowLeft,,,,,,0
1093,133,417,11,revaluation,False,./assets/img/canyon/animals/giraffe.jpg,canyon,30.0,,True,original,2.0,"{""ArrowUp,ArrowLeft"":23,""ArrowUp,ArrowRight"":10,""ArrowDown,ArrowLeft"":8,""ArrowDown,ArrowRight"":30}",1,,,False,8,526.0999999046326,,ArrowRight,,,,,,2
1094,134,420,11,revaluation,False,./assets/img/canyon/animals/lion.jpg,canyon,23.0,,True,original,2.0,"{""ArrowUp,ArrowLeft"":23,""ArrowUp,ArrowRight"":10,""ArrowDown,ArrowLeft"":8,""ArrowDown,ArrowRight"":30}",2,,,False,8,819.6000000238419,,ArrowLeft,,,,,,1
1095,135,422,11,revaluation,False,./assets/img/canyon/animals/lion.jpg,canyon,10.0,,False,original,2.0,"{""ArrowUp,ArrowLeft"":23,""ArrowUp,ArrowRight"":10,""ArrowDown,ArrowLeft"":8,""ArrowDown,ArrowRight"":30}",2,,,False,8,640.8999999761581,,ArrowRight,,,,,,2
1096,136,424,11,revaluation,False,./assets/img/canyon/animals/giraffe.jpg,canyon,8.0,,False,original,2.0,"{""ArrowUp,ArrowLeft"":23,""ArrowUp,ArrowRight"":10,""ArrowDown,ArrowLeft"":8,""ArrowDown,ArrowRight"":30}",3,,,False,8,703.3999999761581,,ArrowLeft,,,,,,3
1097,137,426,11,revaluation,False,./assets/img/canyon/animals/lion.jpg,canyon,23.0,,True,original,2.0,"{""ArrowUp,ArrowLeft"":23,""ArrowUp,ArrowRight"":10,""ArrowDown,ArrowLeft"":8,""ArrowDown,ArrowRight"":30}",3,,,False,8,480.7999999523163,,ArrowLeft,,,,,,3
1098,138,429,11,revaluation,False,./assets/img/canyon/animals/lion.jpg,canyon,23.0,,True,original,2.0,"{""ArrowUp,ArrowLeft"":23,""ArrowUp,ArrowRight"":10,""ArrowDown,ArrowLeft"":8,""ArrowDown,ArrowRight"":30}",4,,,False,8,1845.0,,ArrowLeft,,,,,,4
1099,139,431,11,revaluation,False,./assets/img/canyon/animals/lion.jpg,canyon,10.0,,False,original,2.0,"{""ArrowUp,ArrowLeft"":23,""ArrowUp,ArrowRight"":10,""ArrowDown,ArrowLeft"":8,""ArrowDown,ArrowRight"":30}",4,,,False,8,369.2000000476837,,ArrowRight,,,,,,5
1100,140,433,11,revaluation,False,./assets/img/canyon/animals/lion.jpg,canyon,23.0,,True,original,2.0,"{""ArrowUp,ArrowLeft"":23,""ArrowUp,ArrowRight"":10,""ArrowDown,ArrowLeft"":8,""ArrowDown,ArrowRight"":30}",5,,,False,8,1042.5999999046326,,ArrowLeft,,,,,,6
1101,141,435,11,revaluation,False,./assets/img/canyon/animals/giraffe.jpg,canyon,30.0,,True,original,2.0,"{""ArrowUp,ArrowLeft"":23,""ArrowUp,ArrowRight"":10,""ArrowDown,ArrowLeft"":8,""ArrowDown,ArrowRight"":30}",5,,,False,8,673.2999999523163,,ArrowRight,,,,,,4
1102,142,438,11,revaluation,False,./assets/img/canyon/animals/giraffe.jpg,canyon,30.0,,True,original,2.0,"{""ArrowUp,ArrowLeft"":23,""ArrowUp,ArrowRight"":10,""ArrowDown,ArrowLeft"":8,""ArrowDown,ArrowRight"":30}",6,,,False,8,1329.6999999284744,,ArrowRight,,,,,,5
1103,143,440,11,revaluation,False,./assets/img/canyon/animals/giraffe.jpg,canyon,30.0,,True,original,2.0,"{""ArrowUp,ArrowLeft"":23,""ArrowUp,ArrowRight"":10,""ArrowDown,ArrowLeft"":8,""ArrowDown,ArrowRight"":30}",6,,,False,8,1599.3999999761581,,ArrowRight,,,,,,6
1104,144,442,11,revaluation,False,./assets/img/canyon/animals/lion.jpg,canyon,23.0,,True,original,2.0,"{""ArrowUp,ArrowLeft"":23,""ArrowUp,ArrowRight"":10,""ArrowDown,ArrowLeft"":8,""ArrowDown,ArrowRight"":30}",7,,,False,8,762.7000000476837,,ArrowLeft,,,,,,7
1105,145,444,11,revaluation,False,./assets/img/canyon/animals/giraffe.jpg,canyon,30.0,,True,original,2.0,"{""ArrowUp,ArrowLeft"":23,""ArrowUp,ArrowRight"":10,""ArrowDown,ArrowLeft"":8,""ArrowDown,ArrowRight"":30}",7,,,False,8,1251.7999999523163,,ArrowRight,,,,,,7
1106,146,447,11,revaluation,False,./assets/img/canyon/animals/giraffe.jpg,canyon,30.0,,True,original,2.0,"{""ArrowUp,ArrowLeft"":23,""ArrowUp,ArrowRight"":10,""ArrowDown,ArrowLeft"":8,""ArrowDown,ArrowRight"":30}",8,,,False,8,1450.1000000238419,,ArrowRight,,,,,,8
1107,147,449,11,revaluation,False,./assets/img/canyon/animals/lion.jpg,canyon,10.0,,False,original,2.0,"{""ArrowUp,ArrowLeft"":23,""ArrowUp,ArrowRight"":10,""ArrowDown,ArrowLeft"":8,""ArrowDown,ArrowRight"":30}",8,,,False,8,450.7000000476837,,ArrowRight,,,,,,8
1170,50,241,12,revaluation,False,./assets/img/ocean/animals/octopus.jpg,ocean,2.0,,False,revaluation,1.0,"{""ArrowUp,ArrowLeft"":2,""ArrowUp,ArrowRight"":11,""ArrowDown,ArrowLeft"":8,""ArrowDown,ArrowRight"":27}",0,,,True,4,816.0000000002328,,ArrowLeft,,,,,,0
1171,51,243,12,revaluation,False,./assets/img/ocean/animals/seahorse.jpg,ocean,8.0,,False,revaluation,1.0,"{""ArrowUp,ArrowLeft"":2,""ArrowUp,ArrowRight"":11,""ArrowDown,ArrowLeft"":8,""ArrowDown,ArrowRight"":27}",0,,,True,4,1159.0,,ArrowLeft,,,,,,0
1172,52,245,12,revaluation,False,./assets/img/ocean/animals/octopus.jpg,ocean,11.0,,True,revaluation,1.0,"{""ArrowUp,ArrowLeft"":2,""ArrowUp,ArrowRight"":11,""ArrowDown,ArrowLeft"":8,""ArrowDown,ArrowRight"":27}",1,,,True,4,884.0,,ArrowRight,,,,,,1
1173,53,247,12,revaluation,False,./assets/img/ocean/animals/octopus.jpg,ocean,11.0,,True,revaluation,1.0,"{""ArrowUp,ArrowLeft"":2,""ArrowUp,ArrowRight"":11,""ArrowDown,ArrowLeft"":8,""ArrowDown,ArrowRight"":27}",1,,,True,4,853.0000000002328,,ArrowRight,,,,,,2
1174,54,250,12,revaluation,False,./assets/img/ocean/animals/seahorse.jpg,ocean,8.0,,False,revaluation,1.0,"{""ArrowUp,ArrowLeft"":2,""ArrowUp,ArrowRight"":11,""ArrowDown,ArrowLeft"":8,""ArrowDown,ArrowRight"":27}",2,,,True,4,1245.0,,ArrowLeft,,,,,,1
1175,55,252,12,revaluation,False,./assets/img/ocean/animals/seahorse.jpg,ocean,27.0,,True,revaluation,1.0,"{""ArrowUp,ArrowLeft"":2,""ArrowUp,ArrowRight"":11,""ArrowDown,ArrowLeft"":8,""ArrowDown,ArrowRight"":27}",2,,,True,4,831.0000000002328,,ArrowRight,,,,,,2
1176,56,254,12,revaluation,False,./assets/img/ocean/animals/octopus.jpg,ocean,11.0,,True,revaluation,1.0,"{""ArrowUp,ArrowLeft"":2,""ArrowUp,ArrowRight"":11,""ArrowDown,ArrowLeft"":8,""ArrowDown,ArrowRight"":27}",3,,,True,4,1364.0,,ArrowRight,,,,,,3
1177,57,256,12,revaluation,False,./assets/img/ocean/animals/octopus.jpg,ocean,2.0,,False,revaluation,1.0,"{""ArrowUp,ArrowLeft"":2,""ArrowUp,ArrowRight"":11,""ArrowDown,ArrowLeft"":8,""ArrowDown,ArrowRight"":27}",3,,,True,4,871.0,,ArrowLeft,,,,,,4
1178,58,259,12,revaluation,False,./assets/img/ocean/animals/octopus.jpg,ocean,11.0,,True,revaluation,1.0,"{""ArrowUp,ArrowLeft"":2,""ArrowUp,ArrowRight"":11,""ArrowDown,ArrowLeft"":8,""ArrowDown,ArrowRight"":27}",4,,,True,4,1662.0,,ArrowRight,,,,,,5
1179,59,261,12,revaluation,False,./assets/img/ocean/animals/seahorse.jpg,ocean,27.0,,True,revaluation,1.0,"{""ArrowUp,ArrowLeft"":2,""ArrowUp,ArrowRight"":11,""ArrowDown,ArrowLeft"":8,""ArrowDown,ArrowRight"":27}",4,,,True,4,917.0,,ArrowRight,,,,,,3
1180,60,263,12,revaluation,False,./assets/img/ocean/animals/seahorse.jpg,ocean,27.0,,True,revaluation,1.0,"{""ArrowUp,ArrowLeft"":2,""ArrowUp,ArrowRight"":11,""ArrowDown,ArrowLeft"":8,""ArrowDown,ArrowRight"":27}",5,,,True,4,792.0,,ArrowRight,,,,,,4
1181,61,265,12,revaluation,False,./assets/img/ocean/animals/seahorse.jpg,ocean,27.0,,True,revaluation,1.0,"{""ArrowUp,ArrowLeft"":2,""ArrowUp,ArrowRight"":11,""ArrowDown,ArrowLeft"":8,""ArrowDown,ArrowRight"":27}",5,,,True,4,1304.0,,ArrowRight,,,,,,5
1182,62,268,12,revaluation,False,./assets/img/ocean/animals/seahorse.jpg,ocean,27.0,,True,revaluation,1.0,"{""ArrowUp,ArrowLeft"":2,""ArrowUp,ArrowRight"":11,""ArrowDown,ArrowLeft"":8,""ArrowDown,ArrowRight"":27}",6,,,True,4,812.0,,ArrowRight,,,,,,6
1183,63,270,12,revaluation,False,./assets/img/ocean/animals/octopus.jpg,ocean,11.0,,True,revaluation,1.0,"{""ArrowUp,ArrowLeft"":2,""ArrowUp,ArrowRight"":11,""ArrowDown,ArrowLeft"":8,""ArrowDown,ArrowRight"":27}",6,,,True,4,501.0,,ArrowRight,,,,,,6
1184,64,272,12,revaluation,False,./assets/img/ocean/animals/octopus.jpg,ocean,2.0,,False,revaluation,1.0,"{""ArrowUp,ArrowLeft"":2,""ArrowUp,ArrowRight"":11,""ArrowDown,ArrowLeft"":8,""ArrowDown,ArrowRight"":27}",7,,,True,4,583.0,,ArrowLeft,,,,,,7
1185,65,274,12,revaluation,False,./assets/img/ocean/animals/octopus.jpg,ocean,11.0,,True,revaluation,1.0,"{""ArrowUp,ArrowLeft"":2,""ArrowUp,ArrowRight"":11,""ArrowDown,ArrowLeft"":8,""ArrowDown,ArrowRight"":27}",7,,,True,4,903.0,,ArrowRight,,,,,,8
1186,66,277,12,revaluation,False,./assets/img/ocean/animals/seahorse.jpg,ocean,27.0,,True,revaluation,1.0,"{""ArrowUp,ArrowLeft"":2,""ArrowUp,ArrowRight"":11,""ArrowDown,ArrowLeft"":8,""ArrowDown,ArrowRight"":27}",8,,,True,4,1290.0,,ArrowRight,,,,,,7
1187,67,279,12,revaluation,False,./assets/img/ocean/animals/seahorse.jpg,ocean,27.0,,True,revaluation,1.0,"{""ArrowUp,ArrowLeft"":2,""ArrowUp,ArrowRight"":11,""ArrowDown,ArrowLeft"":8,""ArrowDown,ArrowRight"":27}",8,,,True,4,779.0,,ArrowRight,,,,,,8
1250,130,423,12,revaluation,False,./assets/img/canyon/animals/lion.jpg,canyon,30.0,,True,original,2.0,"{""ArrowUp,ArrowLeft"":23,""ArrowUp,ArrowRight"":10,""ArrowDown,ArrowLeft"":8,""ArrowDown,ArrowRight"":30}",0,,,True,4,922.0,,ArrowRight,,,,,,0
1251,131,425,12,revaluation,False,./assets/img/canyon/animals/lion.jpg,canyon,30.0,,True,original,2.0,"{""ArrowUp,ArrowLeft"":23,""ArrowUp,ArrowRight"":10,""ArrowDown,ArrowLeft"":8,""ArrowDown,ArrowRight"":30}",0,,,True,4,1221.0,,ArrowRight,,,,,,1
1252,132,427,12,revaluation,False,./assets/img/canyon/animals/lion.jpg,canyon,30.0,,True,original,2.0,"{""ArrowUp,ArrowLeft"":23,""ArrowUp,ArrowRight"":10,""ArrowDown,ArrowLeft"":8,""ArrowDown,ArrowRight"":30}",1,,,True,4,658.9999999997672,,ArrowRight,,,,,,2
1253,133,429,12,revaluation,False,./assets/img/canyon/animals/lion.jpg,canyon,30.0,,True,original,2.0,"{""ArrowUp,ArrowLeft"":23,""ArrowUp,ArrowRight"":10,""ArrowDown,ArrowLeft"":8,""ArrowDown,ArrowRight"":30}",1,,,True,4,677.0,,ArrowRight,,,,,,3
1254,134,432,12,revaluation,True,./assets/img/canyon/animals/giraffe.jpg,canyon,-5.0,,False,original,2.0,"{""ArrowUp,ArrowLeft"":23,""ArrowUp,ArrowRight"":10,""ArrowDown,ArrowLeft"":8,""ArrowDown,ArrowRight"":30}",2,,,True,4,,,,,,,,,0
1255,135,434,12,revaluation,False,./assets/img/canyon/animals/giraffe.jpg,canyon,10.0,,False,original,2.0,"{""ArrowUp,ArrowLeft"":23,""ArrowUp,ArrowRight"":10,""ArrowDown,ArrowLeft"":8,""ArrowDown,ArrowRight"":30}",2,,,True,4,484.0,,ArrowRight,,,,,,1
1256,136,436,12,revaluation,False,./assets/img/canyon/animals/lion.jpg,canyon,30.0,,True,original,2.0,"{""ArrowUp,ArrowLeft"":23,""ArrowUp,ArrowRight"":10,""ArrowDown,ArrowLeft"":8,""ArrowDown,ArrowRight"":30}",3,,,True,4,684.0000000002328,,ArrowRight,,,,,,4
1257,137,438,12,revaluation,False,./assets/img/canyon/animals/lion.jpg,canyon,30.0,,True,original,2.0,"{""ArrowUp,ArrowLeft"":23,""ArrowUp,ArrowRight"":10,""ArrowDown,ArrowLeft"":8,""ArrowDown,ArrowRight"":30}",3,,,True,4,1037.0,,ArrowRight,,,,,,5
1258,138,441,12,revaluation,False,./assets/img/canyon/animals/giraffe.jpg,canyon,23.0,,True,original,2.0,"{""ArrowUp,ArrowLeft"":23,""ArrowUp,ArrowRight"":10,""ArrowDown,ArrowLeft"":8,""ArrowDown,ArrowRight"":30}",4,,,True,4,1077.0,,ArrowLeft,,,,,,2
1259,139,443,12,revaluation,False,./assets/img/canyon/animals/giraffe.jpg,canyon,23.0,,True,original,2.0,"{""ArrowUp,ArrowLeft"":23,""ArrowUp,ArrowRight"":10,""ArrowDown,ArrowLeft"":8,""ArrowDown,ArrowRight"":30}",4,,,True,4,510.0,,ArrowLeft,,,,,,3
1260,140,445,12,revaluation,False,./assets/img/canyon/animals/lion.jpg,canyon,30.0,,True,original,2.0,"{""ArrowUp,ArrowLeft"":23,""ArrowUp,ArrowRight"":10,""ArrowDown,ArrowLeft"":8,""ArrowDown,ArrowRight"":30}",5,,,True,4,508.0,,ArrowRight,,,,,,6
1261,141,447,12,revaluation,False,./assets/img/canyon/animals/lion.jpg,canyon,30.0,,True,original,2.0,"{""ArrowUp,ArrowLeft"":23,""ArrowUp,ArrowRight"":10,""ArrowDown,ArrowLeft"":8,""ArrowDown,ArrowRight"":30}",5,,,True,4,606.0,,ArrowRight,,,,,,7
1262,142,450,12,revaluation,False,./assets/img/canyon/animals/giraffe.jpg,canyon,23.0,,True,original,2.0,"{""ArrowUp,ArrowLeft"":23,""ArrowUp,ArrowRight"":10,""ArrowDown,ArrowLeft"":8,""ArrowDown,ArrowRight"":30}",6,,,True,4,990.0,,ArrowLeft,,,,,,4
1263,143,452,12,revaluation,False,./assets/img/canyon/animals/giraffe.jpg,canyon,23.0,,True,original,2.0,"{""ArrowUp,ArrowLeft"":23,""ArrowUp,ArrowRight"":10,""ArrowDown,ArrowLeft"":8,""ArrowDown,ArrowRight"":30}",6,,,True,4,460.0,,ArrowLeft,,,,,,5
1264,144,454,12,revaluation,False,./assets/img/canyon/animals/lion.jpg,canyon,30.0,,True,original,2.0,"{""ArrowUp,ArrowLeft"":23,""ArrowUp,ArrowRight"":10,""ArrowDown,ArrowLeft"":8,""ArrowDown,ArrowRight"":30}",7,,,True,4,542.0,,ArrowRight,,,,,,8
1265,145,456,12,revaluation,False,./assets/img/canyon/animals/giraffe.jpg,canyon,23.0,,True,original,2.0,"{""ArrowUp,ArrowLeft"":23,""ArrowUp,ArrowRight"":10,""ArrowDown,ArrowLeft"":8,""ArrowDown,ArrowRight"":30}",7,,,True,4,592.0,,ArrowLeft,,,,,,6
1266,146,459,12,revaluation,False,./assets/img/canyon/animals/giraffe.jpg,canyon,23.0,,True,original,2.0,"{""ArrowUp,ArrowLeft"":23,""ArrowUp,ArrowRight"":10,""ArrowDown,ArrowLeft"":8,""ArrowDown,ArrowRight"":30}",8,,,True,4,1028.0000000002328,,ArrowLeft,,,,,,7
1267,147,461,12,revaluation,False,./assets/img/canyon/animals/giraffe.jpg,canyon,23.0,,True,original,2.0,"{""ArrowUp,ArrowLeft"":23,""ArrowUp,ArrowRight"":10,""ArrowDown,ArrowLeft"":8,""ArrowDown,ArrowRight"":30}",8,,,True,4,508.0,,ArrowLeft,,,,,,8
1330,50,233,15,revaluation,False,./assets/img/canyon/animals/lion.jpg,canyon,8.0,,False,revaluation,1.0,"{""ArrowUp,ArrowLeft"":2,""ArrowUp,ArrowRight"":11,""ArrowDown,ArrowLeft"":8,""ArrowDown,ArrowRight"":27}",0,,,False,8,1919.699999999255,,ArrowLeft,,,,,,0
1331,51,235,15,revaluation,False,./assets/img/canyon/animals/lion.jpg,canyon,27.0,,True,revaluation,1.0,"{""ArrowUp,ArrowLeft"":2,""ArrowUp,ArrowRight"":11,""ArrowDown,ArrowLeft"":8,""ArrowDown,ArrowRight"":27}",0,,,False,8,1062.0999999977648,,ArrowRight,,,,,,1
1332,52,237,15,revaluation,False,./assets/img/canyon/animals/lion.jpg,canyon,27.0,,True,revaluation,1.0,"{""ArrowUp,ArrowLeft"":2,""ArrowUp,ArrowRight"":11,""ArrowDown,ArrowLeft"":8,""ArrowDown,ArrowRight"":27}",1,,,False,8,673.5999999977648,,ArrowRight,,,,,,2
1333,53,239,15,revaluation,False,./assets/img/canyon/animals/lion.jpg,canyon,27.0,,True,revaluation,1.0,"{""ArrowUp,ArrowLeft"":2,""ArrowUp,ArrowRight"":11,""ArrowDown,ArrowLeft"":8,""ArrowDown,ArrowRight"":27}",1,,,False,8,644.0999999977648,,ArrowRight,,,,,,3
1334,54,242,15,revaluation,False,./assets/img/canyon/animals/giraffe.jpg,canyon,11.0,,True,revaluation,1.0,"{""ArrowUp,ArrowLeft"":2,""ArrowUp,ArrowRight"":11,""ArrowDown,ArrowLeft"":8,""ArrowDown,ArrowRight"":27}",2,,,False,8,1361.5,,ArrowRight,,,,,,0
1335,55,244,15,revaluation,False,./assets/img/canyon/animals/giraffe.jpg,canyon,2.0,,False,revaluation,1.0,"{""ArrowUp,ArrowLeft"":2,""ArrowUp,ArrowRight"":11,""ArrowDown,ArrowLeft"":8,""ArrowDown,ArrowRight"":27}",2,,,False,8,578.5999999977648,,ArrowLeft,,,,,,1
1336,56,246,15,revaluation,False,./assets/img/canyon/animals/giraffe.jpg,canyon,11.0,,True,revaluation,1.0,"{""ArrowUp,ArrowLeft"":2,""ArrowUp,ArrowRight"":11,""ArrowDown,ArrowLeft"":8,""ArrowDown,ArrowRight"":27}",3,,,False,8,447.9000000022352,,ArrowRight,,,,,,2
1337,57,248,15,revaluation,False,./assets/img/canyon/animals/giraffe.jpg,canyon,2.0,,False,revaluation,1.0,"{""ArrowUp,ArrowLeft"":2,""ArrowUp,ArrowRight"":11,""ArrowDown,ArrowLeft"":8,""ArrowDown,ArrowRight"":27}",3,,,False,8,607.1000000014901,,ArrowLeft,,,,,,3
1338,58,251,15,revaluation,False,./assets/img/canyon/animals/lion.jpg,canyon,27.0,,True,revaluation,1.0,"{""ArrowUp,ArrowLeft"":2,""ArrowUp,ArrowRight"":11,""ArrowDown,ArrowLeft"":8,""ArrowDown,ArrowRight"":27}",4,,,False,8,1085.8999999985099,,ArrowRight,,,,,,4
1339,59,253,15,revaluation,False,./assets/img/canyon/animals/lion.jpg,canyon,8.0,,False,revaluation,1.0,"{""ArrowUp,ArrowLeft"":2,""ArrowUp,ArrowRight"":11,""ArrowDown,ArrowLeft"":8,""ArrowDown,ArrowRight"":27}",4,,,False,8,573.9000000022352,,ArrowLeft,,,,,,5
1340,60,255,15,revaluation,False,./assets/img/canyon/animals/giraffe.jpg,canyon,11.0,,True,revaluation,1.0,"{""ArrowUp,ArrowLeft"":2,""ArrowUp,ArrowRight"":11,""ArrowDown,ArrowLeft"":8,""ArrowDown,ArrowRight"":27}",5,,,False,8,806.7999999970198,,ArrowRight,,,,,,4
1341,61,257,15,revaluation,False,./assets/img/canyon/animals/giraffe.jpg,canyon,2.0,,False,revaluation,1.0,"{""ArrowUp,ArrowLeft"":2,""ArrowUp,ArrowRight"":11,""ArrowDown,ArrowLeft"":8,""ArrowDown,ArrowRight"":27}",5,,,False,8,531.2000000029802,,ArrowLeft,,,,,,5
1342,62,260,15,revaluation,False,./assets/img/canyon/animals/giraffe.jpg,canyon,11.0,,True,revaluation,1.0,"{""ArrowUp,ArrowLeft"":2,""ArrowUp,ArrowRight"":11,""ArrowDown,ArrowLeft"":8,""ArrowDown,ArrowRight"":27}",6,,,False,8,1134.199999999255,,ArrowRight,,,,,,6
1343,63,262,15,revaluation,False,./assets/img/canyon/animals/giraffe.jpg,canyon,2.0,,False,revaluation,1.0,"{""ArrowUp,ArrowLeft"":2,""ArrowUp,ArrowRight"":11,""ArrowDown,ArrowLeft"":8,""ArrowDown,ArrowRight"":27}",6,,,False,8,855.8000000007451,,ArrowLeft,,,,,,7
1344,64,264,15,revaluation,False,./assets/img/canyon/animals/giraffe.jpg,canyon,11.0,,True,revaluation,1.0,"{""ArrowUp,ArrowLeft"":2,""ArrowUp,ArrowRight"":11,""ArrowDown,ArrowLeft"":8,""ArrowDown,ArrowRight"":27}",7,,,False,8,721.5,,ArrowRight,,,,,,8
1345,65,266,15,revaluation,False,./assets/img/canyon/animals/lion.jpg,canyon,27.0,,True,revaluation,1.0,"{""ArrowUp,ArrowLeft"":2,""ArrowUp,ArrowRight"":11,""ArrowDown,ArrowLeft"":8,""ArrowDown,ArrowRight"":27}",7,,,False,8,501.0999999977648,,ArrowRight,,,,,,6
1346,66,269,15,revaluation,False,./assets/img/canyon/animals/lion.jpg,canyon,8.0,,False,revaluation,1.0,"{""ArrowUp,ArrowLeft"":2,""ArrowUp,ArrowRight"":11,""ArrowDown,ArrowLeft"":8,""ArrowDown,ArrowRight"":27}",8,,,False,8,1201.2000000029802,,ArrowLeft,,,,,,7
1347,67,271,15,revaluation,False,./assets/img/canyon/animals/lion.jpg,canyon,27.0,,True,revaluation,1.0,"{""ArrowUp,ArrowLeft"":2,""ArrowUp,ArrowRight"":11,""ArrowDown,ArrowLeft"":8,""ArrowDown,ArrowRight"":27}",8,,,False,8,520.6000000014901,,ArrowRight,,,,,,8
1410,130,413,15,revaluation,False,./assets/img/ocean/animals/octopus.jpg,ocean,30.0,,True,original,2.0,"{""ArrowUp,ArrowLeft"":23,""ArrowUp,ArrowRight"":10,""ArrowDown,ArrowLeft"":8,""ArrowDown,ArrowRight"":30}",0,,,False,8,1011.8999999985099,,ArrowRight,,,,,,0
1411,131,415,15,revaluation,False,./assets/img/ocean/animals/seahorse.jpg,ocean,23.0,,True,original,2.0,"{""ArrowUp,ArrowLeft"":23,""ArrowUp,ArrowRight"":10,""ArrowDown,ArrowLeft"":8,""ArrowDown,ArrowRight"":30}",0,,,False,8,825.7999999970198,,ArrowLeft,,,,,,0
1412,132,417,15,revaluation,False,./assets/img/ocean/animals/octopus.jpg,ocean,30.0,,True,original,2.0,"{""ArrowUp,ArrowLeft"":23,""ArrowUp,ArrowRight"":10,""ArrowDown,ArrowLeft"":8,""ArrowDown,ArrowRight"":30}",1,,,False,8,503.80000000074506,,ArrowRight,,,,,,1
1413,133,419,15,revaluation,False,./assets/img/ocean/animals/octopus.jpg,ocean,8.0,,False,original,2.0,"{""ArrowUp,ArrowLeft"":23,""ArrowUp,ArrowRight"":10,""ArrowDown,ArrowLeft"":8,""ArrowDown,ArrowRight"":30}",1,,,False,8,753.6999999992549,,ArrowLeft,,,,,,2
1414,134,422,15,revaluation,False,./assets/img/ocean/animals/seahorse.jpg,ocean,10.0,,False,original,2.0,"{""ArrowUp,ArrowLeft"":23,""ArrowUp,ArrowRight"":10,""ArrowDown,ArrowLeft"":8,""ArrowDown,ArrowRight"":30}",2,,,False,8,1494.5999999977648,,ArrowRight,,,,,,1
1415,135,424,15,revaluation,False,./assets/img/ocean/animals/seahorse.jpg,ocean,23.0,,True,original,2.0,"{""ArrowUp,ArrowLeft"":23,""ArrowUp,ArrowRight"":10,""ArrowDown,ArrowLeft"":8,""ArrowDown,ArrowRight"":30}",2,,,False,8,719.8000000007451,,ArrowLeft,,,,,,2
1416,136,426,15,revaluation,False,./assets/img/ocean/animals/seahorse.jpg,ocean,23.0,,True,original,2.0,"{""ArrowUp,ArrowLeft"":23,""ArrowUp,ArrowRight"":10,""ArrowDown,ArrowLeft"":8,""ArrowDown,ArrowRight"":30}",3,,,False,8,1792.699999999255,,ArrowLeft,,,,,,3
1417,137,428,15,revaluation,False,./assets/img/ocean/animals/seahorse.jpg,ocean,10.0,,False,original,2.0,"{""ArrowUp,ArrowLeft"":23,""ArrowUp,ArrowRight"":10,""ArrowDown,ArrowLeft"":8,""ArrowDown,ArrowRight"":30}",3,,,False,8,1162.800000000745,,ArrowRight,,,,,,4
1418,138,431,15,revaluation,False,./assets/img/ocean/animals/octopus.jpg,ocean,30.0,,True,original,2.0,"{""ArrowUp,ArrowLeft"":23,""ArrowUp,ArrowRight"":10,""ArrowDown,ArrowLeft"":8,""ArrowDown,ArrowRight"":30}",4,,,False,8,1521.199999999255,,ArrowRight,,,,,,3
1419,139,433,15,revaluation,False,./assets/img/ocean/animals/octopus.jpg,ocean,8.0,,False,original,2.0,"{""ArrowUp,ArrowLeft"":23,""ArrowUp,ArrowRight"":10,""ArrowDown,ArrowLeft"":8,""ArrowDown,ArrowRight"":30}",4,,,False,8,514.5999999977648,,ArrowLeft,,,,,,4
1420,140,435,15,revaluation,False,./assets/img/ocean/animals/octopus.jpg,ocean,30.0,,True,original,2.0,"{""ArrowUp,ArrowLeft"":23,""ArrowUp,ArrowRight"":10,""ArrowDown,ArrowLeft"":8,""ArrowDown,ArrowRight"":30}",5,,,False,8,725.1000000014901,,ArrowRight,,,,,,5
1421,141,437,15,revaluation,False,./assets/img/ocean/animals/seahorse.jpg,ocean,23.0,,True,original,2.0,"{""ArrowUp,ArrowLeft"":23,""ArrowUp,ArrowRight"":10,""ArrowDown,ArrowLeft"":8,""ArrowDown,ArrowRight"":30}",5,,,False,8,735.8999999985099,,ArrowLeft,,,,,,5
1422,142,440,15,revaluation,False,./assets/img/ocean/animals/octopus.jpg,ocean,8.0,,False,original,2.0,"{""ArrowUp,ArrowLeft"":23,""ArrowUp,ArrowRight"":10,""ArrowDown,ArrowLeft"":8,""ArrowDown,ArrowRight"":30}",6,,,False,8,1300.5999999977648,,ArrowLeft,,,,,,6
1423,143,442,15,revaluation,False,./assets/img/ocean/animals/octopus.jpg,ocean,30.0,,True,original,2.0,"{""ArrowUp,ArrowLeft"":23,""ArrowUp,ArrowRight"":10,""ArrowDown,ArrowLeft"":8,""ArrowDown,ArrowRight"":30}",6,,,False,8,780.3000000007451,,ArrowRight,,,,,,7
1424,144,444,15,revaluation,False,./assets/img/ocean/animals/seahorse.jpg,ocean,23.0,,True,original,2.0,"{""ArrowUp,ArrowLeft"":23,""ArrowUp,ArrowRight"":10,""ArrowDown,ArrowLeft"":8,""ArrowDown,ArrowRight"":30}",7,,,False,8,805.6000000014901,,ArrowLeft,,,,,,6
1425,145,446,15,revaluation,False,./assets/img/ocean/animals/seahorse.jpg,ocean,23.0,,True,original,2.0,"{""ArrowUp,ArrowLeft"":23,""ArrowUp,ArrowRight"":10,""ArrowDown,ArrowLeft"":8,""ArrowDown,ArrowRight"":30}",7,,,False,8,522.9000000022352,,ArrowLeft,,,,,,7
1426,146,449,15,revaluation,False,./assets/img/ocean/animals/seahorse.jpg,ocean,10.0,,False,original,2.0,"{""ArrowUp,ArrowLeft"":23,""ArrowUp,ArrowRight"":10,""ArrowDown,ArrowLeft"":8,""ArrowDown,ArrowRight"":30}",8,,,False,8,1211.6000000014901,,ArrowRight,,,,,,8
1427,147,451,15,revaluation,False,./assets/img/ocean/animals/octopus.jpg,ocean,8.0,,False,original,2.0,"{""ArrowUp,ArrowLeft"":23,""ArrowUp,ArrowRight"":10,""ArrowDown,ArrowLeft"":8,""ArrowDown,ArrowRight"":30}",8,,,False,8,1459.7999999970198,,ArrowLeft,,,,,,8
1490,50,231,16,revaluation,False,./assets/img/ocean/animals/octopus.jpg,ocean,23.0,,True,original,1.0,"{""ArrowUp,ArrowLeft"":23,""ArrowUp,ArrowRight"":10,""ArrowDown,ArrowLeft"":8,""ArrowDown,ArrowRight"":30}",0,,,False,7,814.7000000476837,,ArrowLeft,,,,,,0
1491,51,233,16,revaluation,False,./assets/img/ocean/animals/seahorse.jpg,ocean,30.0,,True,original,1.0,"{""ArrowUp,ArrowLeft"":23,""ArrowUp,ArrowRight"":10,""ArrowDown,ArrowLeft"":8,""ArrowDown,ArrowRight"":30}",0,,,False,7,723.7999999523163,,ArrowRight,,,,,,0
1492,52,235,16,revaluation,False,./assets/img/ocean/animals/octopus.jpg,ocean,23.0,,True,original,1.0,"{""ArrowUp,ArrowLeft"":23,""ArrowUp,ArrowRight"":10,""ArrowDown,ArrowLeft"":8,""ArrowDown,ArrowRight"":30}",1,,,False,7,682.5,,ArrowLeft,,,,,,1
1493,53,237,16,revaluation,False,./assets/img/ocean/animals/seahorse.jpg,ocean,30.0,,True,original,1.0,"{""ArrowUp,ArrowLeft"":23,""ArrowUp,ArrowRight"":10,""ArrowDown,ArrowLeft"":8,""ArrowDown,ArrowRight"":30}",1,,,False,7,556.0999999046326,,ArrowRight,,,,,,1
1494,54,240,16,revaluation,False,./assets/img/ocean/animals/octopus.jpg,ocean,23.0,,True,original,1.0,"{""ArrowUp,ArrowLeft"":23,""ArrowUp,ArrowRight"":10,""ArrowDown,ArrowLeft"":8,""ArrowDown,ArrowRight"":30}",2,,,False,7,821.8999998569489,,ArrowLeft,,,,,,2
1495,55,242,16,revaluation,False,./assets/img/ocean/animals/seahorse.jpg,ocean,30.0,,True,original,1.0,"{""ArrowUp,ArrowLeft"":23,""ArrowUp,ArrowRight"":10,""ArrowDown,ArrowLeft"":8,""ArrowDown,ArrowRight"":30}",2,,,False,7,886.4000000953674,,ArrowRight,,,,,,2
1496,56,244,16,revaluation,False,./assets/img/ocean/animals/octopus.jpg,ocean,10.0,,False,original,1.0,"{""ArrowUp,ArrowLeft"":23,""ArrowUp,ArrowRight"":10,""ArrowDown,ArrowLeft"":8,""ArrowDown,ArrowRight"":30}",3,,,False,7,683.5,,ArrowRight,,,,,,3
1497,57,246,16,revaluation,False,./assets/img/ocean/animals/seahorse.jpg,ocean,8.0,,False,original,1.0,"{""ArrowUp,ArrowLeft"":23,""ArrowUp,ArrowRight"":10,""ArrowDown,ArrowLeft"":8,""ArrowDown,ArrowRight"":30}",3,,,False,7,312.7999999523163,,ArrowLeft,,,,,,3
1498,58,249,16,revaluation,False,./assets/img/ocean/animals/seahorse.jpg,ocean,30.0,,True,original,1.0,"{""ArrowUp,ArrowLeft"":23,""ArrowUp,ArrowRight"":10,""ArrowDown,ArrowLeft"":8,""ArrowDown,ArrowRight"":30}",4,,,False,7,970.5999999046326,,ArrowRight,,,,,,4
1499,59,251,16,revaluation,False,./assets/img/ocean/animals/octopus.jpg,ocean,10.0,,False,original,1.0,"{""ArrowUp,ArrowLeft"":23,""ArrowUp,ArrowRight"":10,""ArrowDown,ArrowLeft"":8,""ArrowDown,ArrowRight"":30}",4,,,False,7,345.5,,ArrowRight,,,,,,4
1500,60,253,16,revaluation,False,./assets/img/ocean/animals/octopus.jpg,ocean,23.0,,True,original,1.0,"{""ArrowUp,ArrowLeft"":23,""ArrowUp,ArrowRight"":10,""ArrowDown,ArrowLeft"":8,""ArrowDown,ArrowRight"":30}",5,,,False,7,793.0,,ArrowLeft,,,,,,5
1501,61,255,16,revaluation,False,./assets/img/ocean/animals/octopus.jpg,ocean,23.0,,True,original,1.0,"{""ArrowUp,ArrowLeft"":23,""ArrowUp,ArrowRight"":10,""ArrowDown,ArrowLeft"":8,""ArrowDown,ArrowRight"":30}",5,,,False,7,994.7000000476837,,ArrowLeft,,,,,,6
1502,62,258,16,revaluation,False,./assets/img/ocean/animals/seahorse.jpg,ocean,30.0,,True,original,1.0,"{""ArrowUp,ArrowLeft"":23,""ArrowUp,ArrowRight"":10,""ArrowDown,ArrowLeft"":8,""ArrowDown,ArrowRight"":30}",6,,,False,7,988.5999999046326,,ArrowRight,,,,,,5
1503,63,260,16,revaluation,False,./assets/img/ocean/animals/seahorse.jpg,ocean,30.0,,True,original,1.0,"{""ArrowUp,ArrowLeft"":23,""ArrowUp,ArrowRight"":10,""ArrowDown,ArrowLeft"":8,""ArrowDown,ArrowRight"":30}",6,,,False,7,962.2000000476837,,ArrowRight,,,,,,6
1504,64,262,16,revaluation,False,./assets/img/ocean/animals/seahorse.jpg,ocean,30.0,,True,original,1.0,"{""ArrowUp,ArrowLeft"":23,""ArrowUp,ArrowRight"":10,""ArrowDown,ArrowLeft"":8,""ArrowDown,ArrowRight"":30}",7,,,False,7,885.2000000476837,,ArrowRight,,,,,,7
1505,65,264,16,revaluation,False,./assets/img/ocean/animals/seahorse.jpg,ocean,30.0,,True,original,1.0,"{""ArrowUp,ArrowLeft"":23,""ArrowUp,ArrowRight"":10,""ArrowDown,ArrowLeft"":8,""ArrowDown,ArrowRight"":30}",7,,,False,7,753.7999999523163,,ArrowRight,,,,,,8
1506,66,267,16,revaluation,False,./assets/img/ocean/animals/octopus.jpg,ocean,23.0,,True,original,1.0,"{""ArrowUp,ArrowLeft"":23,""ArrowUp,ArrowRight"":10,""ArrowDown,ArrowLeft"":8,""ArrowDown,ArrowRight"":30}",8,,,False,7,1013.5,,ArrowLeft,,,,,,7
1507,67,269,16,revaluation,False,./assets/img/ocean/animals/octopus.jpg,ocean,23.0,,True,original,1.0,"{""ArrowUp,ArrowLeft"":23,""ArrowUp,ArrowRight"":10,""ArrowDown,ArrowLeft"":8,""ArrowDown,ArrowRight"":30}",8,,,False,7,1763.7000000476837,,ArrowLeft,,,,,,8
1570,130,411,16,revaluation,False,./assets/img/canyon/animals/giraffe.jpg,canyon,2.0,,False,revaluation,2.0,"{""ArrowUp,ArrowLeft"":2,""ArrowUp,ArrowRight"":11,""ArrowDown,ArrowLeft"":8,""ArrowDown,ArrowRight"":27}",0,,,False,7,1244.9000000953674,,ArrowLeft,,,,,,0
1571,131,413,16,revaluation,False,./assets/img/canyon/animals/lion.jpg,canyon,27.0,,True,revaluation,2.0,"{""ArrowUp,ArrowLeft"":2,""ArrowUp,ArrowRight"":11,""ArrowDown,ArrowLeft"":8,""ArrowDown,ArrowRight"":27}",0,,,False,7,809.2000000476837,,ArrowRight,,,,,,0
1572,132,415,16,revaluation,False,./assets/img/canyon/animals/lion.jpg,canyon,27.0,,True,revaluation,2.0,"{""ArrowUp,ArrowLeft"":2,""ArrowUp,ArrowRight"":11,""ArrowDown,ArrowLeft"":8,""ArrowDown,ArrowRight"":27}",1,,,False,7,345.40000009536743,,ArrowRight,,,,,,1
1573,133,417,16,revaluation,False,./assets/img/canyon/animals/giraffe.jpg,canyon,11.0,,True,revaluation,2.0,"{""ArrowUp,ArrowLeft"":2,""ArrowUp,ArrowRight"":11,""ArrowDown,ArrowLeft"":8,""ArrowDown,ArrowRight"":27}",1,,,False,7,532.0999999046326,,ArrowRight,,,,,,1
1574,134,420,16,revaluation,False,./assets/img/canyon/animals/lion.jpg,canyon,27.0,,True,revaluation,2.0,"{""ArrowUp,ArrowLeft"":2,""ArrowUp,ArrowRight"":11,""ArrowDown,ArrowLeft"":8,""ArrowDown,ArrowRight"":27}",2,,,False,7,1062.3000001907349,,ArrowRight,,,,,,2
1575,135,422,16,revaluation,False,./assets/img/canyon/animals/lion.jpg,canyon,27.0,,True,revaluation,2.0,"{""ArrowUp,ArrowLeft"":2,""ArrowUp,ArrowRight"":11,""ArrowDown,ArrowLeft"":8,""ArrowDown,ArrowRight"":27}",2,,,False,7,849.3999998569489,,ArrowRight,,,,,,3
1576,136,424,16,revaluation,False,./assets/img/canyon/animals/lion.jpg,canyon,27.0,,True,revaluation,2.0,"{""ArrowUp,ArrowLeft"":2,""ArrowUp,ArrowRight"":11,""ArrowDown,ArrowLeft"":8,""ArrowDown,ArrowRight"":27}",3,,,False,7,510.0,,ArrowRight,,,,,,4
1577,137,426,16,revaluation,False,./assets/img/canyon/animals/giraffe.jpg,canyon,11.0,,True,revaluation,2.0,"{""ArrowUp,ArrowLeft"":2,""ArrowUp,ArrowRight"":11,""ArrowDown,ArrowLeft"":8,""ArrowDown,ArrowRight"":27}",3,,,False,7,884.2000000476837,,ArrowRight,,,,,,2
1578,138,429,16,revaluation,False,./assets/img/canyon/animals/giraffe.jpg,canyon,11.0,,True,revaluation,2.0,"{""ArrowUp,ArrowLeft"":2,""ArrowUp,ArrowRight"":11,""ArrowDown,ArrowLeft"":8,""ArrowDown,ArrowRight"":27}",4,,,False,7,1723.2000000476837,,ArrowRight,,,,,,3
1579,139,431,16,revaluation,False,./assets/img/canyon/animals/lion.jpg,canyon,27.0,,True,revaluation,2.0,"{""ArrowUp,ArrowLeft"":2,""ArrowUp,ArrowRight"":11,""ArrowDown,ArrowLeft"":8,""ArrowDown,ArrowRight"":27}",4,,,False,7,586.1999998092651,,ArrowRight,,,,,,5
1580,140,433,16,revaluation,False,./assets/img/canyon/animals/giraffe.jpg,canyon,11.0,,True,revaluation,2.0,"{""ArrowUp,ArrowLeft"":2,""ArrowUp,ArrowRight"":11,""ArrowDown,ArrowLeft"":8,""ArrowDown,ArrowRight"":27}",5,,,False,7,877.5999999046326,,ArrowRight,,,,,,4
1581,141,435,16,revaluation,False,./assets/img/canyon/animals/giraffe.jpg,canyon,11.0,,True,revaluation,2.0,"{""ArrowUp,ArrowLeft"":2,""ArrowUp,ArrowRight"":11,""ArrowDown,ArrowLeft"":8,""ArrowDown,ArrowRight"":27}",5,,,False,7,555.5999999046326,,ArrowRight,,,,,,5
1582,142,438,16,revaluation,False,./assets/img/canyon/animals/lion.jpg,canyon,27.0,,True,revaluation,2.0,"{""ArrowUp,ArrowLeft"":2,""ArrowUp,ArrowRight"":11,""ArrowDown,ArrowLeft"":8,""ArrowDown,ArrowRight"":27}",6,,,False,7,1087.2000000476837,,ArrowRight,,,,,,6
1583,143,440,16,revaluation,False,./assets/img/canyon/animals/giraffe.jpg,canyon,11.0,,True,revaluation,2.0,"{""ArrowUp,ArrowLeft"":2,""ArrowUp,ArrowRight"":11,""ArrowDown,ArrowLeft"":8,""ArrowDown,ArrowRight"":27}",6,,,False,7,913.7999999523163,,ArrowRight,,,,,,6
1584,144,442,16,revaluation,False,./assets/img/canyon/animals/giraffe.jpg,canyon,11.0,,True,revaluation,2.0,"{""ArrowUp,ArrowLeft"":2,""ArrowUp,ArrowRight"":11,""ArrowDown,ArrowLeft"":8,""ArrowDown,ArrowRight"":27}",7,,,False,7,849.6000001430511,,ArrowRight,,,,,,7
1585,145,444,16,revaluation,False,./assets/img/canyon/animals/lion.jpg,canyon,27.0,,True,revaluation,2.0,"{""ArrowUp,ArrowLeft"":2,""ArrowUp,ArrowRight"":11,""ArrowDown,ArrowLeft"":8,""ArrowDown,ArrowRight"":27}",7,,,False,7,458.5,,ArrowRight,,,,,,7
1586,146,447,16,revaluation,False,./assets/img/canyon/animals/giraffe.jpg,canyon,11.0,,True,revaluation,2.0,"{""ArrowUp,ArrowLeft"":2,""ArrowUp,ArrowRight"":11,""ArrowDown,ArrowLeft"":8,""ArrowDown,ArrowRight"":27}",8,,,False,7,1065.8999998569489,,ArrowRight,,,,,,8
1587,147,449,16,revaluation,False,./assets/img/canyon/animals/lion.jpg,canyon,27.0,,True,revaluation,2.0,"{""ArrowUp,ArrowLeft"":2,""ArrowUp,ArrowRight"":11,""ArrowDown,ArrowLeft"":8,""ArrowDown,ArrowRight"":27}",8,,,False,7,559.7999999523163,,ArrowRight,,,,,,8
1650,50,238,20,revaluation,False,./assets/img/canyon/animals/giraffe.jpg,canyon,27.0,,True,revaluation,1.0,"{""ArrowUp,ArrowLeft"":27,""ArrowUp,ArrowRight"":15,""ArrowDown,ArrowLeft"":21,""ArrowDown,ArrowRight"":7}",0,,,True,2,1175.5999999642372,,ArrowLeft,,,,,,0
1651,51,240,20,revaluation,False,./assets/img/canyon/animals/giraffe.jpg,canyon,27.0,,True,revaluation,1.0,"{""ArrowUp,ArrowLeft"":27,""ArrowUp,ArrowRight"":15,""ArrowDown,ArrowLeft"":21,""ArrowDown,ArrowRight"":7}",0,,,True,2,725.3999999761581,,ArrowLeft,,,,,,1
1652,52,242,20,revaluation,False,./assets/img/canyon/animals/lion.jpg,canyon,7.0,,False,revaluation,1.0,"{""ArrowUp,ArrowLeft"":27,""ArrowUp,ArrowRight"":15,""ArrowDown,ArrowLeft"":21,""ArrowDown,ArrowRight"":7}",1,,,True,2,808.9000000357628,,ArrowRight,,,,,,0
1653,53,244,20,revaluation,False,./assets/img/canyon/animals/lion.jpg,canyon,7.0,,False,revaluation,1.0,"{""ArrowUp,ArrowLeft"":27,""ArrowUp,ArrowRight"":15,""ArrowDown,ArrowLeft"":21,""ArrowDown,ArrowRight"":7}",1,,,True,2,1259.800000011921,,ArrowRight,,,,,,1
1654,54,247,20,revaluation,False,./assets/img/canyon/animals/lion.jpg,canyon,7.0,,False,revaluation,1.0,"{""ArrowUp,ArrowLeft"":27,""ArrowUp,ArrowRight"":15,""ArrowDown,ArrowLeft"":21,""ArrowDown,ArrowRight"":7}",2,,,True,2,1219.7999999523163,,ArrowRight,,,,,,2
1655,55,249,20,revaluation,False,./assets/img/canyon/animals/lion.jpg,canyon,21.0,,True,revaluation,1.0,"{""ArrowUp,ArrowLeft"":27,""ArrowUp,ArrowRight"":15,""ArrowDown,ArrowLeft"":21,""ArrowDown,ArrowRight"":7}",2,,,True,2,686.1999999880791,,ArrowLeft,,,,,,3
1656,56,251,20,revaluation,False,./assets/img/canyon/animals/giraffe.jpg,canyon,15.0,,False,revaluation,1.0,"{""ArrowUp,ArrowLeft"":27,""ArrowUp,ArrowRight"":15,""ArrowDown,ArrowLeft"":21,""ArrowDown,ArrowRight"":7}",3,,,True,2,1333.9000000357628,,ArrowRight,,,,,,2
1657,57,253,20,revaluation,False,./assets/img/canyon/animals/lion.jpg,canyon,21.0,,True,revaluation,1.0,"{""ArrowUp,ArrowLeft"":27,""ArrowUp,ArrowRight"":15,""ArrowDown,ArrowLeft"":21,""ArrowDown,ArrowRight"":7}",3,,,True,2,933.8000000119209,,ArrowLeft,,,,,,4
1658,58,256,20,revaluation,False,./assets/img/canyon/animals/giraffe.jpg,canyon,27.0,,True,revaluation,1.0,"{""ArrowUp,ArrowLeft"":27,""ArrowUp,ArrowRight"":15,""ArrowDown,ArrowLeft"":21,""ArrowDown,ArrowRight"":7}",4,,,True,2,1316.800000011921,,ArrowLeft,,,,,,3
1659,59,258,20,revaluation,False,./assets/img/canyon/animals/giraffe.jpg,canyon,27.0,,True,revaluation,1.0,"{""ArrowUp,ArrowLeft"":27,""ArrowUp,ArrowRight"":15,""ArrowDown,ArrowLeft"":21,""ArrowDown,ArrowRight"":7}",4,,,True,2,975.3000000119209,,ArrowLeft,,,,,,4
1660,60,260,20,revaluation,False,./assets/img/canyon/animals/lion.jpg,canyon,7.0,,False,revaluation,1.0,"{""ArrowUp,ArrowLeft"":27,""ArrowUp,ArrowRight"":15,""ArrowDown,ArrowLeft"":21,""ArrowDown,ArrowRight"":7}",5,,,True,2,858.1999999880791,,ArrowRight,,,,,,5
1661,61,262,20,revaluation,False,./assets/img/canyon/animals/lion.jpg,canyon,21.0,,True,revaluation,1.0,"{""ArrowUp,ArrowLeft"":27,""ArrowUp,ArrowRight"":15,""ArrowDown,ArrowLeft"":21,""ArrowDown,ArrowRight"":7}",5,,,True,2,487.69999998807907,,ArrowLeft,,,,,,6
1662,62,265,20,revaluation,True,./assets/img/canyon/animals/lion.jpg,canyon,-5.0,,False,revaluation,1.0,"{""ArrowUp,ArrowLeft"":27,""ArrowUp,ArrowRight"":15,""ArrowDown,ArrowLeft"":21,""ArrowDown,ArrowRight"":7}",6,,,True,2,,,,,,,,,7
1663,63,267,20,revaluation,False,./assets/img/canyon/animals/giraffe.jpg,canyon,27.0,,True,revaluation,1.0,"{""ArrowUp,ArrowLeft"":27,""ArrowUp,ArrowRight"":15,""ArrowDown,ArrowLeft"":21,""ArrowDown,ArrowRight"":7}",6,,,True,2,761.8999999761581,,ArrowLeft,,,,,,5
1664,64,269,20,revaluation,False,./assets/img/canyon/animals/giraffe.jpg,canyon,27.0,,True,revaluation,1.0,"{""ArrowUp,ArrowLeft"":27,""ArrowUp,ArrowRight"":15,""ArrowDown,ArrowLeft"":21,""ArrowDown,ArrowRight"":7}",7,,,True,2,867.1999999880791,,ArrowLeft,,,,,,6
1665,65,271,20,revaluation,False,./assets/img/canyon/animals/lion.jpg,canyon,21.0,,True,revaluation,1.0,"{""ArrowUp,ArrowLeft"":27,""ArrowUp,ArrowRight"":15,""ArrowDown,ArrowLeft"":21,""ArrowDown,ArrowRight"":7}",7,,,True,2,1367.4000000357628,,ArrowLeft,,,,,,8
1666,66,274,20,revaluation,True,./assets/img/canyon/animals/giraffe.jpg,canyon,-5.0,,False,revaluation,1.0,"{""ArrowUp,ArrowLeft"":27,""ArrowUp,ArrowRight"":15,""ArrowDown,ArrowLeft"":21,""ArrowDown,ArrowRight"":7}",8,,,True,2,,,,,,,,,7
1667,67,276,20,revaluation,False,./assets/img/canyon/animals/giraffe.jpg,canyon,27.0,,True,revaluation,1.0,"{""ArrowUp,ArrowLeft"":27,""ArrowUp,ArrowRight"":15,""ArrowDown,ArrowLeft"":21,""ArrowDown,ArrowRight"":7}",8,,,True,2,652.1000000238419,,ArrowLeft,,,,,,8
1730,130,420,20,revaluation,False,./assets/img/ocean/animals/octopus.jpg,ocean,5.0,,False,original,2.0,"{""ArrowUp,ArrowLeft"":26,""ArrowUp,ArrowRight"":10,""ArrowDown,ArrowLeft"":5,""ArrowDown,ArrowRight"":17}",0,,,True,2,888.0999999642372,,ArrowLeft,,,,,,0
1731,131,422,20,revaluation,False,./assets/img/ocean/animals/octopus.jpg,ocean,17.0,,True,original,2.0,"{""ArrowUp,ArrowLeft"":26,""ArrowUp,ArrowRight"":10,""ArrowDown,ArrowLeft"":5,""ArrowDown,ArrowRight"":17}",0,,,True,2,687.1000000238419,,ArrowRight,,,,,,1
1732,132,424,20,revaluation,False,./assets/img/ocean/animals/seahorse.jpg,ocean,26.0,,True,original,2.0,"{""ArrowUp,ArrowLeft"":26,""ArrowUp,ArrowRight"":10,""ArrowDown,ArrowLeft"":5,""ArrowDown,ArrowRight"":17}",1,,,True,2,986.2999999523163,,ArrowLeft,,,,,,0
1733,133,426,20,revaluation,False,./assets/img/ocean/animals/octopus.jpg,ocean,17.0,,True,original,2.0,"{""ArrowUp,ArrowLeft"":26,""ArrowUp,ArrowRight"":10,""ArrowDown,ArrowLeft"":5,""ArrowDown,ArrowRight"":17}",1,,,True,2,663.0,,ArrowRight,,,,,,2
1734,134,429,20,revaluation,False,./assets/img/ocean/animals/seahorse.jpg,ocean,26.0,,True,original,2.0,"{""ArrowUp,ArrowLeft"":26,""ArrowUp,ArrowRight"":10,""ArrowDown,ArrowLeft"":5,""ArrowDown,ArrowRight"":17}",2,,,True,2,1256.2000000476837,,ArrowLeft,,,,,,1
1735,135,431,20,revaluation,False,./assets/img/ocean/animals/seahorse.jpg,ocean,26.0,,True,original,2.0,"{""ArrowUp,ArrowLeft"":26,""ArrowUp,ArrowRight"":10,""ArrowDown,ArrowLeft"":5,""ArrowDown,ArrowRight"":17}",2,,,True,2,891.0,,ArrowLeft,,,,,,2
1736,136,433,20,revaluation,False,./assets/img/ocean/animals/seahorse.jpg,ocean,26.0,,True,original,2.0,"{""ArrowUp,ArrowLeft"":26,""ArrowUp,ArrowRight"":10,""ArrowDown,ArrowLeft"":5,""ArrowDown,ArrowRight"":17}",3,,,True,2,602.6999999880791,,ArrowLeft,,,,,,3
1737,137,435,20,revaluation,False,./assets/img/ocean/animals/octopus.jpg,ocean,17.0,,True,original,2.0,"{""ArrowUp,ArrowLeft"":26,""ArrowUp,ArrowRight"":10,""ArrowDown,ArrowLeft"":5,""ArrowDown,ArrowRight"":17}",3,,,True,2,663.3999999761581,,ArrowRight,,,,,,3
1738,138,438,20,revaluation,False,./assets/img/ocean/animals/seahorse.jpg,ocean,26.0,,True,original,2.0,"{""ArrowUp,ArrowLeft"":26,""ArrowUp,ArrowRight"":10,""ArrowDown,ArrowLeft"":5,""ArrowDown,ArrowRight"":17}",4,,,True,2,1180.8999999761581,,ArrowLeft,,,,,,4
