"trial_type","trial_index","time_elapsed","internal_node_id","task_version","subject_id","assigned_condition","age","gender","success","timeout","failed_images","failed_audio","failed_video","browser_interaction","rt","stimulus","response","task_part","environment","score","rewardMap","correct","fullState","isCatch","condition","order","trial_num","key_press","ground_truth","bonus"
"pavlovia","0","5347","0.0-0.0","spark_pilot_norest","8568","4","10","Male","","","","","","","","","","","","","","","","","","","","","",""
"preload","1","87561","0.0-1.0","spark_pilot_norest","8568","4","10","Male","true","false","[]","[]","[]","[{""event"":""fullscreenenter"",""trial"":2,""time"":97369}]","","","","","","","","","","","","","","","",""
"fullscreen","2","98362","0.0-2.0","spark_pilot_norest","8568","4","10","Male","true","","","","","","","","","","","","","","","","","","","","",""
"audio-button-response","3","102623","0.0-3.0-0.0-0.0","spark_pilot_norest","8568","4","10","Male","","","","","","","3960","./assets/audio/audiotest/turtle.mp3","2","audio_test","","","","","","","","","","","",""
"learning-instructions","4","111824","0.0-3.0-1.0-0.0","spark_pilot_norest","8568","4","10","Male","","","","","","","2193","<p> Welcome! Please remember to stay in fullscreen mode and don't click away from the experiment. </p>","","instructions","","","","","","","","","","","",""
"learning-instructions","5","123203","0.0-3.0-1.0-0.1","spark_pilot_norest","8568","4","10","Male","","","","","","","2976.2999997138977","<p> Today you will be playing a game to earn treasure. </p>
            <p> At the end of the experiment, you will earn a bonus based on how much treasure you find. </p>
            <img src='./assets/img/instructions/treasure.jpg' class='instructions-image'>","","instructions","","","","","","","","","","","",""
"learning-instructions","6","143244","0.0-3.0-1.0-0.2","spark_pilot_norest","8568","4","10","Male","","","","","","","11767.900000095367","<p> Animals have hidden treasure in treasure chests. </p>
            <p> You need to first find an animal and then choose which of their treasure chests to search. </p>
            <img src='./assets/img/space/animals/cat.jpg' class='instructions-image'>","","instructions","","","","","","","","","","","",""
"learning-instructions","7","159464","0.0-3.0-1.0-0.3","spark_pilot_norest","8568","4","10","Male","","","","","","","3070.0999999046326","<p> In each round, you will search for treasure in a different place. In the real game, there will be two rounds. </p>
            <p> You will begin with a separate, practice round where you will search for treasure in outer space. </p>
            <img src='./assets/img/space/0.jpg' class='instructions-image'>","","instructions","","","","","","","","","","","",""
"learning-instructions","8","176294","0.0-3.0-1.0-0.4","spark_pilot_norest","8568","4","10","Male","","","","","","","5399.10000038147","<p> On every turn, you will see a picture of the place that you are in, but the specific image may be different each time. </p>
            <p> For example, both of these images mean you are in outer space. </p>
            <img src='./assets/img/instructions/outerspace.jpg' class='instructions-image'>","","instructions","","","","","","","","","","","",""
"learning-instructions","9","185002","0.0-3.0-1.0-0.5","spark_pilot_norest","8568","4","10","Male","","","","","","","886.3000001907349","<p> You need to decide which direction to travel in. </p>
            <p> You can choose between going <b>up or down</b> by using the arrow keys. </p>
            <img src='./assets/img/instructions/updown.jpg' class='instructions-image'>","","instructions","","","","","","","","","","","",""
"learning-instructions","10","198078","0.0-3.0-1.0-0.6","spark_pilot_norest","8568","4","10","Male","","","","","","","4263.400000095367","<p> You will have <b>2 seconds</b> to make your choice. </p>
            <p> If you do not make a choice within 2 seconds, you will not find an animal or earn treasure. </p>
            <img src='./assets/img/instructions/2seconds.jpg' class='instructions-image'>","","instructions","","","","","","","","","","","",""
"learning-instructions","11","208829","0.0-3.0-1.0-0.7","spark_pilot_norest","8568","4","10","Male","","","","","","","3694.7000002861023","<p> Let’s try practicing that now! </p>
            <p> When you see a picture of the place you are in, press the <b>up</b> key to travel up. </p>
            <img src='./assets/img/instructions/pressUp.jpg' class='instructions-image'>","","instructions","","","","","","","","","","","",""
"revaluation","12","212864","0.0-3.0-2.0-0.0","spark_pilot_norest","8568","4","10","Male","","true","","","","","[]","./assets/img/space/0.jpg","[]","first stage practice","space","-5","null","null","","false","","","","","",""
"html-keyboard-response","13","213383","0.0-3.0-2.0-1.0","spark_pilot_norest","8568","4","10","Male","","","","","","","null","<div style=""font-size:60px;"">+</div>","null","fixation","","","","","","","","","","","",""
"revaluation","14","217235","0.0-3.0-2.0-0.1","spark_pilot_norest","8568","4","10","Male","","false","","","","","[520.6999998092651]","./assets/img/space/1.jpg","[""ArrowUp""]","first stage practice","space","0","null","null","ArrowUp","false","","","","","",""
"html-keyboard-response","15","217755","0.0-3.0-2.0-1.1","spark_pilot_norest","8568","4","10","Male","","","","","","","null","<div style=""font-size:60px;"">+</div>","null","fixation","","","","","","","","","","","",""
"revaluation","16","221774","0.0-3.0-2.0-0.2","spark_pilot_norest","8568","4","10","Male","","true","","","","","[]","./assets/img/space/2.jpg","[]","first stage practice","space","-5","null","null","","false","","","","","",""
"html-keyboard-response","17","222285","0.0-3.0-2.0-1.2","spark_pilot_norest","8568","4","10","Male","","","","","","","null","<div style=""font-size:60px;"">+</div>","null","fixation","","","","","","","","","","","",""
"learning-instructions","18","228263","0.0-3.0-3.0-0.0","spark_pilot_norest","8568","4","10","Male","","","","","","","1266.5999999046326","<p> Great job! Now try pressing the <b>down</b> key to travel down. </p>
            <img src='./assets/img/instructions/pressDown.jpg' class='instructions-image'>","","instructions","","","","","","","","","","","",""
"revaluation","19","232295","0.0-3.0-4.0-0.0","spark_pilot_norest","8568","4","10","Male","","false","","","","","[1876.3000001907349]","./assets/img/space/3.jpg","[""ArrowDown""]","first stage practice","space","0","null","null","ArrowDown","false","","","","","",""
"html-keyboard-response","20","232800","0.0-3.0-4.0-1.0","spark_pilot_norest","8568","4","10","Male","","","","","","","null","<div style=""font-size:60px;"">+</div>","null","fixation","","","","","","","","","","","",""
"revaluation","21","236825","0.0-3.0-4.0-0.1","spark_pilot_norest","8568","4","10","Male","","false","","","","","[900.5999999046326]","./assets/img/space/4.jpg","[""ArrowDown""]","first stage practice","space","0","null","null","ArrowDown","false","","","","","",""
"html-keyboard-response","22","237344","0.0-3.0-4.0-1.1","spark_pilot_norest","8568","4","10","Male","","","","","","","null","<div style=""font-size:60px;"">+</div>","null","fixation","","","","","","","","","","","",""
"revaluation","23","241385","0.0-3.0-4.0-0.2","spark_pilot_norest","8568","4","10","Male","","false","","","","","[335.7000002861023]","./assets/img/space/5.jpg","[""ArrowDown""]","first stage practice","space","0","null","null","ArrowDown","false","","","","","",""
"html-keyboard-response","24","241905","0.0-3.0-4.0-1.2","spark_pilot_norest","8568","4","10","Male","","","","","","","null","<div style=""font-size:60px;"">+</div>","null","fixation","","","","","","","","","","","",""
"learning-instructions","25","254627","0.0-3.0-5.0-0.0","spark_pilot_norest","8568","4","10","Male","","","","","","","2860.5999999046326","<p> The animals don’t move, so the animal in the upper part of a place will stay in the upper part of a place, and the animal in the lower part of a place will stay in the lower part of a place. </p>","","instructions","","","","","","","","","","","",""
"learning-instructions","26","264537","0.0-3.0-5.0-0.1","spark_pilot_norest","8568","4","10","Male","","","","","","","770.6000003814697","<p> Each animal has two treasure chests for you to choose from. </p>
            <p> The amount of treasure in each chest can range from <b> 0 to 40 pieces.</b></p>","","instructions","","","","","","","","","","","",""
"learning-instructions","27","277305","0.0-3.0-5.0-0.2","spark_pilot_norest","8568","4","10","Male","","","","","","","1754","<p> You should decide which chest to search for treasure by using the <b>left</b> and <b>right</b> arrow keys. </p>
            <p><b> Pay attention to which animal is on the screen, as the animals have different treasure chests. </b></p>
            <img src='./assets/img/instructions/leftright.jpg' class='instructions-image'>","","instructions","","","","","","","","","","","",""
"learning-instructions","28","285022","0.0-3.0-5.0-0.3","spark_pilot_norest","8568","4","10","Male","","","","","","","1350.7999997138977","<p> Let’s try practicing that now. </p>
            <p> When you see an animal, choose which chest to search for treasure. </p>
            <img src='./assets/img/instructions/chooseChest.jpg' class='instructions-image'>","","instructions","","","","","","","","","","","",""
"revaluation","29","289031","0.0-3.0-6.0-0.0","spark_pilot_norest","8568","4","10","Male","","false","","","","","[957.3999996185303]","./assets/img/space/animals/cat.jpg","[""ArrowRight""]","second stage practice","space","36","{""ArrowUp,ArrowLeft"":3,""ArrowUp,ArrowRight"":36,""ArrowDown,ArrowLeft"":15,""ArrowDown,ArrowRight"":23}","true","ArrowUp,ArrowRight","","","","","","",""
"html-keyboard-response","30","289539","0.0-3.0-6.0-1.0","spark_pilot_norest","8568","4","10","Male","","","","","","","null","<div style=""font-size:60px;"">+</div>","null","fixation","","","","","","","","","","","",""
"revaluation","31","293559","0.0-3.0-6.0-0.1","spark_pilot_norest","8568","4","10","Male","","true","","","","","[]","./assets/img/space/animals/rabbit.jpg","[]","second stage practice","space","-5","{""ArrowUp,ArrowLeft"":3,""ArrowUp,ArrowRight"":36,""ArrowDown,ArrowLeft"":15,""ArrowDown,ArrowRight"":23}","false","ArrowDown","","","","","","",""
"html-keyboard-response","32","294069","0.0-3.0-6.0-1.1","spark_pilot_norest","8568","4","10","Male","","","","","","","null","<div style=""font-size:60px;"">+</div>","null","fixation","","","","","","","","","","","",""
"revaluation","33","298090","0.0-3.0-6.0-0.2","spark_pilot_norest","8568","4","10","Male","","false","","","","","[457.69999980926514]","./assets/img/space/animals/cat.jpg","[""ArrowLeft""]","second stage practice","space","3","{""ArrowUp,ArrowLeft"":3,""ArrowUp,ArrowRight"":36,""ArrowDown,ArrowLeft"":15,""ArrowDown,ArrowRight"":23}","false","ArrowUp,ArrowLeft","","","","","","",""
"html-keyboard-response","34","298609","0.0-3.0-6.0-1.2","spark_pilot_norest","8568","4","10","Male","","","","","","","null","<div style=""font-size:60px;"">+</div>","null","fixation","","","","","","","","","","","",""
"revaluation","35","302639","0.0-3.0-6.0-0.3","spark_pilot_norest","8568","4","10","Male","","false","","","","","[316.80000019073486]","./assets/img/space/animals/rabbit.jpg","[""ArrowRight""]","second stage practice","space","23","{""ArrowUp,ArrowLeft"":3,""ArrowUp,ArrowRight"":36,""ArrowDown,ArrowLeft"":15,""ArrowDown,ArrowRight"":23}","true","ArrowDown,ArrowRight","","","","","","",""
"html-keyboard-response","36","303158","0.0-3.0-6.0-1.3","spark_pilot_norest","8568","4","10","Male","","","","","","","null","<div style=""font-size:60px;"">+</div>","null","fixation","","","","","","","","","","","",""
"learning-instructions","37","322378","0.0-3.0-7.0-0.0","spark_pilot_norest","8568","4","10","Male","","","","","","","2398.0999999046326","<p> Great job. Now let’s try putting it together. </p>
            <p> On each turn, you will first see a picture to remind you of the place you are in, and you need to choose whether to go up or down. </p>
            <p> Then you will see an animal and choose which of its chests to search for treasure. </p>","","instructions","","","","","","","","","","","",""
"learning-instructions","38","331957","0.0-3.0-7.0-0.1","spark_pilot_norest","8568","4","10","Male","","","","","","","1316","<p> When you choose whether to go up or down, try to go to the animal with the chest with the most treasure. </p>
            <p> Try practicing that now! </p>","","instructions","","","","","","","","","","","",""
"revaluation","39","337812","0.0-3.0-8.0-0.0","spark_pilot_norest","8568","4","10","Male","","false","","","","","[1181.5,1235.7999997138977]","./assets/img/space/6.jpg","[""ArrowUp"",""ArrowRight""]","full practice","space","36","{""ArrowUp,ArrowLeft"":3,""ArrowUp,ArrowRight"":36,""ArrowDown,ArrowLeft"":15,""ArrowDown,ArrowRight"":23}","true","ArrowUp,ArrowRight","false","","","","","",""
"html-keyboard-response","40","338321","0.0-3.0-8.0-1.0","spark_pilot_norest","8568","4","10","Male","","","","","","","null","<div style=""font-size:60px;"">+</div>","null","fixation","","","","","","","","","","","",""
"revaluation","41","344362","0.0-3.0-8.0-0.1","spark_pilot_norest","8568","4","10","Male","","false","","","","","[1402.6999998092651,549.5999999046326]","./assets/img/space/7.jpg","[""ArrowDown"",""ArrowLeft""]","full practice","space","15","{""ArrowUp,ArrowLeft"":3,""ArrowUp,ArrowRight"":36,""ArrowDown,ArrowLeft"":15,""ArrowDown,ArrowRight"":23}","false","ArrowDown,ArrowLeft","false","","","","","",""
"html-keyboard-response","42","344881","0.0-3.0-8.0-1.1","spark_pilot_norest","8568","4","10","Male","","","","","","","null","<div style=""font-size:60px;"">+</div>","null","fixation","","","","","","","","","","","",""
"revaluation","43","350922","0.0-3.0-8.0-0.2","spark_pilot_norest","8568","4","10","Male","","false","","","","","[772.9000000953674,743]","./assets/img/space/8.jpg","[""ArrowUp"",""ArrowRight""]","full practice","space","36","{""ArrowUp,ArrowLeft"":3,""ArrowUp,ArrowRight"":36,""ArrowDown,ArrowLeft"":15,""ArrowDown,ArrowRight"":23}","true","ArrowUp,ArrowRight","false","","","","","",""
"html-keyboard-response","44","351441","0.0-3.0-8.0-1.2","spark_pilot_norest","8568","4","10","Male","","","","","","","null","<div style=""font-size:60px;"">+</div>","null","fixation","","","","","","","","","","","",""
"revaluation","45","357482","0.0-3.0-8.0-0.3","spark_pilot_norest","8568","4","10","Male","","false","","","","","[889.0999999046326,462.80000019073486]","./assets/img/space/9.jpg","[""ArrowUp"",""ArrowRight""]","full practice","space","36","{""ArrowUp,ArrowLeft"":3,""ArrowUp,ArrowRight"":36,""ArrowDown,ArrowLeft"":15,""ArrowDown,ArrowRight"":23}","true","ArrowUp,ArrowRight","false","","","","","",""
"html-keyboard-response","46","358001","0.0-3.0-8.0-1.3","spark_pilot_norest","8568","4","10","Male","","","","","","","null","<div style=""font-size:60px;"">+</div>","null","fixation","","","","","","","","","","","",""
"revaluation","47","364024","0.0-3.0-8.0-0.4","spark_pilot_norest","8568","4","10","Male","","false","","","","","[765.2000002861023,916.1999998092651]","./assets/img/space/10.jpg","[""ArrowUp"",""ArrowRight""]","full practice","space","36","{""ArrowUp,ArrowLeft"":3,""ArrowUp,ArrowRight"":36,""ArrowDown,ArrowLeft"":15,""ArrowDown,ArrowRight"":23}","true","ArrowUp,ArrowRight","false","","","","","",""
"html-keyboard-response","48","364526","0.0-3.0-8.0-1.4","spark_pilot_norest","8568","4","10","Male","","","","","","","null","<div style=""font-size:60px;"">+</div>","null","fixation","","","","","","","","","","","",""
"learning-instructions","49","376419","0.0-3.0-9.0-0.0","spark_pilot_norest","8568","4","10","Male","","","","","","","1591.3000001907349","<p> One last thing: sometimes, you will see a robber. The robber can be anywhere in the picture. </p>
            <p> If you do not stop them, you will lose treasure. </p>
            <img src='./assets/img/instructions/robber.jpg' class='instructions-image'>","","instructions","","","","","","","","","","","",""
"learning-instructions","50","384917","0.0-3.0-9.0-0.1","spark_pilot_norest","8568","4","10","Male","","","","","","","1320.1999998092651","<p> If you see the robber, you should <b>press the space bar</b> rather than using the arrow keys. </p>
            <p> Try practicing that now! </p>","","instructions","","","","","","","","","","","",""
"revaluation","51","388946","0.0-3.0-10.0-0.0","spark_pilot_norest","8568","4","10","Male","","false","","","","","[797.1999998092651]","./assets/img/space/catch/0.jpg","[""spaceBar""]","catch practice","space","0","{""ArrowUp,ArrowLeft"":3,""ArrowUp,ArrowRight"":36,""ArrowDown,ArrowLeft"":15,""ArrowDown,ArrowRight"":23}","true","spaceBar","true","","","","","",""
"html-keyboard-response","52","389465","0.0-3.0-10.0-1.0","spark_pilot_norest","8568","4","10","Male","","","","","","","null","<div style=""font-size:60px;"">+</div>","null","fixation","","","","","","","","","","","",""
"revaluation","53","393496","0.0-3.0-10.0-0.1","spark_pilot_norest","8568","4","10","Male","","false","","","","","[752.4000000953674]","./assets/img/space/catch/1.jpg","[""spaceBar""]","catch practice","space","0","{""ArrowUp,ArrowLeft"":3,""ArrowUp,ArrowRight"":36,""ArrowDown,ArrowLeft"":15,""ArrowDown,ArrowRight"":23}","true","spaceBar","true","","","","","",""
"html-keyboard-response","54","394005","0.0-3.0-10.0-1.1","spark_pilot_norest","8568","4","10","Male","","","","","","","null","<div style=""font-size:60px;"">+</div>","null","fixation","","","","","","","","","","","",""
"revaluation","55","397860","0.0-3.0-10.0-0.2","spark_pilot_norest","8568","4","10","Male","","false","","","","","[762.0999999046326]","./assets/img/space/catch/2.jpg","[""spaceBar""]","catch practice","space","0","{""ArrowUp,ArrowLeft"":3,""ArrowUp,ArrowRight"":36,""ArrowDown,ArrowLeft"":15,""ArrowDown,ArrowRight"":23}","true","spaceBar","true","","","","","",""
"html-keyboard-response","56","398370","0.0-3.0-10.0-1.2","spark_pilot_norest","8568","4","10","Male","","","","","","","null","<div style=""font-size:60px;"">+</div>","null","fixation","","","","","","","","","","","",""
"learning-instructions","57","406243","0.0-3.0-11.0-0.0-0.0","spark_pilot_norest","8568","4","10","Male","","","","","","","2611.699999809265","<p> Now, you will practice a shortened version of the game to get a sense of how it all fits together. </p>","","instructions","","","","","","","","","","","",""
"learning-instructions","58","410502","0.0-3.0-11.0-0.0-0.1","spark_pilot_norest","8568","4","10","Male","","","","","","","1080.6999998092651","<p>This time you are searching for treasure in outer space.</p>","","instructions","","","","","","","","","","","",""
"learning-instructions","59","428097","0.0-3.0-11.0-1.0-0.0","spark_pilot_norest","8568","4","10","Male","","","","","","","2825.199999809265","<p> Remember, when you see a picture of the place, use the up and down keys to <b>find an animal</b>.</p>
            <p> When you encounter an animal, you should use the left and right keys to <b>select a treasure chest</b>.</p>
            <p> Don't forget to look out for the robber! </p>","","instructions","","","","","","","","","","","",""
"revaluation","60","434110","0.0-3.0-11.0-2.0-0.0","spark_pilot_norest","8568","4","10","Male","","false","","","","","[895.9000000953674,445.2000002861023]","./assets/img/space/11.jpg","[""ArrowUp"",""ArrowRight""]","practice block","space","36","{""ArrowUp,ArrowLeft"":3,""ArrowUp,ArrowRight"":36,""ArrowDown,ArrowLeft"":15,""ArrowDown,ArrowRight"":23}","true","ArrowUp,ArrowRight","false","","","","","",""
"html-keyboard-response","61","434630","0.0-3.0-11.0-2.0-1.0","spark_pilot_norest","8568","4","10","Male","","","","","","","null","<div style=""font-size:60px;"">+</div>","null","fixation","","","","","","","","","","","",""
"revaluation","62","440689","0.0-3.0-11.0-2.0-0.1","spark_pilot_norest","8568","4","10","Male","","false","","","","","[1199.8000001907349,639.5999999046326]","./assets/img/space/12.jpg","[""ArrowUp"",""ArrowRight""]","practice block","space","36","{""ArrowUp,ArrowLeft"":3,""ArrowUp,ArrowRight"":36,""ArrowDown,ArrowLeft"":15,""ArrowDown,ArrowRight"":23}","true","ArrowUp,ArrowRight","false","","","","","",""
"html-keyboard-response","63","441209","0.0-3.0-11.0-2.0-1.1","spark_pilot_norest","8568","4","10","Male","","","","","","","null","<div style=""font-size:60px;"">+</div>","null","fixation","","","","","","","","","","","",""
"revaluation","64","447250","0.0-3.0-11.0-2.0-0.2","spark_pilot_norest","8568","4","10","Male","","false","","","","","[1184.3000001907349,410.1000003814697]","./assets/img/space/13.jpg","[""ArrowDown"",""ArrowRight""]","practice block","space","23","{""ArrowUp,ArrowLeft"":3,""ArrowUp,ArrowRight"":36,""ArrowDown,ArrowLeft"":15,""ArrowDown,ArrowRight"":23}","false","ArrowDown,ArrowRight","false","","","","","",""
"html-keyboard-response","65","447769","0.0-3.0-11.0-2.0-1.2","spark_pilot_norest","8568","4","10","Male","","","","","","","null","<div style=""font-size:60px;"">+</div>","null","fixation","","","","","","","","","","","",""
"revaluation","66","453800","0.0-3.0-11.0-2.0-0.3","spark_pilot_norest","8568","4","10","Male","","false","","","","","[636.3000001907349,599.6999998092651]","./assets/img/space/14.jpg","[""ArrowUp"",""ArrowRight""]","practice block","space","36","{""ArrowUp,ArrowLeft"":3,""ArrowUp,ArrowRight"":36,""ArrowDown,ArrowLeft"":15,""ArrowDown,ArrowRight"":23}","true","ArrowUp,ArrowRight","false","","","","","",""
"html-keyboard-response","67","454310","0.0-3.0-11.0-2.0-1.3","spark_pilot_norest","8568","4","10","Male","","","","","","","null","<div style=""font-size:60px;"">+</div>","null","fixation","","","","","","","","","","","",""
"revaluation","68","460149","0.0-3.0-11.0-2.0-0.4","spark_pilot_norest","8568","4","10","Male","","false","","","","","[718.2999997138977,671.3000001907349]","./assets/img/space/11.jpg","[""ArrowUp"",""ArrowRight""]","practice block","space","36","{""ArrowUp,ArrowLeft"":3,""ArrowUp,ArrowRight"":36,""ArrowDown,ArrowLeft"":15,""ArrowDown,ArrowRight"":23}","true","ArrowUp,ArrowRight","false","","","","","",""
"html-keyboard-response","69","460652","0.0-3.0-11.0-2.0-1.4","spark_pilot_norest","8568","4","10","Male","","","","","","","null","<div style=""font-size:60px;"">+</div>","null","fixation","","","","","","","","","","","",""
"revaluation","70","466660","0.0-3.0-11.0-2.0-0.5","spark_pilot_norest","8568","4","10","Male","","false","","","","","[712.2000002861023,498.40000009536743]","./assets/img/space/12.jpg","[""ArrowUp"",""ArrowRight""]","practice block","space","36","{""ArrowUp,ArrowLeft"":3,""ArrowUp,ArrowRight"":36,""ArrowDown,ArrowLeft"":15,""ArrowDown,ArrowRight"":23}","true","ArrowUp,ArrowRight","false","","","","","",""
"html-keyboard-response","71","467162","0.0-3.0-11.0-2.0-1.5","spark_pilot_norest","8568","4","10","Male","","","","","","","null","<div style=""font-size:60px;"">+</div>","null","fixation","","","","","","","","","","","",""
"revaluation","72","473170","0.0-3.0-11.0-2.0-0.6","spark_pilot_norest","8568","4","10","Male","","false","","","","","[785.1999998092651,332.8999996185303]","./assets/img/space/13.jpg","[""ArrowUp"",""ArrowRight""]","practice block","space","36","{""ArrowUp,ArrowLeft"":3,""ArrowUp,ArrowRight"":36,""ArrowDown,ArrowLeft"":15,""ArrowDown,ArrowRight"":23}","true","ArrowUp,ArrowRight","false","","","","","",""
"html-keyboard-response","73","473674","0.0-3.0-11.0-2.0-1.6","spark_pilot_norest","8568","4","10","Male","","","","","","","null","<div style=""font-size:60px;"">+</div>","null","fixation","","","","","","","","","","","",""
"revaluation","74","479682","0.0-3.0-11.0-2.0-0.7","spark_pilot_norest","8568","4","10","Male","","false","","","","","[926.7999997138977,349]","./assets/img/space/14.jpg","[""ArrowUp"",""ArrowRight""]","practice block","space","36","{""ArrowUp,ArrowLeft"":3,""ArrowUp,ArrowRight"":36,""ArrowDown,ArrowLeft"":15,""ArrowDown,ArrowRight"":23}","true","ArrowUp,ArrowRight","false","","","","","",""
"html-keyboard-response","75","480183","0.0-3.0-11.0-2.0-1.7","spark_pilot_norest","8568","4","10","Male","","","","","","","null","<div style=""font-size:60px;"">+</div>","null","fixation","","","","","","","","","","","",""
"revaluation","76","484190","0.0-3.0-11.0-2.0-0.8","spark_pilot_norest","8568","4","10","Male","","false","","","","","[710.1999998092651]","./assets/img/space/catch/3.jpg","[""spaceBar""]","practice block","space","0","{""ArrowUp,ArrowLeft"":3,""ArrowUp,ArrowRight"":36,""ArrowDown,ArrowLeft"":15,""ArrowDown,ArrowRight"":23}","true","spaceBar","true","","","","","",""
"html-keyboard-response","77","484692","0.0-3.0-11.0-2.0-1.8","spark_pilot_norest","8568","4","10","Male","","","","","","","null","<div style=""font-size:60px;"">+</div>","null","fixation","","","","","","","","","","","",""
"learning-instructions","78","500124","0.0-3.0-11.0-3.0-0.0","spark_pilot_norest","8568","4","10","Male","","","","","","","2309.0999999046326","<p> Now, you will travel with a friend who will choose whether you go up or down first. </p>
            <p> On these turns, you will just see the animal that they found. You will still get to choose which chest to search for treasure.</p>","","instructions","","","","","","","","","","","",""
"revaluation","79","504134","0.0-3.0-11.0-4.0-0.0","spark_pilot_norest","8568","4","10","Male","","false","","","","","[1162.4000000953674]","./assets/img/space/animals/cat.jpg","[""ArrowRight""]","practice block","space","36","{""ArrowUp,ArrowLeft"":3,""ArrowUp,ArrowRight"":36,""ArrowDown,ArrowLeft"":15,""ArrowDown,ArrowRight"":23}","true","ArrowUp,ArrowRight","","","","","","",""
"html-keyboard-response","80","504654","0.0-3.0-11.0-4.0-1.0","spark_pilot_norest","8568","4","10","Male","","","","","","","null","<div style=""font-size:60px;"">+</div>","null","fixation","","","","","","","","","","","",""
"revaluation","81","508695","0.0-3.0-11.0-4.0-0.1","spark_pilot_norest","8568","4","10","Male","","false","","","","","[533]","./assets/img/space/animals/rabbit.jpg","[""ArrowRight""]","practice block","space","23","{""ArrowUp,ArrowLeft"":3,""ArrowUp,ArrowRight"":36,""ArrowDown,ArrowLeft"":15,""ArrowDown,ArrowRight"":23}","true","ArrowDown,ArrowRight","","","","","","",""
"html-keyboard-response","82","509214","0.0-3.0-11.0-4.0-1.1","spark_pilot_norest","8568","4","10","Male","","","","","","","null","<div style=""font-size:60px;"">+</div>","null","fixation","","","","","","","","","","","",""
"revaluation","83","513245","0.0-3.0-11.0-4.0-0.2","spark_pilot_norest","8568","4","10","Male","","false","","","","","[528.5]","./assets/img/space/animals/cat.jpg","[""ArrowRight""]","practice block","space","36","{""ArrowUp,ArrowLeft"":3,""ArrowUp,ArrowRight"":36,""ArrowDown,ArrowLeft"":15,""ArrowDown,ArrowRight"":23}","true","ArrowUp,ArrowRight","","","","","","",""
"html-keyboard-response","84","513754","0.0-3.0-11.0-4.0-1.2","spark_pilot_norest","8568","4","10","Male","","","","","","","null","<div style=""font-size:60px;"">+</div>","null","fixation","","","","","","","","","","","",""
"revaluation","85","517784","0.0-3.0-11.0-4.0-0.3","spark_pilot_norest","8568","4","10","Male","","false","","","","","[482.19999980926514]","./assets/img/space/animals/rabbit.jpg","[""ArrowRight""]","practice block","space","23","{""ArrowUp,ArrowLeft"":3,""ArrowUp,ArrowRight"":36,""ArrowDown,ArrowLeft"":15,""ArrowDown,ArrowRight"":23}","true","ArrowDown,ArrowRight","","","","","","",""
"html-keyboard-response","86","518295","0.0-3.0-11.0-4.0-1.3","spark_pilot_norest","8568","4","10","Male","","","","","","","null","<div style=""font-size:60px;"">+</div>","null","fixation","","","","","","","","","","","",""
"learning-instructions","87","526445","0.0-3.0-11.0-5.0-0.0","spark_pilot_norest","8568","4","10","Male","","","","","","","null","<p> You have almost finished this part of the game! </p>
            <p> We are going to ask you to make a few more choices. </p>","","instructions","","","","","","","","","","","",""
"learning-instructions","88","542465","0.0-3.0-11.0-5.0-0.1","spark_pilot_norest","8568","4","10","Male","","","","","","","null","<p> First, you need to decide whether to go up or down. When you see each picture, use the arrow keys to make your choice. </p>
            <p><b>You will not see which animal you found, but try to get to the one that will give you the most treasure.</b></p>","","instructions","","","","","","","","","","","",""
"html-keyboard-response","89","543485","0.0-3.0-11.0-6.0-0.0","spark_pilot_norest","8568","4","10","Male","","","","","","","null","<div style=""font-size:100px;color:red;"">Starting in...</div>","null","","","","","","","","","","","","",""
"html-keyboard-response","90","544494","0.0-3.0-11.0-6.0-1.0","spark_pilot_norest","8568","4","10","Male","","","","","","","null","<div style=""font-size:200px;color:red;"">3</div>","null","","","","","","","","","","","","",""
"html-keyboard-response","91","545505","0.0-3.0-11.0-6.0-2.0","spark_pilot_norest","8568","4","10","Male","","","","","","","null","<div style=""font-size:200px;color:red;"">2</div>","null","","","","","","","","","","","","",""
"html-keyboard-response","92","546515","0.0-3.0-11.0-6.0-3.0","spark_pilot_norest","8568","4","10","Male","","","","","","","null","<div style=""font-size:200px;color:red;"">1</div>","null","","","","","","","","","","","","",""
"revaluation","93","547261","0.0-3.0-11.0-7.0","spark_pilot_norest","8568","4","10","Male","","false","","","","","[741]","./assets/img/space/15.jpg","[""ArrowUp""]","practice block","space","0","{""ArrowUp,ArrowLeft"":3,""ArrowUp,ArrowRight"":36,""ArrowDown,ArrowLeft"":15,""ArrowDown,ArrowRight"":23}","true","ArrowUp","false","","","","","",""
"html-keyboard-response","94","547765","0.0-3.0-11.0-8.0","spark_pilot_norest","8568","4","10","Male","","","","","","","null","<div style=""font-size:60px;"">+</div>","null","fixation","","","","","","","","","","","",""
"learning-instructions","95","561165","0.0-3.0-11.0-9.0-0.0","spark_pilot_norest","8568","4","10","Male","","","","","","","null","<p> Now you will see the animals again and can search their chests for treasure. </p>
            <p> This time, you will not see how much treasure you earned, but you will earn more bonus money for making better choices. </p>","","instructions","","","","","","","","","","","",""
"html-keyboard-response","96","562174","0.0-3.0-11.0-10.0-0.0","spark_pilot_norest","8568","4","10","Male","","","","","","","null","<div style=""font-size:100px;color:red;"">Starting in...</div>","null","","","","","","","","","","","","",""
"html-keyboard-response","97","563195","0.0-3.0-11.0-10.0-1.0","spark_pilot_norest","8568","4","10","Male","","","","","","","null","<div style=""font-size:200px;color:red;"">3</div>","null","","","","","","","","","","","","",""
"html-keyboard-response","98","564215","0.0-3.0-11.0-10.0-2.0","spark_pilot_norest","8568","4","10","Male","","","","","","","null","<div style=""font-size:200px;color:red;"">2</div>","null","","","","","","","","","","","","",""
"html-keyboard-response","99","565225","0.0-3.0-11.0-10.0-3.0","spark_pilot_norest","8568","4","10","Male","","","","","","","null","<div style=""font-size:200px;color:red;"">1</div>","null","","","","","","","","","","","","",""
"revaluation","100","566068","0.0-3.0-11.0-11.0-0.0","spark_pilot_norest","8568","4","10","Male","","false","","","","","[838]","./assets/img/space/animals/cat.jpg","[""ArrowRight""]","practice block","space","0","{""ArrowUp,ArrowLeft"":3,""ArrowUp,ArrowRight"":36,""ArrowDown,ArrowLeft"":15,""ArrowDown,ArrowRight"":23}","true","ArrowUp,ArrowRight","","","","","","",""
"html-keyboard-response","101","566585","0.0-3.0-11.0-11.0-1.0","spark_pilot_norest","8568","4","10","Male","","","","","","","null","<div style=""font-size:60px;"">+</div>","null","fixation","","","","","","","","","","","",""
"revaluation","102","567549","0.0-3.0-11.0-11.0-0.1","spark_pilot_norest","8568","4","10","Male","","false","","","","","[958.7999997138977]","./assets/img/space/animals/rabbit.jpg","[""ArrowRight""]","practice block","space","0","{""ArrowUp,ArrowLeft"":3,""ArrowUp,ArrowRight"":36,""ArrowDown,ArrowLeft"":15,""ArrowDown,ArrowRight"":23}","true","ArrowDown,ArrowRight","","","","","","",""
"html-keyboard-response","103","568064","0.0-3.0-11.0-11.0-1.1","spark_pilot_norest","8568","4","10","Male","","","","","","","null","<div style=""font-size:60px;"">+</div>","null","fixation","","","","","","","","","","","",""
"learning-instructions","104","574369","0.0-3.0-12.0-0.0","spark_pilot_norest","8568","4","10","Male","","","","","","","1712.5","<p> Before you start, we're going to ask you a few questions about how the game works. </p>","","instructions","","","","","","","","","","","",""
"comp-q","105","581093","0.0-3.0-13.0-0.0-0.0","spark_pilot_norest","8568","4","10","Male","","","","","","","1140.9000000953674","<p> <b> True or False? </b> </p>
            <p> There can be 50 pieces of treasure in a given animal's chest. </p>","1","comp_question","","","","true","","","","","","","",""
"comp-q","106","590452","0.0-3.0-13.0-0.0-1.0","spark_pilot_norest","8568","4","10","Male","","","","","","","2696.5","<p> <b> That's right! </b> The amount of treasure in each chest can range from 0 to 40 pieces. </p>","0","comp_answer","","","","","","","","","","","",""
"comp-q","107","598662","0.0-3.0-13.0-0.1-0.1","spark_pilot_norest","8568","4","10","Male","","","","","","","1076.6000003814697","<p> <b> True or False? </b> </p><p> In this game, all animals have the same amount of treasure in their left and right chests. </p>","1","comp_question","","","","true","","","","","","","",""
"comp-q","108","605443","0.0-3.0-13.0-0.1-1.1","spark_pilot_norest","8568","4","10","Male","","","","","","","1556.7000002861023","<p> <b> That's right! </b> Animals have different amounts of treasure in their treasure chests. </p>","0","comp_answer","","","","","","","","","","","",""
"comp-q","109","612453","0.0-3.0-13.0-0.2-0.2","spark_pilot_norest","8568","4","10","Male","","","","","","","1178.2000002861023","<p> <b> True or False? </b> </p><p> The same animal will always be there if you go up in the same place. </p>","0","comp_question","","","","true","","","","","","","",""
"comp-q","110","620318","0.0-3.0-13.0-0.2-1.2","spark_pilot_norest","8568","4","10","Male","","","","","","","1412.0999999046326","<p> <b> That's right! </b> One animal lives in the upper part and one lives in the lower part of every place. </p>","0","comp_answer","","","","","","","","","","","",""
"comp-q","111","626390","0.0-3.0-13.0-0.3-0.3","spark_pilot_norest","8568","4","10","Male","","","","","","","555.1999998092651","<p> <b> True or False? </b> </p><p> If you see a different picture, it means you are in a new place. </p>","1","comp_question","","","","true","","","","","","","",""
"comp-q","112","640273","0.0-3.0-13.0-0.3-1.3","spark_pilot_norest","8568","4","10","Male","","","","","","","2667.0999999046326","<p> <b> That's right! </b> Lots of different images may show the same place. For example,  you may see three different images that all remind you that you are in outer space. </p>","0","comp_answer","","","","","","","","","","","",""
"learning-instructions","113","651234","0.0-3.0-14.0-0.0","spark_pilot_norest","8568","4","10","Male","","","","","","","1118","<p> Good job. Remember to do your best because the amount of treasure you earn will be converted into bonus money. </p>
            <p> It’s time to start the real game! </p>","","instructions","","","","","","","","","","","",""
"learning-instructions","114","655265","0.0-4.0-0.0-0.0","spark_pilot_norest","8568","4","10","Male","","","","","","","1318.4000000953674","<p> This time you are searching for treasure in the <b>ocean</b>.</p>","","instructions","","","","","","","","","","","",""
"learning-instructions","115","674006","0.0-4.0-0.0-0.1","spark_pilot_norest","8568","4","10","Male","","","","","","","1449.2999997138977","<p><b>New</b> animals with <b>new</b> treasure chests live here. You need to explore to discover where the animal with the best treasure chest is.</p>
                    <p> Like before, once you figure out which animal has the chest with the most treasure, you should try to get to that animal and select that chest! </p>","","instructions","","","","","","","","","","","",""
"learning-instructions","116","690514","0.0-4.0-1.0-0.0","spark_pilot_norest","8568","4","10","Male","","","","","","","1767.7000002861023","<p> Remember, when you see a picture of the place, use the up and down keys to <b>find an animal</b>.</p>
            <p> When you encounter an animal, you should use the left and right keys to <b>select a treasure chest</b>.</p>
            <p> Don't forget to look out for the robber! </p>","","instructions","","","","","","","","","","","",""
"revaluation","117","694535","0.0-4.0-2.0-0.0","spark_pilot_norest","8568","4","10","Male","","false","","","","","[1344.5999999046326]","./assets/img/ocean/catch/3.jpg","[""spaceBar""]","value training","ocean","0","{""ArrowUp,ArrowLeft"":26,""ArrowUp,ArrowRight"":10,""ArrowDown,ArrowLeft"":5,""ArrowDown,ArrowRight"":17}","true","spaceBar","true","revaluation","1","0","","",""
"html-keyboard-response","118","695045","0.0-4.0-2.0-1.0","spark_pilot_norest","8568","4","10","Male","","","","","","","null","<div style=""font-size:60px;"">+</div>","null","fixation","","","","","","","","","1","","",""
"revaluation","119","701085","0.0-4.0-2.0-0.1","spark_pilot_norest","8568","4","10","Male","","false","","","","","[973.6999998092651,1012.4000000953674]","./assets/img/ocean/memory/1.jpg","[""ArrowUp"",""ArrowRight""]","value training","ocean","10","{""ArrowUp,ArrowLeft"":26,""ArrowUp,ArrowRight"":10,""ArrowDown,ArrowLeft"":5,""ArrowDown,ArrowRight"":17}","false","ArrowUp,ArrowRight","false","revaluation","1","2","","",""
"html-keyboard-response","120","701594","0.0-4.0-2.0-1.1","spark_pilot_norest","8568","4","10","Male","","","","","","","null","<div style=""font-size:60px;"">+</div>","null","fixation","","","","","","","","","3","","",""
"revaluation","121","707634","0.0-4.0-2.0-0.2","spark_pilot_norest","8568","4","10","Male","","false","","","","","[1372.0999999046326,572.6000003814697]","./assets/img/ocean/memory/2.jpg","[""ArrowDown"",""ArrowLeft""]","value training","ocean","5","{""ArrowUp,ArrowLeft"":26,""ArrowUp,ArrowRight"":10,""ArrowDown,ArrowLeft"":5,""ArrowDown,ArrowRight"":17}","false","ArrowDown,ArrowLeft","false","revaluation","1","4","","",""
"html-keyboard-response","122","708154","0.0-4.0-2.0-1.2","spark_pilot_norest","8568","4","10","Male","","","","","","","null","<div style=""font-size:60px;"">+</div>","null","fixation","","","","","","","","","5","","",""
"revaluation","123","714204","0.0-4.0-2.0-0.3","spark_pilot_norest","8568","4","10","Male","","false","","","","","[688.8000001907349,450.59999990463257]","./assets/img/ocean/memory/19.jpg","[""ArrowUp"",""ArrowLeft""]","value training","ocean","26","{""ArrowUp,ArrowLeft"":26,""ArrowUp,ArrowRight"":10,""ArrowDown,ArrowLeft"":5,""ArrowDown,ArrowRight"":17}","true","ArrowUp,ArrowLeft","false","revaluation","1","6","","",""
"html-keyboard-response","124","714714","0.0-4.0-2.0-1.3","spark_pilot_norest","8568","4","10","Male","","","","","","","null","<div style=""font-size:60px;"">+</div>","null","fixation","","","","","","","","","7","","",""
"revaluation","125","720745","0.0-4.0-2.0-0.4","spark_pilot_norest","8568","4","10","Male","","false","","","","","[829.7999997138977,331.59999990463257]","./assets/img/ocean/memory/7.jpg","[""ArrowDown"",""ArrowRight""]","value training","ocean","17","{""ArrowUp,ArrowLeft"":26,""ArrowUp,ArrowRight"":10,""ArrowDown,ArrowLeft"":5,""ArrowDown,ArrowRight"":17}","false","ArrowDown,ArrowRight","false","revaluation","1","8","","",""
"html-keyboard-response","126","721248","0.0-4.0-2.0-1.4","spark_pilot_norest","8568","4","10","Male","","","","","","","null","<div style=""font-size:60px;"">+</div>","null","fixation","","","","","","","","","9","","",""
"revaluation","127","727258","0.0-4.0-2.0-0.5","spark_pilot_norest","8568","4","10","Male","","false","","","","","[1277.7999997138977,576.0999999046326]","./assets/img/ocean/memory/35.jpg","[""ArrowUp"",""ArrowLeft""]","value training","ocean","26","{""ArrowUp,ArrowLeft"":26,""ArrowUp,ArrowRight"":10,""ArrowDown,ArrowLeft"":5,""ArrowDown,ArrowRight"":17}","true","ArrowUp,ArrowLeft","false","revaluation","1","10","","",""
"html-keyboard-response","128","727760","0.0-4.0-2.0-1.5","spark_pilot_norest","8568","4","10","Male","","","","","","","null","<div style=""font-size:60px;"">+</div>","null","fixation","","","","","","","","","11","","",""
"revaluation","129","733771","0.0-4.0-2.0-0.6","spark_pilot_norest","8568","4","10","Male","","false","","","","","[769.1999998092651,456.40000009536743]","./assets/img/ocean/memory/18.jpg","[""ArrowUp"",""ArrowLeft""]","value training","ocean","26","{""ArrowUp,ArrowLeft"":26,""ArrowUp,ArrowRight"":10,""ArrowDown,ArrowLeft"":5,""ArrowDown,ArrowRight"":17}","true","ArrowUp,ArrowLeft","false","revaluation","1","12","","",""
"html-keyboard-response","130","734273","0.0-4.0-2.0-1.6","spark_pilot_norest","8568","4","10","Male","","","","","","","null","<div style=""font-size:60px;"">+</div>","null","fixation","","","","","","","","","13","","",""
"revaluation","131","740280","0.0-4.0-2.0-0.7","spark_pilot_norest","8568","4","10","Male","","false","","","","","[783.8999996185303,312.6000003814697]","./assets/img/ocean/memory/6.jpg","[""ArrowUp"",""ArrowLeft""]","value training","ocean","26","{""ArrowUp,ArrowLeft"":26,""ArrowUp,ArrowRight"":10,""ArrowDown,ArrowLeft"":5,""ArrowDown,ArrowRight"":17}","true","ArrowUp,ArrowLeft","false","revaluation","1","14","","",""
"html-keyboard-response","132","740783","0.0-4.0-2.0-1.7","spark_pilot_norest","8568","4","10","Male","","","","","","","null","<div style=""font-size:60px;"">+</div>","null","fixation","","","","","","","","","15","","",""
"revaluation","133","746792","0.0-4.0-2.0-0.8","spark_pilot_norest","8568","4","10","Male","","false","","","","","[1140.5,484.90000009536743]","./assets/img/ocean/memory/15.jpg","[""ArrowUp"",""ArrowLeft""]","value training","ocean","26","{""ArrowUp,ArrowLeft"":26,""ArrowUp,ArrowRight"":10,""ArrowDown,ArrowLeft"":5,""ArrowDown,ArrowRight"":17}","true","ArrowUp,ArrowLeft","false","revaluation","1","16","","",""
"html-keyboard-response","134","747295","0.0-4.0-2.0-1.8","spark_pilot_norest","8568","4","10","Male","","","","","","","null","<div style=""font-size:60px;"">+</div>","null","fixation","","","","","","","","","17","","",""
"revaluation","135","753302","0.0-4.0-2.0-0.9","spark_pilot_norest","8568","4","10","Male","","false","","","","","[762.7000002861023,539]","./assets/img/ocean/memory/16.jpg","[""ArrowUp"",""ArrowLeft""]","value training","ocean","26","{""ArrowUp,ArrowLeft"":26,""ArrowUp,ArrowRight"":10,""ArrowDown,ArrowLeft"":5,""ArrowDown,ArrowRight"":17}","true","ArrowUp,ArrowLeft","false","revaluation","1","18","","",""
"html-keyboard-response","136","753805","0.0-4.0-2.0-1.9","spark_pilot_norest","8568","4","10","Male","","","","","","","null","<div style=""font-size:60px;"">+</div>","null","fixation","","","","","","","","","19","","",""
"revaluation","137","759813","0.0-4.0-2.0-0.10","spark_pilot_norest","8568","4","10","Male","","false","","","","","[543.8000001907349,351.2999997138977]","./assets/img/ocean/memory/16.jpg","[""ArrowUp"",""ArrowLeft""]","value training","ocean","26","{""ArrowUp,ArrowLeft"":26,""ArrowUp,ArrowRight"":10,""ArrowDown,ArrowLeft"":5,""ArrowDown,ArrowRight"":17}","true","ArrowUp,ArrowLeft","false","revaluation","1","20","","",""
"html-keyboard-response","138","760315","0.0-4.0-2.0-1.10","spark_pilot_norest","8568","4","10","Male","","","","","","","null","<div style=""font-size:60px;"">+</div>","null","fixation","","","","","","","","","21","","",""
"revaluation","139","766322","0.0-4.0-2.0-0.11","spark_pilot_norest","8568","4","10","Male","","false","","","","","[621.0999999046326,366.30000019073486]","./assets/img/ocean/memory/19.jpg","[""ArrowUp"",""ArrowLeft""]","value training","ocean","26","{""ArrowUp,ArrowLeft"":26,""ArrowUp,ArrowRight"":10,""ArrowDown,ArrowLeft"":5,""ArrowDown,ArrowRight"":17}","true","ArrowUp,ArrowLeft","false","revaluation","1","22","","",""
"html-keyboard-response","140","766824","0.0-4.0-2.0-1.11","spark_pilot_norest","8568","4","10","Male","","","","","","","null","<div style=""font-size:60px;"">+</div>","null","fixation","","","","","","","","","23","","",""
"revaluation","141","770831","0.0-4.0-2.0-0.12","spark_pilot_norest","8568","4","10","Male","","false","","","","","[689.9000000953674]","./assets/img/ocean/catch/0.jpg","[""spaceBar""]","value training","ocean","0","{""ArrowUp,ArrowLeft"":26,""ArrowUp,ArrowRight"":10,""ArrowDown,ArrowLeft"":5,""ArrowDown,ArrowRight"":17}","true","spaceBar","true","revaluation","1","24","","",""
"html-keyboard-response","142","771333","0.0-4.0-2.0-1.12","spark_pilot_norest","8568","4","10","Male","","","","","","","null","<div style=""font-size:60px;"">+</div>","null","fixation","","","","","","","","","25","","",""
"revaluation","143","775338","0.0-4.0-2.0-0.13","spark_pilot_norest","8568","4","10","Male","","false","","","","","[1127.9000000953674]","./assets/img/ocean/catch/6.jpg","[""spaceBar""]","value training","ocean","0","{""ArrowUp,ArrowLeft"":26,""ArrowUp,ArrowRight"":10,""ArrowDown,ArrowLeft"":5,""ArrowDown,ArrowRight"":17}","true","spaceBar","true","revaluation","1","26","","",""
"html-keyboard-response","144","775840","0.0-4.0-2.0-1.13","spark_pilot_norest","8568","4","10","Male","","","","","","","null","<div style=""font-size:60px;"">+</div>","null","fixation","","","","","","","","","27","","",""
"revaluation","145","781848","0.0-4.0-2.0-0.14","spark_pilot_norest","8568","4","10","Male","","false","","","","","[1537.5,410.59999990463257]","./assets/img/ocean/memory/31.jpg","[""ArrowUp"",""ArrowLeft""]","value training","ocean","26","{""ArrowUp,ArrowLeft"":26,""ArrowUp,ArrowRight"":10,""ArrowDown,ArrowLeft"":5,""ArrowDown,ArrowRight"":17}","true","ArrowUp,ArrowLeft","false","revaluation","1","28","","",""
"html-keyboard-response","146","782349","0.0-4.0-2.0-1.14","spark_pilot_norest","8568","4","10","Male","","","","","","","null","<div style=""font-size:60px;"">+</div>","null","fixation","","","","","","","","","29","","",""
"revaluation","147","788354","0.0-4.0-2.0-0.15","spark_pilot_norest","8568","4","10","Male","","false","","","","","[610.9000000953674,331.59999990463257]","./assets/img/ocean/memory/12.jpg","[""ArrowUp"",""ArrowLeft""]","value training","ocean","26","{""ArrowUp,ArrowLeft"":26,""ArrowUp,ArrowRight"":10,""ArrowDown,ArrowLeft"":5,""ArrowDown,ArrowRight"":17}","true","ArrowUp,ArrowLeft","false","revaluation","1","30","","",""
"html-keyboard-response","148","788855","0.0-4.0-2.0-1.15","spark_pilot_norest","8568","4","10","Male","","","","","","","null","<div style=""font-size:60px;"">+</div>","null","fixation","","","","","","","","","31","","",""
"revaluation","149","794863","0.0-4.0-2.0-0.16","spark_pilot_norest","8568","4","10","Male","","false","","","","","[598.8000001907349,343.30000019073486]","./assets/img/ocean/memory/34.jpg","[""ArrowUp"",""ArrowLeft""]","value training","ocean","26","{""ArrowUp,ArrowLeft"":26,""ArrowUp,ArrowRight"":10,""ArrowDown,ArrowLeft"":5,""ArrowDown,ArrowRight"":17}","true","ArrowUp,ArrowLeft","false","revaluation","1","32","","",""
"html-keyboard-response","150","795365","0.0-4.0-2.0-1.16","spark_pilot_norest","8568","4","10","Male","","","","","","","null","<div style=""font-size:60px;"">+</div>","null","fixation","","","","","","","","","33","","",""
"revaluation","151","801375","0.0-4.0-2.0-0.17","spark_pilot_norest","8568","4","10","Male","","false","","","","","[1728.5999999046326,667]","./assets/img/ocean/memory/27.jpg","[""ArrowUp"",""ArrowLeft""]","value training","ocean","26","{""ArrowUp,ArrowLeft"":26,""ArrowUp,ArrowRight"":10,""ArrowDown,ArrowLeft"":5,""ArrowDown,ArrowRight"":17}","true","ArrowUp,ArrowLeft","false","revaluation","1","34","","",""
"html-keyboard-response","152","801877","0.0-4.0-2.0-1.17","spark_pilot_norest","8568","4","10","Male","","","","","","","null","<div style=""font-size:60px;"">+</div>","null","fixation","","","","","","","","","35","","",""
"revaluation","153","805884","0.0-4.0-2.0-0.18","spark_pilot_norest","8568","4","10","Male","","false","","","","","[1063.7000002861023]","./assets/img/ocean/catch/2.jpg","[""spaceBar""]","value training","ocean","0","{""ArrowUp,ArrowLeft"":26,""ArrowUp,ArrowRight"":10,""ArrowDown,ArrowLeft"":5,""ArrowDown,ArrowRight"":17}","true","spaceBar","true","revaluation","1","36","","",""
"html-keyboard-response","154","806385","0.0-4.0-2.0-1.18","spark_pilot_norest","8568","4","10","Male","","","","","","","null","<div style=""font-size:60px;"">+</div>","null","fixation","","","","","","","","","37","","",""
"revaluation","155","812392","0.0-4.0-2.0-0.19","spark_pilot_norest","8568","4","10","Male","","false","","","","","[835.5,398.80000019073486]","./assets/img/ocean/memory/12.jpg","[""ArrowUp"",""ArrowLeft""]","value training","ocean","26","{""ArrowUp,ArrowLeft"":26,""ArrowUp,ArrowRight"":10,""ArrowDown,ArrowLeft"":5,""ArrowDown,ArrowRight"":17}","true","ArrowUp,ArrowLeft","false","revaluation","1","38","","",""
"html-keyboard-response","156","812894","0.0-4.0-2.0-1.19","spark_pilot_norest","8568","4","10","Male","","","","","","","null","<div style=""font-size:60px;"">+</div>","null","fixation","","","","","","","","","39","","",""
"revaluation","157","818902","0.0-4.0-2.0-0.20","spark_pilot_norest","8568","4","10","Male","","false","","","","","[612.8999996185303,1366.5]","./assets/img/ocean/memory/32.jpg","[""ArrowUp"",""ArrowLeft""]","value training","ocean","26","{""ArrowUp,ArrowLeft"":26,""ArrowUp,ArrowRight"":10,""ArrowDown,ArrowLeft"":5,""ArrowDown,ArrowRight"":17}","true","ArrowUp,ArrowLeft","false","revaluation","1","40","","",""
"html-keyboard-response","158","819405","0.0-4.0-2.0-1.20","spark_pilot_norest","8568","4","10","Male","","","","","","","null","<div style=""font-size:60px;"">+</div>","null","fixation","","","","","","","","","41","","",""
"revaluation","159","823412","0.0-4.0-2.0-0.21","spark_pilot_norest","8568","4","10","Male","","false","","","","","[639.7000002861023]","./assets/img/ocean/catch/1.jpg","[""spaceBar""]","value training","ocean","0","{""ArrowUp,ArrowLeft"":26,""ArrowUp,ArrowRight"":10,""ArrowDown,ArrowLeft"":5,""ArrowDown,ArrowRight"":17}","true","spaceBar","true","revaluation","1","42","","",""
"html-keyboard-response","160","823913","0.0-4.0-2.0-1.21","spark_pilot_norest","8568","4","10","Male","","","","","","","null","<div style=""font-size:60px;"">+</div>","null","fixation","","","","","","","","","43","","",""
"revaluation","161","827922","0.0-4.0-2.0-0.22","spark_pilot_norest","8568","4","10","Male","","false","","","","","[891.2000002861023]","./assets/img/ocean/catch/7.jpg","[""spaceBar""]","value training","ocean","0","{""ArrowUp,ArrowLeft"":26,""ArrowUp,ArrowRight"":10,""ArrowDown,ArrowLeft"":5,""ArrowDown,ArrowRight"":17}","true","spaceBar","true","revaluation","1","44","","",""
"html-keyboard-response","162","828425","0.0-4.0-2.0-1.22","spark_pilot_norest","8568","4","10","Male","","","","","","","null","<div style=""font-size:60px;"">+</div>","null","fixation","","","","","","","","","45","","",""
"revaluation","163","832432","0.0-4.0-2.0-0.23","spark_pilot_norest","8568","4","10","Male","","false","","","","","[1026.5]","./assets/img/ocean/catch/4.jpg","[""spaceBar""]","value training","ocean","0","{""ArrowUp,ArrowLeft"":26,""ArrowUp,ArrowRight"":10,""ArrowDown,ArrowLeft"":5,""ArrowDown,ArrowRight"":17}","true","spaceBar","true","revaluation","1","46","","",""
"html-keyboard-response","164","832934","0.0-4.0-2.0-1.23","spark_pilot_norest","8568","4","10","Male","","","","","","","null","<div style=""font-size:60px;"">+</div>","null","fixation","","","","","","","","","47","","",""
"revaluation","165","838944","0.0-4.0-2.0-0.24","spark_pilot_norest","8568","4","10","Male","","false","","","","","[1050.9000000953674,419.6000003814697]","./assets/img/ocean/memory/7.jpg","[""ArrowUp"",""ArrowLeft""]","value training","ocean","26","{""ArrowUp,ArrowLeft"":26,""ArrowUp,ArrowRight"":10,""ArrowDown,ArrowLeft"":5,""ArrowDown,ArrowRight"":17}","true","ArrowUp,ArrowLeft","false","revaluation","1","48","","",""
"html-keyboard-response","166","839446","0.0-4.0-2.0-1.24","spark_pilot_norest","8568","4","10","Male","","","","","","","null","<div style=""font-size:60px;"">+</div>","null","fixation","","","","","","","","","49","","",""
"revaluation","167","845451","0.0-4.0-2.0-0.25","spark_pilot_norest","8568","4","10","Male","","false","","","","","[882.0999999046326,388.80000019073486]","./assets/img/ocean/memory/32.jpg","[""ArrowUp"",""ArrowLeft""]","value training","ocean","26","{""ArrowUp,ArrowLeft"":26,""ArrowUp,ArrowRight"":10,""ArrowDown,ArrowLeft"":5,""ArrowDown,ArrowRight"":17}","true","ArrowUp,ArrowLeft","false","revaluation","1","50","","",""
"html-keyboard-response","168","845953","0.0-4.0-2.0-1.25","spark_pilot_norest","8568","4","10","Male","","","","","","","null","<div style=""font-size:60px;"">+</div>","null","fixation","","","","","","","","","51","","",""
"revaluation","169","851961","0.0-4.0-2.0-0.26","spark_pilot_norest","8568","4","10","Male","","false","","","","","[905.3999996185303,429.09999990463257]","./assets/img/ocean/memory/15.jpg","[""ArrowUp"",""ArrowLeft""]","value training","ocean","26","{""ArrowUp,ArrowLeft"":26,""ArrowUp,ArrowRight"":10,""ArrowDown,ArrowLeft"":5,""ArrowDown,ArrowRight"":17}","true","ArrowUp,ArrowLeft","false","revaluation","1","52","","",""
"html-keyboard-response","170","852463","0.0-4.0-2.0-1.26","spark_pilot_norest","8568","4","10","Male","","","","","","","null","<div style=""font-size:60px;"">+</div>","null","fixation","","","","","","","","","53","","",""
"revaluation","171","858472","0.0-4.0-2.0-0.27","spark_pilot_norest","8568","4","10","Male","","false","","","","","[980.6999998092651,668.1999998092651]","./assets/img/ocean/memory/35.jpg","[""ArrowUp"",""ArrowLeft""]","value training","ocean","26","{""ArrowUp,ArrowLeft"":26,""ArrowUp,ArrowRight"":10,""ArrowDown,ArrowLeft"":5,""ArrowDown,ArrowRight"":17}","true","ArrowUp,ArrowLeft","false","revaluation","1","54","","",""
"html-keyboard-response","172","858974","0.0-4.0-2.0-1.27","spark_pilot_norest","8568","4","10","Male","","","","","","","null","<div style=""font-size:60px;"">+</div>","null","fixation","","","","","","","","","55","","",""
"revaluation","173","864981","0.0-4.0-2.0-0.28","spark_pilot_norest","8568","4","10","Male","","false","","","","","[750.9000000953674,729.2999997138977]","./assets/img/ocean/memory/21.jpg","[""ArrowUp"",""ArrowLeft""]","value training","ocean","26","{""ArrowUp,ArrowLeft"":26,""ArrowUp,ArrowRight"":10,""ArrowDown,ArrowLeft"":5,""ArrowDown,ArrowRight"":17}","true","ArrowUp,ArrowLeft","false","revaluation","1","56","","",""
"html-keyboard-response","174","865484","0.0-4.0-2.0-1.28","spark_pilot_norest","8568","4","10","Male","","","","","","","null","<div style=""font-size:60px;"">+</div>","null","fixation","","","","","","","","","57","","",""
"revaluation","175","871492","0.0-4.0-2.0-0.29","spark_pilot_norest","8568","4","10","Male","","false","","","","","[527.5999999046326,367.80000019073486]","./assets/img/ocean/memory/18.jpg","[""ArrowUp"",""ArrowLeft""]","value training","ocean","26","{""ArrowUp,ArrowLeft"":26,""ArrowUp,ArrowRight"":10,""ArrowDown,ArrowLeft"":5,""ArrowDown,ArrowRight"":17}","true","ArrowUp,ArrowLeft","false","revaluation","1","58","","",""
"html-keyboard-response","176","871994","0.0-4.0-2.0-1.29","spark_pilot_norest","8568","4","10","Male","","","","","","","null","<div style=""font-size:60px;"">+</div>","null","fixation","","","","","","","","","59","","",""
"revaluation","177","878004","0.0-4.0-2.0-0.30","spark_pilot_norest","8568","4","10","Male","","false","","","","","[975.8000001907349,357.40000009536743]","./assets/img/ocean/memory/9.jpg","[""ArrowUp"",""ArrowLeft""]","value training","ocean","26","{""ArrowUp,ArrowLeft"":26,""ArrowUp,ArrowRight"":10,""ArrowDown,ArrowLeft"":5,""ArrowDown,ArrowRight"":17}","true","ArrowUp,ArrowLeft","false","revaluation","1","60","","",""
"html-keyboard-response","178","878506","0.0-4.0-2.0-1.30","spark_pilot_norest","8568","4","10","Male","","","","","","","null","<div style=""font-size:60px;"">+</div>","null","fixation","","","","","","","","","61","","",""
"revaluation","179","884514","0.0-4.0-2.0-0.31","spark_pilot_norest","8568","4","10","Male","","false","","","","","[614.6999998092651,295.59999990463257]","./assets/img/ocean/memory/6.jpg","[""ArrowUp"",""ArrowLeft""]","value training","ocean","26","{""ArrowUp,ArrowLeft"":26,""ArrowUp,ArrowRight"":10,""ArrowDown,ArrowLeft"":5,""ArrowDown,ArrowRight"":17}","true","ArrowUp,ArrowLeft","false","revaluation","1","62","","",""
"html-keyboard-response","180","885015","0.0-4.0-2.0-1.31","spark_pilot_norest","8568","4","10","Male","","","","","","","null","<div style=""font-size:60px;"">+</div>","null","fixation","","","","","","","","","63","","",""
"revaluation","181","891024","0.0-4.0-2.0-0.32","spark_pilot_norest","8568","4","10","Male","","false","","","","","[773,309.5]","./assets/img/ocean/memory/1.jpg","[""ArrowUp"",""ArrowLeft""]","value training","ocean","26","{""ArrowUp,ArrowLeft"":26,""ArrowUp,ArrowRight"":10,""ArrowDown,ArrowLeft"":5,""ArrowDown,ArrowRight"":17}","true","ArrowUp,ArrowLeft","false","revaluation","1","64","","",""
"html-keyboard-response","182","891526","0.0-4.0-2.0-1.32","spark_pilot_norest","8568","4","10","Male","","","","","","","null","<div style=""font-size:60px;"">+</div>","null","fixation","","","","","","","","","65","","",""
"revaluation","183","897535","0.0-4.0-2.0-0.33","spark_pilot_norest","8568","4","10","Male","","false","","","","","[535.6000003814697,547.2999997138977]","./assets/img/ocean/memory/3.jpg","[""ArrowUp"",""ArrowLeft""]","value training","ocean","26","{""ArrowUp,ArrowLeft"":26,""ArrowUp,ArrowRight"":10,""ArrowDown,ArrowLeft"":5,""ArrowDown,ArrowRight"":17}","true","ArrowUp,ArrowLeft","false","revaluation","1","66","","",""
"html-keyboard-response","184","898038","0.0-4.0-2.0-1.33","spark_pilot_norest","8568","4","10","Male","","","","","","","null","<div style=""font-size:60px;"">+</div>","null","fixation","","","","","","","","","67","","",""
"revaluation","185","904047","0.0-4.0-2.0-0.34","spark_pilot_norest","8568","4","10","Male","","false","","","","","[711.5,330]","./assets/img/ocean/memory/33.jpg","[""ArrowUp"",""ArrowLeft""]","value training","ocean","26","{""ArrowUp,ArrowLeft"":26,""ArrowUp,ArrowRight"":10,""ArrowDown,ArrowLeft"":5,""ArrowDown,ArrowRight"":17}","true","ArrowUp,ArrowLeft","false","revaluation","1","68","","",""
"html-keyboard-response","186","904549","0.0-4.0-2.0-1.34","spark_pilot_norest","8568","4","10","Male","","","","","","","null","<div style=""font-size:60px;"">+</div>","null","fixation","","","","","","","","","69","","",""
"revaluation","187","908558","0.0-4.0-2.0-0.35","spark_pilot_norest","8568","4","10","Male","","false","","","","","[1082.2000002861023]","./assets/img/ocean/catch/5.jpg","[""spaceBar""]","value training","ocean","0","{""ArrowUp,ArrowLeft"":26,""ArrowUp,ArrowRight"":10,""ArrowDown,ArrowLeft"":5,""ArrowDown,ArrowRight"":17}","true","spaceBar","true","revaluation","1","70","","",""
"html-keyboard-response","188","909060","0.0-4.0-2.0-1.35","spark_pilot_norest","8568","4","10","Male","","","","","","","null","<div style=""font-size:60px;"">+</div>","null","fixation","","","","","","","","","71","","",""
"revaluation","189","913067","0.0-4.0-2.0-0.36","spark_pilot_norest","8568","4","10","Male","","true","","","","","[]","./assets/img/ocean/memory/21.jpg","[]","value training","ocean","-5","{""ArrowUp,ArrowLeft"":26,""ArrowUp,ArrowRight"":10,""ArrowDown,ArrowLeft"":5,""ArrowDown,ArrowRight"":17}","false","","false","revaluation","1","72","","",""
"html-keyboard-response","190","913570","0.0-4.0-2.0-1.36","spark_pilot_norest","8568","4","10","Male","","","","","","","null","<div style=""font-size:60px;"">+</div>","null","fixation","","","","","","","","","73","","",""
"revaluation","191","919578","0.0-4.0-2.0-0.37","spark_pilot_norest","8568","4","10","Male","","false","","","","","[1643.2999997138977,679.4000000953674]","./assets/img/ocean/memory/39.jpg","[""ArrowUp"",""ArrowLeft""]","value training","ocean","26","{""ArrowUp,ArrowLeft"":26,""ArrowUp,ArrowRight"":10,""ArrowDown,ArrowLeft"":5,""ArrowDown,ArrowRight"":17}","true","ArrowUp,ArrowLeft","false","revaluation","1","74","","",""
"html-keyboard-response","192","920080","0.0-4.0-2.0-1.37","spark_pilot_norest","8568","4","10","Male","","","","","","","null","<div style=""font-size:60px;"">+</div>","null","fixation","","","","","","","","","75","","",""
"revaluation","193","924086","0.0-4.0-2.0-0.38","spark_pilot_norest","8568","4","10","Male","","true","","","","","[]","./assets/img/ocean/memory/20.jpg","[]","value training","ocean","-5","{""ArrowUp,ArrowLeft"":26,""ArrowUp,ArrowRight"":10,""ArrowDown,ArrowLeft"":5,""ArrowDown,ArrowRight"":17}","false","","false","revaluation","1","76","","",""
"html-keyboard-response","194","924588","0.0-4.0-2.0-1.38","spark_pilot_norest","8568","4","10","Male","","","","","","","null","<div style=""font-size:60px;"">+</div>","null","fixation","","","","","","","","","77","","",""
"revaluation","195","930593","0.0-4.0-2.0-0.39","spark_pilot_norest","8568","4","10","Male","","false","","","","","[1239.4000000953674,408.5]","./assets/img/ocean/memory/20.jpg","[""ArrowUp"",""ArrowLeft""]","value training","ocean","26","{""ArrowUp,ArrowLeft"":26,""ArrowUp,ArrowRight"":10,""ArrowDown,ArrowLeft"":5,""ArrowDown,ArrowRight"":17}","true","ArrowUp,ArrowLeft","false","revaluation","1","78","","",""
"html-keyboard-response","196","931095","0.0-4.0-2.0-1.39","spark_pilot_norest","8568","4","10","Male","","","","","","","null","<div style=""font-size:60px;"">+</div>","null","fixation","","","","","","","","","79","","",""
"revaluation","197","937101","0.0-4.0-2.0-0.40","spark_pilot_norest","8568","4","10","Male","","false","","","","","[1192.2000002861023,428.90000009536743]","./assets/img/ocean/memory/5.jpg","[""ArrowUp"",""ArrowLeft""]","value training","ocean","26","{""ArrowUp,ArrowLeft"":26,""ArrowUp,ArrowRight"":10,""ArrowDown,ArrowLeft"":5,""ArrowDown,ArrowRight"":17}","true","ArrowUp,ArrowLeft","false","revaluation","1","80","","",""
"html-keyboard-response","198","937602","0.0-4.0-2.0-1.40","spark_pilot_norest","8568","4","10","Male","","","","","","","null","<div style=""font-size:60px;"">+</div>","null","fixation","","","","","","","","","81","","",""
"revaluation","199","943612","0.0-4.0-2.0-0.41","spark_pilot_norest","8568","4","10","Male","","false","","","","","[1285.1999998092651,344.30000019073486]","./assets/img/ocean/memory/5.jpg","[""ArrowUp"",""ArrowLeft""]","value training","ocean","26","{""ArrowUp,ArrowLeft"":26,""ArrowUp,ArrowRight"":10,""ArrowDown,ArrowLeft"":5,""ArrowDown,ArrowRight"":17}","true","ArrowUp,ArrowLeft","false","revaluation","1","82","","",""
"html-keyboard-response","200","944113","0.0-4.0-2.0-1.41","spark_pilot_norest","8568","4","10","Male","","","","","","","null","<div style=""font-size:60px;"">+</div>","null","fixation","","","","","","","","","83","","",""
"revaluation","201","950117","0.0-4.0-2.0-0.42","spark_pilot_norest","8568","4","10","Male","","false","","","","","[620.9000000953674,398]","./assets/img/ocean/memory/39.jpg","[""ArrowUp"",""ArrowLeft""]","value training","ocean","26","{""ArrowUp,ArrowLeft"":26,""ArrowUp,ArrowRight"":10,""ArrowDown,ArrowLeft"":5,""ArrowDown,ArrowRight"":17}","true","ArrowUp,ArrowLeft","false","revaluation","1","84","","",""
"html-keyboard-response","202","950620","0.0-4.0-2.0-1.42","spark_pilot_norest","8568","4","10","Male","","","","","","","null","<div style=""font-size:60px;"">+</div>","null","fixation","","","","","","","","","85","","",""
"revaluation","203","956628","0.0-4.0-2.0-0.43","spark_pilot_norest","8568","4","10","Male","","false","","","","","[1288.7999997138977,1059.8999996185303]","./assets/img/ocean/memory/9.jpg","[""ArrowUp"",""ArrowLeft""]","value training","ocean","26","{""ArrowUp,ArrowLeft"":26,""ArrowUp,ArrowRight"":10,""ArrowDown,ArrowLeft"":5,""ArrowDown,ArrowRight"":17}","true","ArrowUp,ArrowLeft","false","revaluation","1","86","","",""
"html-keyboard-response","204","957130","0.0-4.0-2.0-1.43","spark_pilot_norest","8568","4","10","Male","","","","","","","null","<div style=""font-size:60px;"">+</div>","null","fixation","","","","","","","","","87","","",""
"revaluation","205","963137","0.0-4.0-2.0-0.44","spark_pilot_norest","8568","4","10","Male","","true","","","","","[927.2999997138977]","./assets/img/ocean/memory/31.jpg","[""ArrowUp""]","value training","ocean","-5","{""ArrowUp,ArrowLeft"":26,""ArrowUp,ArrowRight"":10,""ArrowDown,ArrowLeft"":5,""ArrowDown,ArrowRight"":17}","false","ArrowUp","false","revaluation","1","88","","",""
"html-keyboard-response","206","963640","0.0-4.0-2.0-1.44","spark_pilot_norest","8568","4","10","Male","","","","","","","null","<div style=""font-size:60px;"">+</div>","null","fixation","","","","","","","","","89","","",""
"revaluation","207","969649","0.0-4.0-2.0-0.45","spark_pilot_norest","8568","4","10","Male","","false","","","","","[545.7999997138977,358.09999990463257]","./assets/img/ocean/memory/3.jpg","[""ArrowUp"",""ArrowLeft""]","value training","ocean","26","{""ArrowUp,ArrowLeft"":26,""ArrowUp,ArrowRight"":10,""ArrowDown,ArrowLeft"":5,""ArrowDown,ArrowRight"":17}","true","ArrowUp,ArrowLeft","false","revaluation","1","90","","",""
"html-keyboard-response","208","970152","0.0-4.0-2.0-1.45","spark_pilot_norest","8568","4","10","Male","","","","","","","null","<div style=""font-size:60px;"">+</div>","null","fixation","","","","","","","","","91","","",""
"revaluation","209","976160","0.0-4.0-2.0-0.46","spark_pilot_norest","8568","4","10","Male","","false","","","","","[1322.9000000953674,590.1999998092651]","./assets/img/ocean/memory/33.jpg","[""ArrowUp"",""ArrowLeft""]","value training","ocean","26","{""ArrowUp,ArrowLeft"":26,""ArrowUp,ArrowRight"":10,""ArrowDown,ArrowLeft"":5,""ArrowDown,ArrowRight"":17}","true","ArrowUp,ArrowLeft","false","revaluation","1","92","","",""
"html-keyboard-response","210","976662","0.0-4.0-2.0-1.46","spark_pilot_norest","8568","4","10","Male","","","","","","","null","<div style=""font-size:60px;"">+</div>","null","fixation","","","","","","","","","93","","",""
"revaluation","211","982669","0.0-4.0-2.0-0.47","spark_pilot_norest","8568","4","10","Male","","false","","","","","[824.6999998092651,573.5999999046326]","./assets/img/ocean/memory/2.jpg","[""ArrowUp"",""ArrowLeft""]","value training","ocean","26","{""ArrowUp,ArrowLeft"":26,""ArrowUp,ArrowRight"":10,""ArrowDown,ArrowLeft"":5,""ArrowDown,ArrowRight"":17}","true","ArrowUp,ArrowLeft","false","revaluation","1","94","","",""
"html-keyboard-response","212","983170","0.0-4.0-2.0-1.47","spark_pilot_norest","8568","4","10","Male","","","","","","","null","<div style=""font-size:60px;"">+</div>","null","fixation","","","","","","","","","95","","",""
"revaluation","213","989180","0.0-4.0-2.0-0.48","spark_pilot_norest","8568","4","10","Male","","false","","","","","[1001.8000001907349,429.7000002861023]","./assets/img/ocean/memory/34.jpg","[""ArrowUp"",""ArrowLeft""]","value training","ocean","26","{""ArrowUp,ArrowLeft"":26,""ArrowUp,ArrowRight"":10,""ArrowDown,ArrowLeft"":5,""ArrowDown,ArrowRight"":17}","true","ArrowUp,ArrowLeft","false","revaluation","1","96","","",""
"html-keyboard-response","214","989682","0.0-4.0-2.0-1.48","spark_pilot_norest","8568","4","10","Male","","","","","","","null","<div style=""font-size:60px;"">+</div>","null","fixation","","","","","","","","","97","","",""
"revaluation","215","995691","0.0-4.0-2.0-0.49","spark_pilot_norest","8568","4","10","Male","","false","","","","","[1656.1000003814697,629.2000002861023]","./assets/img/ocean/memory/27.jpg","[""ArrowUp"",""ArrowLeft""]","value training","ocean","26","{""ArrowUp,ArrowLeft"":26,""ArrowUp,ArrowRight"":10,""ArrowDown,ArrowLeft"":5,""ArrowDown,ArrowRight"":17}","true","ArrowUp,ArrowLeft","false","revaluation","1","98","","",""
"html-keyboard-response","216","996193","0.0-4.0-2.0-1.49","spark_pilot_norest","8568","4","10","Male","","","","","","","null","<div style=""font-size:60px;"">+</div>","null","fixation","","","","","","","","","99","","",""
"learning-instructions","217","1010678","0.0-4.0-3.0-0.0","spark_pilot_norest","8568","4","10","Male","","","","","","","1369.7999997138977","<p> Now, you will travel with a friend who will choose whether you go up or down first. </p>
            <p> On these turns, you will just see the animal that they found. You will still get to choose which chest to search for treasure.</p>","","instructions","","","","","","","","","","","",""
"revaluation","218","1014707","0.0-4.0-4.0-0.0","spark_pilot_norest","8568","4","10","Male","","true","","","","","[]","./assets/img/ocean/animals/octopus.jpg","[]","revaluation","ocean","-5","{""ArrowUp,ArrowLeft"":2,""ArrowUp,ArrowRight"":11,""ArrowDown,ArrowLeft"":8,""ArrowDown,ArrowRight"":27}","false","ArrowDown","","revaluation","1","0","","",""
"html-keyboard-response","219","1015227","0.0-4.0-4.0-1.0","spark_pilot_norest","8568","4","10","Male","","","","","","","null","<div style=""font-size:60px;"">+</div>","null","fixation","","","","","","","","","1","","",""
"revaluation","220","1019247","0.0-4.0-4.0-0.1","spark_pilot_norest","8568","4","10","Male","","false","","","","","[918.5]","./assets/img/ocean/animals/seahorse.jpg","[""ArrowRight""]","revaluation","ocean","11","{""ArrowUp,ArrowLeft"":2,""ArrowUp,ArrowRight"":11,""ArrowDown,ArrowLeft"":8,""ArrowDown,ArrowRight"":27}","true","ArrowUp,ArrowRight","","revaluation","1","2","","",""
"html-keyboard-response","221","1019757","0.0-4.0-4.0-1.1","spark_pilot_norest","8568","4","10","Male","","","","","","","null","<div style=""font-size:60px;"">+</div>","null","fixation","","","","","","","","","3","","",""
"revaluation","222","1023788","0.0-4.0-4.0-0.2","spark_pilot_norest","8568","4","10","Male","","false","","","","","[748]","./assets/img/ocean/animals/seahorse.jpg","[""ArrowLeft""]","revaluation","ocean","2","{""ArrowUp,ArrowLeft"":2,""ArrowUp,ArrowRight"":11,""ArrowDown,ArrowLeft"":8,""ArrowDown,ArrowRight"":27}","false","ArrowUp,ArrowLeft","","revaluation","1","4","","",""
"html-keyboard-response","223","1024307","0.0-4.0-4.0-1.2","spark_pilot_norest","8568","4","10","Male","","","","","","","null","<div style=""font-size:60px;"">+</div>","null","fixation","","","","","","","","","5","","",""
"revaluation","224","1028347","0.0-4.0-4.0-0.3","spark_pilot_norest","8568","4","10","Male","","false","","","","","[502.80000019073486]","./assets/img/ocean/animals/seahorse.jpg","[""ArrowRight""]","revaluation","ocean","11","{""ArrowUp,ArrowLeft"":2,""ArrowUp,ArrowRight"":11,""ArrowDown,ArrowLeft"":8,""ArrowDown,ArrowRight"":27}","true","ArrowUp,ArrowRight","","revaluation","1","6","","",""
"html-keyboard-response","225","1028857","0.0-4.0-4.0-1.3","spark_pilot_norest","8568","4","10","Male","","","","","","","null","<div style=""font-size:60px;"">+</div>","null","fixation","","","","","","","","","7","","",""
"revaluation","226","1032877","0.0-4.0-4.0-0.4","spark_pilot_norest","8568","4","10","Male","","false","","","","","[1101.4000000953674]","./assets/img/ocean/animals/octopus.jpg","[""ArrowLeft""]","revaluation","ocean","8","{""ArrowUp,ArrowLeft"":2,""ArrowUp,ArrowRight"":11,""ArrowDown,ArrowLeft"":8,""ArrowDown,ArrowRight"":27}","false","ArrowDown,ArrowLeft","","revaluation","1","8","","",""
"html-keyboard-response","227","1033397","0.0-4.0-4.0-1.4","spark_pilot_norest","8568","4","10","Male","","","","","","","null","<div style=""font-size:60px;"">+</div>","null","fixation","","","","","","","","","9","","",""
"revaluation","228","1037427","0.0-4.0-4.0-0.5","spark_pilot_norest","8568","4","10","Male","","false","","","","","[930.4000000953674]","./assets/img/ocean/animals/seahorse.jpg","[""ArrowRight""]","revaluation","ocean","11","{""ArrowUp,ArrowLeft"":2,""ArrowUp,ArrowRight"":11,""ArrowDown,ArrowLeft"":8,""ArrowDown,ArrowRight"":27}","true","ArrowUp,ArrowRight","","revaluation","1","10","","",""
"html-keyboard-response","229","1037947","0.0-4.0-4.0-1.5","spark_pilot_norest","8568","4","10","Male","","","","","","","null","<div style=""font-size:60px;"">+</div>","null","fixation","","","","","","","","","11","","",""
"revaluation","230","1041954","0.0-4.0-4.0-0.6","spark_pilot_norest","8568","4","10","Male","","false","","","","","[732.5999999046326]","./assets/img/ocean/animals/octopus.jpg","[""ArrowRight""]","revaluation","ocean","27","{""ArrowUp,ArrowLeft"":2,""ArrowUp,ArrowRight"":11,""ArrowDown,ArrowLeft"":8,""ArrowDown,ArrowRight"":27}","true","ArrowDown,ArrowRight","","revaluation","1","12","","",""
"html-keyboard-response","231","1042456","0.0-4.0-4.0-1.6","spark_pilot_norest","8568","4","10","Male","","","","","","","null","<div style=""font-size:60px;"">+</div>","null","fixation","","","","","","","","","13","","",""
"revaluation","232","1046461","0.0-4.0-4.0-0.7","spark_pilot_norest","8568","4","10","Male","","false","","","","","[528.1000003814697]","./assets/img/ocean/animals/octopus.jpg","[""ArrowRight""]","revaluation","ocean","27","{""ArrowUp,ArrowLeft"":2,""ArrowUp,ArrowRight"":11,""ArrowDown,ArrowLeft"":8,""ArrowDown,ArrowRight"":27}","true","ArrowDown,ArrowRight","","revaluation","1","14","","",""
"html-keyboard-response","233","1046964","0.0-4.0-4.0-1.7","spark_pilot_norest","8568","4","10","Male","","","","","","","null","<div style=""font-size:60px;"">+</div>","null","fixation","","","","","","","","","15","","",""
"revaluation","234","1050969","0.0-4.0-4.0-0.8","spark_pilot_norest","8568","4","10","Male","","false","","","","","[431.8999996185303]","./assets/img/ocean/animals/seahorse.jpg","[""ArrowRight""]","revaluation","ocean","11","{""ArrowUp,ArrowLeft"":2,""ArrowUp,ArrowRight"":11,""ArrowDown,ArrowLeft"":8,""ArrowDown,ArrowRight"":27}","true","ArrowUp,ArrowRight","","revaluation","1","16","","",""
"html-keyboard-response","235","1051471","0.0-4.0-4.0-1.8","spark_pilot_norest","8568","4","10","Male","","","","","","","null","<div style=""font-size:60px;"">+</div>","null","fixation","","","","","","","","","17","","",""
"revaluation","236","1055477","0.0-4.0-4.0-0.9","spark_pilot_norest","8568","4","10","Male","","false","","","","","[2.700000286102295]","./assets/img/ocean/animals/octopus.jpg","[""ArrowRight""]","revaluation","ocean","27","{""ArrowUp,ArrowLeft"":2,""ArrowUp,ArrowRight"":11,""ArrowDown,ArrowLeft"":8,""ArrowDown,ArrowRight"":27}","true","ArrowDown,ArrowRight","","revaluation","1","18","","",""
"html-keyboard-response","237","1055979","0.0-4.0-4.0-1.9","spark_pilot_norest","8568","4","10","Male","","","","","","","null","<div style=""font-size:60px;"">+</div>","null","fixation","","","","","","","","","19","","",""
"revaluation","238","1059981","0.0-4.0-4.0-0.10","spark_pilot_norest","8568","4","10","Male","","false","","","","","[14.099999904632568]","./assets/img/ocean/animals/octopus.jpg","[""ArrowRight""]","revaluation","ocean","27","{""ArrowUp,ArrowLeft"":2,""ArrowUp,ArrowRight"":11,""ArrowDown,ArrowLeft"":8,""ArrowDown,ArrowRight"":27}","true","ArrowDown,ArrowRight","","revaluation","1","20","","",""
"html-keyboard-response","239","1060482","0.0-4.0-4.0-1.10","spark_pilot_norest","8568","4","10","Male","","","","","","","null","<div style=""font-size:60px;"">+</div>","null","fixation","","","","","","","","","21","","",""
"revaluation","240","1064488","0.0-4.0-4.0-0.11","spark_pilot_norest","8568","4","10","Male","","false","","","","","[28.800000190734863]","./assets/img/ocean/animals/seahorse.jpg","[""ArrowRight""]","revaluation","ocean","11","{""ArrowUp,ArrowLeft"":2,""ArrowUp,ArrowRight"":11,""ArrowDown,ArrowLeft"":8,""ArrowDown,ArrowRight"":27}","true","ArrowUp,ArrowRight","","revaluation","1","22","","",""
"html-keyboard-response","241","1064991","0.0-4.0-4.0-1.11","spark_pilot_norest","8568","4","10","Male","","","","","","","null","<div style=""font-size:60px;"">+</div>","null","fixation","","","","","","","","","23","","",""
"revaluation","242","1068999","0.0-4.0-4.0-0.12","spark_pilot_norest","8568","4","10","Male","","false","","","","","[6.5]","./assets/img/ocean/animals/octopus.jpg","[""ArrowRight""]","revaluation","ocean","27","{""ArrowUp,ArrowLeft"":2,""ArrowUp,ArrowRight"":11,""ArrowDown,ArrowLeft"":8,""ArrowDown,ArrowRight"":27}","true","ArrowDown,ArrowRight","","revaluation","1","24","","",""
"html-keyboard-response","243","1069501","0.0-4.0-4.0-1.12","spark_pilot_norest","8568","4","10","Male","","","","","","","null","<div style=""font-size:60px;"">+</div>","null","fixation","","","","","","","","","25","","",""
"revaluation","244","1073507","0.0-4.0-4.0-0.13","spark_pilot_norest","8568","4","10","Male","","false","","","","","[17.600000381469727]","./assets/img/ocean/animals/seahorse.jpg","[""ArrowRight""]","revaluation","ocean","11","{""ArrowUp,ArrowLeft"":2,""ArrowUp,ArrowRight"":11,""ArrowDown,ArrowLeft"":8,""ArrowDown,ArrowRight"":27}","true","ArrowUp,ArrowRight","","revaluation","1","26","","",""
"html-keyboard-response","245","1074010","0.0-4.0-4.0-1.13","spark_pilot_norest","8568","4","10","Male","","","","","","","null","<div style=""font-size:60px;"">+</div>","null","fixation","","","","","","","","","27","","",""
"revaluation","246","1078017","0.0-4.0-4.0-0.14","spark_pilot_norest","8568","4","10","Male","","false","","","","","[26.200000286102295]","./assets/img/ocean/animals/seahorse.jpg","[""ArrowRight""]","revaluation","ocean","11","{""ArrowUp,ArrowLeft"":2,""ArrowUp,ArrowRight"":11,""ArrowDown,ArrowLeft"":8,""ArrowDown,ArrowRight"":27}","true","ArrowUp,ArrowRight","","revaluation","1","28","","",""
"html-keyboard-response","247","1078520","0.0-4.0-4.0-1.14","spark_pilot_norest","8568","4","10","Male","","","","","","","null","<div style=""font-size:60px;"">+</div>","null","fixation","","","","","","","","","29","","",""
"revaluation","248","1082527","0.0-4.0-4.0-0.15","spark_pilot_norest","8568","4","10","Male","","true","","","","","[]","./assets/img/ocean/animals/seahorse.jpg","[]","revaluation","ocean","-5","{""ArrowUp,ArrowLeft"":2,""ArrowUp,ArrowRight"":11,""ArrowDown,ArrowLeft"":8,""ArrowDown,ArrowRight"":27}","false","ArrowUp","","revaluation","1","30","","",""
"html-keyboard-response","249","1083028","0.0-4.0-4.0-1.15","spark_pilot_norest","8568","4","10","Male","","","","","","","null","<div style=""font-size:60px;"">+</div>","null","fixation","","","","","","","","","31","","",""
"revaluation","250","1087033","0.0-4.0-4.0-0.16","spark_pilot_norest","8568","4","10","Male","","false","","","","","[9.299999713897705]","./assets/img/ocean/animals/octopus.jpg","[""ArrowRight""]","revaluation","ocean","27","{""ArrowUp,ArrowLeft"":2,""ArrowUp,ArrowRight"":11,""ArrowDown,ArrowLeft"":8,""ArrowDown,ArrowRight"":27}","true","ArrowDown,ArrowRight","","revaluation","1","32","","",""
"html-keyboard-response","251","1087534","0.0-4.0-4.0-1.16","spark_pilot_norest","8568","4","10","Male","","","","","","","null","<div style=""font-size:60px;"">+</div>","null","fixation","","","","","","","","","33","","",""
"revaluation","252","1091538","0.0-4.0-4.0-0.17","spark_pilot_norest","8568","4","10","Male","","false","","","","","[23.59999990463257]","./assets/img/ocean/animals/octopus.jpg","[""ArrowRight""]","revaluation","ocean","27","{""ArrowUp,ArrowLeft"":2,""ArrowUp,ArrowRight"":11,""ArrowDown,ArrowLeft"":8,""ArrowDown,ArrowRight"":27}","true","ArrowDown,ArrowRight","","revaluation","1","34","","",""
"html-keyboard-response","253","1092040","0.0-4.0-4.0-1.17","spark_pilot_norest","8568","4","10","Male","","","","","","","null","<div style=""font-size:60px;"">+</div>","null","fixation","","","","","","","","","35","","",""
"learning-instructions","254","1100368","0.0-4.0-5.0-0.0","spark_pilot_norest","8568","4","10","Male","","","","","","","null","<p> You have almost finished this part of the game! </p>
            <p> We are going to ask you to make a few more choices. </p>","","instructions","","","","","","","","","","","",""
"learning-instructions","255","1116343","0.0-4.0-5.0-0.1","spark_pilot_norest","8568","4","10","Male","","","","","","","null","<p> First, you need to decide whether to go up or down. When you see each picture, use the arrow keys to make your choice. </p>
            <p><b>You will not see which animal you found, but try to get to the one that will give you the most treasure.</b></p>","","instructions","","","","","","","","","","","",""
"html-keyboard-response","256","1117348","0.0-4.0-6.0-0.0","spark_pilot_norest","8568","4","10","Male","","","","","","","null","<div style=""font-size:100px;color:red;"">Starting in...</div>","null","","","","","","","","","","","","",""
"html-keyboard-response","257","1118358","0.0-4.0-6.0-1.0","spark_pilot_norest","8568","4","10","Male","","","","","","","null","<div style=""font-size:200px;color:red;"">3</div>","null","","","","","","","","","","","","",""
"html-keyboard-response","258","1119378","0.0-4.0-6.0-2.0","spark_pilot_norest","8568","4","10","Male","","","","","","","null","<div style=""font-size:200px;color:red;"">2</div>","null","","","","","","","","","","","","",""
"html-keyboard-response","259","1120398","0.0-4.0-6.0-3.0","spark_pilot_norest","8568","4","10","Male","","","","","","","null","<div style=""font-size:200px;color:red;"">1</div>","null","","","","","","","","","","","","",""
"revaluation","260","1121852","0.0-4.0-7.0-0.0","spark_pilot_norest","8568","4","10","Male","","false","","","","","[1448.1999998092651]","./assets/img/ocean/test/2.jpg","[""ArrowUp""]","first stage test","ocean","0","{""ArrowUp,ArrowLeft"":2,""ArrowUp,ArrowRight"":11,""ArrowDown,ArrowLeft"":8,""ArrowDown,ArrowRight"":27}","false","ArrowUp","false","revaluation","1","","","",""
"html-keyboard-response","261","1122358","0.0-4.0-7.0-1.0","spark_pilot_norest","8568","4","10","Male","","","","","","","null","<div style=""font-size:60px;"">+</div>","null","fixation","","","","","","","","","","","",""
"revaluation","262","1123212","0.0-4.0-7.0-0.1","spark_pilot_norest","8568","4","10","Male","","false","","","","","[850.5999999046326]","./assets/img/ocean/test/3.jpg","[""ArrowUp""]","first stage test","ocean","0","{""ArrowUp,ArrowLeft"":2,""ArrowUp,ArrowRight"":11,""ArrowDown,ArrowLeft"":8,""ArrowDown,ArrowRight"":27}","false","ArrowUp","false","revaluation","1","","","",""
"html-keyboard-response","263","1123718","0.0-4.0-7.0-1.1","spark_pilot_norest","8568","4","10","Male","","","","","","","null","<div style=""font-size:60px;"">+</div>","null","fixation","","","","","","","","","","","",""
"revaluation","264","1124665","0.0-4.0-7.0-0.2","spark_pilot_norest","8568","4","10","Male","","false","","","","","[941.3999996185303]","./assets/img/ocean/test/0.jpg","[""ArrowDown""]","first stage test","ocean","0","{""ArrowUp,ArrowLeft"":2,""ArrowUp,ArrowRight"":11,""ArrowDown,ArrowLeft"":8,""ArrowDown,ArrowRight"":27}","true","ArrowDown","false","revaluation","1","","","",""
"html-keyboard-response","265","1125168","0.0-4.0-7.0-1.2","spark_pilot_norest","8568","4","10","Male","","","","","","","null","<div style=""font-size:60px;"">+</div>","null","fixation","","","","","","","","","","","",""
"revaluation","266","1125905","0.0-4.0-7.0-0.3","spark_pilot_norest","8568","4","10","Male","","false","","","","","[735.5999999046326]","./assets/img/ocean/test/1.jpg","[""ArrowUp""]","first stage test","ocean","0","{""ArrowUp,ArrowLeft"":2,""ArrowUp,ArrowRight"":11,""ArrowDown,ArrowLeft"":8,""ArrowDown,ArrowRight"":27}","false","ArrowUp","false","revaluation","1","","","",""
"html-keyboard-response","267","1126408","0.0-4.0-7.0-1.3","spark_pilot_norest","8568","4","10","Male","","","","","","","null","<div style=""font-size:60px;"">+</div>","null","fixation","","","","","","","","","","","",""
"learning-instructions","268","1139768","0.0-4.0-8.0-0.0","spark_pilot_norest","8568","4","10","Male","","","","","","","null","<p> Now you will see the animals again and can search their chests for treasure. </p>
            <p> This time, you will not see how much treasure you earned, but you will earn more bonus money for making better choices. </p>","","instructions","","","","","","","","","","","",""
"html-keyboard-response","269","1140787","0.0-4.0-9.0-0.0","spark_pilot_norest","8568","4","10","Male","","","","","","","null","<div style=""font-size:100px;color:red;"">Starting in...</div>","null","","","","","","","","","","","","",""
"html-keyboard-response","270","1141808","0.0-4.0-9.0-1.0","spark_pilot_norest","8568","4","10","Male","","","","","","","null","<div style=""font-size:200px;color:red;"">3</div>","null","","","","","","","","","","","","",""
"html-keyboard-response","271","1142828","0.0-4.0-9.0-2.0","spark_pilot_norest","8568","4","10","Male","","","","","","","null","<div style=""font-size:200px;color:red;"">2</div>","null","","","","","","","","","","","","",""
"html-keyboard-response","272","1143837","0.0-4.0-9.0-3.0","spark_pilot_norest","8568","4","10","Male","","","","","","","null","<div style=""font-size:200px;color:red;"">1</div>","null","","","","","","","","","","","","",""
"revaluation","273","1145355","0.0-4.0-10.0-0.0","spark_pilot_norest","8568","4","10","Male","","false","","","","","[1515.5999999046326]","./assets/img/ocean/animals/seahorse.jpg","[""ArrowRight""]","second stage test","ocean","0","{""ArrowUp,ArrowLeft"":2,""ArrowUp,ArrowRight"":11,""ArrowDown,ArrowLeft"":8,""ArrowDown,ArrowRight"":27}","true","ArrowUp,ArrowRight","","revaluation","1","","","",""
"html-keyboard-response","274","1145858","0.0-4.0-10.0-1.0","spark_pilot_norest","8568","4","10","Male","","","","","","","null","<div style=""font-size:60px;"">+</div>","null","fixation","","","","","","","","","","","",""
"revaluation","275","1147399","0.0-4.0-10.0-0.1","spark_pilot_norest","8568","4","10","Male","","false","","","","","[1539.0999999046326]","./assets/img/ocean/animals/seahorse.jpg","[""ArrowLeft""]","second stage test","ocean","0","{""ArrowUp,ArrowLeft"":2,""ArrowUp,ArrowRight"":11,""ArrowDown,ArrowLeft"":8,""ArrowDown,ArrowRight"":27}","false","ArrowUp,ArrowLeft","","revaluation","1","","","",""
"html-keyboard-response","276","1147918","0.0-4.0-10.0-1.1","spark_pilot_norest","8568","4","10","Male","","","","","","","null","<div style=""font-size:60px;"">+</div>","null","fixation","","","","","","","","","","","",""
"revaluation","277","1148347","0.0-4.0-10.0-0.2","spark_pilot_norest","8568","4","10","Male","","false","","","","","[426.30000019073486]","./assets/img/ocean/animals/seahorse.jpg","[""ArrowRight""]","second stage test","ocean","0","{""ArrowUp,ArrowLeft"":2,""ArrowUp,ArrowRight"":11,""ArrowDown,ArrowLeft"":8,""ArrowDown,ArrowRight"":27}","true","ArrowUp,ArrowRight","","revaluation","1","","","",""
"html-keyboard-response","278","1148858","0.0-4.0-10.0-1.2","spark_pilot_norest","8568","4","10","Male","","","","","","","null","<div style=""font-size:60px;"">+</div>","null","fixation","","","","","","","","","","","",""
"revaluation","279","1149244","0.0-4.0-10.0-0.3","spark_pilot_norest","8568","4","10","Male","","false","","","","","[381.09999990463257]","./assets/img/ocean/animals/seahorse.jpg","[""ArrowRight""]","second stage test","ocean","0","{""ArrowUp,ArrowLeft"":2,""ArrowUp,ArrowRight"":11,""ArrowDown,ArrowLeft"":8,""ArrowDown,ArrowRight"":27}","true","ArrowUp,ArrowRight","","revaluation","1","","","",""
"html-keyboard-response","280","1149748","0.0-4.0-10.0-1.3","spark_pilot_norest","8568","4","10","Male","","","","","","","null","<div style=""font-size:60px;"">+</div>","null","fixation","","","","","","","","","","","",""
"revaluation","281","1150884","0.0-4.0-10.0-0.4","spark_pilot_norest","8568","4","10","Male","","false","","","","","[1131.5999999046326]","./assets/img/ocean/animals/octopus.jpg","[""ArrowRight""]","second stage test","ocean","0","{""ArrowUp,ArrowLeft"":2,""ArrowUp,ArrowRight"":11,""ArrowDown,ArrowLeft"":8,""ArrowDown,ArrowRight"":27}","true","ArrowDown,ArrowRight","","revaluation","1","","","",""
"html-keyboard-response","282","1151388","0.0-4.0-10.0-1.4","spark_pilot_norest","8568","4","10","Male","","","","","","","null","<div style=""font-size:60px;"">+</div>","null","fixation","","","","","","","","","","","",""
"revaluation","283","1151659","0.0-4.0-10.0-0.5","spark_pilot_norest","8568","4","10","Male","","false","","","","","[267.40000009536743]","./assets/img/ocean/animals/octopus.jpg","[""ArrowRight""]","second stage test","ocean","0","{""ArrowUp,ArrowLeft"":2,""ArrowUp,ArrowRight"":11,""ArrowDown,ArrowLeft"":8,""ArrowDown,ArrowRight"":27}","true","ArrowDown,ArrowRight","","revaluation","1","","","",""
"html-keyboard-response","284","1152168","0.0-4.0-10.0-1.5","spark_pilot_norest","8568","4","10","Male","","","","","","","null","<div style=""font-size:60px;"">+</div>","null","fixation","","","","","","","","","","","",""
"revaluation","285","1152464","0.0-4.0-10.0-0.6","spark_pilot_norest","8568","4","10","Male","","false","","","","","[290.69999980926514]","./assets/img/ocean/animals/octopus.jpg","[""ArrowRight""]","second stage test","ocean","0","{""ArrowUp,ArrowLeft"":2,""ArrowUp,ArrowRight"":11,""ArrowDown,ArrowLeft"":8,""ArrowDown,ArrowRight"":27}","true","ArrowDown,ArrowRight","","revaluation","1","","","",""
"html-keyboard-response","286","1152967","0.0-4.0-10.0-1.6","spark_pilot_norest","8568","4","10","Male","","","","","","","null","<div style=""font-size:60px;"">+</div>","null","fixation","","","","","","","","","","","",""
"revaluation","287","1153308","0.0-4.0-10.0-0.7","spark_pilot_norest","8568","4","10","Male","","false","","","","","[338.59999990463257]","./assets/img/ocean/animals/octopus.jpg","[""ArrowLeft""]","second stage test","ocean","0","{""ArrowUp,ArrowLeft"":2,""ArrowUp,ArrowRight"":11,""ArrowDown,ArrowLeft"":8,""ArrowDown,ArrowRight"":27}","false","ArrowDown,ArrowLeft","","revaluation","1","","","",""
"html-keyboard-response","288","1153818","0.0-4.0-10.0-1.7","spark_pilot_norest","8568","4","10","Male","","","","","","","null","<div style=""font-size:60px;"">+</div>","null","fixation","","","","","","","","","","","",""
"learning-instructions","289","1167708","0.0-4.0-0.1-0.2","spark_pilot_norest","8568","4","10","Male","","","","","","","11118.699999809265","<p> This time you are searching for treasure in the <b>canyon</b>.</p>","","instructions","","","","","","","","","","","",""
"learning-instructions","290","1197671","0.0-4.0-0.1-0.3","spark_pilot_norest","8568","4","10","Male","","","","","","","12701","<p><b>New</b> animals with <b>new</b> treasure chests live here. You need to explore to discover where the animal with the best treasure chest is.</p>
                    <p> Like before, once you figure out which animal has the chest with the most treasure, you should try to get to that animal and select that chest! </p>","","instructions","","","","","","","","","","","",""
"learning-instructions","291","1214009","0.0-4.0-1.1-0.1","spark_pilot_norest","8568","4","10","Male","","","","","","","1600.7999997138977","<p> Remember, when you see a picture of the place, use the up and down keys to <b>find an animal</b>.</p>
            <p> When you encounter an animal, you should use the left and right keys to <b>select a treasure chest</b>.</p>
            <p> Don't forget to look out for the robber! </p>","","instructions","","","","","","","","","","","",""
"revaluation","292","1220047","0.0-4.0-2.1-0.50","spark_pilot_norest","8568","4","10","Male","","false","","","","","[801.6999998092651,713.8000001907349]","./assets/img/canyon/memory/7.jpg","[""ArrowUp"",""ArrowRight""]","value training","canyon","10","{""ArrowUp,ArrowLeft"":23,""ArrowUp,ArrowRight"":10,""ArrowDown,ArrowLeft"":8,""ArrowDown,ArrowRight"":30}","false","ArrowUp,ArrowRight","false","original","2","0","","",""
"html-keyboard-response","293","1220567","0.0-4.0-2.1-1.50","spark_pilot_norest","8568","4","10","Male","","","","","","","null","<div style=""font-size:60px;"">+</div>","null","fixation","","","","","","","","","1","","",""
"revaluation","294","1226598","0.0-4.0-2.1-0.51","spark_pilot_norest","8568","4","10","Male","","false","","","","","[515.3000001907349,398.5]","./assets/img/canyon/memory/39.jpg","[""ArrowUp"",""ArrowLeft""]","value training","canyon","23","{""ArrowUp,ArrowLeft"":23,""ArrowUp,ArrowRight"":10,""ArrowDown,ArrowLeft"":8,""ArrowDown,ArrowRight"":30}","false","ArrowUp,ArrowLeft","false","original","2","2","","",""
"html-keyboard-response","295","1227100","0.0-4.0-2.1-1.51","spark_pilot_norest","8568","4","10","Male","","","","","","","null","<div style=""font-size:60px;"">+</div>","null","fixation","","","","","","","","","3","","",""
"revaluation","296","1233128","0.0-4.0-2.1-0.52","spark_pilot_norest","8568","4","10","Male","","false","","","","","[465.19999980926514,681.1999998092651]","./assets/img/canyon/memory/3.jpg","[""ArrowDown"",""ArrowRight""]","value training","canyon","30","{""ArrowUp,ArrowLeft"":23,""ArrowUp,ArrowRight"":10,""ArrowDown,ArrowLeft"":8,""ArrowDown,ArrowRight"":30}","true","ArrowDown,ArrowRight","false","original","2","4","","",""
"html-keyboard-response","297","1233638","0.0-4.0-2.1-1.52","spark_pilot_norest","8568","4","10","Male","","","","","","","null","<div style=""font-size:60px;"">+</div>","null","fixation","","","","","","","","","5","","",""
"revaluation","298","1239670","0.0-4.0-2.1-0.53","spark_pilot_norest","8568","4","10","Male","","false","","","","","[578.6999998092651,549.5]","./assets/img/canyon/memory/1.jpg","[""ArrowDown"",""ArrowLeft""]","value training","canyon","8","{""ArrowUp,ArrowLeft"":23,""ArrowUp,ArrowRight"":10,""ArrowDown,ArrowLeft"":8,""ArrowDown,ArrowRight"":30}","false","ArrowDown,ArrowLeft","false","original","2","6","","",""
"html-keyboard-response","299","1240178","0.0-4.0-2.1-1.53","spark_pilot_norest","8568","4","10","Male","","","","","","","null","<div style=""font-size:60px;"">+</div>","null","fixation","","","","","","","","","7","","",""
"revaluation","300","1246192","0.0-4.0-2.1-0.54","spark_pilot_norest","8568","4","10","Male","","false","","","","","[500.6000003814697,396.59999990463257]","./assets/img/canyon/memory/5.jpg","[""ArrowDown"",""ArrowRight""]","value training","canyon","30","{""ArrowUp,ArrowLeft"":23,""ArrowUp,ArrowRight"":10,""ArrowDown,ArrowLeft"":8,""ArrowDown,ArrowRight"":30}","true","ArrowDown,ArrowRight","false","original","2","8","","",""
"html-keyboard-response","301","1246695","0.0-4.0-2.1-1.54","spark_pilot_norest","8568","4","10","Male","","","","","","","null","<div style=""font-size:60px;"">+</div>","null","fixation","","","","","","","","","9","","",""
"revaluation","302","1252704","0.0-4.0-2.1-0.55","spark_pilot_norest","8568","4","10","Male","","false","","","","","[542.0999999046326,554.5]","./assets/img/canyon/memory/33.jpg","[""ArrowUp"",""ArrowLeft""]","value training","canyon","23","{""ArrowUp,ArrowLeft"":23,""ArrowUp,ArrowRight"":10,""ArrowDown,ArrowLeft"":8,""ArrowDown,ArrowRight"":30}","false","ArrowUp,ArrowLeft","false","original","2","10","","",""
"html-keyboard-response","303","1253206","0.0-4.0-2.1-1.55","spark_pilot_norest","8568","4","10","Male","","","","","","","null","<div style=""font-size:60px;"">+</div>","null","fixation","","","","","","","","","11","","",""
"revaluation","304","1259214","0.0-4.0-2.1-0.56","spark_pilot_norest","8568","4","10","Male","","false","","","","","[1280.9000000953674,491.09999990463257]","./assets/img/canyon/memory/31.jpg","[""ArrowDown"",""ArrowRight""]","value training","canyon","30","{""ArrowUp,ArrowLeft"":23,""ArrowUp,ArrowRight"":10,""ArrowDown,ArrowLeft"":8,""ArrowDown,ArrowRight"":30}","true","ArrowDown,ArrowRight","false","original","2","12","","",""
"html-keyboard-response","305","1259717","0.0-4.0-2.1-1.56","spark_pilot_norest","8568","4","10","Male","","","","","","","null","<div style=""font-size:60px;"">+</div>","null","fixation","","","","","","","","","13","","",""
"revaluation","306","1265724","0.0-4.0-2.1-0.57","spark_pilot_norest","8568","4","10","Male","","false","","","","","[723.3000001907349,1229.9000000953674]","./assets/img/canyon/memory/35.jpg","[""ArrowDown"",""ArrowRight""]","value training","canyon","30","{""ArrowUp,ArrowLeft"":23,""ArrowUp,ArrowRight"":10,""ArrowDown,ArrowLeft"":8,""ArrowDown,ArrowRight"":30}","true","ArrowDown,ArrowRight","false","original","2","14","","",""
"html-keyboard-response","307","1266226","0.0-4.0-2.1-1.57","spark_pilot_norest","8568","4","10","Male","","","","","","","null","<div style=""font-size:60px;"">+</div>","null","fixation","","","","","","","","","15","","",""
"revaluation","308","1270229","0.0-4.0-2.1-0.58","spark_pilot_norest","8568","4","10","Male","","false","","","","","[974]","./assets/img/canyon/catch/0.jpg","[""spaceBar""]","value training","canyon","0","{""ArrowUp,ArrowLeft"":23,""ArrowUp,ArrowRight"":10,""ArrowDown,ArrowLeft"":8,""ArrowDown,ArrowRight"":30}","true","spaceBar","true","original","2","16","","",""
"html-keyboard-response","309","1270732","0.0-4.0-2.1-1.58","spark_pilot_norest","8568","4","10","Male","","","","","","","null","<div style=""font-size:60px;"">+</div>","null","fixation","","","","","","","","","17","","",""
"revaluation","310","1276739","0.0-4.0-2.1-0.59","spark_pilot_norest","8568","4","10","Male","","false","","","","","[1619.1999998092651,682.9000000953674]","./assets/img/canyon/memory/1.jpg","[""ArrowDown"",""ArrowRight""]","value training","canyon","30","{""ArrowUp,ArrowLeft"":23,""ArrowUp,ArrowRight"":10,""ArrowDown,ArrowLeft"":8,""ArrowDown,ArrowRight"":30}","true","ArrowDown,ArrowRight","false","original","2","18","","",""
"html-keyboard-response","311","1277241","0.0-4.0-2.1-1.59","spark_pilot_norest","8568","4","10","Male","","","","","","","null","<div style=""font-size:60px;"">+</div>","null","fixation","","","","","","","","","19","","",""
"revaluation","312","1283248","0.0-4.0-2.1-0.60","spark_pilot_norest","8568","4","10","Male","","false","","","","","[780.4000000953674,916.9000000953674]","./assets/img/canyon/memory/6.jpg","[""ArrowDown"",""ArrowRight""]","value training","canyon","30","{""ArrowUp,ArrowLeft"":23,""ArrowUp,ArrowRight"":10,""ArrowDown,ArrowLeft"":8,""ArrowDown,ArrowRight"":30}","true","ArrowDown,ArrowRight","false","original","2","20","","",""
"html-keyboard-response","313","1283750","0.0-4.0-2.1-1.60","spark_pilot_norest","8568","4","10","Male","","","","","","","null","<div style=""font-size:60px;"">+</div>","null","fixation","","","","","","","","","21","","",""
