"trial_type","trial_index","time_elapsed","internal_node_id","task_version","subject_id","assigned_condition","age","gender","success","timeout","failed_images","failed_audio","failed_video","browser_interaction","rt","stimulus","response","task_part","environment","score","rewardMap","correct","fullState","isCatch","condition","order","trial_num","key_press","ground_truth","bonus"
"pavlovia","0","2447","0.0-0.0","spark_pilot_norest","8388","8","8","Female","","","","","","","","","","","","","","","","","","","","","",""
"preload","1","34195","0.0-1.0","spark_pilot_norest","8388","8","8","Female","true","false","[]","[]","[]","[{""event"":""fullscreenenter"",""trial"":2,""time"":49816},{""event"":""blur"",""trial"":534,""time"":1972018},{""event"":""focus"",""trial"":536,""time"":1990092}]","","","","","","","","","","","","","","","",""
"fullscreen","2","50800","0.0-2.0","spark_pilot_norest","8388","8","8","Female","true","","","","","","","","","","","","","","","","","","","","",""
"audio-button-response","3","62041","0.0-3.0-0.0-0.0","spark_pilot_norest","8388","8","8","Female","","","","","","","11136","./assets/audio/audiotest/turtle.mp3","2","audio_test","","","","","","","","","","","",""
"learning-instructions","4","71995","0.0-3.0-1.0-0.0","spark_pilot_norest","8388","8","8","Female","","","","","","","2952","<p> Welcome! Please remember to stay in fullscreen mode and don't click away from the experiment. </p>","","instructions","","","","","","","","","","","",""
"learning-instructions","5","86861","0.0-3.0-1.0-0.1","spark_pilot_norest","8388","8","8","Female","","","","","","","6431.89999999851","<p> Today you will be playing a game to earn treasure. </p>
            <p> At the end of the experiment, you will earn a bonus based on how much treasure you find. </p>
            <img src='./assets/img/instructions/treasure.jpg' class='instructions-image'>","","instructions","","","","","","","","","","","",""
"learning-instructions","6","97370","0.0-3.0-1.0-0.2","spark_pilot_norest","8388","8","8","Female","","","","","","","2218.1999999955297","<p> Animals have hidden treasure in treasure chests. </p>
            <p> You need to first find an animal and then choose which of their treasure chests to search. </p>
            <img src='./assets/img/space/animals/cat.jpg' class='instructions-image'>","","instructions","","","","","","","","","","","",""
"learning-instructions","7","114312","0.0-3.0-1.0-0.3","spark_pilot_norest","8388","8","8","Female","","","","","","","3750.2000000029802","<p> In each round, you will search for treasure in a different place. In the real game, there will be two rounds. </p>
            <p> You will begin with a separate, practice round where you will search for treasure in outer space. </p>
            <img src='./assets/img/space/0.jpg' class='instructions-image'>","","instructions","","","","","","","","","","","",""
"learning-instructions","8","131271","0.0-3.0-1.0-0.4","spark_pilot_norest","8388","8","8","Female","","","","","","","5507.80000000447","<p> On every turn, you will see a picture of the place that you are in, but the specific image may be different each time. </p>
            <p> For example, both of these images mean you are in outer space. </p>
            <img src='./assets/img/instructions/outerspace.jpg' class='instructions-image'>","","instructions","","","","","","","","","","","",""
"learning-instructions","9","147715","0.0-3.0-1.0-0.5","spark_pilot_norest","8388","8","8","Female","","","","","","","8577.19999999553","<p> You need to decide which direction to travel in. </p>
            <p> You can choose between going <b>up or down</b> by using the arrow keys. </p>
            <img src='./assets/img/instructions/updown.jpg' class='instructions-image'>","","instructions","","","","","","","","","","","",""
"learning-instructions","10","158315","0.0-3.0-1.0-0.6","spark_pilot_norest","8388","8","8","Female","","","","","","","1758.7000000029802","<p> You will have <b>2 seconds</b> to make your choice. </p>
            <p> If you do not make a choice within 2 seconds, you will not find an animal or earn treasure. </p>
            <img src='./assets/img/instructions/2seconds.jpg' class='instructions-image'>","","instructions","","","","","","","","","","","",""
"learning-instructions","11","170182","0.0-3.0-1.0-0.7","spark_pilot_norest","8388","8","8","Female","","","","","","","4803.39999999851","<p> Let’s try practicing that now! </p>
            <p> When you see a picture of the place you are in, press the <b>up</b> key to travel up. </p>
            <img src='./assets/img/instructions/pressUp.jpg' class='instructions-image'>","","instructions","","","","","","","","","","","",""
"revaluation","12","174226","0.0-3.0-2.0-0.0","spark_pilot_norest","8388","8","8","Female","","false","","","","","[607.8999999985099]","./assets/img/space/0.jpg","[""ArrowUp""]","first stage practice","space","0","null","null","ArrowUp","false","","","","","",""
"html-keyboard-response","13","174736","0.0-3.0-2.0-1.0","spark_pilot_norest","8388","8","8","Female","","","","","","","null","<div style=""font-size:60px;"">+</div>","null","fixation","","","","","","","","","","","",""
"revaluation","14","178762","0.0-3.0-2.0-0.1","spark_pilot_norest","8388","8","8","Female","","false","","","","","[1306.2000000029802]","./assets/img/space/1.jpg","[""ArrowUp""]","first stage practice","space","0","null","null","ArrowUp","false","","","","","",""
"html-keyboard-response","15","179272","0.0-3.0-2.0-1.1","spark_pilot_norest","8388","8","8","Female","","","","","","","null","<div style=""font-size:60px;"">+</div>","null","fixation","","","","","","","","","","","",""
"revaluation","16","183297","0.0-3.0-2.0-0.2","spark_pilot_norest","8388","8","8","Female","","false","","","","","[361.80000000447035]","./assets/img/space/2.jpg","[""ArrowUp""]","first stage practice","space","0","null","null","ArrowUp","false","","","","","",""
"html-keyboard-response","17","183800","0.0-3.0-2.0-1.2","spark_pilot_norest","8388","8","8","Female","","","","","","","null","<div style=""font-size:60px;"">+</div>","null","fixation","","","","","","","","","","","",""
"learning-instructions","18","194257","0.0-3.0-3.0-0.0","spark_pilot_norest","8388","8","8","Female","","","","","","","5732","<p> Great job! Now try pressing the <b>down</b> key to travel down. </p>
            <img src='./assets/img/instructions/pressDown.jpg' class='instructions-image'>","","instructions","","","","","","","","","","","",""
"revaluation","19","198273","0.0-3.0-4.0-0.0","spark_pilot_norest","8388","8","8","Female","","false","","","","","[382]","./assets/img/space/3.jpg","[""ArrowDown""]","first stage practice","space","0","null","null","ArrowDown","false","","","","","",""
"html-keyboard-response","20","198776","0.0-3.0-4.0-1.0","spark_pilot_norest","8388","8","8","Female","","","","","","","null","<div style=""font-size:60px;"">+</div>","null","fixation","","","","","","","","","","","",""
"revaluation","21","202792","0.0-3.0-4.0-0.1","spark_pilot_norest","8388","8","8","Female","","false","","","","","[1495.7999999970198]","./assets/img/space/4.jpg","[""ArrowDown""]","first stage practice","space","0","null","null","ArrowDown","false","","","","","",""
"html-keyboard-response","22","203296","0.0-3.0-4.0-1.1","spark_pilot_norest","8388","8","8","Female","","","","","","","null","<div style=""font-size:60px;"">+</div>","null","fixation","","","","","","","","","","","",""
"revaluation","23","207329","0.0-3.0-4.0-0.2","spark_pilot_norest","8388","8","8","Female","","false","","","","","[113.5]","./assets/img/space/5.jpg","[""ArrowDown""]","first stage practice","space","0","null","null","ArrowDown","false","","","","","",""
"html-keyboard-response","24","207832","0.0-3.0-4.0-1.2","spark_pilot_norest","8388","8","8","Female","","","","","","","null","<div style=""font-size:60px;"">+</div>","null","fixation","","","","","","","","","","","",""
"learning-instructions","25","222396","0.0-3.0-5.0-0.0","spark_pilot_norest","8388","8","8","Female","","","","","","","4687.5","<p> The animals don’t move, so the animal in the upper part of a place will stay in the upper part of a place, and the animal in the lower part of a place will stay in the lower part of a place. </p>","","instructions","","","","","","","","","","","",""
"learning-instructions","26","240916","0.0-3.0-5.0-0.1","spark_pilot_norest","8388","8","8","Female","","","","","","","9350.89999999851","<p> Each animal has two treasure chests for you to choose from. </p>
            <p> The amount of treasure in each chest can range from <b> 0 to 40 pieces.</b></p>","","instructions","","","","","","","","","","","",""
"learning-instructions","27","255145","0.0-3.0-5.0-0.2","spark_pilot_norest","8388","8","8","Female","","","","","","","3004","<p> You should decide which chest to search for treasure by using the <b>left</b> and <b>right</b> arrow keys. </p>
            <p><b> Pay attention to which animal is on the screen, as the animals have different treasure chests. </b></p>
            <img src='./assets/img/instructions/leftright.jpg' class='instructions-image'>","","instructions","","","","","","","","","","","",""
"learning-instructions","28","267242","0.0-3.0-5.0-0.3","spark_pilot_norest","8388","8","8","Female","","","","","","","5703.10000000149","<p> Let’s try practicing that now. </p>
            <p> When you see an animal, choose which chest to search for treasure. </p>
            <img src='./assets/img/instructions/chooseChest.jpg' class='instructions-image'>","","instructions","","","","","","","","","","","",""
"revaluation","29","271266","0.0-3.0-6.0-0.0","spark_pilot_norest","8388","8","8","Female","","true","","","","","[]","./assets/img/space/animals/cat.jpg","[]","second stage practice","space","-5","{""ArrowUp,ArrowLeft"":3,""ArrowUp,ArrowRight"":36,""ArrowDown,ArrowLeft"":15,""ArrowDown,ArrowRight"":23}","false","ArrowUp","","","","","","",""
"html-keyboard-response","30","271776","0.0-3.0-6.0-1.0","spark_pilot_norest","8388","8","8","Female","","","","","","","null","<div style=""font-size:60px;"">+</div>","null","fixation","","","","","","","","","","","",""
"revaluation","31","275800","0.0-3.0-6.0-0.1","spark_pilot_norest","8388","8","8","Female","","false","","","","","[814.6999999955297]","./assets/img/space/animals/rabbit.jpg","[""ArrowRight""]","second stage practice","space","23","{""ArrowUp,ArrowLeft"":3,""ArrowUp,ArrowRight"":36,""ArrowDown,ArrowLeft"":15,""ArrowDown,ArrowRight"":23}","true","ArrowDown,ArrowRight","","","","","","",""
"html-keyboard-response","32","276304","0.0-3.0-6.0-1.1","spark_pilot_norest","8388","8","8","Female","","","","","","","null","<div style=""font-size:60px;"">+</div>","null","fixation","","","","","","","","","","","",""
"revaluation","33","280329","0.0-3.0-6.0-0.2","spark_pilot_norest","8388","8","8","Female","","false","","","","","[1320.0999999940395]","./assets/img/space/animals/cat.jpg","[""ArrowLeft""]","second stage practice","space","3","{""ArrowUp,ArrowLeft"":3,""ArrowUp,ArrowRight"":36,""ArrowDown,ArrowLeft"":15,""ArrowDown,ArrowRight"":23}","false","ArrowUp,ArrowLeft","","","","","","",""
"html-keyboard-response","34","280832","0.0-3.0-6.0-1.2","spark_pilot_norest","8388","8","8","Female","","","","","","","null","<div style=""font-size:60px;"">+</div>","null","fixation","","","","","","","","","","","",""
"revaluation","35","284856","0.0-3.0-6.0-0.3","spark_pilot_norest","8388","8","8","Female","","false","","","","","[1213.8999999985099]","./assets/img/space/animals/rabbit.jpg","[""ArrowRight""]","second stage practice","space","23","{""ArrowUp,ArrowLeft"":3,""ArrowUp,ArrowRight"":36,""ArrowDown,ArrowLeft"":15,""ArrowDown,ArrowRight"":23}","true","ArrowDown,ArrowRight","","","","","","",""
"html-keyboard-response","36","285359","0.0-3.0-6.0-1.3","spark_pilot_norest","8388","8","8","Female","","","","","","","null","<div style=""font-size:60px;"">+</div>","null","fixation","","","","","","","","","","","",""
"learning-instructions","37","307335","0.0-3.0-7.0-0.0","spark_pilot_norest","8388","8","8","Female","","","","","","","5115.10000000149","<p> Great job. Now let’s try putting it together. </p>
            <p> On each turn, you will first see a picture to remind you of the place you are in, and you need to choose whether to go up or down. </p>
            <p> Then you will see an animal and choose which of its chests to search for treasure. </p>","","instructions","","","","","","","","","","","",""
"learning-instructions","38","317430","0.0-3.0-7.0-0.1","spark_pilot_norest","8388","8","8","Female","","","","","","","1802.1000000014901","<p> When you choose whether to go up or down, try to go to the animal with the chest with the most treasure. </p>
            <p> Try practicing that now! </p>","","instructions","","","","","","","","","","","",""
"revaluation","39","323457","0.0-3.0-8.0-0.0","spark_pilot_norest","8388","8","8","Female","","true","","","","","[1499]","./assets/img/space/6.jpg","[""ArrowUp""]","full practice","space","-5","{""ArrowUp,ArrowLeft"":3,""ArrowUp,ArrowRight"":36,""ArrowDown,ArrowLeft"":15,""ArrowDown,ArrowRight"":23}","false","ArrowUp","false","","","","","",""
"html-keyboard-response","40","323960","0.0-3.0-8.0-1.0","spark_pilot_norest","8388","8","8","Female","","","","","","","null","<div style=""font-size:60px;"">+</div>","null","fixation","","","","","","","","","","","",""
"revaluation","41","329993","0.0-3.0-8.0-0.1","spark_pilot_norest","8388","8","8","Female","","false","","","","","[1741.8999999985099,1482.7999999970198]","./assets/img/space/7.jpg","[""ArrowDown"",""ArrowRight""]","full practice","space","23","{""ArrowUp,ArrowLeft"":3,""ArrowUp,ArrowRight"":36,""ArrowDown,ArrowLeft"":15,""ArrowDown,ArrowRight"":23}","false","ArrowDown,ArrowRight","false","","","","","",""
"html-keyboard-response","42","330496","0.0-3.0-8.0-1.1","spark_pilot_norest","8388","8","8","Female","","","","","","","null","<div style=""font-size:60px;"">+</div>","null","fixation","","","","","","","","","","","",""
"revaluation","43","336528","0.0-3.0-8.0-0.2","spark_pilot_norest","8388","8","8","Female","","false","","","","","[1041.6000000014901,1017.8000000044703]","./assets/img/space/8.jpg","[""ArrowUp"",""ArrowLeft""]","full practice","space","3","{""ArrowUp,ArrowLeft"":3,""ArrowUp,ArrowRight"":36,""ArrowDown,ArrowLeft"":15,""ArrowDown,ArrowRight"":23}","false","ArrowUp,ArrowLeft","false","","","","","",""
"html-keyboard-response","44","337032","0.0-3.0-8.0-1.2","spark_pilot_norest","8388","8","8","Female","","","","","","","null","<div style=""font-size:60px;"">+</div>","null","fixation","","","","","","","","","","","",""
"revaluation","45","343056","0.0-3.0-8.0-0.3","spark_pilot_norest","8388","8","8","Female","","false","","","","","[1208.4000000059605,663.2000000029802]","./assets/img/space/9.jpg","[""ArrowUp"",""ArrowRight""]","full practice","space","36","{""ArrowUp,ArrowLeft"":3,""ArrowUp,ArrowRight"":36,""ArrowDown,ArrowLeft"":15,""ArrowDown,ArrowRight"":23}","true","ArrowUp,ArrowRight","false","","","","","",""
"html-keyboard-response","46","343559","0.0-3.0-8.0-1.3","spark_pilot_norest","8388","8","8","Female","","","","","","","null","<div style=""font-size:60px;"">+</div>","null","fixation","","","","","","","","","","","",""
"revaluation","47","349600","0.0-3.0-8.0-0.4","spark_pilot_norest","8388","8","8","Female","","false","","","","","[922.8999999985099,455.79999999701977]","./assets/img/space/10.jpg","[""ArrowUp"",""ArrowRight""]","full practice","space","36","{""ArrowUp,ArrowLeft"":3,""ArrowUp,ArrowRight"":36,""ArrowDown,ArrowLeft"":15,""ArrowDown,ArrowRight"":23}","true","ArrowUp,ArrowRight","false","","","","","",""
"html-keyboard-response","48","350104","0.0-3.0-8.0-1.4","spark_pilot_norest","8388","8","8","Female","","","","","","","null","<div style=""font-size:60px;"">+</div>","null","fixation","","","","","","","","","","","",""
"learning-instructions","49","364730","0.0-3.0-9.0-0.0","spark_pilot_norest","8388","8","8","Female","","","","","","","4275.10000000149","<p> One last thing: sometimes, you will see a robber. The robber can be anywhere in the picture. </p>
            <p> If you do not stop them, you will lose treasure. </p>
            <img src='./assets/img/instructions/robber.jpg' class='instructions-image'>","","instructions","","","","","","","","","","","",""
"learning-instructions","50","373611","0.0-3.0-9.0-0.1","spark_pilot_norest","8388","8","8","Female","","","","","","","1690.8999999985099","<p> If you see the robber, you should <b>press the space bar</b> rather than using the arrow keys. </p>
            <p> Try practicing that now! </p>","","instructions","","","","","","","","","","","",""
"revaluation","51","377624","0.0-3.0-10.0-0.0","spark_pilot_norest","8388","8","8","Female","","true","","","","","[]","./assets/img/space/catch/0.jpg","[]","catch practice","space","-5","{""ArrowUp,ArrowLeft"":3,""ArrowUp,ArrowRight"":36,""ArrowDown,ArrowLeft"":15,""ArrowDown,ArrowRight"":23}","false","","true","","","","","",""
"html-keyboard-response","52","378127","0.0-3.0-10.0-1.0","spark_pilot_norest","8388","8","8","Female","","","","","","","null","<div style=""font-size:60px;"">+</div>","null","fixation","","","","","","","","","","","",""
"revaluation","53","382144","0.0-3.0-10.0-0.1","spark_pilot_norest","8388","8","8","Female","","true","","","","","[]","./assets/img/space/catch/1.jpg","[]","catch practice","space","-5","{""ArrowUp,ArrowLeft"":3,""ArrowUp,ArrowRight"":36,""ArrowDown,ArrowLeft"":15,""ArrowDown,ArrowRight"":23}","false","","true","","","","","",""
"html-keyboard-response","54","382647","0.0-3.0-10.0-1.1","spark_pilot_norest","8388","8","8","Female","","","","","","","null","<div style=""font-size:60px;"">+</div>","null","fixation","","","","","","","","","","","",""
"revaluation","55","386672","0.0-3.0-10.0-0.2","spark_pilot_norest","8388","8","8","Female","","false","","","","","[1176.6000000014901]","./assets/img/space/catch/2.jpg","[""spaceBar""]","catch practice","space","0","{""ArrowUp,ArrowLeft"":3,""ArrowUp,ArrowRight"":36,""ArrowDown,ArrowLeft"":15,""ArrowDown,ArrowRight"":23}","true","spaceBar","true","","","","","",""
"html-keyboard-response","56","387175","0.0-3.0-10.0-1.2","spark_pilot_norest","8388","8","8","Female","","","","","","","null","<div style=""font-size:60px;"">+</div>","null","fixation","","","","","","","","","","","",""
"learning-instructions","57","397160","0.0-3.0-11.0-0.0-0.0","spark_pilot_norest","8388","8","8","Female","","","","","","","4695.10000000149","<p> Now, you will practice a shortened version of the game to get a sense of how it all fits together. </p>","","instructions","","","","","","","","","","","",""
"learning-instructions","58","404721","0.0-3.0-11.0-0.0-0.1","spark_pilot_norest","8388","8","8","Female","","","","","","","4352.79999999702","<p>This time you are searching for treasure in outer space.</p>","","instructions","","","","","","","","","","","",""
"learning-instructions","59","427417","0.0-3.0-11.0-1.0-0.0","spark_pilot_norest","8388","8","8","Female","","","","","","","7890.10000000149","<p> Remember, when you see a picture of the place, use the up and down keys to <b>find an animal</b>.</p>
            <p> When you encounter an animal, you should use the left and right keys to <b>select a treasure chest</b>.</p>
            <p> Don't forget to look out for the robber! </p>","","instructions","","","","","","","","","","","",""
"revaluation","60","433448","0.0-3.0-11.0-2.0-0.0","spark_pilot_norest","8388","8","8","Female","","false","","","","","[1621.1000000014901,1086.1999999955297]","./assets/img/space/11.jpg","[""ArrowUp"",""ArrowRight""]","practice block","space","36","{""ArrowUp,ArrowLeft"":3,""ArrowUp,ArrowRight"":36,""ArrowDown,ArrowLeft"":15,""ArrowDown,ArrowRight"":23}","true","ArrowUp,ArrowRight","false","","","","","",""
"html-keyboard-response","61","433951","0.0-3.0-11.0-2.0-1.0","spark_pilot_norest","8388","8","8","Female","","","","","","","null","<div style=""font-size:60px;"">+</div>","null","fixation","","","","","","","","","","","",""
"revaluation","62","439984","0.0-3.0-11.0-2.0-0.1","spark_pilot_norest","8388","8","8","Female","","false","","","","","[732.8999999985099,428.3999999985099]","./assets/img/space/12.jpg","[""ArrowUp"",""ArrowRight""]","practice block","space","36","{""ArrowUp,ArrowLeft"":3,""ArrowUp,ArrowRight"":36,""ArrowDown,ArrowLeft"":15,""ArrowDown,ArrowRight"":23}","true","ArrowUp,ArrowRight","false","","","","","",""
"html-keyboard-response","63","440488","0.0-3.0-11.0-2.0-1.1","spark_pilot_norest","8388","8","8","Female","","","","","","","null","<div style=""font-size:60px;"">+</div>","null","fixation","","","","","","","","","","","",""
"revaluation","64","446521","0.0-3.0-11.0-2.0-0.2","spark_pilot_norest","8388","8","8","Female","","false","","","","","[829.1999999955297,142.69999999552965]","./assets/img/space/13.jpg","[""ArrowUp"",""ArrowRight""]","practice block","space","36","{""ArrowUp,ArrowLeft"":3,""ArrowUp,ArrowRight"":36,""ArrowDown,ArrowLeft"":15,""ArrowDown,ArrowRight"":23}","true","ArrowUp,ArrowRight","false","","","","","",""
"html-keyboard-response","65","447023","0.0-3.0-11.0-2.0-1.2","spark_pilot_norest","8388","8","8","Female","","","","","","","null","<div style=""font-size:60px;"">+</div>","null","fixation","","","","","","","","","","","",""
"revaluation","66","453057","0.0-3.0-11.0-2.0-0.3","spark_pilot_norest","8388","8","8","Female","","false","","","","","[690.8999999985099,471.5]","./assets/img/space/14.jpg","[""ArrowUp"",""ArrowRight""]","practice block","space","36","{""ArrowUp,ArrowLeft"":3,""ArrowUp,ArrowRight"":36,""ArrowDown,ArrowLeft"":15,""ArrowDown,ArrowRight"":23}","true","ArrowUp,ArrowRight","false","","","","","",""
"html-keyboard-response","67","453560","0.0-3.0-11.0-2.0-1.3","spark_pilot_norest","8388","8","8","Female","","","","","","","null","<div style=""font-size:60px;"">+</div>","null","fixation","","","","","","","","","","","",""
"revaluation","68","459593","0.0-3.0-11.0-2.0-0.4","spark_pilot_norest","8388","8","8","Female","","false","","","","","[634.6000000014901,1403.7999999970198]","./assets/img/space/11.jpg","[""ArrowUp"",""ArrowRight""]","practice block","space","36","{""ArrowUp,ArrowLeft"":3,""ArrowUp,ArrowRight"":36,""ArrowDown,ArrowLeft"":15,""ArrowDown,ArrowRight"":23}","true","ArrowUp,ArrowRight","false","","","","","",""
"html-keyboard-response","69","460096","0.0-3.0-11.0-2.0-1.4","spark_pilot_norest","8388","8","8","Female","","","","","","","null","<div style=""font-size:60px;"">+</div>","null","fixation","","","","","","","","","","","",""
"revaluation","70","466136","0.0-3.0-11.0-2.0-0.5","spark_pilot_norest","8388","8","8","Female","","false","","","","","[896.6000000014901,433.80000000447035]","./assets/img/space/12.jpg","[""ArrowUp"",""ArrowRight""]","practice block","space","36","{""ArrowUp,ArrowLeft"":3,""ArrowUp,ArrowRight"":36,""ArrowDown,ArrowLeft"":15,""ArrowDown,ArrowRight"":23}","true","ArrowUp,ArrowRight","false","","","","","",""
"html-keyboard-response","71","466640","0.0-3.0-11.0-2.0-1.5","spark_pilot_norest","8388","8","8","Female","","","","","","","null","<div style=""font-size:60px;"">+</div>","null","fixation","","","","","","","","","","","",""
"revaluation","72","472672","0.0-3.0-11.0-2.0-0.6","spark_pilot_norest","8388","8","8","Female","","false","","","","","[1045.3999999985099,836.6999999955297]","./assets/img/space/13.jpg","[""ArrowUp"",""ArrowRight""]","practice block","space","36","{""ArrowUp,ArrowLeft"":3,""ArrowUp,ArrowRight"":36,""ArrowDown,ArrowLeft"":15,""ArrowDown,ArrowRight"":23}","true","ArrowUp,ArrowRight","false","","","","","",""
"html-keyboard-response","73","473176","0.0-3.0-11.0-2.0-1.6","spark_pilot_norest","8388","8","8","Female","","","","","","","null","<div style=""font-size:60px;"">+</div>","null","fixation","","","","","","","","","","","",""
"revaluation","74","479208","0.0-3.0-11.0-2.0-0.7","spark_pilot_norest","8388","8","8","Female","","false","","","","","[789.0999999940395,312.20000000298023]","./assets/img/space/14.jpg","[""ArrowUp"",""ArrowRight""]","practice block","space","36","{""ArrowUp,ArrowLeft"":3,""ArrowUp,ArrowRight"":36,""ArrowDown,ArrowLeft"":15,""ArrowDown,ArrowRight"":23}","true","ArrowUp,ArrowRight","false","","","","","",""
"html-keyboard-response","75","479711","0.0-3.0-11.0-2.0-1.7","spark_pilot_norest","8388","8","8","Female","","","","","","","null","<div style=""font-size:60px;"">+</div>","null","fixation","","","","","","","","","","","",""
"revaluation","76","483744","0.0-3.0-11.0-2.0-0.8","spark_pilot_norest","8388","8","8","Female","","false","","","","","[740.3999999985099]","./assets/img/space/catch/3.jpg","[""spaceBar""]","practice block","space","0","{""ArrowUp,ArrowLeft"":3,""ArrowUp,ArrowRight"":36,""ArrowDown,ArrowLeft"":15,""ArrowDown,ArrowRight"":23}","true","spaceBar","true","","","","","",""
"html-keyboard-response","77","484256","0.0-3.0-11.0-2.0-1.8","spark_pilot_norest","8388","8","8","Female","","","","","","","null","<div style=""font-size:60px;"">+</div>","null","fixation","","","","","","","","","","","",""
"learning-instructions","78","501337","0.0-3.0-11.0-3.0-0.0","spark_pilot_norest","8388","8","8","Female","","","","","","","4026.2000000029802","<p> Now, you will travel with a friend who will choose whether you go up or down first. </p>
            <p> On these turns, you will just see the animal that they found. You will still get to choose which chest to search for treasure.</p>","","instructions","","","","","","","","","","","",""
"revaluation","79","505361","0.0-3.0-11.0-4.0-0.0","spark_pilot_norest","8388","8","8","Female","","false","","","","","[1512.9000000059605]","./assets/img/space/animals/rabbit.jpg","[""ArrowRight""]","practice block","space","23","{""ArrowUp,ArrowLeft"":3,""ArrowUp,ArrowRight"":36,""ArrowDown,ArrowLeft"":15,""ArrowDown,ArrowRight"":23}","true","ArrowDown,ArrowRight","","","","","","",""
"html-keyboard-response","80","505863","0.0-3.0-11.0-4.0-1.0","spark_pilot_norest","8388","8","8","Female","","","","","","","null","<div style=""font-size:60px;"">+</div>","null","fixation","","","","","","","","","","","",""
"revaluation","81","509881","0.0-3.0-11.0-4.0-0.1","spark_pilot_norest","8388","8","8","Female","","false","","","","","[1063.2999999970198]","./assets/img/space/animals/cat.jpg","[""ArrowRight""]","practice block","space","36","{""ArrowUp,ArrowLeft"":3,""ArrowUp,ArrowRight"":36,""ArrowDown,ArrowLeft"":15,""ArrowDown,ArrowRight"":23}","true","ArrowUp,ArrowRight","","","","","","",""
"html-keyboard-response","82","510392","0.0-3.0-11.0-4.0-1.1","spark_pilot_norest","8388","8","8","Female","","","","","","","null","<div style=""font-size:60px;"">+</div>","null","fixation","","","","","","","","","","","",""
"revaluation","83","514416","0.0-3.0-11.0-4.0-0.2","spark_pilot_norest","8388","8","8","Female","","false","","","","","[626.8999999985099]","./assets/img/space/animals/cat.jpg","[""ArrowRight""]","practice block","space","36","{""ArrowUp,ArrowLeft"":3,""ArrowUp,ArrowRight"":36,""ArrowDown,ArrowLeft"":15,""ArrowDown,ArrowRight"":23}","true","ArrowUp,ArrowRight","","","","","","",""
"html-keyboard-response","84","514919","0.0-3.0-11.0-4.0-1.2","spark_pilot_norest","8388","8","8","Female","","","","","","","null","<div style=""font-size:60px;"">+</div>","null","fixation","","","","","","","","","","","",""
"revaluation","85","518944","0.0-3.0-11.0-4.0-0.3","spark_pilot_norest","8388","8","8","Female","","false","","","","","[656]","./assets/img/space/animals/rabbit.jpg","[""ArrowRight""]","practice block","space","23","{""ArrowUp,ArrowLeft"":3,""ArrowUp,ArrowRight"":36,""ArrowDown,ArrowLeft"":15,""ArrowDown,ArrowRight"":23}","true","ArrowDown,ArrowRight","","","","","","",""
"html-keyboard-response","86","519448","0.0-3.0-11.0-4.0-1.3","spark_pilot_norest","8388","8","8","Female","","","","","","","null","<div style=""font-size:60px;"">+</div>","null","fixation","","","","","","","","","","","",""
"learning-instructions","87","527600","0.0-3.0-11.0-5.0-0.0","spark_pilot_norest","8388","8","8","Female","","","","","","","null","<p> You have almost finished this part of the game! </p>
            <p> We are going to ask you to make a few more choices. </p>","","instructions","","","","","","","","","","","",""
"learning-instructions","88","543655","0.0-3.0-11.0-5.0-0.1","spark_pilot_norest","8388","8","8","Female","","","","","","","null","<p> First, you need to decide whether to go up or down. When you see each picture, use the arrow keys to make your choice. </p>
            <p><b>You will not see which animal you found, but try to get to the one that will give you the most treasure.</b></p>","","instructions","","","","","","","","","","","",""
"html-keyboard-response","89","544664","0.0-3.0-11.0-6.0-0.0","spark_pilot_norest","8388","8","8","Female","","","","","","","null","<div style=""font-size:100px;color:red;"">Starting in...</div>","null","","","","","","","","","","","","",""
"html-keyboard-response","90","545672","0.0-3.0-11.0-6.0-1.0","spark_pilot_norest","8388","8","8","Female","","","","","","","null","<div style=""font-size:200px;color:red;"">3</div>","null","","","","","","","","","","","","",""
"html-keyboard-response","91","546680","0.0-3.0-11.0-6.0-2.0","spark_pilot_norest","8388","8","8","Female","","","","","","","null","<div style=""font-size:200px;color:red;"">2</div>","null","","","","","","","","","","","","",""
"html-keyboard-response","92","547686","0.0-3.0-11.0-6.0-3.0","spark_pilot_norest","8388","8","8","Female","","","","","","","null","<div style=""font-size:200px;color:red;"">1</div>","null","","","","","","","","","","","","",""
"revaluation","93","548789","0.0-3.0-11.0-7.0","spark_pilot_norest","8388","8","8","Female","","false","","","","","[1094.3999999985099]","./assets/img/space/15.jpg","[""ArrowUp""]","practice block","space","0","{""ArrowUp,ArrowLeft"":3,""ArrowUp,ArrowRight"":36,""ArrowDown,ArrowLeft"":15,""ArrowDown,ArrowRight"":23}","true","ArrowUp","false","","","","","",""
"html-keyboard-response","94","549295","0.0-3.0-11.0-8.0","spark_pilot_norest","8388","8","8","Female","","","","","","","null","<div style=""font-size:60px;"">+</div>","null","fixation","","","","","","","","","","","",""
"learning-instructions","95","562712","0.0-3.0-11.0-9.0-0.0","spark_pilot_norest","8388","8","8","Female","","","","","","","null","<p> Now you will see the animals again and can search their chests for treasure. </p>
            <p> This time, you will not see how much treasure you earned, but you will earn more bonus money for making better choices. </p>","","instructions","","","","","","","","","","","",""
"html-keyboard-response","96","563719","0.0-3.0-11.0-10.0-0.0","spark_pilot_norest","8388","8","8","Female","","","","","","","null","<div style=""font-size:100px;color:red;"">Starting in...</div>","null","","","","","","","","","","","","",""
"html-keyboard-response","97","564728","0.0-3.0-11.0-10.0-1.0","spark_pilot_norest","8388","8","8","Female","","","","","","","null","<div style=""font-size:200px;color:red;"">3</div>","null","","","","","","","","","","","","",""
"html-keyboard-response","98","565736","0.0-3.0-11.0-10.0-2.0","spark_pilot_norest","8388","8","8","Female","","","","","","","null","<div style=""font-size:200px;color:red;"">2</div>","null","","","","","","","","","","","","",""
"html-keyboard-response","99","566744","0.0-3.0-11.0-10.0-3.0","spark_pilot_norest","8388","8","8","Female","","","","","","","null","<div style=""font-size:200px;color:red;"">1</div>","null","","","","","","","","","","","","",""
"revaluation","100","567555","0.0-3.0-11.0-11.0-0.0","spark_pilot_norest","8388","8","8","Female","","false","","","","","[798.6000000014901]","./assets/img/space/animals/cat.jpg","[""ArrowRight""]","practice block","space","0","{""ArrowUp,ArrowLeft"":3,""ArrowUp,ArrowRight"":36,""ArrowDown,ArrowLeft"":15,""ArrowDown,ArrowRight"":23}","true","ArrowUp,ArrowRight","","","","","","",""
"html-keyboard-response","101","568063","0.0-3.0-11.0-11.0-1.0","spark_pilot_norest","8388","8","8","Female","","","","","","","null","<div style=""font-size:60px;"">+</div>","null","fixation","","","","","","","","","","","",""
"revaluation","102","568696","0.0-3.0-11.0-11.0-0.1","spark_pilot_norest","8388","8","8","Female","","false","","","","","[621.2000000029802]","./assets/img/space/animals/rabbit.jpg","[""ArrowRight""]","practice block","space","0","{""ArrowUp,ArrowLeft"":3,""ArrowUp,ArrowRight"":36,""ArrowDown,ArrowLeft"":15,""ArrowDown,ArrowRight"":23}","true","ArrowDown,ArrowRight","","","","","","",""
"html-keyboard-response","103","569200","0.0-3.0-11.0-11.0-1.1","spark_pilot_norest","8388","8","8","Female","","","","","","","null","<div style=""font-size:60px;"">+</div>","null","fixation","","","","","","","","","","","",""
"learning-instructions","104","577548","0.0-3.0-12.0-0.0","spark_pilot_norest","8388","8","8","Female","","","","","","","3748.3000000044703","<p> Before you start, we're going to ask you a few questions about how the game works. </p>","","instructions","","","","","","","","","","","",""
"comp-q","105","586646","0.0-3.0-13.0-0.0-0.0","spark_pilot_norest","8388","8","8","Female","","","","","","","3475.7999999970198","<p> <b> True or False? </b> </p>
            <p> There can be 50 pieces of treasure in a given animal's chest. </p>","1","comp_question","","","","true","","","","","","","",""
"comp-q","106","595676","0.0-3.0-13.0-0.0-1.0","spark_pilot_norest","8388","8","8","Female","","","","","","","2354.89999999851","<p> <b> That's right! </b> The amount of treasure in each chest can range from 0 to 40 pieces. </p>","0","comp_answer","","","","","","","","","","","",""
"comp-q","107","605583","0.0-3.0-13.0-0.1-0.1","spark_pilot_norest","8388","8","8","Female","","","","","","","2768","<p> <b> True or False? </b> </p><p> In this game, all animals have the same amount of treasure in their left and right chests. </p>","1","comp_question","","","","true","","","","","","","",""
"comp-q","108","613066","0.0-3.0-13.0-0.1-1.1","spark_pilot_norest","8388","8","8","Female","","","","","","","2230.60000000149","<p> <b> That's right! </b> Animals have different amounts of treasure in their treasure chests. </p>","0","comp_answer","","","","","","","","","","","",""
"comp-q","109","625671","0.0-3.0-13.0-0.2-0.2","spark_pilot_norest","8388","8","8","Female","","","","","","","6739.4000000059605","<p> <b> True or False? </b> </p><p> The same animal will always be there if you go up in the same place. </p>","0","comp_question","","","","true","","","","","","","",""
"comp-q","110","636423","0.0-3.0-13.0-0.2-1.2","spark_pilot_norest","8388","8","8","Female","","","","","","","4287.0999999940395","<p> <b> That's right! </b> One animal lives in the upper part and one lives in the lower part of every place. </p>","0","comp_answer","","","","","","","","","","","",""
"comp-q","111","642964","0.0-3.0-13.0-0.3-0.3","spark_pilot_norest","8388","8","8","Female","","","","","","","993.2000000029802","<p> <b> True or False? </b> </p><p> If you see a different picture, it means you are in a new place. </p>","1","comp_question","","","","true","","","","","","","",""
"comp-q","112","656498","0.0-3.0-13.0-0.3-1.3","spark_pilot_norest","8388","8","8","Female","","","","","","","2280.89999999851","<p> <b> That's right! </b> Lots of different images may show the same place. For example,  you may see three different images that all remind you that you are in outer space. </p>","0","comp_answer","","","","","","","","","","","",""
"learning-instructions","113","672231","0.0-3.0-14.0-0.0","spark_pilot_norest","8388","8","8","Female","","","","","","","5854.39999999851","<p> Good job. Remember to do your best because the amount of treasure you earn will be converted into bonus money. </p>
            <p> It’s time to start the real game! </p>","","instructions","","","","","","","","","","","",""
"learning-instructions","114","675678","0.0-4.0-0.0-0.0","spark_pilot_norest","8388","8","8","Female","","","","","","","662.3999999985099","<p> This time you are searching for treasure in the <b>canyon</b>.</p>","","instructions","","","","","","","","","","","",""
"learning-instructions","115","694021","0.0-4.0-0.0-0.1","spark_pilot_norest","8388","8","8","Female","","","","","","","1010.2999999970198","<p><b>New</b> animals with <b>new</b> treasure chests live here. You need to explore to discover where the animal with the best treasure chest is.</p>
                    <p> Like before, once you figure out which animal has the chest with the most treasure, you should try to get to that animal and select that chest! </p>","","instructions","","","","","","","","","","","",""
"learning-instructions","116","712925","0.0-4.0-1.0-0.0","spark_pilot_norest","8388","8","8","Female","","","","","","","4170.20000000298","<p> Remember, when you see a picture of the place, use the up and down keys to <b>find an animal</b>.</p>
            <p> When you encounter an animal, you should use the left and right keys to <b>select a treasure chest</b>.</p>
            <p> Don't forget to look out for the robber! </p>","","instructions","","","","","","","","","","","",""
"revaluation","117","718952","0.0-4.0-2.0-0.0","spark_pilot_norest","8388","8","8","Female","","false","","","","","[1686.3999999985099,1036.0999999940395]","./assets/img/canyon/memory/11.jpg","[""ArrowUp"",""ArrowRight""]","value training","canyon","10","{""ArrowUp,ArrowLeft"":26,""ArrowUp,ArrowRight"":10,""ArrowDown,ArrowLeft"":5,""ArrowDown,ArrowRight"":17}","false","ArrowUp,ArrowRight","false","revaluation","1","0","","",""
"html-keyboard-response","118","719463","0.0-4.0-2.0-1.0","spark_pilot_norest","8388","8","8","Female","","","","","","","null","<div style=""font-size:60px;"">+</div>","null","fixation","","","","","","","","","1","","",""
"revaluation","119","725488","0.0-4.0-2.0-0.1","spark_pilot_norest","8388","8","8","Female","","false","","","","","[537.6999999955297,771.6999999955297]","./assets/img/canyon/memory/37.jpg","[""ArrowUp"",""ArrowLeft""]","value training","canyon","26","{""ArrowUp,ArrowLeft"":26,""ArrowUp,ArrowRight"":10,""ArrowDown,ArrowLeft"":5,""ArrowDown,ArrowRight"":17}","true","ArrowUp,ArrowLeft","false","revaluation","1","2","","",""
"html-keyboard-response","120","725991","0.0-4.0-2.0-1.1","spark_pilot_norest","8388","8","8","Female","","","","","","","null","<div style=""font-size:60px;"">+</div>","null","fixation","","","","","","","","","3","","",""
"revaluation","121","732017","0.0-4.0-2.0-0.2","spark_pilot_norest","8388","8","8","Female","","false","","","","","[1007.0999999940395,967]","./assets/img/canyon/memory/15.jpg","[""ArrowDown"",""ArrowLeft""]","value training","canyon","5","{""ArrowUp,ArrowLeft"":26,""ArrowUp,ArrowRight"":10,""ArrowDown,ArrowLeft"":5,""ArrowDown,ArrowRight"":17}","false","ArrowDown,ArrowLeft","false","revaluation","1","4","","",""
"html-keyboard-response","122","732519","0.0-4.0-2.0-1.2","spark_pilot_norest","8388","8","8","Female","","","","","","","null","<div style=""font-size:60px;"">+</div>","null","fixation","","","","","","","","","5","","",""
"revaluation","123","738544","0.0-4.0-2.0-0.3","spark_pilot_norest","8388","8","8","Female","","false","","","","","[1323.6000000014901,921.8999999985099]","./assets/img/canyon/memory/9.jpg","[""ArrowDown"",""ArrowRight""]","value training","canyon","17","{""ArrowUp,ArrowLeft"":26,""ArrowUp,ArrowRight"":10,""ArrowDown,ArrowLeft"":5,""ArrowDown,ArrowRight"":17}","false","ArrowDown,ArrowRight","false","revaluation","1","6","","",""
"html-keyboard-response","124","739048","0.0-4.0-2.0-1.3","spark_pilot_norest","8388","8","8","Female","","","","","","","null","<div style=""font-size:60px;"">+</div>","null","fixation","","","","","","","","","7","","",""
"revaluation","125","745089","0.0-4.0-2.0-0.4","spark_pilot_norest","8388","8","8","Female","","false","","","","","[617.2999999970198,472.3999999985099]","./assets/img/canyon/memory/31.jpg","[""ArrowUp"",""ArrowLeft""]","value training","canyon","26","{""ArrowUp,ArrowLeft"":26,""ArrowUp,ArrowRight"":10,""ArrowDown,ArrowLeft"":5,""ArrowDown,ArrowRight"":17}","true","ArrowUp,ArrowLeft","false","revaluation","1","8","","",""
"html-keyboard-response","126","745600","0.0-4.0-2.0-1.4","spark_pilot_norest","8388","8","8","Female","","","","","","","null","<div style=""font-size:60px;"">+</div>","null","fixation","","","","","","","","","9","","",""
"revaluation","127","751633","0.0-4.0-2.0-0.5","spark_pilot_norest","8388","8","8","Female","","false","","","","","[476.5,518.2999999970198]","./assets/img/canyon/memory/33.jpg","[""ArrowUp"",""ArrowLeft""]","value training","canyon","26","{""ArrowUp,ArrowLeft"":26,""ArrowUp,ArrowRight"":10,""ArrowDown,ArrowLeft"":5,""ArrowDown,ArrowRight"":17}","true","ArrowUp,ArrowLeft","false","revaluation","1","10","","",""
"html-keyboard-response","128","752144","0.0-4.0-2.0-1.5","spark_pilot_norest","8388","8","8","Female","","","","","","","null","<div style=""font-size:60px;"">+</div>","null","fixation","","","","","","","","","11","","",""
"revaluation","129","758184","0.0-4.0-2.0-0.6","spark_pilot_norest","8388","8","8","Female","","false","","","","","[521.5,662.3999999985099]","./assets/img/canyon/memory/31.jpg","[""ArrowUp"",""ArrowLeft""]","value training","canyon","26","{""ArrowUp,ArrowLeft"":26,""ArrowUp,ArrowRight"":10,""ArrowDown,ArrowLeft"":5,""ArrowDown,ArrowRight"":17}","true","ArrowUp,ArrowLeft","false","revaluation","1","12","","",""
"html-keyboard-response","130","758688","0.0-4.0-2.0-1.6","spark_pilot_norest","8388","8","8","Female","","","","","","","null","<div style=""font-size:60px;"">+</div>","null","fixation","","","","","","","","","13","","",""
"revaluation","131","764729","0.0-4.0-2.0-0.7","spark_pilot_norest","8388","8","8","Female","","false","","","","","[522.7999999970198,356.70000000298023]","./assets/img/canyon/memory/27.jpg","[""ArrowUp"",""ArrowLeft""]","value training","canyon","26","{""ArrowUp,ArrowLeft"":26,""ArrowUp,ArrowRight"":10,""ArrowDown,ArrowLeft"":5,""ArrowDown,ArrowRight"":17}","true","ArrowUp,ArrowLeft","false","revaluation","1","14","","",""
"html-keyboard-response","132","765240","0.0-4.0-2.0-1.7","spark_pilot_norest","8388","8","8","Female","","","","","","","null","<div style=""font-size:60px;"">+</div>","null","fixation","","","","","","","","","15","","",""
"revaluation","133","771273","0.0-4.0-2.0-0.8","spark_pilot_norest","8388","8","8","Female","","false","","","","","[911.1999999955297,529.7999999970198]","./assets/img/canyon/memory/25.jpg","[""ArrowUp"",""ArrowLeft""]","value training","canyon","26","{""ArrowUp,ArrowLeft"":26,""ArrowUp,ArrowRight"":10,""ArrowDown,ArrowLeft"":5,""ArrowDown,ArrowRight"":17}","true","ArrowUp,ArrowLeft","false","revaluation","1","16","","",""
"html-keyboard-response","134","771784","0.0-4.0-2.0-1.8","spark_pilot_norest","8388","8","8","Female","","","","","","","null","<div style=""font-size:60px;"">+</div>","null","fixation","","","","","","","","","17","","",""
"revaluation","135","777825","0.0-4.0-2.0-0.9","spark_pilot_norest","8388","8","8","Female","","false","","","","","[570.2000000029802,560.1000000014901]","./assets/img/canyon/memory/5.jpg","[""ArrowUp"",""ArrowLeft""]","value training","canyon","26","{""ArrowUp,ArrowLeft"":26,""ArrowUp,ArrowRight"":10,""ArrowDown,ArrowLeft"":5,""ArrowDown,ArrowRight"":17}","true","ArrowUp,ArrowLeft","false","revaluation","1","18","","",""
"html-keyboard-response","136","778336","0.0-4.0-2.0-1.9","spark_pilot_norest","8388","8","8","Female","","","","","","","null","<div style=""font-size:60px;"">+</div>","null","fixation","","","","","","","","","19","","",""
"revaluation","137","784376","0.0-4.0-2.0-0.10","spark_pilot_norest","8388","8","8","Female","","false","","","","","[730.6999999955297,697.8999999985099]","./assets/img/canyon/memory/5.jpg","[""ArrowUp"",""ArrowLeft""]","value training","canyon","26","{""ArrowUp,ArrowLeft"":26,""ArrowUp,ArrowRight"":10,""ArrowDown,ArrowLeft"":5,""ArrowDown,ArrowRight"":17}","true","ArrowUp,ArrowLeft","false","revaluation","1","20","","",""
"html-keyboard-response","138","784880","0.0-4.0-2.0-1.10","spark_pilot_norest","8388","8","8","Female","","","","","","","null","<div style=""font-size:60px;"">+</div>","null","fixation","","","","","","","","","21","","",""
"revaluation","139","790921","0.0-4.0-2.0-0.11","spark_pilot_norest","8388","8","8","Female","","false","","","","","[890.7000000029802,530.7999999970198]","./assets/img/canyon/memory/36.jpg","[""ArrowUp"",""ArrowLeft""]","value training","canyon","26","{""ArrowUp,ArrowLeft"":26,""ArrowUp,ArrowRight"":10,""ArrowDown,ArrowLeft"":5,""ArrowDown,ArrowRight"":17}","true","ArrowUp,ArrowLeft","false","revaluation","1","22","","",""
"html-keyboard-response","140","791432","0.0-4.0-2.0-1.11","spark_pilot_norest","8388","8","8","Female","","","","","","","null","<div style=""font-size:60px;"">+</div>","null","fixation","","","","","","","","","23","","",""
"revaluation","141","795456","0.0-4.0-2.0-0.12","spark_pilot_norest","8388","8","8","Female","","false","","","","","[510.79999999701977]","./assets/img/canyon/catch/2.jpg","[""ArrowUp""]","value training","canyon","-10","{""ArrowUp,ArrowLeft"":26,""ArrowUp,ArrowRight"":10,""ArrowDown,ArrowLeft"":5,""ArrowDown,ArrowRight"":17}","false","ArrowUp","true","revaluation","1","24","","",""
"html-keyboard-response","142","795960","0.0-4.0-2.0-1.12","spark_pilot_norest","8388","8","8","Female","","","","","","","null","<div style=""font-size:60px;"">+</div>","null","fixation","","","","","","","","","25","","",""
"revaluation","143","799985","0.0-4.0-2.0-0.13","spark_pilot_norest","8388","8","8","Female","","false","","","","","[791]","./assets/img/canyon/catch/6.jpg","[""spaceBar""]","value training","canyon","0","{""ArrowUp,ArrowLeft"":26,""ArrowUp,ArrowRight"":10,""ArrowDown,ArrowLeft"":5,""ArrowDown,ArrowRight"":17}","true","spaceBar","true","revaluation","1","26","","",""
"html-keyboard-response","144","800496","0.0-4.0-2.0-1.13","spark_pilot_norest","8388","8","8","Female","","","","","","","null","<div style=""font-size:60px;"">+</div>","null","fixation","","","","","","","","","27","","",""
"revaluation","145","806536","0.0-4.0-2.0-0.14","spark_pilot_norest","8388","8","8","Female","","false","","","","","[1018.6000000014901,643.1000000014901]","./assets/img/canyon/memory/27.jpg","[""ArrowUp"",""ArrowLeft""]","value training","canyon","26","{""ArrowUp,ArrowLeft"":26,""ArrowUp,ArrowRight"":10,""ArrowDown,ArrowLeft"":5,""ArrowDown,ArrowRight"":17}","true","ArrowUp,ArrowLeft","false","revaluation","1","28","","",""
"html-keyboard-response","146","807039","0.0-4.0-2.0-1.14","spark_pilot_norest","8388","8","8","Female","","","","","","","null","<div style=""font-size:60px;"">+</div>","null","fixation","","","","","","","","","29","","",""
"revaluation","147","811072","0.0-4.0-2.0-0.15","spark_pilot_norest","8388","8","8","Female","","false","","","","","[692.1000000014901]","./assets/img/canyon/catch/7.jpg","[""spaceBar""]","value training","canyon","0","{""ArrowUp,ArrowLeft"":26,""ArrowUp,ArrowRight"":10,""ArrowDown,ArrowLeft"":5,""ArrowDown,ArrowRight"":17}","true","spaceBar","true","revaluation","1","30","","",""
"html-keyboard-response","148","811576","0.0-4.0-2.0-1.15","spark_pilot_norest","8388","8","8","Female","","","","","","","null","<div style=""font-size:60px;"">+</div>","null","fixation","","","","","","","","","31","","",""
"revaluation","149","817609","0.0-4.0-2.0-0.16","spark_pilot_norest","8388","8","8","Female","","false","","","","","[973.6000000014901,1036.1999999955297]","./assets/img/canyon/memory/1.jpg","[""ArrowUp"",""ArrowLeft""]","value training","canyon","26","{""ArrowUp,ArrowLeft"":26,""ArrowUp,ArrowRight"":10,""ArrowDown,ArrowLeft"":5,""ArrowDown,ArrowRight"":17}","true","ArrowUp,ArrowLeft","false","revaluation","1","32","","",""
"html-keyboard-response","150","818120","0.0-4.0-2.0-1.16","spark_pilot_norest","8388","8","8","Female","","","","","","","null","<div style=""font-size:60px;"">+</div>","null","fixation","","","","","","","","","33","","",""
"revaluation","151","822152","0.0-4.0-2.0-0.17","spark_pilot_norest","8388","8","8","Female","","false","","","","","[1487.1000000014901]","./assets/img/canyon/catch/5.jpg","[""spaceBar""]","value training","canyon","0","{""ArrowUp,ArrowLeft"":26,""ArrowUp,ArrowRight"":10,""ArrowDown,ArrowLeft"":5,""ArrowDown,ArrowRight"":17}","true","spaceBar","true","revaluation","1","34","","",""
"html-keyboard-response","152","822664","0.0-4.0-2.0-1.17","spark_pilot_norest","8388","8","8","Female","","","","","","","null","<div style=""font-size:60px;"">+</div>","null","fixation","","","","","","","","","35","","",""
"revaluation","153","828705","0.0-4.0-2.0-0.18","spark_pilot_norest","8388","8","8","Female","","false","","","","","[1071.7999999970198,471.29999999701977]","./assets/img/canyon/memory/38.jpg","[""ArrowUp"",""ArrowLeft""]","value training","canyon","26","{""ArrowUp,ArrowLeft"":26,""ArrowUp,ArrowRight"":10,""ArrowDown,ArrowLeft"":5,""ArrowDown,ArrowRight"":17}","true","ArrowUp,ArrowLeft","false","revaluation","1","36","","",""
"html-keyboard-response","154","829215","0.0-4.0-2.0-1.18","spark_pilot_norest","8388","8","8","Female","","","","","","","null","<div style=""font-size:60px;"">+</div>","null","fixation","","","","","","","","","37","","",""
"revaluation","155","835249","0.0-4.0-2.0-0.19","spark_pilot_norest","8388","8","8","Female","","false","","","","","[806,711.8999999985099]","./assets/img/canyon/memory/3.jpg","[""ArrowUp"",""ArrowLeft""]","value training","canyon","26","{""ArrowUp,ArrowLeft"":26,""ArrowUp,ArrowRight"":10,""ArrowDown,ArrowLeft"":5,""ArrowDown,ArrowRight"":17}","true","ArrowUp,ArrowLeft","false","revaluation","1","38","","",""
"html-keyboard-response","156","835752","0.0-4.0-2.0-1.19","spark_pilot_norest","8388","8","8","Female","","","","","","","null","<div style=""font-size:60px;"">+</div>","null","fixation","","","","","","","","","39","","",""
"revaluation","157","841785","0.0-4.0-2.0-0.20","spark_pilot_norest","8388","8","8","Female","","false","","","","","[911.1999999955297,834.6999999955297]","./assets/img/canyon/memory/6.jpg","[""ArrowUp"",""ArrowLeft""]","value training","canyon","26","{""ArrowUp,ArrowLeft"":26,""ArrowUp,ArrowRight"":10,""ArrowDown,ArrowLeft"":5,""ArrowDown,ArrowRight"":17}","true","ArrowUp,ArrowLeft","false","revaluation","1","40","","",""
"html-keyboard-response","158","842287","0.0-4.0-2.0-1.20","spark_pilot_norest","8388","8","8","Female","","","","","","","null","<div style=""font-size:60px;"">+</div>","null","fixation","","","","","","","","","41","","",""
"revaluation","159","846305","0.0-4.0-2.0-0.21","spark_pilot_norest","8388","8","8","Female","","false","","","","","[812.3000000044703]","./assets/img/canyon/catch/3.jpg","[""spaceBar""]","value training","canyon","0","{""ArrowUp,ArrowLeft"":26,""ArrowUp,ArrowRight"":10,""ArrowDown,ArrowLeft"":5,""ArrowDown,ArrowRight"":17}","true","spaceBar","true","revaluation","1","42","","",""
"html-keyboard-response","160","846816","0.0-4.0-2.0-1.21","spark_pilot_norest","8388","8","8","Female","","","","","","","null","<div style=""font-size:60px;"">+</div>","null","fixation","","","","","","","","","43","","",""
"revaluation","161","852856","0.0-4.0-2.0-0.22","spark_pilot_norest","8388","8","8","Female","","false","","","","","[800.6000000014901,560.7999999970198]","./assets/img/canyon/memory/37.jpg","[""ArrowUp"",""ArrowLeft""]","value training","canyon","26","{""ArrowUp,ArrowLeft"":26,""ArrowUp,ArrowRight"":10,""ArrowDown,ArrowLeft"":5,""ArrowDown,ArrowRight"":17}","true","ArrowUp,ArrowLeft","false","revaluation","1","44","","",""
"html-keyboard-response","162","853360","0.0-4.0-2.0-1.22","spark_pilot_norest","8388","8","8","Female","","","","","","","null","<div style=""font-size:60px;"">+</div>","null","fixation","","","","","","","","","45","","",""
"revaluation","163","859384","0.0-4.0-2.0-0.23","spark_pilot_norest","8388","8","8","Female","","false","","","","","[725,447.6000000014901]","./assets/img/canyon/memory/24.jpg","[""ArrowUp"",""ArrowLeft""]","value training","canyon","26","{""ArrowUp,ArrowLeft"":26,""ArrowUp,ArrowRight"":10,""ArrowDown,ArrowLeft"":5,""ArrowDown,ArrowRight"":17}","true","ArrowUp,ArrowLeft","false","revaluation","1","46","","",""
"html-keyboard-response","164","859888","0.0-4.0-2.0-1.23","spark_pilot_norest","8388","8","8","Female","","","","","","","null","<div style=""font-size:60px;"">+</div>","null","fixation","","","","","","","","","47","","",""
"revaluation","165","865920","0.0-4.0-2.0-0.24","spark_pilot_norest","8388","8","8","Female","","false","","","","","[681.7000000029802,342]","./assets/img/canyon/memory/12.jpg","[""ArrowUp"",""ArrowLeft""]","value training","canyon","26","{""ArrowUp,ArrowLeft"":26,""ArrowUp,ArrowRight"":10,""ArrowDown,ArrowLeft"":5,""ArrowDown,ArrowRight"":17}","true","ArrowUp,ArrowLeft","false","revaluation","1","48","","",""
"html-keyboard-response","166","866424","0.0-4.0-2.0-1.24","spark_pilot_norest","8388","8","8","Female","","","","","","","null","<div style=""font-size:60px;"">+</div>","null","fixation","","","","","","","","","49","","",""
"revaluation","167","872465","0.0-4.0-2.0-0.25","spark_pilot_norest","8388","8","8","Female","","false","","","","","[911.1999999955297,862.6000000014901]","./assets/img/canyon/memory/39.jpg","[""ArrowUp"",""ArrowLeft""]","value training","canyon","26","{""ArrowUp,ArrowLeft"":26,""ArrowUp,ArrowRight"":10,""ArrowDown,ArrowLeft"":5,""ArrowDown,ArrowRight"":17}","true","ArrowUp,ArrowLeft","false","revaluation","1","50","","",""
"html-keyboard-response","168","872976","0.0-4.0-2.0-1.25","spark_pilot_norest","8388","8","8","Female","","","","","","","null","<div style=""font-size:60px;"">+</div>","null","fixation","","","","","","","","","51","","",""
"revaluation","169","879000","0.0-4.0-2.0-0.26","spark_pilot_norest","8388","8","8","Female","","false","","","","","[1183.8000000044703,586]","./assets/img/canyon/memory/10.jpg","[""ArrowUp"",""ArrowLeft""]","value training","canyon","26","{""ArrowUp,ArrowLeft"":26,""ArrowUp,ArrowRight"":10,""ArrowDown,ArrowLeft"":5,""ArrowDown,ArrowRight"":17}","true","ArrowUp,ArrowLeft","false","revaluation","1","52","","",""
"html-keyboard-response","170","879504","0.0-4.0-2.0-1.26","spark_pilot_norest","8388","8","8","Female","","","","","","","null","<div style=""font-size:60px;"">+</div>","null","fixation","","","","","","","","","53","","",""
"revaluation","171","885537","0.0-4.0-2.0-0.27","spark_pilot_norest","8388","8","8","Female","","false","","","","","[773.6999999955297,871.1000000014901]","./assets/img/canyon/memory/8.jpg","[""ArrowUp"",""ArrowLeft""]","value training","canyon","26","{""ArrowUp,ArrowLeft"":26,""ArrowUp,ArrowRight"":10,""ArrowDown,ArrowLeft"":5,""ArrowDown,ArrowRight"":17}","true","ArrowUp,ArrowLeft","false","revaluation","1","54","","",""
"html-keyboard-response","172","886048","0.0-4.0-2.0-1.27","spark_pilot_norest","8388","8","8","Female","","","","","","","null","<div style=""font-size:60px;"">+</div>","null","fixation","","","","","","","","","55","","",""
"revaluation","173","892089","0.0-4.0-2.0-0.28","spark_pilot_norest","8388","8","8","Female","","false","","","","","[704.9000000059605,1427.1999999955297]","./assets/img/canyon/memory/25.jpg","[""ArrowDown"",""ArrowLeft""]","value training","canyon","5","{""ArrowUp,ArrowLeft"":26,""ArrowUp,ArrowRight"":10,""ArrowDown,ArrowLeft"":5,""ArrowDown,ArrowRight"":17}","false","ArrowDown,ArrowLeft","false","revaluation","1","56","","",""
"html-keyboard-response","174","892600","0.0-4.0-2.0-1.28","spark_pilot_norest","8388","8","8","Female","","","","","","","null","<div style=""font-size:60px;"">+</div>","null","fixation","","","","","","","","","57","","",""
"revaluation","175","896625","0.0-4.0-2.0-0.29","spark_pilot_norest","8388","8","8","Female","","false","","","","","[1567.5999999940395]","./assets/img/canyon/catch/1.jpg","[""spaceBar""]","value training","canyon","0","{""ArrowUp,ArrowLeft"":26,""ArrowUp,ArrowRight"":10,""ArrowDown,ArrowLeft"":5,""ArrowDown,ArrowRight"":17}","true","spaceBar","true","revaluation","1","58","","",""
"html-keyboard-response","176","897136","0.0-4.0-2.0-1.29","spark_pilot_norest","8388","8","8","Female","","","","","","","null","<div style=""font-size:60px;"">+</div>","null","fixation","","","","","","","","","59","","",""
"revaluation","177","903169","0.0-4.0-2.0-0.30","spark_pilot_norest","8388","8","8","Female","","false","","","","","[783,1342.1999999955297]","./assets/img/canyon/memory/1.jpg","[""ArrowUp"",""ArrowLeft""]","value training","canyon","26","{""ArrowUp,ArrowLeft"":26,""ArrowUp,ArrowRight"":10,""ArrowDown,ArrowLeft"":5,""ArrowDown,ArrowRight"":17}","true","ArrowUp,ArrowLeft","false","revaluation","1","60","","",""
"html-keyboard-response","178","903672","0.0-4.0-2.0-1.30","spark_pilot_norest","8388","8","8","Female","","","","","","","null","<div style=""font-size:60px;"">+</div>","null","fixation","","","","","","","","","61","","",""
"revaluation","179","909705","0.0-4.0-2.0-0.31","spark_pilot_norest","8388","8","8","Female","","true","","","","","[1389.2000000029802]","./assets/img/canyon/memory/19.jpg","[""ArrowUp""]","value training","canyon","-5","{""ArrowUp,ArrowLeft"":26,""ArrowUp,ArrowRight"":10,""ArrowDown,ArrowLeft"":5,""ArrowDown,ArrowRight"":17}","false","ArrowUp","false","revaluation","1","62","","",""
"html-keyboard-response","180","910216","0.0-4.0-2.0-1.31","spark_pilot_norest","8388","8","8","Female","","","","","","","null","<div style=""font-size:60px;"">+</div>","null","fixation","","","","","","","","","63","","",""
"revaluation","181","916248","0.0-4.0-2.0-0.32","spark_pilot_norest","8388","8","8","Female","","false","","","","","[1221.8999999985099,610.1000000014901]","./assets/img/canyon/memory/39.jpg","[""ArrowUp"",""ArrowLeft""]","value training","canyon","26","{""ArrowUp,ArrowLeft"":26,""ArrowUp,ArrowRight"":10,""ArrowDown,ArrowLeft"":5,""ArrowDown,ArrowRight"":17}","true","ArrowUp,ArrowLeft","false","revaluation","1","64","","",""
"html-keyboard-response","182","916752","0.0-4.0-2.0-1.32","spark_pilot_norest","8388","8","8","Female","","","","","","","null","<div style=""font-size:60px;"">+</div>","null","fixation","","","","","","","","","65","","",""
"revaluation","183","922785","0.0-4.0-2.0-0.33","spark_pilot_norest","8388","8","8","Female","","false","","","","","[961.7999999970198,827.5]","./assets/img/canyon/memory/24.jpg","[""ArrowUp"",""ArrowLeft""]","value training","canyon","26","{""ArrowUp,ArrowLeft"":26,""ArrowUp,ArrowRight"":10,""ArrowDown,ArrowLeft"":5,""ArrowDown,ArrowRight"":17}","true","ArrowUp,ArrowLeft","false","revaluation","1","66","","",""
"html-keyboard-response","184","923296","0.0-4.0-2.0-1.33","spark_pilot_norest","8388","8","8","Female","","","","","","","null","<div style=""font-size:60px;"">+</div>","null","fixation","","","","","","","","","67","","",""
"revaluation","185","929328","0.0-4.0-2.0-0.34","spark_pilot_norest","8388","8","8","Female","","false","","","","","[824.1000000014901,889.8999999985099]","./assets/img/canyon/memory/10.jpg","[""ArrowUp"",""ArrowLeft""]","value training","canyon","26","{""ArrowUp,ArrowLeft"":26,""ArrowUp,ArrowRight"":10,""ArrowDown,ArrowLeft"":5,""ArrowDown,ArrowRight"":17}","true","ArrowUp,ArrowLeft","false","revaluation","1","68","","",""
"html-keyboard-response","186","929832","0.0-4.0-2.0-1.34","spark_pilot_norest","8388","8","8","Female","","","","","","","null","<div style=""font-size:60px;"">+</div>","null","fixation","","","","","","","","","69","","",""
"revaluation","187","935855","0.0-4.0-2.0-0.35","spark_pilot_norest","8388","8","8","Female","","false","","","","","[688,626.5]","./assets/img/canyon/memory/11.jpg","[""ArrowUp"",""ArrowLeft""]","value training","canyon","26","{""ArrowUp,ArrowLeft"":26,""ArrowUp,ArrowRight"":10,""ArrowDown,ArrowLeft"":5,""ArrowDown,ArrowRight"":17}","true","ArrowUp,ArrowLeft","false","revaluation","1","70","","",""
"html-keyboard-response","188","936360","0.0-4.0-2.0-1.35","spark_pilot_norest","8388","8","8","Female","","","","","","","null","<div style=""font-size:60px;"">+</div>","null","fixation","","","","","","","","","71","","",""
"revaluation","189","942393","0.0-4.0-2.0-0.36","spark_pilot_norest","8388","8","8","Female","","false","","","","","[989.5,1030.2000000029802]","./assets/img/canyon/memory/0.jpg","[""ArrowUp"",""ArrowLeft""]","value training","canyon","26","{""ArrowUp,ArrowLeft"":26,""ArrowUp,ArrowRight"":10,""ArrowDown,ArrowLeft"":5,""ArrowDown,ArrowRight"":17}","true","ArrowUp,ArrowLeft","false","revaluation","1","72","","",""
"html-keyboard-response","190","942895","0.0-4.0-2.0-1.36","spark_pilot_norest","8388","8","8","Female","","","","","","","null","<div style=""font-size:60px;"">+</div>","null","fixation","","","","","","","","","73","","",""
"revaluation","191","948920","0.0-4.0-2.0-0.37","spark_pilot_norest","8388","8","8","Female","","false","","","","","[725.7999999970198,920.8000000044703]","./assets/img/canyon/memory/38.jpg","[""ArrowUp"",""ArrowLeft""]","value training","canyon","26","{""ArrowUp,ArrowLeft"":26,""ArrowUp,ArrowRight"":10,""ArrowDown,ArrowLeft"":5,""ArrowDown,ArrowRight"":17}","true","ArrowUp,ArrowLeft","false","revaluation","1","74","","",""
"html-keyboard-response","192","949424","0.0-4.0-2.0-1.37","spark_pilot_norest","8388","8","8","Female","","","","","","","null","<div style=""font-size:60px;"">+</div>","null","fixation","","","","","","","","","75","","",""
"revaluation","193","955456","0.0-4.0-2.0-0.38","spark_pilot_norest","8388","8","8","Female","","false","","","","","[602.6000000014901,752.6999999955297]","./assets/img/canyon/memory/15.jpg","[""ArrowUp"",""ArrowLeft""]","value training","canyon","26","{""ArrowUp,ArrowLeft"":26,""ArrowUp,ArrowRight"":10,""ArrowDown,ArrowLeft"":5,""ArrowDown,ArrowRight"":17}","true","ArrowUp,ArrowLeft","false","revaluation","1","76","","",""
"html-keyboard-response","194","955959","0.0-4.0-2.0-1.38","spark_pilot_norest","8388","8","8","Female","","","","","","","null","<div style=""font-size:60px;"">+</div>","null","fixation","","","","","","","","","77","","",""
"revaluation","195","961993","0.0-4.0-2.0-0.39","spark_pilot_norest","8388","8","8","Female","","false","","","","","[627.6000000014901,754.5]","./assets/img/canyon/memory/33.jpg","[""ArrowUp"",""ArrowLeft""]","value training","canyon","26","{""ArrowUp,ArrowLeft"":26,""ArrowUp,ArrowRight"":10,""ArrowDown,ArrowLeft"":5,""ArrowDown,ArrowRight"":17}","true","ArrowUp,ArrowLeft","false","revaluation","1","78","","",""
"html-keyboard-response","196","962504","0.0-4.0-2.0-1.39","spark_pilot_norest","8388","8","8","Female","","","","","","","null","<div style=""font-size:60px;"">+</div>","null","fixation","","","","","","","","","79","","",""
"revaluation","197","968536","0.0-4.0-2.0-0.40","spark_pilot_norest","8388","8","8","Female","","false","","","","","[1047.6000000014901,981.6000000014901]","./assets/img/canyon/memory/36.jpg","[""ArrowUp"",""ArrowLeft""]","value training","canyon","26","{""ArrowUp,ArrowLeft"":26,""ArrowUp,ArrowRight"":10,""ArrowDown,ArrowLeft"":5,""ArrowDown,ArrowRight"":17}","true","ArrowUp,ArrowLeft","false","revaluation","1","80","","",""
"html-keyboard-response","198","969048","0.0-4.0-2.0-1.40","spark_pilot_norest","8388","8","8","Female","","","","","","","null","<div style=""font-size:60px;"">+</div>","null","fixation","","","","","","","","","81","","",""
"revaluation","199","973072","0.0-4.0-2.0-0.41","spark_pilot_norest","8388","8","8","Female","","false","","","","","[1115.7999999970198]","./assets/img/canyon/catch/4.jpg","[""spaceBar""]","value training","canyon","0","{""ArrowUp,ArrowLeft"":26,""ArrowUp,ArrowRight"":10,""ArrowDown,ArrowLeft"":5,""ArrowDown,ArrowRight"":17}","true","spaceBar","true","revaluation","1","82","","",""
"html-keyboard-response","200","973576","0.0-4.0-2.0-1.41","spark_pilot_norest","8388","8","8","Female","","","","","","","null","<div style=""font-size:60px;"">+</div>","null","fixation","","","","","","","","","83","","",""
"revaluation","201","979616","0.0-4.0-2.0-0.42","spark_pilot_norest","8388","8","8","Female","","false","","","","","[1774.5,688.3999999985099]","./assets/img/canyon/memory/3.jpg","[""ArrowUp"",""ArrowLeft""]","value training","canyon","26","{""ArrowUp,ArrowLeft"":26,""ArrowUp,ArrowRight"":10,""ArrowDown,ArrowLeft"":5,""ArrowDown,ArrowRight"":17}","true","ArrowUp,ArrowLeft","false","revaluation","1","84","","",""
"html-keyboard-response","202","980120","0.0-4.0-2.0-1.42","spark_pilot_norest","8388","8","8","Female","","","","","","","null","<div style=""font-size:60px;"">+</div>","null","fixation","","","","","","","","","85","","",""
"revaluation","203","986161","0.0-4.0-2.0-0.43","spark_pilot_norest","8388","8","8","Female","","false","","","","","[841.8999999985099,526.3999999985099]","./assets/img/canyon/memory/0.jpg","[""ArrowUp"",""ArrowLeft""]","value training","canyon","26","{""ArrowUp,ArrowLeft"":26,""ArrowUp,ArrowRight"":10,""ArrowDown,ArrowLeft"":5,""ArrowDown,ArrowRight"":17}","true","ArrowUp,ArrowLeft","false","revaluation","1","86","","",""
"html-keyboard-response","204","986672","0.0-4.0-2.0-1.43","spark_pilot_norest","8388","8","8","Female","","","","","","","null","<div style=""font-size:60px;"">+</div>","null","fixation","","","","","","","","","87","","",""
"revaluation","205","992704","0.0-4.0-2.0-0.44","spark_pilot_norest","8388","8","8","Female","","false","","","","","[891.5,549.1000000014901]","./assets/img/canyon/memory/9.jpg","[""ArrowUp"",""ArrowLeft""]","value training","canyon","26","{""ArrowUp,ArrowLeft"":26,""ArrowUp,ArrowRight"":10,""ArrowDown,ArrowLeft"":5,""ArrowDown,ArrowRight"":17}","true","ArrowUp,ArrowLeft","false","revaluation","1","88","","",""
"html-keyboard-response","206","993208","0.0-4.0-2.0-1.44","spark_pilot_norest","8388","8","8","Female","","","","","","","null","<div style=""font-size:60px;"">+</div>","null","fixation","","","","","","","","","89","","",""
"revaluation","207","999249","0.0-4.0-2.0-0.45","spark_pilot_norest","8388","8","8","Female","","false","","","","","[909.2999999970198,1008.2999999970198]","./assets/img/canyon/memory/6.jpg","[""ArrowUp"",""ArrowLeft""]","value training","canyon","26","{""ArrowUp,ArrowLeft"":26,""ArrowUp,ArrowRight"":10,""ArrowDown,ArrowLeft"":5,""ArrowDown,ArrowRight"":17}","true","ArrowUp,ArrowLeft","false","revaluation","1","90","","",""
"html-keyboard-response","208","999760","0.0-4.0-2.0-1.45","spark_pilot_norest","8388","8","8","Female","","","","","","","null","<div style=""font-size:60px;"">+</div>","null","fixation","","","","","","","","","91","","",""
"revaluation","209","1005793","0.0-4.0-2.0-0.46","spark_pilot_norest","8388","8","8","Female","","false","","","","","[772.6999999955297,543.2999999970198]","./assets/img/canyon/memory/12.jpg","[""ArrowUp"",""ArrowLeft""]","value training","canyon","26","{""ArrowUp,ArrowLeft"":26,""ArrowUp,ArrowRight"":10,""ArrowDown,ArrowLeft"":5,""ArrowDown,ArrowRight"":17}","true","ArrowUp,ArrowLeft","false","revaluation","1","92","","",""
"html-keyboard-response","210","1006304","0.0-4.0-2.0-1.46","spark_pilot_norest","8388","8","8","Female","","","","","","","null","<div style=""font-size:60px;"">+</div>","null","fixation","","","","","","","","","93","","",""
"revaluation","211","1010345","0.0-4.0-2.0-0.47","spark_pilot_norest","8388","8","8","Female","","false","","","","","[1175.2000000029802]","./assets/img/canyon/catch/0.jpg","[""spaceBar""]","value training","canyon","0","{""ArrowUp,ArrowLeft"":26,""ArrowUp,ArrowRight"":10,""ArrowDown,ArrowLeft"":5,""ArrowDown,ArrowRight"":17}","true","spaceBar","true","revaluation","1","94","","",""
"html-keyboard-response","212","1010856","0.0-4.0-2.0-1.47","spark_pilot_norest","8388","8","8","Female","","","","","","","null","<div style=""font-size:60px;"">+</div>","null","fixation","","","","","","","","","95","","",""
"revaluation","213","1016896","0.0-4.0-2.0-0.48","spark_pilot_norest","8388","8","8","Female","","false","","","","","[823.7000000029802,1273.2999999970198]","./assets/img/canyon/memory/19.jpg","[""ArrowUp"",""ArrowLeft""]","value training","canyon","26","{""ArrowUp,ArrowLeft"":26,""ArrowUp,ArrowRight"":10,""ArrowDown,ArrowLeft"":5,""ArrowDown,ArrowRight"":17}","true","ArrowUp,ArrowLeft","false","revaluation","1","96","","",""
"html-keyboard-response","214","1017400","0.0-4.0-2.0-1.48","spark_pilot_norest","8388","8","8","Female","","","","","","","null","<div style=""font-size:60px;"">+</div>","null","fixation","","","","","","","","","97","","",""
"revaluation","215","1023441","0.0-4.0-2.0-0.49","spark_pilot_norest","8388","8","8","Female","","false","","","","","[658.1000000014901,934]","./assets/img/canyon/memory/8.jpg","[""ArrowUp"",""ArrowLeft""]","value training","canyon","26","{""ArrowUp,ArrowLeft"":26,""ArrowUp,ArrowRight"":10,""ArrowDown,ArrowLeft"":5,""ArrowDown,ArrowRight"":17}","true","ArrowUp,ArrowLeft","false","revaluation","1","98","","",""
"html-keyboard-response","216","1023952","0.0-4.0-2.0-1.49","spark_pilot_norest","8388","8","8","Female","","","","","","","null","<div style=""font-size:60px;"">+</div>","null","fixation","","","","","","","","","99","","",""
"learning-instructions","217","1042539","0.0-4.0-3.0-0.0","spark_pilot_norest","8388","8","8","Female","","","","","","","5620.60000000149","<p> Now, you will travel with a friend who will choose whether you go up or down first. </p>
            <p> On these turns, you will just see the animal that they found. You will still get to choose which chest to search for treasure.</p>","","instructions","","","","","","","","","","","",""
"revaluation","218","1046560","0.0-4.0-4.0-0.0","spark_pilot_norest","8388","8","8","Female","","false","","","","","[1605.7999999970198]","./assets/img/canyon/animals/lion.jpg","[""ArrowRight""]","revaluation","canyon","27","{""ArrowUp,ArrowLeft"":2,""ArrowUp,ArrowRight"":11,""ArrowDown,ArrowLeft"":8,""ArrowDown,ArrowRight"":27}","true","ArrowDown,ArrowRight","","revaluation","1","0","","",""
"html-keyboard-response","219","1047071","0.0-4.0-4.0-1.0","spark_pilot_norest","8388","8","8","Female","","","","","","","null","<div style=""font-size:60px;"">+</div>","null","fixation","","","","","","","","","1","","",""
"revaluation","220","1051104","0.0-4.0-4.0-0.1","spark_pilot_norest","8388","8","8","Female","","false","","","","","[603.8999999985099]","./assets/img/canyon/animals/lion.jpg","[""ArrowRight""]","revaluation","canyon","27","{""ArrowUp,ArrowLeft"":2,""ArrowUp,ArrowRight"":11,""ArrowDown,ArrowLeft"":8,""ArrowDown,ArrowRight"":27}","true","ArrowDown,ArrowRight","","revaluation","1","2","","",""
"html-keyboard-response","221","1051608","0.0-4.0-4.0-1.1","spark_pilot_norest","8388","8","8","Female","","","","","","","null","<div style=""font-size:60px;"">+</div>","null","fixation","","","","","","","","","3","","",""
"revaluation","222","1055632","0.0-4.0-4.0-0.2","spark_pilot_norest","8388","8","8","Female","","false","","","","","[975.8999999985099]","./assets/img/canyon/animals/giraffe.jpg","[""ArrowLeft""]","revaluation","canyon","2","{""ArrowUp,ArrowLeft"":2,""ArrowUp,ArrowRight"":11,""ArrowDown,ArrowLeft"":8,""ArrowDown,ArrowRight"":27}","false","ArrowUp,ArrowLeft","","revaluation","1","4","","",""
"html-keyboard-response","223","1056135","0.0-4.0-4.0-1.2","spark_pilot_norest","8388","8","8","Female","","","","","","","null","<div style=""font-size:60px;"">+</div>","null","fixation","","","","","","","","","5","","",""
"revaluation","224","1060160","0.0-4.0-4.0-0.3","spark_pilot_norest","8388","8","8","Female","","false","","","","","[919.3000000044703]","./assets/img/canyon/animals/giraffe.jpg","[""ArrowRight""]","revaluation","canyon","11","{""ArrowUp,ArrowLeft"":2,""ArrowUp,ArrowRight"":11,""ArrowDown,ArrowLeft"":8,""ArrowDown,ArrowRight"":27}","true","ArrowUp,ArrowRight","","revaluation","1","6","","",""
"html-keyboard-response","225","1060664","0.0-4.0-4.0-1.3","spark_pilot_norest","8388","8","8","Female","","","","","","","null","<div style=""font-size:60px;"">+</div>","null","fixation","","","","","","","","","7","","",""
"revaluation","226","1064688","0.0-4.0-4.0-0.4","spark_pilot_norest","8388","8","8","Female","","false","","","","","[874]","./assets/img/canyon/animals/giraffe.jpg","[""ArrowRight""]","revaluation","canyon","11","{""ArrowUp,ArrowLeft"":2,""ArrowUp,ArrowRight"":11,""ArrowDown,ArrowLeft"":8,""ArrowDown,ArrowRight"":27}","true","ArrowUp,ArrowRight","","revaluation","1","8","","",""
"html-keyboard-response","227","1065191","0.0-4.0-4.0-1.4","spark_pilot_norest","8388","8","8","Female","","","","","","","null","<div style=""font-size:60px;"">+</div>","null","fixation","","","","","","","","","9","","",""
"revaluation","228","1069217","0.0-4.0-4.0-0.5","spark_pilot_norest","8388","8","8","Female","","false","","","","","[894.2999999970198]","./assets/img/canyon/animals/lion.jpg","[""ArrowRight""]","revaluation","canyon","27","{""ArrowUp,ArrowLeft"":2,""ArrowUp,ArrowRight"":11,""ArrowDown,ArrowLeft"":8,""ArrowDown,ArrowRight"":27}","true","ArrowDown,ArrowRight","","revaluation","1","10","","",""
"html-keyboard-response","229","1069728","0.0-4.0-4.0-1.5","spark_pilot_norest","8388","8","8","Female","","","","","","","null","<div style=""font-size:60px;"">+</div>","null","fixation","","","","","","","","","11","","",""
"revaluation","230","1073753","0.0-4.0-4.0-0.6","spark_pilot_norest","8388","8","8","Female","","false","","","","","[661.5]","./assets/img/canyon/animals/lion.jpg","[""ArrowRight""]","revaluation","canyon","27","{""ArrowUp,ArrowLeft"":2,""ArrowUp,ArrowRight"":11,""ArrowDown,ArrowLeft"":8,""ArrowDown,ArrowRight"":27}","true","ArrowDown,ArrowRight","","revaluation","1","12","","",""
"html-keyboard-response","231","1074264","0.0-4.0-4.0-1.6","spark_pilot_norest","8388","8","8","Female","","","","","","","null","<div style=""font-size:60px;"">+</div>","null","fixation","","","","","","","","","13","","",""
"revaluation","232","1078289","0.0-4.0-4.0-0.7","spark_pilot_norest","8388","8","8","Female","","false","","","","","[702.5]","./assets/img/canyon/animals/giraffe.jpg","[""ArrowRight""]","revaluation","canyon","11","{""ArrowUp,ArrowLeft"":2,""ArrowUp,ArrowRight"":11,""ArrowDown,ArrowLeft"":8,""ArrowDown,ArrowRight"":27}","true","ArrowUp,ArrowRight","","revaluation","1","14","","",""
"html-keyboard-response","233","1078800","0.0-4.0-4.0-1.7","spark_pilot_norest","8388","8","8","Female","","","","","","","null","<div style=""font-size:60px;"">+</div>","null","fixation","","","","","","","","","15","","",""
"revaluation","234","1082825","0.0-4.0-4.0-0.8","spark_pilot_norest","8388","8","8","Female","","false","","","","","[596.2000000029802]","./assets/img/canyon/animals/giraffe.jpg","[""ArrowRight""]","revaluation","canyon","11","{""ArrowUp,ArrowLeft"":2,""ArrowUp,ArrowRight"":11,""ArrowDown,ArrowLeft"":8,""ArrowDown,ArrowRight"":27}","true","ArrowUp,ArrowRight","","revaluation","1","16","","",""
"html-keyboard-response","235","1083336","0.0-4.0-4.0-1.8","spark_pilot_norest","8388","8","8","Female","","","","","","","null","<div style=""font-size:60px;"">+</div>","null","fixation","","","","","","","","","17","","",""
"revaluation","236","1087369","0.0-4.0-4.0-0.9","spark_pilot_norest","8388","8","8","Female","","false","","","","","[1275]","./assets/img/canyon/animals/lion.jpg","[""ArrowRight""]","revaluation","canyon","27","{""ArrowUp,ArrowLeft"":2,""ArrowUp,ArrowRight"":11,""ArrowDown,ArrowLeft"":8,""ArrowDown,ArrowRight"":27}","true","ArrowDown,ArrowRight","","revaluation","1","18","","",""
"html-keyboard-response","237","1087880","0.0-4.0-4.0-1.9","spark_pilot_norest","8388","8","8","Female","","","","","","","null","<div style=""font-size:60px;"">+</div>","null","fixation","","","","","","","","","19","","",""
"revaluation","238","1091904","0.0-4.0-4.0-0.10","spark_pilot_norest","8388","8","8","Female","","false","","","","","[870.6999999955297]","./assets/img/canyon/animals/giraffe.jpg","[""ArrowRight""]","revaluation","canyon","11","{""ArrowUp,ArrowLeft"":2,""ArrowUp,ArrowRight"":11,""ArrowDown,ArrowLeft"":8,""ArrowDown,ArrowRight"":27}","true","ArrowUp,ArrowRight","","revaluation","1","20","","",""
"html-keyboard-response","239","1092408","0.0-4.0-4.0-1.10","spark_pilot_norest","8388","8","8","Female","","","","","","","null","<div style=""font-size:60px;"">+</div>","null","fixation","","","","","","","","","21","","",""
"revaluation","240","1096440","0.0-4.0-4.0-0.11","spark_pilot_norest","8388","8","8","Female","","false","","","","","[422.30000000447035]","./assets/img/canyon/animals/giraffe.jpg","[""ArrowRight""]","revaluation","canyon","11","{""ArrowUp,ArrowLeft"":2,""ArrowUp,ArrowRight"":11,""ArrowDown,ArrowLeft"":8,""ArrowDown,ArrowRight"":27}","true","ArrowUp,ArrowRight","","revaluation","1","22","","",""
"html-keyboard-response","241","1096944","0.0-4.0-4.0-1.11","spark_pilot_norest","8388","8","8","Female","","","","","","","null","<div style=""font-size:60px;"">+</div>","null","fixation","","","","","","","","","23","","",""
"revaluation","242","1100969","0.0-4.0-4.0-0.12","spark_pilot_norest","8388","8","8","Female","","false","","","","","[375.59999999403954]","./assets/img/canyon/animals/lion.jpg","[""ArrowRight""]","revaluation","canyon","27","{""ArrowUp,ArrowLeft"":2,""ArrowUp,ArrowRight"":11,""ArrowDown,ArrowLeft"":8,""ArrowDown,ArrowRight"":27}","true","ArrowDown,ArrowRight","","revaluation","1","24","","",""
"html-keyboard-response","243","1101480","0.0-4.0-4.0-1.12","spark_pilot_norest","8388","8","8","Female","","","","","","","null","<div style=""font-size:60px;"">+</div>","null","fixation","","","","","","","","","25","","",""
"revaluation","244","1105505","0.0-4.0-4.0-0.13","spark_pilot_norest","8388","8","8","Female","","false","","","","","[439.20000000298023]","./assets/img/canyon/animals/lion.jpg","[""ArrowRight""]","revaluation","canyon","27","{""ArrowUp,ArrowLeft"":2,""ArrowUp,ArrowRight"":11,""ArrowDown,ArrowLeft"":8,""ArrowDown,ArrowRight"":27}","true","ArrowDown,ArrowRight","","revaluation","1","26","","",""
"html-keyboard-response","245","1106016","0.0-4.0-4.0-1.13","spark_pilot_norest","8388","8","8","Female","","","","","","","null","<div style=""font-size:60px;"">+</div>","null","fixation","","","","","","","","","27","","",""
"revaluation","246","1110049","0.0-4.0-4.0-0.14","spark_pilot_norest","8388","8","8","Female","","false","","","","","[538.5]","./assets/img/canyon/animals/giraffe.jpg","[""ArrowRight""]","revaluation","canyon","11","{""ArrowUp,ArrowLeft"":2,""ArrowUp,ArrowRight"":11,""ArrowDown,ArrowLeft"":8,""ArrowDown,ArrowRight"":27}","true","ArrowUp,ArrowRight","","revaluation","1","28","","",""
"html-keyboard-response","247","1110560","0.0-4.0-4.0-1.14","spark_pilot_norest","8388","8","8","Female","","","","","","","null","<div style=""font-size:60px;"">+</div>","null","fixation","","","","","","","","","29","","",""
"revaluation","248","1114585","0.0-4.0-4.0-0.15","spark_pilot_norest","8388","8","8","Female","","false","","","","","[360.3999999985099]","./assets/img/canyon/animals/lion.jpg","[""ArrowRight""]","revaluation","canyon","27","{""ArrowUp,ArrowLeft"":2,""ArrowUp,ArrowRight"":11,""ArrowDown,ArrowLeft"":8,""ArrowDown,ArrowRight"":27}","true","ArrowDown,ArrowRight","","revaluation","1","30","","",""
"html-keyboard-response","249","1115096","0.0-4.0-4.0-1.15","spark_pilot_norest","8388","8","8","Female","","","","","","","null","<div style=""font-size:60px;"">+</div>","null","fixation","","","","","","","","","31","","",""
"revaluation","250","1119120","0.0-4.0-4.0-0.16","spark_pilot_norest","8388","8","8","Female","","false","","","","","[195.89999999850988]","./assets/img/canyon/animals/lion.jpg","[""ArrowRight""]","revaluation","canyon","27","{""ArrowUp,ArrowLeft"":2,""ArrowUp,ArrowRight"":11,""ArrowDown,ArrowLeft"":8,""ArrowDown,ArrowRight"":27}","true","ArrowDown,ArrowRight","","revaluation","1","32","","",""
"html-keyboard-response","251","1119624","0.0-4.0-4.0-1.16","spark_pilot_norest","8388","8","8","Female","","","","","","","null","<div style=""font-size:60px;"">+</div>","null","fixation","","","","","","","","","33","","",""
"revaluation","252","1123649","0.0-4.0-4.0-0.17","spark_pilot_norest","8388","8","8","Female","","false","","","","","[789.5]","./assets/img/canyon/animals/giraffe.jpg","[""ArrowRight""]","revaluation","canyon","11","{""ArrowUp,ArrowLeft"":2,""ArrowUp,ArrowRight"":11,""ArrowDown,ArrowLeft"":8,""ArrowDown,ArrowRight"":27}","true","ArrowUp,ArrowRight","","revaluation","1","34","","",""
"html-keyboard-response","253","1124160","0.0-4.0-4.0-1.17","spark_pilot_norest","8388","8","8","Female","","","","","","","null","<div style=""font-size:60px;"">+</div>","null","fixation","","","","","","","","","35","","",""
"learning-instructions","254","1132343","0.0-4.0-5.0-0.0","spark_pilot_norest","8388","8","8","Female","","","","","","","null","<p> You have almost finished this part of the game! </p>
            <p> We are going to ask you to make a few more choices. </p>","","instructions","","","","","","","","","","","",""
"learning-instructions","255","1148320","0.0-4.0-5.0-0.1","spark_pilot_norest","8388","8","8","Female","","","","","","","null","<p> First, you need to decide whether to go up or down. When you see each picture, use the arrow keys to make your choice. </p>
            <p><b>You will not see which animal you found, but try to get to the one that will give you the most treasure.</b></p>","","instructions","","","","","","","","","","","",""
"html-keyboard-response","256","1149328","0.0-4.0-6.0-0.0","spark_pilot_norest","8388","8","8","Female","","","","","","","null","<div style=""font-size:100px;color:red;"">Starting in...</div>","null","","","","","","","","","","","","",""
"html-keyboard-response","257","1150336","0.0-4.0-6.0-1.0","spark_pilot_norest","8388","8","8","Female","","","","","","","null","<div style=""font-size:200px;color:red;"">3</div>","null","","","","","","","","","","","","",""
"html-keyboard-response","258","1151343","0.0-4.0-6.0-2.0","spark_pilot_norest","8388","8","8","Female","","","","","","","null","<div style=""font-size:200px;color:red;"">2</div>","null","","","","","","","","","","","","",""
"html-keyboard-response","259","1152352","0.0-4.0-6.0-3.0","spark_pilot_norest","8388","8","8","Female","","","","","","","null","<div style=""font-size:200px;color:red;"">1</div>","null","","","","","","","","","","","","",""
"revaluation","260","1153601","0.0-4.0-7.0-0.0","spark_pilot_norest","8388","8","8","Female","","false","","","","","[1235.4000000059605]","./assets/img/canyon/test/2.jpg","[""ArrowUp""]","first stage test","canyon","0","{""ArrowUp,ArrowLeft"":2,""ArrowUp,ArrowRight"":11,""ArrowDown,ArrowLeft"":8,""ArrowDown,ArrowRight"":27}","false","ArrowUp","false","revaluation","1","","","",""
"html-keyboard-response","261","1154112","0.0-4.0-7.0-1.0","spark_pilot_norest","8388","8","8","Female","","","","","","","null","<div style=""font-size:60px;"">+</div>","null","fixation","","","","","","","","","","","",""
"revaluation","262","1156736","0.0-4.0-7.0-0.1","spark_pilot_norest","8388","8","8","Female","","false","","","","","[2613.3000000044703]","./assets/img/canyon/test/3.jpg","[""ArrowUp""]","first stage test","canyon","0","{""ArrowUp,ArrowLeft"":2,""ArrowUp,ArrowRight"":11,""ArrowDown,ArrowLeft"":8,""ArrowDown,ArrowRight"":27}","false","ArrowUp","false","revaluation","1","","","",""
"html-keyboard-response","263","1157240","0.0-4.0-7.0-1.1","spark_pilot_norest","8388","8","8","Female","","","","","","","null","<div style=""font-size:60px;"">+</div>","null","fixation","","","","","","","","","","","",""
"revaluation","264","1157853","0.0-4.0-7.0-0.2","spark_pilot_norest","8388","8","8","Female","","false","","","","","[603.4000000059605]","./assets/img/canyon/test/0.jpg","[""ArrowUp""]","first stage test","canyon","0","{""ArrowUp,ArrowLeft"":2,""ArrowUp,ArrowRight"":11,""ArrowDown,ArrowLeft"":8,""ArrowDown,ArrowRight"":27}","false","ArrowUp","false","revaluation","1","","","",""
"html-keyboard-response","265","1158359","0.0-4.0-7.0-1.2","spark_pilot_norest","8388","8","8","Female","","","","","","","null","<div style=""font-size:60px;"">+</div>","null","fixation","","","","","","","","","","","",""
"revaluation","266","1159195","0.0-4.0-7.0-0.3","spark_pilot_norest","8388","8","8","Female","","false","","","","","[824]","./assets/img/canyon/test/1.jpg","[""ArrowUp""]","first stage test","canyon","0","{""ArrowUp,ArrowLeft"":2,""ArrowUp,ArrowRight"":11,""ArrowDown,ArrowLeft"":8,""ArrowDown,ArrowRight"":27}","false","ArrowUp","false","revaluation","1","","","",""
"html-keyboard-response","267","1159704","0.0-4.0-7.0-1.3","spark_pilot_norest","8388","8","8","Female","","","","","","","null","<div style=""font-size:60px;"">+</div>","null","fixation","","","","","","","","","","","",""
"learning-instructions","268","1173056","0.0-4.0-8.0-0.0","spark_pilot_norest","8388","8","8","Female","","","","","","","null","<p> Now you will see the animals again and can search their chests for treasure. </p>
            <p> This time, you will not see how much treasure you earned, but you will earn more bonus money for making better choices. </p>","","instructions","","","","","","","","","","","",""
"html-keyboard-response","269","1174064","0.0-4.0-9.0-0.0","spark_pilot_norest","8388","8","8","Female","","","","","","","null","<div style=""font-size:100px;color:red;"">Starting in...</div>","null","","","","","","","","","","","","",""
"html-keyboard-response","270","1175072","0.0-4.0-9.0-1.0","spark_pilot_norest","8388","8","8","Female","","","","","","","null","<div style=""font-size:200px;color:red;"">3</div>","null","","","","","","","","","","","","",""
"html-keyboard-response","271","1176080","0.0-4.0-9.0-2.0","spark_pilot_norest","8388","8","8","Female","","","","","","","null","<div style=""font-size:200px;color:red;"">2</div>","null","","","","","","","","","","","","",""
"html-keyboard-response","272","1177087","0.0-4.0-9.0-3.0","spark_pilot_norest","8388","8","8","Female","","","","","","","null","<div style=""font-size:200px;color:red;"">1</div>","null","","","","","","","","","","","","",""
"revaluation","273","1177980","0.0-4.0-10.0-0.0","spark_pilot_norest","8388","8","8","Female","","false","","","","","[881.1999999955297]","./assets/img/canyon/animals/giraffe.jpg","[""ArrowRight""]","second stage test","canyon","0","{""ArrowUp,ArrowLeft"":2,""ArrowUp,ArrowRight"":11,""ArrowDown,ArrowLeft"":8,""ArrowDown,ArrowRight"":27}","true","ArrowUp,ArrowRight","","revaluation","1","","","",""
"html-keyboard-response","274","1178488","0.0-4.0-10.0-1.0","spark_pilot_norest","8388","8","8","Female","","","","","","","null","<div style=""font-size:60px;"">+</div>","null","fixation","","","","","","","","","","","",""
"revaluation","275","1180532","0.0-4.0-10.0-0.1","spark_pilot_norest","8388","8","8","Female","","false","","","","","[2034.3000000044703]","./assets/img/canyon/animals/giraffe.jpg","[""ArrowRight""]","second stage test","canyon","0","{""ArrowUp,ArrowLeft"":2,""ArrowUp,ArrowRight"":11,""ArrowDown,ArrowLeft"":8,""ArrowDown,ArrowRight"":27}","true","ArrowUp,ArrowRight","","revaluation","1","","","",""
"html-keyboard-response","276","1181040","0.0-4.0-10.0-1.1","spark_pilot_norest","8388","8","8","Female","","","","","","","null","<div style=""font-size:60px;"">+</div>","null","fixation","","","","","","","","","","","",""
"revaluation","277","1182131","0.0-4.0-10.0-0.2","spark_pilot_norest","8388","8","8","Female","","false","","","","","[1087]","./assets/img/canyon/animals/giraffe.jpg","[""ArrowLeft""]","second stage test","canyon","0","{""ArrowUp,ArrowLeft"":2,""ArrowUp,ArrowRight"":11,""ArrowDown,ArrowLeft"":8,""ArrowDown,ArrowRight"":27}","false","ArrowUp,ArrowLeft","","revaluation","1","","","",""
"html-keyboard-response","278","1182640","0.0-4.0-10.0-1.2","spark_pilot_norest","8388","8","8","Female","","","","","","","null","<div style=""font-size:60px;"">+</div>","null","fixation","","","","","","","","","","","",""
"revaluation","279","1183319","0.0-4.0-10.0-0.3","spark_pilot_norest","8388","8","8","Female","","false","","","","","[669]","./assets/img/canyon/animals/giraffe.jpg","[""ArrowLeft""]","second stage test","canyon","0","{""ArrowUp,ArrowLeft"":2,""ArrowUp,ArrowRight"":11,""ArrowDown,ArrowLeft"":8,""ArrowDown,ArrowRight"":27}","false","ArrowUp,ArrowLeft","","revaluation","1","","","",""
"html-keyboard-response","280","1183824","0.0-4.0-10.0-1.3","spark_pilot_norest","8388","8","8","Female","","","","","","","null","<div style=""font-size:60px;"">+</div>","null","fixation","","","","","","","","","","","",""
"revaluation","281","1185089","0.0-4.0-10.0-0.4","spark_pilot_norest","8388","8","8","Female","","false","","","","","[1256.6000000014901]","./assets/img/canyon/animals/lion.jpg","[""ArrowRight""]","second stage test","canyon","0","{""ArrowUp,ArrowLeft"":2,""ArrowUp,ArrowRight"":11,""ArrowDown,ArrowLeft"":8,""ArrowDown,ArrowRight"":27}","true","ArrowDown,ArrowRight","","revaluation","1","","","",""
"html-keyboard-response","282","1185600","0.0-4.0-10.0-1.4","spark_pilot_norest","8388","8","8","Female","","","","","","","null","<div style=""font-size:60px;"">+</div>","null","fixation","","","","","","","","","","","",""
"revaluation","283","1186197","0.0-4.0-10.0-0.5","spark_pilot_norest","8388","8","8","Female","","false","","","","","[589.3999999985099]","./assets/img/canyon/animals/lion.jpg","[""ArrowLeft""]","second stage test","canyon","0","{""ArrowUp,ArrowLeft"":2,""ArrowUp,ArrowRight"":11,""ArrowDown,ArrowLeft"":8,""ArrowDown,ArrowRight"":27}","false","ArrowDown,ArrowLeft","","revaluation","1","","","",""
"html-keyboard-response","284","1186703","0.0-4.0-10.0-1.5","spark_pilot_norest","8388","8","8","Female","","","","","","","null","<div style=""font-size:60px;"">+</div>","null","fixation","","","","","","","","","","","",""
"revaluation","285","1187269","0.0-4.0-10.0-0.6","spark_pilot_norest","8388","8","8","Female","","false","","","","","[555.8999999985099]","./assets/img/canyon/animals/lion.jpg","[""ArrowRight""]","second stage test","canyon","0","{""ArrowUp,ArrowLeft"":2,""ArrowUp,ArrowRight"":11,""ArrowDown,ArrowLeft"":8,""ArrowDown,ArrowRight"":27}","true","ArrowDown,ArrowRight","","revaluation","1","","","",""
"html-keyboard-response","286","1187776","0.0-4.0-10.0-1.6","spark_pilot_norest","8388","8","8","Female","","","","","","","null","<div style=""font-size:60px;"">+</div>","null","fixation","","","","","","","","","","","",""
"revaluation","287","1188116","0.0-4.0-10.0-0.7","spark_pilot_norest","8388","8","8","Female","","false","","","","","[336.20000000298023]","./assets/img/canyon/animals/lion.jpg","[""ArrowLeft""]","second stage test","canyon","0","{""ArrowUp,ArrowLeft"":2,""ArrowUp,ArrowRight"":11,""ArrowDown,ArrowLeft"":8,""ArrowDown,ArrowRight"":27}","false","ArrowDown,ArrowLeft","","revaluation","1","","","",""
"html-keyboard-response","288","1188624","0.0-4.0-10.0-1.7","spark_pilot_norest","8388","8","8","Female","","","","","","","null","<div style=""font-size:60px;"">+</div>","null","fixation","","","","","","","","","","","",""
"learning-instructions","289","1193021","0.0-4.0-0.1-0.2","spark_pilot_norest","8388","8","8","Female","","","","","","","1658.8999999985099","<p> This time you are searching for treasure in the <b>ocean</b>.</p>","","instructions","","","","","","","","","","","",""
"learning-instructions","290","1211908","0.0-4.0-0.1-0.3","spark_pilot_norest","8388","8","8","Female","","","","","","","1624.4000000059605","<p><b>New</b> animals with <b>new</b> treasure chests live here. You need to explore to discover where the animal with the best treasure chest is.</p>
                    <p> Like before, once you figure out which animal has the chest with the most treasure, you should try to get to that animal and select that chest! </p>","","instructions","","","","","","","","","","","",""
"learning-instructions","291","1231043","0.0-4.0-1.1-0.1","spark_pilot_norest","8388","8","8","Female","","","","","","","4407.60000000149","<p> Remember, when you see a picture of the place, use the up and down keys to <b>find an animal</b>.</p>
            <p> When you encounter an animal, you should use the left and right keys to <b>select a treasure chest</b>.</p>
            <p> Don't forget to look out for the robber! </p>","","instructions","","","","","","","","","","","",""
"revaluation","292","1237073","0.0-4.0-2.1-0.50","spark_pilot_norest","8388","8","8","Female","","false","","","","","[1474.8999999985099,1063.2999999970198]","./assets/img/ocean/memory/15.jpg","[""ArrowUp"",""ArrowLeft""]","value training","ocean","23","{""ArrowUp,ArrowLeft"":23,""ArrowUp,ArrowRight"":10,""ArrowDown,ArrowLeft"":8,""ArrowDown,ArrowRight"":30}","false","ArrowUp,ArrowLeft","false","original","2","0","","",""
"html-keyboard-response","293","1237584","0.0-4.0-2.1-1.50","spark_pilot_norest","8388","8","8","Female","","","","","","","null","<div style=""font-size:60px;"">+</div>","null","fixation","","","","","","","","","1","","",""
"revaluation","294","1243616","0.0-4.0-2.1-0.51","spark_pilot_norest","8388","8","8","Female","","false","","","","","[1103.8000000044703,717.8000000044703]","./assets/img/ocean/memory/27.jpg","[""ArrowUp"",""ArrowRight""]","value training","ocean","10","{""ArrowUp,ArrowLeft"":23,""ArrowUp,ArrowRight"":10,""ArrowDown,ArrowLeft"":8,""ArrowDown,ArrowRight"":30}","false","ArrowUp,ArrowRight","false","original","2","2","","",""
"html-keyboard-response","295","1244119","0.0-4.0-2.1-1.51","spark_pilot_norest","8388","8","8","Female","","","","","","","null","<div style=""font-size:60px;"">+</div>","null","fixation","","","","","","","","","3","","",""
"revaluation","296","1250153","0.0-4.0-2.1-0.52","spark_pilot_norest","8388","8","8","Female","","false","","","","","[379.3999999985099,702.7000000029802]","./assets/img/ocean/memory/39.jpg","[""ArrowDown"",""ArrowLeft""]","value training","ocean","8","{""ArrowUp,ArrowLeft"":23,""ArrowUp,ArrowRight"":10,""ArrowDown,ArrowLeft"":8,""ArrowDown,ArrowRight"":30}","false","ArrowDown,ArrowLeft","false","original","2","4","","",""
"html-keyboard-response","297","1250655","0.0-4.0-2.1-1.52","spark_pilot_norest","8388","8","8","Female","","","","","","","null","<div style=""font-size:60px;"">+</div>","null","fixation","","","","","","","","","5","","",""
"revaluation","298","1256689","0.0-4.0-2.1-0.53","spark_pilot_norest","8388","8","8","Female","","false","","","","","[1150.1000000014901,540.3999999985099]","./assets/img/ocean/memory/37.jpg","[""ArrowDown"",""ArrowRight""]","value training","ocean","30","{""ArrowUp,ArrowLeft"":23,""ArrowUp,ArrowRight"":10,""ArrowDown,ArrowLeft"":8,""ArrowDown,ArrowRight"":30}","true","ArrowDown,ArrowRight","false","original","2","6","","",""
"html-keyboard-response","299","1257200","0.0-4.0-2.1-1.53","spark_pilot_norest","8388","8","8","Female","","","","","","","null","<div style=""font-size:60px;"">+</div>","null","fixation","","","","","","","","","7","","",""
"revaluation","300","1261232","0.0-4.0-2.1-0.54","spark_pilot_norest","8388","8","8","Female","","false","","","","","[580]","./assets/img/ocean/catch/7.jpg","[""ArrowDown""]","value training","ocean","-10","{""ArrowUp,ArrowLeft"":23,""ArrowUp,ArrowRight"":10,""ArrowDown,ArrowLeft"":8,""ArrowDown,ArrowRight"":30}","false","ArrowDown","true","original","2","8","","",""
"html-keyboard-response","301","1261743","0.0-4.0-2.1-1.54","spark_pilot_norest","8388","8","8","Female","","","","","","","null","<div style=""font-size:60px;"">+</div>","null","fixation","","","","","","","","","9","","",""
"revaluation","302","1265770","0.0-4.0-2.1-0.55","spark_pilot_norest","8388","8","8","Female","","true","","","","","[]","./assets/img/ocean/memory/31.jpg","[]","value training","ocean","-5","{""ArrowUp,ArrowLeft"":23,""ArrowUp,ArrowRight"":10,""ArrowDown,ArrowLeft"":8,""ArrowDown,ArrowRight"":30}","false","","false","original","2","10","","",""
"html-keyboard-response","303","1266280","0.0-4.0-2.1-1.55","spark_pilot_norest","8388","8","8","Female","","","","","","","null","<div style=""font-size:60px;"">+</div>","null","fixation","","","","","","","","","11","","",""
"revaluation","304","1272321","0.0-4.0-2.1-0.56","spark_pilot_norest","8388","8","8","Female","","false","","","","","[400.6000000014901,757.8000000044703]","./assets/img/ocean/memory/19.jpg","[""ArrowDown"",""ArrowRight""]","value training","ocean","30","{""ArrowUp,ArrowLeft"":23,""ArrowUp,ArrowRight"":10,""ArrowDown,ArrowLeft"":8,""ArrowDown,ArrowRight"":30}","true","ArrowDown,ArrowRight","false","original","2","12","","",""
"html-keyboard-response","305","1272832","0.0-4.0-2.1-1.56","spark_pilot_norest","8388","8","8","Female","","","","","","","null","<div style=""font-size:60px;"">+</div>","null","fixation","","","","","","","","","13","","",""
"revaluation","306","1276856","0.0-4.0-2.1-0.57","spark_pilot_norest","8388","8","8","Female","","false","","","","","[1115.5]","./assets/img/ocean/catch/0.jpg","[""spaceBar""]","value training","ocean","0","{""ArrowUp,ArrowLeft"":23,""ArrowUp,ArrowRight"":10,""ArrowDown,ArrowLeft"":8,""ArrowDown,ArrowRight"":30}","true","spaceBar","true","original","2","14","","",""
"html-keyboard-response","307","1277367","0.0-4.0-2.1-1.57","spark_pilot_norest","8388","8","8","Female","","","","","","","null","<div style=""font-size:60px;"">+</div>","null","fixation","","","","","","","","","15","","",""
"revaluation","308","1283408","0.0-4.0-2.1-0.58","spark_pilot_norest","8388","8","8","Female","","false","","","","","[1139.6999999955297,506.8999999985099]","./assets/img/ocean/memory/38.jpg","[""ArrowDown"",""ArrowRight""]","value training","ocean","30","{""ArrowUp,ArrowLeft"":23,""ArrowUp,ArrowRight"":10,""ArrowDown,ArrowLeft"":8,""ArrowDown,ArrowRight"":30}","true","ArrowDown,ArrowRight","false","original","2","16","","",""
"html-keyboard-response","309","1283912","0.0-4.0-2.1-1.58","spark_pilot_norest","8388","8","8","Female","","","","","","","null","<div style=""font-size:60px;"">+</div>","null","fixation","","","","","","","","","17","","",""
"revaluation","310","1289953","0.0-4.0-2.1-0.59","spark_pilot_norest","8388","8","8","Female","","false","","","","","[676.1000000014901,441]","./assets/img/ocean/memory/36.jpg","[""ArrowDown"",""ArrowRight""]","value training","ocean","30","{""ArrowUp,ArrowLeft"":23,""ArrowUp,ArrowRight"":10,""ArrowDown,ArrowLeft"":8,""ArrowDown,ArrowRight"":30}","true","ArrowDown,ArrowRight","false","original","2","18","","",""
"html-keyboard-response","311","1290465","0.0-4.0-2.1-1.59","spark_pilot_norest","8388","8","8","Female","","","","","","","null","<div style=""font-size:60px;"">+</div>","null","fixation","","","","","","","","","19","","",""
"revaluation","312","1294497","0.0-4.0-2.1-0.60","spark_pilot_norest","8388","8","8","Female","","false","","","","","[1465.7999999970198]","./assets/img/ocean/catch/2.jpg","[""spaceBar""]","value training","ocean","0","{""ArrowUp,ArrowLeft"":23,""ArrowUp,ArrowRight"":10,""ArrowDown,ArrowLeft"":8,""ArrowDown,ArrowRight"":30}","true","spaceBar","true","original","2","20","","",""
