"trial_type","trial_index","time_elapsed","internal_node_id","task_version","subject_id","assigned_condition","age","gender","success","timeout","failed_images","failed_audio","failed_video","browser_interaction","rt","stimulus","response","task_part","environment","score","rewardMap","correct","fullState","isCatch","condition","order","trial_num","key_press","ground_truth","bonus"
"pavlovia","0","939","0.0-0.0","spark_pilot_norest","8589","6","11","Female","","","","","","","","","","","","","","","","","","","","","",""
"preload","1","2536","0.0-1.0","spark_pilot_norest","8589","6","11","Female","true","false","[]","[]","[]","[{""event"":""fullscreenenter"",""trial"":2,""time"":5866}]","","","","","","","","","","","","","","","",""
"fullscreen","2","6820","0.0-2.0","spark_pilot_norest","8589","6","11","Female","true","","","","","","","","","","","","","","","","","","","","",""
"audio-button-response","3","8884","0.0-3.0-0.0-0.0","spark_pilot_norest","8589","6","11","Female","","","","","","","1949","./assets/audio/audiotest/turtle.mp3","2","audio_test","","","","","","","","","","","",""
"learning-instructions","4","17417","0.0-3.0-1.0-0.0","spark_pilot_norest","8589","6","11","Female","","","","","","","1506.2999999523163","<p> Welcome! Please remember to stay in fullscreen mode and don't click away from the experiment. </p>","","instructions","","","","","","","","","","","",""
"learning-instructions","5","27248","0.0-3.0-1.0-0.1","spark_pilot_norest","8589","6","11","Female","","","","","","","1386.2999999523163","<p> Today you will be playing a game to earn treasure. </p>
            <p> At the end of the experiment, you will earn a bonus based on how much treasure you find. </p>
            <img src='./assets/img/instructions/treasure.jpg' class='instructions-image'>","","instructions","","","","","","","","","","","",""
"learning-instructions","6","36287","0.0-3.0-1.0-0.2","spark_pilot_norest","8589","6","11","Female","","","","","","","735.6000001430511","<p> Animals have hidden treasure in treasure chests. </p>
            <p> You need to first find an animal and then choose which of their treasure chests to search. </p>
            <img src='./assets/img/space/animals/cat.jpg' class='instructions-image'>","","instructions","","","","","","","","","","","",""
"learning-instructions","7","51321","0.0-3.0-1.0-0.3","spark_pilot_norest","8589","6","11","Female","","","","","","","1830.7000000476837","<p> In each round, you will search for treasure in a different place. In the real game, there will be two rounds. </p>
            <p> You will begin with a separate, practice round where you will search for treasure in outer space. </p>
            <img src='./assets/img/space/0.jpg' class='instructions-image'>","","instructions","","","","","","","","","","","",""
"learning-instructions","8","64292","0.0-3.0-1.0-0.4","spark_pilot_norest","8589","6","11","Female","","","","","","","1501","<p> On every turn, you will see a picture of the place that you are in, but the specific image may be different each time. </p>
            <p> For example, both of these images mean you are in outer space. </p>
            <img src='./assets/img/instructions/outerspace.jpg' class='instructions-image'>","","instructions","","","","","","","","","","","",""
"learning-instructions","9","73396","0.0-3.0-1.0-0.5","spark_pilot_norest","8589","6","11","Female","","","","","","","1264.8999998569489","<p> You need to decide which direction to travel in. </p>
            <p> You can choose between going <b>up or down</b> by using the arrow keys. </p>
            <img src='./assets/img/instructions/updown.jpg' class='instructions-image'>","","instructions","","","","","","","","","","","",""
"learning-instructions","10","83131","0.0-3.0-1.0-0.6","spark_pilot_norest","8589","6","11","Female","","","","","","","869.9000000953674","<p> You will have <b>2 seconds</b> to make your choice. </p>
            <p> If you do not make a choice within 2 seconds, you will not find an animal or earn treasure. </p>
            <img src='./assets/img/instructions/2seconds.jpg' class='instructions-image'>","","instructions","","","","","","","","","","","",""
"learning-instructions","11","91630","0.0-3.0-1.0-0.7","spark_pilot_norest","8589","6","11","Female","","","","","","","1420.0999999046326","<p> Let’s try practicing that now! </p>
            <p> When you see a picture of the place you are in, press the <b>up</b> key to travel up. </p>
            <img src='./assets/img/instructions/pressUp.jpg' class='instructions-image'>","","instructions","","","","","","","","","","","",""
"revaluation","12","95674","0.0-3.0-2.0-0.0","spark_pilot_norest","8589","6","11","Female","","false","","","","","[1176.5]","./assets/img/space/0.jpg","[""ArrowUp""]","first stage practice","space","0","null","null","ArrowUp","false","","","","","",""
"html-keyboard-response","13","96178","0.0-3.0-2.0-1.0","spark_pilot_norest","8589","6","11","Female","","","","","","","null","<div style=""font-size:60px;"">+</div>","null","fixation","","","","","","","","","","","",""
"revaluation","14","100200","0.0-3.0-2.0-0.1","spark_pilot_norest","8589","6","11","Female","","false","","","","","[977.0999999046326]","./assets/img/space/1.jpg","[""ArrowUp""]","first stage practice","space","0","null","null","ArrowUp","false","","","","","",""
"html-keyboard-response","15","100715","0.0-3.0-2.0-1.1","spark_pilot_norest","8589","6","11","Female","","","","","","","null","<div style=""font-size:60px;"">+</div>","null","fixation","","","","","","","","","","","",""
"revaluation","16","104743","0.0-3.0-2.0-0.2","spark_pilot_norest","8589","6","11","Female","","false","","","","","[613.9000000953674]","./assets/img/space/2.jpg","[""ArrowUp""]","first stage practice","space","0","null","null","ArrowUp","false","","","","","",""
"html-keyboard-response","17","105259","0.0-3.0-2.0-1.2","spark_pilot_norest","8589","6","11","Female","","","","","","","null","<div style=""font-size:60px;"">+</div>","null","fixation","","","","","","","","","","","",""
"learning-instructions","18","110597","0.0-3.0-3.0-0.0","spark_pilot_norest","8589","6","11","Female","","","","","","","617.0999999046326","<p> Great job! Now try pressing the <b>down</b> key to travel down. </p>
            <img src='./assets/img/instructions/pressDown.jpg' class='instructions-image'>","","instructions","","","","","","","","","","","",""
"revaluation","19","114608","0.0-3.0-4.0-0.0","spark_pilot_norest","8589","6","11","Female","","false","","","","","[690.4000000953674]","./assets/img/space/3.jpg","[""ArrowDown""]","first stage practice","space","0","null","null","ArrowDown","false","","","","","",""
"html-keyboard-response","20","115115","0.0-3.0-4.0-1.0","spark_pilot_norest","8589","6","11","Female","","","","","","","null","<div style=""font-size:60px;"">+</div>","null","fixation","","","","","","","","","","","",""
"revaluation","21","119141","0.0-3.0-4.0-0.1","spark_pilot_norest","8589","6","11","Female","","false","","","","","[665.7999999523163]","./assets/img/space/4.jpg","[""ArrowDown""]","first stage practice","space","0","null","null","ArrowDown","false","","","","","",""
"html-keyboard-response","22","119644","0.0-3.0-4.0-1.1","spark_pilot_norest","8589","6","11","Female","","","","","","","null","<div style=""font-size:60px;"">+</div>","null","fixation","","","","","","","","","","","",""
"revaluation","23","123668","0.0-3.0-4.0-0.2","spark_pilot_norest","8589","6","11","Female","","false","","","","","[667.1999998092651]","./assets/img/space/5.jpg","[""ArrowDown""]","first stage practice","space","0","null","null","ArrowDown","false","","","","","",""
"html-keyboard-response","24","124170","0.0-3.0-4.0-1.2","spark_pilot_norest","8589","6","11","Female","","","","","","","null","<div style=""font-size:60px;"">+</div>","null","fixation","","","","","","","","","","","",""
"learning-instructions","25","136286","0.0-3.0-5.0-0.0","spark_pilot_norest","8589","6","11","Female","","","","","","","2216.5","<p> The animals don’t move, so the animal in the upper part of a place will stay in the upper part of a place, and the animal in the lower part of a place will stay in the lower part of a place. </p>","","instructions","","","","","","","","","","","",""
"learning-instructions","26","149972","0.0-3.0-5.0-0.1","spark_pilot_norest","8589","6","11","Female","","","","","","","4512.5","<p> Each animal has two treasure chests for you to choose from. </p>
            <p> The amount of treasure in each chest can range from <b> 0 to 40 pieces.</b></p>","","instructions","","","","","","","","","","","",""
"learning-instructions","27","162281","0.0-3.0-5.0-0.2","spark_pilot_norest","8589","6","11","Female","","","","","","","1060.7000000476837","<p> You should decide which chest to search for treasure by using the <b>left</b> and <b>right</b> arrow keys. </p>
            <p><b> Pay attention to which animal is on the screen, as the animals have different treasure chests. </b></p>
            <img src='./assets/img/instructions/leftright.jpg' class='instructions-image'>","","instructions","","","","","","","","","","","",""
"learning-instructions","28","169347","0.0-3.0-5.0-0.3","spark_pilot_norest","8589","6","11","Female","","","","","","","657","<p> Let’s try practicing that now. </p>
            <p> When you see an animal, choose which chest to search for treasure. </p>
            <img src='./assets/img/instructions/chooseChest.jpg' class='instructions-image'>","","instructions","","","","","","","","","","","",""
"revaluation","29","173366","0.0-3.0-6.0-0.0","spark_pilot_norest","8589","6","11","Female","","false","","","","","[476.7999999523163]","./assets/img/space/animals/rabbit.jpg","[""ArrowLeft""]","second stage practice","space","15","{""ArrowUp,ArrowLeft"":3,""ArrowUp,ArrowRight"":36,""ArrowDown,ArrowLeft"":15,""ArrowDown,ArrowRight"":23}","false","ArrowDown,ArrowLeft","","","","","","",""
"html-keyboard-response","30","173867","0.0-3.0-6.0-1.0","spark_pilot_norest","8589","6","11","Female","","","","","","","null","<div style=""font-size:60px;"">+</div>","null","fixation","","","","","","","","","","","",""
"revaluation","31","177888","0.0-3.0-6.0-0.1","spark_pilot_norest","8589","6","11","Female","","false","","","","","[391.09999990463257]","./assets/img/space/animals/cat.jpg","[""ArrowRight""]","second stage practice","space","36","{""ArrowUp,ArrowLeft"":3,""ArrowUp,ArrowRight"":36,""ArrowDown,ArrowLeft"":15,""ArrowDown,ArrowRight"":23}","true","ArrowUp,ArrowRight","","","","","","",""
"html-keyboard-response","32","178404","0.0-3.0-6.0-1.1","spark_pilot_norest","8589","6","11","Female","","","","","","","null","<div style=""font-size:60px;"">+</div>","null","fixation","","","","","","","","","","","",""
"revaluation","33","182420","0.0-3.0-6.0-0.2","spark_pilot_norest","8589","6","11","Female","","false","","","","","[701.0999999046326]","./assets/img/space/animals/rabbit.jpg","[""ArrowLeft""]","second stage practice","space","15","{""ArrowUp,ArrowLeft"":3,""ArrowUp,ArrowRight"":36,""ArrowDown,ArrowLeft"":15,""ArrowDown,ArrowRight"":23}","false","ArrowDown,ArrowLeft","","","","","","",""
"html-keyboard-response","34","182936","0.0-3.0-6.0-1.2","spark_pilot_norest","8589","6","11","Female","","","","","","","null","<div style=""font-size:60px;"">+</div>","null","fixation","","","","","","","","","","","",""
"revaluation","35","186954","0.0-3.0-6.0-0.3","spark_pilot_norest","8589","6","11","Female","","false","","","","","[519]","./assets/img/space/animals/cat.jpg","[""ArrowRight""]","second stage practice","space","36","{""ArrowUp,ArrowLeft"":3,""ArrowUp,ArrowRight"":36,""ArrowDown,ArrowLeft"":15,""ArrowDown,ArrowRight"":23}","true","ArrowUp,ArrowRight","","","","","","",""
"html-keyboard-response","36","187459","0.0-3.0-6.0-1.3","spark_pilot_norest","8589","6","11","Female","","","","","","","null","<div style=""font-size:60px;"">+</div>","null","fixation","","","","","","","","","","","",""
"learning-instructions","37","205541","0.0-3.0-7.0-0.0","spark_pilot_norest","8589","6","11","Female","","","","","","","1210.8000001907349","<p> Great job. Now let’s try putting it together. </p>
            <p> On each turn, you will first see a picture to remind you of the place you are in, and you need to choose whether to go up or down. </p>
            <p> Then you will see an animal and choose which of its chests to search for treasure. </p>","","instructions","","","","","","","","","","","",""
"learning-instructions","38","214441","0.0-3.0-7.0-0.1","spark_pilot_norest","8589","6","11","Female","","","","","","","610.7999999523163","<p> When you choose whether to go up or down, try to go to the animal with the chest with the most treasure. </p>
            <p> Try practicing that now! </p>","","instructions","","","","","","","","","","","",""
"revaluation","39","220473","0.0-3.0-8.0-0.0","spark_pilot_norest","8589","6","11","Female","","false","","","","","[1001.3999998569489,793.1000001430511]","./assets/img/space/6.jpg","[""ArrowUp"",""ArrowRight""]","full practice","space","36","{""ArrowUp,ArrowLeft"":3,""ArrowUp,ArrowRight"":36,""ArrowDown,ArrowLeft"":15,""ArrowDown,ArrowRight"":23}","true","ArrowUp,ArrowRight","false","","","","","",""
"html-keyboard-response","40","220977","0.0-3.0-8.0-1.0","spark_pilot_norest","8589","6","11","Female","","","","","","","null","<div style=""font-size:60px;"">+</div>","null","fixation","","","","","","","","","","","",""
"revaluation","41","227010","0.0-3.0-8.0-0.1","spark_pilot_norest","8589","6","11","Female","","false","","","","","[525.2999999523163,1113.3999998569489]","./assets/img/space/7.jpg","[""ArrowUp"",""ArrowLeft""]","full practice","space","3","{""ArrowUp,ArrowLeft"":3,""ArrowUp,ArrowRight"":36,""ArrowDown,ArrowLeft"":15,""ArrowDown,ArrowRight"":23}","false","ArrowUp,ArrowLeft","false","","","","","",""
"html-keyboard-response","42","227513","0.0-3.0-8.0-1.1","spark_pilot_norest","8589","6","11","Female","","","","","","","null","<div style=""font-size:60px;"">+</div>","null","fixation","","","","","","","","","","","",""
"revaluation","43","233544","0.0-3.0-8.0-0.2","spark_pilot_norest","8589","6","11","Female","","false","","","","","[686.5999999046326,575.2999999523163]","./assets/img/space/8.jpg","[""ArrowUp"",""ArrowRight""]","full practice","space","36","{""ArrowUp,ArrowLeft"":3,""ArrowUp,ArrowRight"":36,""ArrowDown,ArrowLeft"":15,""ArrowDown,ArrowRight"":23}","true","ArrowUp,ArrowRight","false","","","","","",""
"html-keyboard-response","44","234059","0.0-3.0-8.0-1.2","spark_pilot_norest","8589","6","11","Female","","","","","","","null","<div style=""font-size:60px;"">+</div>","null","fixation","","","","","","","","","","","",""
"revaluation","45","240077","0.0-3.0-8.0-0.3","spark_pilot_norest","8589","6","11","Female","","false","","","","","[671.9000000953674,1227.5]","./assets/img/space/9.jpg","[""ArrowDown"",""ArrowLeft""]","full practice","space","15","{""ArrowUp,ArrowLeft"":3,""ArrowUp,ArrowRight"":36,""ArrowDown,ArrowLeft"":15,""ArrowDown,ArrowRight"":23}","false","ArrowDown,ArrowLeft","false","","","","","",""
"html-keyboard-response","46","240592","0.0-3.0-8.0-1.3","spark_pilot_norest","8589","6","11","Female","","","","","","","null","<div style=""font-size:60px;"">+</div>","null","fixation","","","","","","","","","","","",""
"revaluation","47","246604","0.0-3.0-8.0-0.4","spark_pilot_norest","8589","6","11","Female","","false","","","","","[562.7000000476837,313]","./assets/img/space/10.jpg","[""ArrowDown"",""ArrowRight""]","full practice","space","23","{""ArrowUp,ArrowLeft"":3,""ArrowUp,ArrowRight"":36,""ArrowDown,ArrowLeft"":15,""ArrowDown,ArrowRight"":23}","false","ArrowDown,ArrowRight","false","","","","","",""
"html-keyboard-response","48","247105","0.0-3.0-8.0-1.4","spark_pilot_norest","8589","6","11","Female","","","","","","","null","<div style=""font-size:60px;"">+</div>","null","fixation","","","","","","","","","","","",""
"learning-instructions","49","258679","0.0-3.0-9.0-0.0","spark_pilot_norest","8589","6","11","Female","","","","","","","1237","<p> One last thing: sometimes, you will see a robber. The robber can be anywhere in the picture. </p>
            <p> If you do not stop them, you will lose treasure. </p>
            <img src='./assets/img/instructions/robber.jpg' class='instructions-image'>","","instructions","","","","","","","","","","","",""
"learning-instructions","50","267783","0.0-3.0-9.0-0.1","spark_pilot_norest","8589","6","11","Female","","","","","","","1901.0999999046326","<p> If you see the robber, you should <b>press the space bar</b> rather than using the arrow keys. </p>
            <p> Try practicing that now! </p>","","instructions","","","","","","","","","","","",""
"revaluation","51","271806","0.0-3.0-10.0-0.0","spark_pilot_norest","8589","6","11","Female","","true","","","","","[]","./assets/img/space/catch/0.jpg","[]","catch practice","space","-5","{""ArrowUp,ArrowLeft"":3,""ArrowUp,ArrowRight"":36,""ArrowDown,ArrowLeft"":15,""ArrowDown,ArrowRight"":23}","false","","true","","","","","",""
"html-keyboard-response","52","272323","0.0-3.0-10.0-1.0","spark_pilot_norest","8589","6","11","Female","","","","","","","null","<div style=""font-size:60px;"">+</div>","null","fixation","","","","","","","","","","","",""
"revaluation","53","276340","0.0-3.0-10.0-0.1","spark_pilot_norest","8589","6","11","Female","","false","","","","","[832.1999998092651]","./assets/img/space/catch/1.jpg","[""spaceBar""]","catch practice","space","0","{""ArrowUp,ArrowLeft"":3,""ArrowUp,ArrowRight"":36,""ArrowDown,ArrowLeft"":15,""ArrowDown,ArrowRight"":23}","true","spaceBar","true","","","","","",""
"html-keyboard-response","54","276856","0.0-3.0-10.0-1.1","spark_pilot_norest","8589","6","11","Female","","","","","","","null","<div style=""font-size:60px;"">+</div>","null","fixation","","","","","","","","","","","",""
"revaluation","55","280874","0.0-3.0-10.0-0.2","spark_pilot_norest","8589","6","11","Female","","false","","","","","[995.9000000953674]","./assets/img/space/catch/2.jpg","[""spaceBar""]","catch practice","space","0","{""ArrowUp,ArrowLeft"":3,""ArrowUp,ArrowRight"":36,""ArrowDown,ArrowLeft"":15,""ArrowDown,ArrowRight"":23}","true","spaceBar","true","","","","","",""
"html-keyboard-response","56","281381","0.0-3.0-10.0-1.2","spark_pilot_norest","8589","6","11","Female","","","","","","","null","<div style=""font-size:60px;"">+</div>","null","fixation","","","","","","","","","","","",""
"learning-instructions","57","289504","0.0-3.0-11.0-0.0-0.0","spark_pilot_norest","8589","6","11","Female","","","","","","","2822.4000000953674","<p> Now, you will practice a shortened version of the game to get a sense of how it all fits together. </p>","","instructions","","","","","","","","","","","",""
"learning-instructions","58","293715","0.0-3.0-11.0-0.0-0.1","spark_pilot_norest","8589","6","11","Female","","","","","","","1003.2999999523163","<p>This time you are searching for treasure in outer space.</p>","","instructions","","","","","","","","","","","",""
"learning-instructions","59","310939","0.0-3.0-11.0-1.0-0.0","spark_pilot_norest","8589","6","11","Female","","","","","","","2427.2000000476837","<p> Remember, when you see a picture of the place, use the up and down keys to <b>find an animal</b>.</p>
            <p> When you encounter an animal, you should use the left and right keys to <b>select a treasure chest</b>.</p>
            <p> Don't forget to look out for the robber! </p>","","instructions","","","","","","","","","","","",""
"revaluation","60","316975","0.0-3.0-11.0-2.0-0.0","spark_pilot_norest","8589","6","11","Female","","false","","","","","[1255.2999999523163,625.5]","./assets/img/space/11.jpg","[""ArrowUp"",""ArrowRight""]","practice block","space","36","{""ArrowUp,ArrowLeft"":3,""ArrowUp,ArrowRight"":36,""ArrowDown,ArrowLeft"":15,""ArrowDown,ArrowRight"":23}","true","ArrowUp,ArrowRight","false","","","","","",""
"html-keyboard-response","61","317478","0.0-3.0-11.0-2.0-1.0","spark_pilot_norest","8589","6","11","Female","","","","","","","null","<div style=""font-size:60px;"">+</div>","null","fixation","","","","","","","","","","","",""
"revaluation","62","323512","0.0-3.0-11.0-2.0-0.1","spark_pilot_norest","8589","6","11","Female","","false","","","","","[1143.5,429]","./assets/img/space/12.jpg","[""ArrowDown"",""ArrowRight""]","practice block","space","23","{""ArrowUp,ArrowLeft"":3,""ArrowUp,ArrowRight"":36,""ArrowDown,ArrowLeft"":15,""ArrowDown,ArrowRight"":23}","false","ArrowDown,ArrowRight","false","","","","","",""
"html-keyboard-response","63","324015","0.0-3.0-11.0-2.0-1.1","spark_pilot_norest","8589","6","11","Female","","","","","","","null","<div style=""font-size:60px;"">+</div>","null","fixation","","","","","","","","","","","",""
"revaluation","64","330044","0.0-3.0-11.0-2.0-0.2","spark_pilot_norest","8589","6","11","Female","","false","","","","","[502.60000014305115,389.59999990463257]","./assets/img/space/13.jpg","[""ArrowUp"",""ArrowRight""]","practice block","space","36","{""ArrowUp,ArrowLeft"":3,""ArrowUp,ArrowRight"":36,""ArrowDown,ArrowLeft"":15,""ArrowDown,ArrowRight"":23}","true","ArrowUp,ArrowRight","false","","","","","",""
"html-keyboard-response","65","330548","0.0-3.0-11.0-2.0-1.2","spark_pilot_norest","8589","6","11","Female","","","","","","","null","<div style=""font-size:60px;"">+</div>","null","fixation","","","","","","","","","","","",""
"revaluation","66","336572","0.0-3.0-11.0-2.0-0.3","spark_pilot_norest","8589","6","11","Female","","false","","","","","[1093,594.7000000476837]","./assets/img/space/14.jpg","[""ArrowUp"",""ArrowRight""]","practice block","space","36","{""ArrowUp,ArrowLeft"":3,""ArrowUp,ArrowRight"":36,""ArrowDown,ArrowLeft"":15,""ArrowDown,ArrowRight"":23}","true","ArrowUp,ArrowRight","false","","","","","",""
"html-keyboard-response","67","337075","0.0-3.0-11.0-2.0-1.3","spark_pilot_norest","8589","6","11","Female","","","","","","","null","<div style=""font-size:60px;"">+</div>","null","fixation","","","","","","","","","","","",""
"revaluation","68","343082","0.0-3.0-11.0-2.0-0.4","spark_pilot_norest","8589","6","11","Female","","false","","","","","[1369.7000000476837,513.5999999046326]","./assets/img/space/11.jpg","[""ArrowUp"",""ArrowRight""]","practice block","space","36","{""ArrowUp,ArrowLeft"":3,""ArrowUp,ArrowRight"":36,""ArrowDown,ArrowLeft"":15,""ArrowDown,ArrowRight"":23}","true","ArrowUp,ArrowRight","false","","","","","",""
"html-keyboard-response","69","343584","0.0-3.0-11.0-2.0-1.4","spark_pilot_norest","8589","6","11","Female","","","","","","","null","<div style=""font-size:60px;"">+</div>","null","fixation","","","","","","","","","","","",""
"revaluation","70","349592","0.0-3.0-11.0-2.0-0.5","spark_pilot_norest","8589","6","11","Female","","false","","","","","[533.5999999046326,441.10000014305115]","./assets/img/space/12.jpg","[""ArrowUp"",""ArrowRight""]","practice block","space","36","{""ArrowUp,ArrowLeft"":3,""ArrowUp,ArrowRight"":36,""ArrowDown,ArrowLeft"":15,""ArrowDown,ArrowRight"":23}","true","ArrowUp,ArrowRight","false","","","","","",""
"html-keyboard-response","71","350094","0.0-3.0-11.0-2.0-1.5","spark_pilot_norest","8589","6","11","Female","","","","","","","null","<div style=""font-size:60px;"">+</div>","null","fixation","","","","","","","","","","","",""
"revaluation","72","356101","0.0-3.0-11.0-2.0-0.6","spark_pilot_norest","8589","6","11","Female","","false","","","","","[671.2999999523163,363.2999999523163]","./assets/img/space/13.jpg","[""ArrowUp"",""ArrowRight""]","practice block","space","36","{""ArrowUp,ArrowLeft"":3,""ArrowUp,ArrowRight"":36,""ArrowDown,ArrowLeft"":15,""ArrowDown,ArrowRight"":23}","true","ArrowUp,ArrowRight","false","","","","","",""
"html-keyboard-response","73","356614","0.0-3.0-11.0-2.0-1.6","spark_pilot_norest","8589","6","11","Female","","","","","","","null","<div style=""font-size:60px;"">+</div>","null","fixation","","","","","","","","","","","",""
"revaluation","74","362622","0.0-3.0-11.0-2.0-0.7","spark_pilot_norest","8589","6","11","Female","","false","","","","","[519,521.2999999523163]","./assets/img/space/14.jpg","[""ArrowUp"",""ArrowRight""]","practice block","space","36","{""ArrowUp,ArrowLeft"":3,""ArrowUp,ArrowRight"":36,""ArrowDown,ArrowLeft"":15,""ArrowDown,ArrowRight"":23}","true","ArrowUp,ArrowRight","false","","","","","",""
"html-keyboard-response","75","363123","0.0-3.0-11.0-2.0-1.7","spark_pilot_norest","8589","6","11","Female","","","","","","","null","<div style=""font-size:60px;"">+</div>","null","fixation","","","","","","","","","","","",""
"revaluation","76","367135","0.0-3.0-11.0-2.0-0.8","spark_pilot_norest","8589","6","11","Female","","false","","","","","[915.9000000953674]","./assets/img/space/catch/3.jpg","[""spaceBar""]","practice block","space","0","{""ArrowUp,ArrowLeft"":3,""ArrowUp,ArrowRight"":36,""ArrowDown,ArrowLeft"":15,""ArrowDown,ArrowRight"":23}","true","spaceBar","true","","","","","",""
"html-keyboard-response","77","367636","0.0-3.0-11.0-2.0-1.8","spark_pilot_norest","8589","6","11","Female","","","","","","","null","<div style=""font-size:60px;"">+</div>","null","fixation","","","","","","","","","","","",""
"learning-instructions","78","383391","0.0-3.0-11.0-3.0-0.0","spark_pilot_norest","8589","6","11","Female","","","","","","","2189.9000000953674","<p> Now, you will travel with a friend who will choose whether you go up or down first. </p>
            <p> On these turns, you will just see the animal that they found. You will still get to choose which chest to search for treasure.</p>","","instructions","","","","","","","","","","","",""
"revaluation","79","387422","0.0-3.0-11.0-4.0-0.0","spark_pilot_norest","8589","6","11","Female","","false","","","","","[1231.3000001907349]","./assets/img/space/animals/cat.jpg","[""ArrowRight""]","practice block","space","36","{""ArrowUp,ArrowLeft"":3,""ArrowUp,ArrowRight"":36,""ArrowDown,ArrowLeft"":15,""ArrowDown,ArrowRight"":23}","true","ArrowUp,ArrowRight","","","","","","",""
"html-keyboard-response","80","387924","0.0-3.0-11.0-4.0-1.0","spark_pilot_norest","8589","6","11","Female","","","","","","","null","<div style=""font-size:60px;"">+</div>","null","fixation","","","","","","","","","","","",""
"revaluation","81","391946","0.0-3.0-11.0-4.0-0.1","spark_pilot_norest","8589","6","11","Female","","false","","","","","[993.3999998569489]","./assets/img/space/animals/rabbit.jpg","[""ArrowRight""]","practice block","space","23","{""ArrowUp,ArrowLeft"":3,""ArrowUp,ArrowRight"":36,""ArrowDown,ArrowLeft"":15,""ArrowDown,ArrowRight"":23}","true","ArrowDown,ArrowRight","","","","","","",""
"html-keyboard-response","82","392451","0.0-3.0-11.0-4.0-1.1","spark_pilot_norest","8589","6","11","Female","","","","","","","null","<div style=""font-size:60px;"">+</div>","null","fixation","","","","","","","","","","","",""
"revaluation","83","396472","0.0-3.0-11.0-4.0-0.2","spark_pilot_norest","8589","6","11","Female","","false","","","","","[501.39999985694885]","./assets/img/space/animals/rabbit.jpg","[""ArrowRight""]","practice block","space","23","{""ArrowUp,ArrowLeft"":3,""ArrowUp,ArrowRight"":36,""ArrowDown,ArrowLeft"":15,""ArrowDown,ArrowRight"":23}","true","ArrowDown,ArrowRight","","","","","","",""
"html-keyboard-response","84","396989","0.0-3.0-11.0-4.0-1.2","spark_pilot_norest","8589","6","11","Female","","","","","","","null","<div style=""font-size:60px;"">+</div>","null","fixation","","","","","","","","","","","",""
"revaluation","85","401010","0.0-3.0-11.0-4.0-0.3","spark_pilot_norest","8589","6","11","Female","","false","","","","","[627.7000000476837]","./assets/img/space/animals/cat.jpg","[""ArrowRight""]","practice block","space","36","{""ArrowUp,ArrowLeft"":3,""ArrowUp,ArrowRight"":36,""ArrowDown,ArrowLeft"":15,""ArrowDown,ArrowRight"":23}","true","ArrowUp,ArrowRight","","","","","","",""
"html-keyboard-response","86","401514","0.0-3.0-11.0-4.0-1.3","spark_pilot_norest","8589","6","11","Female","","","","","","","null","<div style=""font-size:60px;"">+</div>","null","fixation","","","","","","","","","","","",""
"learning-instructions","87","409671","0.0-3.0-11.0-5.0-0.0","spark_pilot_norest","8589","6","11","Female","","","","","","","null","<p> You have almost finished this part of the game! </p>
            <p> We are going to ask you to make a few more choices. </p>","","instructions","","","","","","","","","","","",""
"learning-instructions","88","425740","0.0-3.0-11.0-5.0-0.1","spark_pilot_norest","8589","6","11","Female","","","","","","","null","<p> First, you need to decide whether to go up or down. When you see each picture, use the arrow keys to make your choice. </p>
            <p><b>You will not see which animal you found, but try to get to the one that will give you the most treasure.</b></p>","","instructions","","","","","","","","","","","",""
"html-keyboard-response","89","426743","0.0-3.0-11.0-6.0-0.0","spark_pilot_norest","8589","6","11","Female","","","","","","","null","<div style=""font-size:100px;color:red;"">Starting in...</div>","null","","","","","","","","","","","","",""
"html-keyboard-response","90","427754","0.0-3.0-11.0-6.0-1.0","spark_pilot_norest","8589","6","11","Female","","","","","","","null","<div style=""font-size:200px;color:red;"">3</div>","null","","","","","","","","","","","","",""
"html-keyboard-response","91","428756","0.0-3.0-11.0-6.0-2.0","spark_pilot_norest","8589","6","11","Female","","","","","","","null","<div style=""font-size:200px;color:red;"">2</div>","null","","","","","","","","","","","","",""
"html-keyboard-response","92","429768","0.0-3.0-11.0-6.0-3.0","spark_pilot_norest","8589","6","11","Female","","","","","","","null","<div style=""font-size:200px;color:red;"">1</div>","null","","","","","","","","","","","","",""
"revaluation","93","430637","0.0-3.0-11.0-7.0","spark_pilot_norest","8589","6","11","Female","","false","","","","","[863.7000000476837]","./assets/img/space/15.jpg","[""ArrowUp""]","practice block","space","0","{""ArrowUp,ArrowLeft"":3,""ArrowUp,ArrowRight"":36,""ArrowDown,ArrowLeft"":15,""ArrowDown,ArrowRight"":23}","true","ArrowUp","false","","","","","",""
"html-keyboard-response","94","431148","0.0-3.0-11.0-8.0","spark_pilot_norest","8589","6","11","Female","","","","","","","null","<div style=""font-size:60px;"">+</div>","null","fixation","","","","","","","","","","","",""
"learning-instructions","95","444588","0.0-3.0-11.0-9.0-0.0","spark_pilot_norest","8589","6","11","Female","","","","","","","null","<p> Now you will see the animals again and can search their chests for treasure. </p>
            <p> This time, you will not see how much treasure you earned, but you will earn more bonus money for making better choices. </p>","","instructions","","","","","","","","","","","",""
"html-keyboard-response","96","445593","0.0-3.0-11.0-10.0-0.0","spark_pilot_norest","8589","6","11","Female","","","","","","","null","<div style=""font-size:100px;color:red;"">Starting in...</div>","null","","","","","","","","","","","","",""
"html-keyboard-response","97","446602","0.0-3.0-11.0-10.0-1.0","spark_pilot_norest","8589","6","11","Female","","","","","","","null","<div style=""font-size:200px;color:red;"">3</div>","null","","","","","","","","","","","","",""
"html-keyboard-response","98","447612","0.0-3.0-11.0-10.0-2.0","spark_pilot_norest","8589","6","11","Female","","","","","","","null","<div style=""font-size:200px;color:red;"">2</div>","null","","","","","","","","","","","","",""
"html-keyboard-response","99","448614","0.0-3.0-11.0-10.0-3.0","spark_pilot_norest","8589","6","11","Female","","","","","","","null","<div style=""font-size:200px;color:red;"">1</div>","null","","","","","","","","","","","","",""
"revaluation","100","449420","0.0-3.0-11.0-11.0-0.0","spark_pilot_norest","8589","6","11","Female","","false","","","","","[800.5999999046326]","./assets/img/space/animals/cat.jpg","[""ArrowRight""]","practice block","space","0","{""ArrowUp,ArrowLeft"":3,""ArrowUp,ArrowRight"":36,""ArrowDown,ArrowLeft"":15,""ArrowDown,ArrowRight"":23}","true","ArrowUp,ArrowRight","","","","","","",""
"html-keyboard-response","101","449924","0.0-3.0-11.0-11.0-1.0","spark_pilot_norest","8589","6","11","Female","","","","","","","null","<div style=""font-size:60px;"">+</div>","null","fixation","","","","","","","","","","","",""
"revaluation","102","450980","0.0-3.0-11.0-11.0-0.1","spark_pilot_norest","8589","6","11","Female","","false","","","","","[1053.2000000476837]","./assets/img/space/animals/rabbit.jpg","[""ArrowRight""]","practice block","space","0","{""ArrowUp,ArrowLeft"":3,""ArrowUp,ArrowRight"":36,""ArrowDown,ArrowLeft"":15,""ArrowDown,ArrowRight"":23}","true","ArrowDown,ArrowRight","","","","","","",""
"html-keyboard-response","103","451493","0.0-3.0-11.0-11.0-1.1","spark_pilot_norest","8589","6","11","Female","","","","","","","null","<div style=""font-size:60px;"">+</div>","null","fixation","","","","","","","","","","","",""
"learning-instructions","104","457674","0.0-3.0-12.0-0.0","spark_pilot_norest","8589","6","11","Female","","","","","","","1573.3999998569489","<p> Before you start, we're going to ask you a few questions about how the game works. </p>","","instructions","","","","","","","","","","","",""
"comp-q","105","465647","0.0-3.0-13.0-0.0-0.0","spark_pilot_norest","8589","6","11","Female","","","","","","","2369.5","<p> <b> True or False? </b> </p>
            <p> There can be 50 pieces of treasure in a given animal's chest. </p>","1","comp_question","","","","true","","","","","","","",""
"comp-q","106","473508","0.0-3.0-13.0-0.0-1.0","spark_pilot_norest","8589","6","11","Female","","","","","","","1157.3999998569489","<p> <b> That's right! </b> The amount of treasure in each chest can range from 0 to 40 pieces. </p>","0","comp_answer","","","","","","","","","","","",""
"comp-q","107","481579","0.0-3.0-13.0-0.1-0.1","spark_pilot_norest","8589","6","11","Female","","","","","","","918","<p> <b> True or False? </b> </p><p> In this game, all animals have the same amount of treasure in their left and right chests. </p>","1","comp_question","","","","true","","","","","","","",""
"comp-q","108","487843","0.0-3.0-13.0-0.1-1.1","spark_pilot_norest","8589","6","11","Female","","","","","","","1022.5","<p> <b> That's right! </b> Animals have different amounts of treasure in their treasure chests. </p>","0","comp_answer","","","","","","","","","","","",""
"comp-q","109","495023","0.0-3.0-13.0-0.2-0.2","spark_pilot_norest","8589","6","11","Female","","","","","","","1312.9000000953674","<p> <b> True or False? </b> </p><p> The same animal will always be there if you go up in the same place. </p>","0","comp_question","","","","true","","","","","","","",""
"comp-q","110","506341","0.0-3.0-13.0-0.2-1.2","spark_pilot_norest","8589","6","11","Female","","","","","","","4830.199999809265","<p> <b> That's right! </b> One animal lives in the upper part and one lives in the lower part of every place. </p>","0","comp_answer","","","","","","","","","","","",""
"comp-q","111","513676","0.0-3.0-13.0-0.3-0.3","spark_pilot_norest","8589","6","11","Female","","","","","","","1774.3999998569489","<p> <b> True or False? </b> </p><p> If you see a different picture, it means you are in a new place. </p>","1","comp_question","","","","true","","","","","","","",""
"comp-q","112","527023","0.0-3.0-13.0-0.3-1.3","spark_pilot_norest","8589","6","11","Female","","","","","","","2062.4000000953674","<p> <b> That's right! </b> Lots of different images may show the same place. For example,  you may see three different images that all remind you that you are in outer space. </p>","0","comp_answer","","","","","","","","","","","",""
"learning-instructions","113","538741","0.0-3.0-14.0-0.0","spark_pilot_norest","8589","6","11","Female","","","","","","","1820.6000001430511","<p> Good job. Remember to do your best because the amount of treasure you earn will be converted into bonus money. </p>
            <p> It’s time to start the real game! </p>","","instructions","","","","","","","","","","","",""
"learning-instructions","114","542529","0.0-4.0-0.0-0.0","spark_pilot_norest","8589","6","11","Female","","","","","","","989.2000000476837","<p> This time you are searching for treasure in the <b>canyon</b>.</p>","","instructions","","","","","","","","","","","",""
"learning-instructions","115","563624","0.0-4.0-0.0-0.1","spark_pilot_norest","8589","6","11","Female","","","","","","","3724","<p><b>New</b> animals with <b>new</b> treasure chests live here. You need to explore to discover where the animal with the best treasure chest is.</p>
                    <p> Like before, once you figure out which animal has the chest with the most treasure, you should try to get to that animal and select that chest! </p>","","instructions","","","","","","","","","","","",""
"learning-instructions","116","579566","0.0-4.0-1.0-0.0","spark_pilot_norest","8589","6","11","Female","","","","","","","1215.0999999046326","<p> Remember, when you see a picture of the place, use the up and down keys to <b>find an animal</b>.</p>
            <p> When you encounter an animal, you should use the left and right keys to <b>select a treasure chest</b>.</p>
            <p> Don't forget to look out for the robber! </p>","","instructions","","","","","","","","","","","",""
"revaluation","117","583579","0.0-4.0-2.0-0.0","spark_pilot_norest","8589","6","11","Female","","false","","","","","[1403]","./assets/img/canyon/catch/0.jpg","[""ArrowUp""]","value training","canyon","-10","{""ArrowUp,ArrowLeft"":23,""ArrowUp,ArrowRight"":10,""ArrowDown,ArrowLeft"":8,""ArrowDown,ArrowRight"":30}","false","ArrowUp","true","revaluation","1","0","","",""
"html-keyboard-response","118","584088","0.0-4.0-2.0-1.0","spark_pilot_norest","8589","6","11","Female","","","","","","","null","<div style=""font-size:60px;"">+</div>","null","fixation","","","","","","","","","1","","",""
"revaluation","119","590099","0.0-4.0-2.0-0.1","spark_pilot_norest","8589","6","11","Female","","false","","","","","[674.0999999046326,757.2000000476837]","./assets/img/canyon/memory/17.jpg","[""ArrowUp"",""ArrowRight""]","value training","canyon","10","{""ArrowUp,ArrowLeft"":23,""ArrowUp,ArrowRight"":10,""ArrowDown,ArrowLeft"":8,""ArrowDown,ArrowRight"":30}","false","ArrowUp,ArrowRight","false","revaluation","1","2","","",""
"html-keyboard-response","120","590602","0.0-4.0-2.0-1.1","spark_pilot_norest","8589","6","11","Female","","","","","","","null","<div style=""font-size:60px;"">+</div>","null","fixation","","","","","","","","","3","","",""
"revaluation","121","596628","0.0-4.0-2.0-0.2","spark_pilot_norest","8589","6","11","Female","","false","","","","","[887.2999999523163,361.19999980926514]","./assets/img/canyon/memory/8.jpg","[""ArrowUp"",""ArrowLeft""]","value training","canyon","23","{""ArrowUp,ArrowLeft"":23,""ArrowUp,ArrowRight"":10,""ArrowDown,ArrowLeft"":8,""ArrowDown,ArrowRight"":30}","false","ArrowUp,ArrowLeft","false","revaluation","1","4","","",""
"html-keyboard-response","122","597140","0.0-4.0-2.0-1.2","spark_pilot_norest","8589","6","11","Female","","","","","","","null","<div style=""font-size:60px;"">+</div>","null","fixation","","","","","","","","","5","","",""
"revaluation","123","603153","0.0-4.0-2.0-0.3","spark_pilot_norest","8589","6","11","Female","","false","","","","","[595.9000000953674,537.2000000476837]","./assets/img/canyon/memory/33.jpg","[""ArrowDown"",""ArrowRight""]","value training","canyon","30","{""ArrowUp,ArrowLeft"":23,""ArrowUp,ArrowRight"":10,""ArrowDown,ArrowLeft"":8,""ArrowDown,ArrowRight"":30}","true","ArrowDown,ArrowRight","false","revaluation","1","6","","",""
"html-keyboard-response","124","603670","0.0-4.0-2.0-1.3","spark_pilot_norest","8589","6","11","Female","","","","","","","null","<div style=""font-size:60px;"">+</div>","null","fixation","","","","","","","","","7","","",""
"revaluation","125","609701","0.0-4.0-2.0-0.4","spark_pilot_norest","8589","6","11","Female","","false","","","","","[508,338.2999999523163]","./assets/img/canyon/memory/20.jpg","[""ArrowDown"",""ArrowLeft""]","value training","canyon","8","{""ArrowUp,ArrowLeft"":23,""ArrowUp,ArrowRight"":10,""ArrowDown,ArrowLeft"":8,""ArrowDown,ArrowRight"":30}","false","ArrowDown,ArrowLeft","false","revaluation","1","8","","",""
"html-keyboard-response","126","610203","0.0-4.0-2.0-1.4","spark_pilot_norest","8589","6","11","Female","","","","","","","null","<div style=""font-size:60px;"">+</div>","null","fixation","","","","","","","","","9","","",""
"revaluation","127","616210","0.0-4.0-2.0-0.5","spark_pilot_norest","8589","6","11","Female","","false","","","","","[798.7999999523163,349.60000014305115]","./assets/img/canyon/memory/39.jpg","[""ArrowDown"",""ArrowRight""]","value training","canyon","30","{""ArrowUp,ArrowLeft"":23,""ArrowUp,ArrowRight"":10,""ArrowDown,ArrowLeft"":8,""ArrowDown,ArrowRight"":30}","true","ArrowDown,ArrowRight","false","revaluation","1","10","","",""
"html-keyboard-response","128","616713","0.0-4.0-2.0-1.5","spark_pilot_norest","8589","6","11","Female","","","","","","","null","<div style=""font-size:60px;"">+</div>","null","fixation","","","","","","","","","11","","",""
"revaluation","129","622720","0.0-4.0-2.0-0.6","spark_pilot_norest","8589","6","11","Female","","false","","","","","[935.3999998569489,372.09999990463257]","./assets/img/canyon/memory/18.jpg","[""ArrowDown"",""ArrowRight""]","value training","canyon","30","{""ArrowUp,ArrowLeft"":23,""ArrowUp,ArrowRight"":10,""ArrowDown,ArrowLeft"":8,""ArrowDown,ArrowRight"":30}","true","ArrowDown,ArrowRight","false","revaluation","1","12","","",""
"html-keyboard-response","130","623222","0.0-4.0-2.0-1.6","spark_pilot_norest","8589","6","11","Female","","","","","","","null","<div style=""font-size:60px;"">+</div>","null","fixation","","","","","","","","","13","","",""
"revaluation","131","629229","0.0-4.0-2.0-0.7","spark_pilot_norest","8589","6","11","Female","","false","","","","","[574.7000000476837,370.90000009536743]","./assets/img/canyon/memory/18.jpg","[""ArrowDown"",""ArrowRight""]","value training","canyon","30","{""ArrowUp,ArrowLeft"":23,""ArrowUp,ArrowRight"":10,""ArrowDown,ArrowLeft"":8,""ArrowDown,ArrowRight"":30}","true","ArrowDown,ArrowRight","false","revaluation","1","14","","",""
"html-keyboard-response","132","629732","0.0-4.0-2.0-1.7","spark_pilot_norest","8589","6","11","Female","","","","","","","null","<div style=""font-size:60px;"">+</div>","null","fixation","","","","","","","","","15","","",""
"revaluation","133","635737","0.0-4.0-2.0-0.8","spark_pilot_norest","8589","6","11","Female","","false","","","","","[517.6999998092651,536.4000000953674]","./assets/img/canyon/memory/9.jpg","[""ArrowDown"",""ArrowRight""]","value training","canyon","30","{""ArrowUp,ArrowLeft"":23,""ArrowUp,ArrowRight"":10,""ArrowDown,ArrowLeft"":8,""ArrowDown,ArrowRight"":30}","true","ArrowDown,ArrowRight","false","revaluation","1","16","","",""
"html-keyboard-response","134","636239","0.0-4.0-2.0-1.8","spark_pilot_norest","8589","6","11","Female","","","","","","","null","<div style=""font-size:60px;"">+</div>","null","fixation","","","","","","","","","17","","",""
"revaluation","135","640245","0.0-4.0-2.0-0.9","spark_pilot_norest","8589","6","11","Female","","false","","","","","[659.2999999523163]","./assets/img/canyon/catch/6.jpg","[""spaceBar""]","value training","canyon","0","{""ArrowUp,ArrowLeft"":23,""ArrowUp,ArrowRight"":10,""ArrowDown,ArrowLeft"":8,""ArrowDown,ArrowRight"":30}","true","spaceBar","true","revaluation","1","18","","",""
"html-keyboard-response","136","640747","0.0-4.0-2.0-1.9","spark_pilot_norest","8589","6","11","Female","","","","","","","null","<div style=""font-size:60px;"">+</div>","null","fixation","","","","","","","","","19","","",""
"revaluation","137","646754","0.0-4.0-2.0-0.10","spark_pilot_norest","8589","6","11","Female","","false","","","","","[550.7000000476837,564]","./assets/img/canyon/memory/16.jpg","[""ArrowDown"",""ArrowRight""]","value training","canyon","30","{""ArrowUp,ArrowLeft"":23,""ArrowUp,ArrowRight"":10,""ArrowDown,ArrowLeft"":8,""ArrowDown,ArrowRight"":30}","true","ArrowDown,ArrowRight","false","revaluation","1","20","","",""
"html-keyboard-response","138","647256","0.0-4.0-2.0-1.10","spark_pilot_norest","8589","6","11","Female","","","","","","","null","<div style=""font-size:60px;"">+</div>","null","fixation","","","","","","","","","21","","",""
"revaluation","139","653277","0.0-4.0-2.0-0.11","spark_pilot_norest","8589","6","11","Female","","false","","","","","[637.4000000953674,754.5]","./assets/img/canyon/memory/19.jpg","[""ArrowDown"",""ArrowRight""]","value training","canyon","30","{""ArrowUp,ArrowLeft"":23,""ArrowUp,ArrowRight"":10,""ArrowDown,ArrowLeft"":8,""ArrowDown,ArrowRight"":30}","true","ArrowDown,ArrowRight","false","revaluation","1","22","","",""
"html-keyboard-response","140","653779","0.0-4.0-2.0-1.11","spark_pilot_norest","8589","6","11","Female","","","","","","","null","<div style=""font-size:60px;"">+</div>","null","fixation","","","","","","","","","23","","",""
"revaluation","141","657784","0.0-4.0-2.0-0.12","spark_pilot_norest","8589","6","11","Female","","false","","","","","[640.7999999523163]","./assets/img/canyon/catch/4.jpg","[""spaceBar""]","value training","canyon","0","{""ArrowUp,ArrowLeft"":23,""ArrowUp,ArrowRight"":10,""ArrowDown,ArrowLeft"":8,""ArrowDown,ArrowRight"":30}","true","spaceBar","true","revaluation","1","24","","",""
"html-keyboard-response","142","658286","0.0-4.0-2.0-1.12","spark_pilot_norest","8589","6","11","Female","","","","","","","null","<div style=""font-size:60px;"">+</div>","null","fixation","","","","","","","","","25","","",""
"revaluation","143","662292","0.0-4.0-2.0-0.13","spark_pilot_norest","8589","6","11","Female","","false","","","","","[742.3000001907349]","./assets/img/canyon/catch/3.jpg","[""spaceBar""]","value training","canyon","0","{""ArrowUp,ArrowLeft"":23,""ArrowUp,ArrowRight"":10,""ArrowDown,ArrowLeft"":8,""ArrowDown,ArrowRight"":30}","true","spaceBar","true","revaluation","1","26","","",""
"html-keyboard-response","144","662793","0.0-4.0-2.0-1.13","spark_pilot_norest","8589","6","11","Female","","","","","","","null","<div style=""font-size:60px;"">+</div>","null","fixation","","","","","","","","","27","","",""
"revaluation","145","668801","0.0-4.0-2.0-0.14","spark_pilot_norest","8589","6","11","Female","","false","","","","","[561.3999998569489,373.2000000476837]","./assets/img/canyon/memory/9.jpg","[""ArrowDown"",""ArrowRight""]","value training","canyon","30","{""ArrowUp,ArrowLeft"":23,""ArrowUp,ArrowRight"":10,""ArrowDown,ArrowLeft"":8,""ArrowDown,ArrowRight"":30}","true","ArrowDown,ArrowRight","false","revaluation","1","28","","",""
"html-keyboard-response","146","669303","0.0-4.0-2.0-1.14","spark_pilot_norest","8589","6","11","Female","","","","","","","null","<div style=""font-size:60px;"">+</div>","null","fixation","","","","","","","","","29","","",""
"revaluation","147","675310","0.0-4.0-2.0-0.15","spark_pilot_norest","8589","6","11","Female","","false","","","","","[743.0999999046326,423.89999985694885]","./assets/img/canyon/memory/32.jpg","[""ArrowDown"",""ArrowRight""]","value training","canyon","30","{""ArrowUp,ArrowLeft"":23,""ArrowUp,ArrowRight"":10,""ArrowDown,ArrowLeft"":8,""ArrowDown,ArrowRight"":30}","true","ArrowDown,ArrowRight","false","revaluation","1","30","","",""
"html-keyboard-response","148","675812","0.0-4.0-2.0-1.15","spark_pilot_norest","8589","6","11","Female","","","","","","","null","<div style=""font-size:60px;"">+</div>","null","fixation","","","","","","","","","31","","",""
"revaluation","149","681820","0.0-4.0-2.0-0.16","spark_pilot_norest","8589","6","11","Female","","false","","","","","[464.2000000476837,339.7999999523163]","./assets/img/canyon/memory/7.jpg","[""ArrowDown"",""ArrowRight""]","value training","canyon","30","{""ArrowUp,ArrowLeft"":23,""ArrowUp,ArrowRight"":10,""ArrowDown,ArrowLeft"":8,""ArrowDown,ArrowRight"":30}","true","ArrowDown,ArrowRight","false","revaluation","1","32","","",""
"html-keyboard-response","150","682322","0.0-4.0-2.0-1.16","spark_pilot_norest","8589","6","11","Female","","","","","","","null","<div style=""font-size:60px;"">+</div>","null","fixation","","","","","","","","","33","","",""
"revaluation","151","688329","0.0-4.0-2.0-0.17","spark_pilot_norest","8589","6","11","Female","","false","","","","","[537.7999999523163,391.59999990463257]","./assets/img/canyon/memory/19.jpg","[""ArrowDown"",""ArrowRight""]","value training","canyon","30","{""ArrowUp,ArrowLeft"":23,""ArrowUp,ArrowRight"":10,""ArrowDown,ArrowLeft"":8,""ArrowDown,ArrowRight"":30}","true","ArrowDown,ArrowRight","false","revaluation","1","34","","",""
"html-keyboard-response","152","688830","0.0-4.0-2.0-1.17","spark_pilot_norest","8589","6","11","Female","","","","","","","null","<div style=""font-size:60px;"">+</div>","null","fixation","","","","","","","","","35","","",""
"revaluation","153","694836","0.0-4.0-2.0-0.18","spark_pilot_norest","8589","6","11","Female","","false","","","","","[807.7999999523163,426.40000009536743]","./assets/img/canyon/memory/10.jpg","[""ArrowDown"",""ArrowRight""]","value training","canyon","30","{""ArrowUp,ArrowLeft"":23,""ArrowUp,ArrowRight"":10,""ArrowDown,ArrowLeft"":8,""ArrowDown,ArrowRight"":30}","true","ArrowDown,ArrowRight","false","revaluation","1","36","","",""
"html-keyboard-response","154","695338","0.0-4.0-2.0-1.18","spark_pilot_norest","8589","6","11","Female","","","","","","","null","<div style=""font-size:60px;"">+</div>","null","fixation","","","","","","","","","37","","",""
"revaluation","155","701345","0.0-4.0-2.0-0.19","spark_pilot_norest","8589","6","11","Female","","false","","","","","[734.6000001430511,470.2999999523163]","./assets/img/canyon/memory/16.jpg","[""ArrowDown"",""ArrowRight""]","value training","canyon","30","{""ArrowUp,ArrowLeft"":23,""ArrowUp,ArrowRight"":10,""ArrowDown,ArrowLeft"":8,""ArrowDown,ArrowRight"":30}","true","ArrowDown,ArrowRight","false","revaluation","1","38","","",""
"html-keyboard-response","156","701847","0.0-4.0-2.0-1.19","spark_pilot_norest","8589","6","11","Female","","","","","","","null","<div style=""font-size:60px;"">+</div>","null","fixation","","","","","","","","","39","","",""
"revaluation","157","707859","0.0-4.0-2.0-0.20","spark_pilot_norest","8589","6","11","Female","","false","","","","","[631.7000000476837,606.2999999523163]","./assets/img/canyon/memory/13.jpg","[""ArrowDown"",""ArrowRight""]","value training","canyon","30","{""ArrowUp,ArrowLeft"":23,""ArrowUp,ArrowRight"":10,""ArrowDown,ArrowLeft"":8,""ArrowDown,ArrowRight"":30}","true","ArrowDown,ArrowRight","false","revaluation","1","40","","",""
"html-keyboard-response","158","708360","0.0-4.0-2.0-1.20","spark_pilot_norest","8589","6","11","Female","","","","","","","null","<div style=""font-size:60px;"">+</div>","null","fixation","","","","","","","","","41","","",""
"revaluation","159","712366","0.0-4.0-2.0-0.21","spark_pilot_norest","8589","6","11","Female","","false","","","","","[788.2999999523163]","./assets/img/canyon/catch/5.jpg","[""spaceBar""]","value training","canyon","0","{""ArrowUp,ArrowLeft"":23,""ArrowUp,ArrowRight"":10,""ArrowDown,ArrowLeft"":8,""ArrowDown,ArrowRight"":30}","true","spaceBar","true","revaluation","1","42","","",""
"html-keyboard-response","160","712868","0.0-4.0-2.0-1.21","spark_pilot_norest","8589","6","11","Female","","","","","","","null","<div style=""font-size:60px;"">+</div>","null","fixation","","","","","","","","","43","","",""
"revaluation","161","716879","0.0-4.0-2.0-0.22","spark_pilot_norest","8589","6","11","Female","","false","","","","","[773.9000000953674]","./assets/img/canyon/catch/2.jpg","[""spaceBar""]","value training","canyon","0","{""ArrowUp,ArrowLeft"":23,""ArrowUp,ArrowRight"":10,""ArrowDown,ArrowLeft"":8,""ArrowDown,ArrowRight"":30}","true","spaceBar","true","revaluation","1","44","","",""
"html-keyboard-response","162","717381","0.0-4.0-2.0-1.22","spark_pilot_norest","8589","6","11","Female","","","","","","","null","<div style=""font-size:60px;"">+</div>","null","fixation","","","","","","","","","45","","",""
"revaluation","163","723388","0.0-4.0-2.0-0.23","spark_pilot_norest","8589","6","11","Female","","false","","","","","[997.2000000476837,372.7999999523163]","./assets/img/canyon/memory/27.jpg","[""ArrowDown"",""ArrowRight""]","value training","canyon","30","{""ArrowUp,ArrowLeft"":23,""ArrowUp,ArrowRight"":10,""ArrowDown,ArrowLeft"":8,""ArrowDown,ArrowRight"":30}","true","ArrowDown,ArrowRight","false","revaluation","1","46","","",""
"html-keyboard-response","164","723890","0.0-4.0-2.0-1.23","spark_pilot_norest","8589","6","11","Female","","","","","","","null","<div style=""font-size:60px;"">+</div>","null","fixation","","","","","","","","","47","","",""
"revaluation","165","729907","0.0-4.0-2.0-0.24","spark_pilot_norest","8589","6","11","Female","","false","","","","","[1187.2999999523163,358.10000014305115]","./assets/img/canyon/memory/24.jpg","[""ArrowDown"",""ArrowRight""]","value training","canyon","30","{""ArrowUp,ArrowLeft"":23,""ArrowUp,ArrowRight"":10,""ArrowDown,ArrowLeft"":8,""ArrowDown,ArrowRight"":30}","true","ArrowDown,ArrowRight","false","revaluation","1","48","","",""
"html-keyboard-response","166","730410","0.0-4.0-2.0-1.24","spark_pilot_norest","8589","6","11","Female","","","","","","","null","<div style=""font-size:60px;"">+</div>","null","fixation","","","","","","","","","49","","",""
"revaluation","167","736430","0.0-4.0-2.0-0.25","spark_pilot_norest","8589","6","11","Female","","false","","","","","[487.10000014305115,317.80000019073486]","./assets/img/canyon/memory/24.jpg","[""ArrowDown"",""ArrowRight""]","value training","canyon","30","{""ArrowUp,ArrowLeft"":23,""ArrowUp,ArrowRight"":10,""ArrowDown,ArrowLeft"":8,""ArrowDown,ArrowRight"":30}","true","ArrowDown,ArrowRight","false","revaluation","1","50","","",""
"html-keyboard-response","168","736932","0.0-4.0-2.0-1.25","spark_pilot_norest","8589","6","11","Female","","","","","","","null","<div style=""font-size:60px;"">+</div>","null","fixation","","","","","","","","","51","","",""
"revaluation","169","740938","0.0-4.0-2.0-0.26","spark_pilot_norest","8589","6","11","Female","","false","","","","","[597.7999999523163]","./assets/img/canyon/catch/7.jpg","[""spaceBar""]","value training","canyon","0","{""ArrowUp,ArrowLeft"":23,""ArrowUp,ArrowRight"":10,""ArrowDown,ArrowLeft"":8,""ArrowDown,ArrowRight"":30}","true","spaceBar","true","revaluation","1","52","","",""
"html-keyboard-response","170","741439","0.0-4.0-2.0-1.26","spark_pilot_norest","8589","6","11","Female","","","","","","","null","<div style=""font-size:60px;"">+</div>","null","fixation","","","","","","","","","53","","",""
"revaluation","171","747449","0.0-4.0-2.0-0.27","spark_pilot_norest","8589","6","11","Female","","false","","","","","[797.5999999046326,410.7000000476837]","./assets/img/canyon/memory/0.jpg","[""ArrowDown"",""ArrowRight""]","value training","canyon","30","{""ArrowUp,ArrowLeft"":23,""ArrowUp,ArrowRight"":10,""ArrowDown,ArrowLeft"":8,""ArrowDown,ArrowRight"":30}","true","ArrowDown,ArrowRight","false","revaluation","1","54","","",""
"html-keyboard-response","172","747951","0.0-4.0-2.0-1.27","spark_pilot_norest","8589","6","11","Female","","","","","","","null","<div style=""font-size:60px;"">+</div>","null","fixation","","","","","","","","","55","","",""
"revaluation","173","753960","0.0-4.0-2.0-0.28","spark_pilot_norest","8589","6","11","Female","","false","","","","","[722.3000001907349,522.5]","./assets/img/canyon/memory/12.jpg","[""ArrowDown"",""ArrowRight""]","value training","canyon","30","{""ArrowUp,ArrowLeft"":23,""ArrowUp,ArrowRight"":10,""ArrowDown,ArrowLeft"":8,""ArrowDown,ArrowRight"":30}","true","ArrowDown,ArrowRight","false","revaluation","1","56","","",""
"html-keyboard-response","174","754462","0.0-4.0-2.0-1.28","spark_pilot_norest","8589","6","11","Female","","","","","","","null","<div style=""font-size:60px;"">+</div>","null","fixation","","","","","","","","","57","","",""
"revaluation","175","760470","0.0-4.0-2.0-0.29","spark_pilot_norest","8589","6","11","Female","","false","","","","","[946.4000000953674,293.09999990463257]","./assets/img/canyon/memory/1.jpg","[""ArrowDown"",""ArrowRight""]","value training","canyon","30","{""ArrowUp,ArrowLeft"":23,""ArrowUp,ArrowRight"":10,""ArrowDown,ArrowLeft"":8,""ArrowDown,ArrowRight"":30}","true","ArrowDown,ArrowRight","false","revaluation","1","58","","",""
"html-keyboard-response","176","760973","0.0-4.0-2.0-1.29","spark_pilot_norest","8589","6","11","Female","","","","","","","null","<div style=""font-size:60px;"">+</div>","null","fixation","","","","","","","","","59","","",""
"revaluation","177","764978","0.0-4.0-2.0-0.30","spark_pilot_norest","8589","6","11","Female","","false","","","","","[664.5999999046326]","./assets/img/canyon/catch/1.jpg","[""spaceBar""]","value training","canyon","0","{""ArrowUp,ArrowLeft"":23,""ArrowUp,ArrowRight"":10,""ArrowDown,ArrowLeft"":8,""ArrowDown,ArrowRight"":30}","true","spaceBar","true","revaluation","1","60","","",""
"html-keyboard-response","178","765479","0.0-4.0-2.0-1.30","spark_pilot_norest","8589","6","11","Female","","","","","","","null","<div style=""font-size:60px;"">+</div>","null","fixation","","","","","","","","","61","","",""
"revaluation","179","771491","0.0-4.0-2.0-0.31","spark_pilot_norest","8589","6","11","Female","","false","","","","","[723,413.80000019073486]","./assets/img/canyon/memory/7.jpg","[""ArrowDown"",""ArrowRight""]","value training","canyon","30","{""ArrowUp,ArrowLeft"":23,""ArrowUp,ArrowRight"":10,""ArrowDown,ArrowLeft"":8,""ArrowDown,ArrowRight"":30}","true","ArrowDown,ArrowRight","false","revaluation","1","62","","",""
"html-keyboard-response","180","771993","0.0-4.0-2.0-1.31","spark_pilot_norest","8589","6","11","Female","","","","","","","null","<div style=""font-size:60px;"">+</div>","null","fixation","","","","","","","","","63","","",""
"revaluation","181","778000","0.0-4.0-2.0-0.32","spark_pilot_norest","8589","6","11","Female","","false","","","","","[830.2999999523163,247.89999985694885]","./assets/img/canyon/memory/39.jpg","[""ArrowDown"",""ArrowRight""]","value training","canyon","30","{""ArrowUp,ArrowLeft"":23,""ArrowUp,ArrowRight"":10,""ArrowDown,ArrowLeft"":8,""ArrowDown,ArrowRight"":30}","true","ArrowDown,ArrowRight","false","revaluation","1","64","","",""
"html-keyboard-response","182","778502","0.0-4.0-2.0-1.32","spark_pilot_norest","8589","6","11","Female","","","","","","","null","<div style=""font-size:60px;"">+</div>","null","fixation","","","","","","","","","65","","",""
"revaluation","183","784508","0.0-4.0-2.0-0.33","spark_pilot_norest","8589","6","11","Female","","false","","","","","[656.2999999523163,387.5]","./assets/img/canyon/memory/8.jpg","[""ArrowDown"",""ArrowRight""]","value training","canyon","30","{""ArrowUp,ArrowLeft"":23,""ArrowUp,ArrowRight"":10,""ArrowDown,ArrowLeft"":8,""ArrowDown,ArrowRight"":30}","true","ArrowDown,ArrowRight","false","revaluation","1","66","","",""
"html-keyboard-response","184","785011","0.0-4.0-2.0-1.33","spark_pilot_norest","8589","6","11","Female","","","","","","","null","<div style=""font-size:60px;"">+</div>","null","fixation","","","","","","","","","67","","",""
"revaluation","185","791017","0.0-4.0-2.0-0.34","spark_pilot_norest","8589","6","11","Female","","false","","","","","[994.1000001430511,350]","./assets/img/canyon/memory/2.jpg","[""ArrowDown"",""ArrowRight""]","value training","canyon","30","{""ArrowUp,ArrowLeft"":23,""ArrowUp,ArrowRight"":10,""ArrowDown,ArrowLeft"":8,""ArrowDown,ArrowRight"":30}","true","ArrowDown,ArrowRight","false","revaluation","1","68","","",""
"html-keyboard-response","186","791519","0.0-4.0-2.0-1.34","spark_pilot_norest","8589","6","11","Female","","","","","","","null","<div style=""font-size:60px;"">+</div>","null","fixation","","","","","","","","","69","","",""
"revaluation","187","797533","0.0-4.0-2.0-0.35","spark_pilot_norest","8589","6","11","Female","","false","","","","","[642.4000000953674,378.30000019073486]","./assets/img/canyon/memory/0.jpg","[""ArrowDown"",""ArrowRight""]","value training","canyon","30","{""ArrowUp,ArrowLeft"":23,""ArrowUp,ArrowRight"":10,""ArrowDown,ArrowLeft"":8,""ArrowDown,ArrowRight"":30}","true","ArrowDown,ArrowRight","false","revaluation","1","70","","",""
"html-keyboard-response","188","798035","0.0-4.0-2.0-1.35","spark_pilot_norest","8589","6","11","Female","","","","","","","null","<div style=""font-size:60px;"">+</div>","null","fixation","","","","","","","","","71","","",""
"revaluation","189","804043","0.0-4.0-2.0-0.36","spark_pilot_norest","8589","6","11","Female","","false","","","","","[489.60000014305115,317.59999990463257]","./assets/img/canyon/memory/38.jpg","[""ArrowDown"",""ArrowRight""]","value training","canyon","30","{""ArrowUp,ArrowLeft"":23,""ArrowUp,ArrowRight"":10,""ArrowDown,ArrowLeft"":8,""ArrowDown,ArrowRight"":30}","true","ArrowDown,ArrowRight","false","revaluation","1","72","","",""
"html-keyboard-response","190","804545","0.0-4.0-2.0-1.36","spark_pilot_norest","8589","6","11","Female","","","","","","","null","<div style=""font-size:60px;"">+</div>","null","fixation","","","","","","","","","73","","",""
"revaluation","191","810554","0.0-4.0-2.0-0.37","spark_pilot_norest","8589","6","11","Female","","false","","","","","[692.3999998569489,383.2999999523163]","./assets/img/canyon/memory/27.jpg","[""ArrowDown"",""ArrowRight""]","value training","canyon","30","{""ArrowUp,ArrowLeft"":23,""ArrowUp,ArrowRight"":10,""ArrowDown,ArrowLeft"":8,""ArrowDown,ArrowRight"":30}","true","ArrowDown,ArrowRight","false","revaluation","1","74","","",""
"html-keyboard-response","192","811055","0.0-4.0-2.0-1.37","spark_pilot_norest","8589","6","11","Female","","","","","","","null","<div style=""font-size:60px;"">+</div>","null","fixation","","","","","","","","","75","","",""
"revaluation","193","817063","0.0-4.0-2.0-0.38","spark_pilot_norest","8589","6","11","Female","","false","","","","","[577.0999999046326,376.60000014305115]","./assets/img/canyon/memory/17.jpg","[""ArrowDown"",""ArrowRight""]","value training","canyon","30","{""ArrowUp,ArrowLeft"":23,""ArrowUp,ArrowRight"":10,""ArrowDown,ArrowLeft"":8,""ArrowDown,ArrowRight"":30}","true","ArrowDown,ArrowRight","false","revaluation","1","76","","",""
"html-keyboard-response","194","817565","0.0-4.0-2.0-1.38","spark_pilot_norest","8589","6","11","Female","","","","","","","null","<div style=""font-size:60px;"">+</div>","null","fixation","","","","","","","","","77","","",""
"revaluation","195","823572","0.0-4.0-2.0-0.39","spark_pilot_norest","8589","6","11","Female","","false","","","","","[603.2999999523163,323.5]","./assets/img/canyon/memory/12.jpg","[""ArrowDown"",""ArrowRight""]","value training","canyon","30","{""ArrowUp,ArrowLeft"":23,""ArrowUp,ArrowRight"":10,""ArrowDown,ArrowLeft"":8,""ArrowDown,ArrowRight"":30}","true","ArrowDown,ArrowRight","false","revaluation","1","78","","",""
"html-keyboard-response","196","824075","0.0-4.0-2.0-1.39","spark_pilot_norest","8589","6","11","Female","","","","","","","null","<div style=""font-size:60px;"">+</div>","null","fixation","","","","","","","","","79","","",""
"revaluation","197","830083","0.0-4.0-2.0-0.40","spark_pilot_norest","8589","6","11","Female","","false","","","","","[655.5999999046326,288.2000000476837]","./assets/img/canyon/memory/2.jpg","[""ArrowDown"",""ArrowRight""]","value training","canyon","30","{""ArrowUp,ArrowLeft"":23,""ArrowUp,ArrowRight"":10,""ArrowDown,ArrowLeft"":8,""ArrowDown,ArrowRight"":30}","true","ArrowDown,ArrowRight","false","revaluation","1","80","","",""
"html-keyboard-response","198","830586","0.0-4.0-2.0-1.40","spark_pilot_norest","8589","6","11","Female","","","","","","","null","<div style=""font-size:60px;"">+</div>","null","fixation","","","","","","","","","81","","",""
"revaluation","199","836592","0.0-4.0-2.0-0.41","spark_pilot_norest","8589","6","11","Female","","false","","","","","[615.0999999046326,291.2999999523163]","./assets/img/canyon/memory/22.jpg","[""ArrowDown"",""ArrowRight""]","value training","canyon","30","{""ArrowUp,ArrowLeft"":23,""ArrowUp,ArrowRight"":10,""ArrowDown,ArrowLeft"":8,""ArrowDown,ArrowRight"":30}","true","ArrowDown,ArrowRight","false","revaluation","1","82","","",""
"html-keyboard-response","200","837095","0.0-4.0-2.0-1.41","spark_pilot_norest","8589","6","11","Female","","","","","","","null","<div style=""font-size:60px;"">+</div>","null","fixation","","","","","","","","","83","","",""
"revaluation","201","843102","0.0-4.0-2.0-0.42","spark_pilot_norest","8589","6","11","Female","","false","","","","","[550.1000001430511,271.89999985694885]","./assets/img/canyon/memory/38.jpg","[""ArrowDown"",""ArrowRight""]","value training","canyon","30","{""ArrowUp,ArrowLeft"":23,""ArrowUp,ArrowRight"":10,""ArrowDown,ArrowLeft"":8,""ArrowDown,ArrowRight"":30}","true","ArrowDown,ArrowRight","false","revaluation","1","84","","",""
"html-keyboard-response","202","843603","0.0-4.0-2.0-1.42","spark_pilot_norest","8589","6","11","Female","","","","","","","null","<div style=""font-size:60px;"">+</div>","null","fixation","","","","","","","","","85","","",""
"revaluation","203","849611","0.0-4.0-2.0-0.43","spark_pilot_norest","8589","6","11","Female","","false","","","","","[537.4000000953674,562.1000001430511]","./assets/img/canyon/memory/1.jpg","[""ArrowDown"",""ArrowRight""]","value training","canyon","30","{""ArrowUp,ArrowLeft"":23,""ArrowUp,ArrowRight"":10,""ArrowDown,ArrowLeft"":8,""ArrowDown,ArrowRight"":30}","true","ArrowDown,ArrowRight","false","revaluation","1","86","","",""
"html-keyboard-response","204","850113","0.0-4.0-2.0-1.43","spark_pilot_norest","8589","6","11","Female","","","","","","","null","<div style=""font-size:60px;"">+</div>","null","fixation","","","","","","","","","87","","",""
"revaluation","205","856122","0.0-4.0-2.0-0.44","spark_pilot_norest","8589","6","11","Female","","false","","","","","[606.2999999523163,564.4000000953674]","./assets/img/canyon/memory/20.jpg","[""ArrowDown"",""ArrowRight""]","value training","canyon","30","{""ArrowUp,ArrowLeft"":23,""ArrowUp,ArrowRight"":10,""ArrowDown,ArrowLeft"":8,""ArrowDown,ArrowRight"":30}","true","ArrowDown,ArrowRight","false","revaluation","1","88","","",""
"html-keyboard-response","206","856624","0.0-4.0-2.0-1.44","spark_pilot_norest","8589","6","11","Female","","","","","","","null","<div style=""font-size:60px;"">+</div>","null","fixation","","","","","","","","","89","","",""
"revaluation","207","862631","0.0-4.0-2.0-0.45","spark_pilot_norest","8589","6","11","Female","","false","","","","","[568.7999999523163,527.8999998569489]","./assets/img/canyon/memory/10.jpg","[""ArrowDown"",""ArrowRight""]","value training","canyon","30","{""ArrowUp,ArrowLeft"":23,""ArrowUp,ArrowRight"":10,""ArrowDown,ArrowLeft"":8,""ArrowDown,ArrowRight"":30}","true","ArrowDown,ArrowRight","false","revaluation","1","90","","",""
"html-keyboard-response","208","863134","0.0-4.0-2.0-1.45","spark_pilot_norest","8589","6","11","Female","","","","","","","null","<div style=""font-size:60px;"">+</div>","null","fixation","","","","","","","","","91","","",""
"revaluation","209","869142","0.0-4.0-2.0-0.46","spark_pilot_norest","8589","6","11","Female","","false","","","","","[655.5999999046326,605.8999998569489]","./assets/img/canyon/memory/13.jpg","[""ArrowDown"",""ArrowRight""]","value training","canyon","30","{""ArrowUp,ArrowLeft"":23,""ArrowUp,ArrowRight"":10,""ArrowDown,ArrowLeft"":8,""ArrowDown,ArrowRight"":30}","true","ArrowDown,ArrowRight","false","revaluation","1","92","","",""
"html-keyboard-response","210","869644","0.0-4.0-2.0-1.46","spark_pilot_norest","8589","6","11","Female","","","","","","","null","<div style=""font-size:60px;"">+</div>","null","fixation","","","","","","","","","93","","",""
"revaluation","211","875655","0.0-4.0-2.0-0.47","spark_pilot_norest","8589","6","11","Female","","false","","","","","[839.2999999523163,304.2999999523163]","./assets/img/canyon/memory/33.jpg","[""ArrowDown"",""ArrowRight""]","value training","canyon","30","{""ArrowUp,ArrowLeft"":23,""ArrowUp,ArrowRight"":10,""ArrowDown,ArrowLeft"":8,""ArrowDown,ArrowRight"":30}","true","ArrowDown,ArrowRight","false","revaluation","1","94","","",""
"html-keyboard-response","212","876157","0.0-4.0-2.0-1.47","spark_pilot_norest","8589","6","11","Female","","","","","","","null","<div style=""font-size:60px;"">+</div>","null","fixation","","","","","","","","","95","","",""
"revaluation","213","882166","0.0-4.0-2.0-0.48","spark_pilot_norest","8589","6","11","Female","","false","","","","","[1045.8999998569489,496.2000000476837]","./assets/img/canyon/memory/22.jpg","[""ArrowDown"",""ArrowRight""]","value training","canyon","30","{""ArrowUp,ArrowLeft"":23,""ArrowUp,ArrowRight"":10,""ArrowDown,ArrowLeft"":8,""ArrowDown,ArrowRight"":30}","true","ArrowDown,ArrowRight","false","revaluation","1","96","","",""
"html-keyboard-response","214","882668","0.0-4.0-2.0-1.48","spark_pilot_norest","8589","6","11","Female","","","","","","","null","<div style=""font-size:60px;"">+</div>","null","fixation","","","","","","","","","97","","",""
"revaluation","215","888676","0.0-4.0-2.0-0.49","spark_pilot_norest","8589","6","11","Female","","false","","","","","[719.7000000476837,908.2999999523163]","./assets/img/canyon/memory/32.jpg","[""ArrowDown"",""ArrowRight""]","value training","canyon","30","{""ArrowUp,ArrowLeft"":23,""ArrowUp,ArrowRight"":10,""ArrowDown,ArrowLeft"":8,""ArrowDown,ArrowRight"":30}","true","ArrowDown,ArrowRight","false","revaluation","1","98","","",""
"html-keyboard-response","216","889179","0.0-4.0-2.0-1.49","spark_pilot_norest","8589","6","11","Female","","","","","","","null","<div style=""font-size:60px;"">+</div>","null","fixation","","","","","","","","","99","","",""
"learning-instructions","217","905710","0.0-4.0-3.0-0.0","spark_pilot_norest","8589","6","11","Female","","","","","","","3052.100000143051","<p> Now, you will travel with a friend who will choose whether you go up or down first. </p>
            <p> On these turns, you will just see the animal that they found. You will still get to choose which chest to search for treasure.</p>","","instructions","","","","","","","","","","","",""
"revaluation","218","909722","0.0-4.0-4.0-0.0","spark_pilot_norest","8589","6","11","Female","","false","","","","","[1204.2000000476837]","./assets/img/canyon/animals/giraffe.jpg","[""ArrowRight""]","revaluation","canyon","15","{""ArrowUp,ArrowLeft"":27,""ArrowUp,ArrowRight"":15,""ArrowDown,ArrowLeft"":21,""ArrowDown,ArrowRight"":7}","false","ArrowUp,ArrowRight","","revaluation","1","0","","",""
"html-keyboard-response","219","910238","0.0-4.0-4.0-1.0","spark_pilot_norest","8589","6","11","Female","","","","","","","null","<div style=""font-size:60px;"">+</div>","null","fixation","","","","","","","","","1","","",""
"revaluation","220","914256","0.0-4.0-4.0-0.1","spark_pilot_norest","8589","6","11","Female","","false","","","","","[477.10000014305115]","./assets/img/canyon/animals/giraffe.jpg","[""ArrowLeft""]","revaluation","canyon","27","{""ArrowUp,ArrowLeft"":27,""ArrowUp,ArrowRight"":15,""ArrowDown,ArrowLeft"":21,""ArrowDown,ArrowRight"":7}","true","ArrowUp,ArrowLeft","","revaluation","1","2","","",""
"html-keyboard-response","221","914761","0.0-4.0-4.0-1.1","spark_pilot_norest","8589","6","11","Female","","","","","","","null","<div style=""font-size:60px;"">+</div>","null","fixation","","","","","","","","","3","","",""
"revaluation","222","918775","0.0-4.0-4.0-0.2","spark_pilot_norest","8589","6","11","Female","","false","","","","","[588.6999998092651]","./assets/img/canyon/animals/giraffe.jpg","[""ArrowLeft""]","revaluation","canyon","27","{""ArrowUp,ArrowLeft"":27,""ArrowUp,ArrowRight"":15,""ArrowDown,ArrowLeft"":21,""ArrowDown,ArrowRight"":7}","true","ArrowUp,ArrowLeft","","revaluation","1","4","","",""
"html-keyboard-response","223","919291","0.0-4.0-4.0-1.2","spark_pilot_norest","8589","6","11","Female","","","","","","","null","<div style=""font-size:60px;"">+</div>","null","fixation","","","","","","","","","5","","",""
"revaluation","224","923307","0.0-4.0-4.0-0.3","spark_pilot_norest","8589","6","11","Female","","false","","","","","[465.59999990463257]","./assets/img/canyon/animals/giraffe.jpg","[""ArrowLeft""]","revaluation","canyon","27","{""ArrowUp,ArrowLeft"":27,""ArrowUp,ArrowRight"":15,""ArrowDown,ArrowLeft"":21,""ArrowDown,ArrowRight"":7}","true","ArrowUp,ArrowLeft","","revaluation","1","6","","",""
"html-keyboard-response","225","923824","0.0-4.0-4.0-1.3","spark_pilot_norest","8589","6","11","Female","","","","","","","null","<div style=""font-size:60px;"">+</div>","null","fixation","","","","","","","","","7","","",""
"revaluation","226","927835","0.0-4.0-4.0-0.4","spark_pilot_norest","8589","6","11","Female","","false","","","","","[747.7999999523163]","./assets/img/canyon/animals/lion.jpg","[""ArrowRight""]","revaluation","canyon","7","{""ArrowUp,ArrowLeft"":27,""ArrowUp,ArrowRight"":15,""ArrowDown,ArrowLeft"":21,""ArrowDown,ArrowRight"":7}","false","ArrowDown,ArrowRight","","revaluation","1","8","","",""
"html-keyboard-response","227","928352","0.0-4.0-4.0-1.4","spark_pilot_norest","8589","6","11","Female","","","","","","","null","<div style=""font-size:60px;"">+</div>","null","fixation","","","","","","","","","9","","",""
"revaluation","228","932365","0.0-4.0-4.0-0.5","spark_pilot_norest","8589","6","11","Female","","false","","","","","[1590.2999999523163]","./assets/img/canyon/animals/lion.jpg","[""ArrowLeft""]","revaluation","canyon","21","{""ArrowUp,ArrowLeft"":27,""ArrowUp,ArrowRight"":15,""ArrowDown,ArrowLeft"":21,""ArrowDown,ArrowRight"":7}","true","ArrowDown,ArrowLeft","","revaluation","1","10","","",""
"html-keyboard-response","229","932867","0.0-4.0-4.0-1.5","spark_pilot_norest","8589","6","11","Female","","","","","","","null","<div style=""font-size:60px;"">+</div>","null","fixation","","","","","","","","","11","","",""
"revaluation","230","936873","0.0-4.0-4.0-0.6","spark_pilot_norest","8589","6","11","Female","","false","","","","","[1121.7000000476837]","./assets/img/canyon/animals/lion.jpg","[""ArrowLeft""]","revaluation","canyon","21","{""ArrowUp,ArrowLeft"":27,""ArrowUp,ArrowRight"":15,""ArrowDown,ArrowLeft"":21,""ArrowDown,ArrowRight"":7}","true","ArrowDown,ArrowLeft","","revaluation","1","12","","",""
"html-keyboard-response","231","937375","0.0-4.0-4.0-1.6","spark_pilot_norest","8589","6","11","Female","","","","","","","null","<div style=""font-size:60px;"">+</div>","null","fixation","","","","","","","","","13","","",""
"revaluation","232","941381","0.0-4.0-4.0-0.7","spark_pilot_norest","8589","6","11","Female","","false","","","","","[678.4000000953674]","./assets/img/canyon/animals/giraffe.jpg","[""ArrowLeft""]","revaluation","canyon","27","{""ArrowUp,ArrowLeft"":27,""ArrowUp,ArrowRight"":15,""ArrowDown,ArrowLeft"":21,""ArrowDown,ArrowRight"":7}","true","ArrowUp,ArrowLeft","","revaluation","1","14","","",""
"html-keyboard-response","233","941883","0.0-4.0-4.0-1.7","spark_pilot_norest","8589","6","11","Female","","","","","","","null","<div style=""font-size:60px;"">+</div>","null","fixation","","","","","","","","","15","","",""
"revaluation","234","945889","0.0-4.0-4.0-0.8","spark_pilot_norest","8589","6","11","Female","","false","","","","","[919.1000001430511]","./assets/img/canyon/animals/lion.jpg","[""ArrowLeft""]","revaluation","canyon","21","{""ArrowUp,ArrowLeft"":27,""ArrowUp,ArrowRight"":15,""ArrowDown,ArrowLeft"":21,""ArrowDown,ArrowRight"":7}","true","ArrowDown,ArrowLeft","","revaluation","1","16","","",""
"html-keyboard-response","235","946392","0.0-4.0-4.0-1.8","spark_pilot_norest","8589","6","11","Female","","","","","","","null","<div style=""font-size:60px;"">+</div>","null","fixation","","","","","","","","","17","","",""
"revaluation","236","950398","0.0-4.0-4.0-0.9","spark_pilot_norest","8589","6","11","Female","","false","","","","","[673.5]","./assets/img/canyon/animals/lion.jpg","[""ArrowLeft""]","revaluation","canyon","21","{""ArrowUp,ArrowLeft"":27,""ArrowUp,ArrowRight"":15,""ArrowDown,ArrowLeft"":21,""ArrowDown,ArrowRight"":7}","true","ArrowDown,ArrowLeft","","revaluation","1","18","","",""
"html-keyboard-response","237","950900","0.0-4.0-4.0-1.9","spark_pilot_norest","8589","6","11","Female","","","","","","","null","<div style=""font-size:60px;"">+</div>","null","fixation","","","","","","","","","19","","",""
"revaluation","238","954906","0.0-4.0-4.0-0.10","spark_pilot_norest","8589","6","11","Female","","false","","","","","[675.7999999523163]","./assets/img/canyon/animals/giraffe.jpg","[""ArrowLeft""]","revaluation","canyon","27","{""ArrowUp,ArrowLeft"":27,""ArrowUp,ArrowRight"":15,""ArrowDown,ArrowLeft"":21,""ArrowDown,ArrowRight"":7}","true","ArrowUp,ArrowLeft","","revaluation","1","20","","",""
"html-keyboard-response","239","955410","0.0-4.0-4.0-1.10","spark_pilot_norest","8589","6","11","Female","","","","","","","null","<div style=""font-size:60px;"">+</div>","null","fixation","","","","","","","","","21","","",""
"revaluation","240","959418","0.0-4.0-4.0-0.11","spark_pilot_norest","8589","6","11","Female","","false","","","","","[609.2999999523163]","./assets/img/canyon/animals/lion.jpg","[""ArrowLeft""]","revaluation","canyon","21","{""ArrowUp,ArrowLeft"":27,""ArrowUp,ArrowRight"":15,""ArrowDown,ArrowLeft"":21,""ArrowDown,ArrowRight"":7}","true","ArrowDown,ArrowLeft","","revaluation","1","22","","",""
"html-keyboard-response","241","959921","0.0-4.0-4.0-1.11","spark_pilot_norest","8589","6","11","Female","","","","","","","null","<div style=""font-size:60px;"">+</div>","null","fixation","","","","","","","","","23","","",""
"revaluation","242","963926","0.0-4.0-4.0-0.12","spark_pilot_norest","8589","6","11","Female","","false","","","","","[670.5]","./assets/img/canyon/animals/lion.jpg","[""ArrowLeft""]","revaluation","canyon","21","{""ArrowUp,ArrowLeft"":27,""ArrowUp,ArrowRight"":15,""ArrowDown,ArrowLeft"":21,""ArrowDown,ArrowRight"":7}","true","ArrowDown,ArrowLeft","","revaluation","1","24","","",""
"html-keyboard-response","243","964428","0.0-4.0-4.0-1.12","spark_pilot_norest","8589","6","11","Female","","","","","","","null","<div style=""font-size:60px;"">+</div>","null","fixation","","","","","","","","","25","","",""
"revaluation","244","968433","0.0-4.0-4.0-0.13","spark_pilot_norest","8589","6","11","Female","","false","","","","","[535.9000000953674]","./assets/img/canyon/animals/lion.jpg","[""ArrowLeft""]","revaluation","canyon","21","{""ArrowUp,ArrowLeft"":27,""ArrowUp,ArrowRight"":15,""ArrowDown,ArrowLeft"":21,""ArrowDown,ArrowRight"":7}","true","ArrowDown,ArrowLeft","","revaluation","1","26","","",""
"html-keyboard-response","245","968936","0.0-4.0-4.0-1.13","spark_pilot_norest","8589","6","11","Female","","","","","","","null","<div style=""font-size:60px;"">+</div>","null","fixation","","","","","","","","","27","","",""
"revaluation","246","972942","0.0-4.0-4.0-0.14","spark_pilot_norest","8589","6","11","Female","","false","","","","","[506.2999999523163]","./assets/img/canyon/animals/lion.jpg","[""ArrowLeft""]","revaluation","canyon","21","{""ArrowUp,ArrowLeft"":27,""ArrowUp,ArrowRight"":15,""ArrowDown,ArrowLeft"":21,""ArrowDown,ArrowRight"":7}","true","ArrowDown,ArrowLeft","","revaluation","1","28","","",""
"html-keyboard-response","247","973444","0.0-4.0-4.0-1.14","spark_pilot_norest","8589","6","11","Female","","","","","","","null","<div style=""font-size:60px;"">+</div>","null","fixation","","","","","","","","","29","","",""
"revaluation","248","977450","0.0-4.0-4.0-0.15","spark_pilot_norest","8589","6","11","Female","","false","","","","","[722.2999999523163]","./assets/img/canyon/animals/giraffe.jpg","[""ArrowLeft""]","revaluation","canyon","27","{""ArrowUp,ArrowLeft"":27,""ArrowUp,ArrowRight"":15,""ArrowDown,ArrowLeft"":21,""ArrowDown,ArrowRight"":7}","true","ArrowUp,ArrowLeft","","revaluation","1","30","","",""
"html-keyboard-response","249","977952","0.0-4.0-4.0-1.15","spark_pilot_norest","8589","6","11","Female","","","","","","","null","<div style=""font-size:60px;"">+</div>","null","fixation","","","","","","","","","31","","",""
"revaluation","250","981957","0.0-4.0-4.0-0.16","spark_pilot_norest","8589","6","11","Female","","false","","","","","[567.7999999523163]","./assets/img/canyon/animals/giraffe.jpg","[""ArrowLeft""]","revaluation","canyon","27","{""ArrowUp,ArrowLeft"":27,""ArrowUp,ArrowRight"":15,""ArrowDown,ArrowLeft"":21,""ArrowDown,ArrowRight"":7}","true","ArrowUp,ArrowLeft","","revaluation","1","32","","",""
"html-keyboard-response","251","982459","0.0-4.0-4.0-1.16","spark_pilot_norest","8589","6","11","Female","","","","","","","null","<div style=""font-size:60px;"">+</div>","null","fixation","","","","","","","","","33","","",""
"revaluation","252","986465","0.0-4.0-4.0-0.17","spark_pilot_norest","8589","6","11","Female","","false","","","","","[470.7000000476837]","./assets/img/canyon/animals/giraffe.jpg","[""ArrowLeft""]","revaluation","canyon","27","{""ArrowUp,ArrowLeft"":27,""ArrowUp,ArrowRight"":15,""ArrowDown,ArrowLeft"":21,""ArrowDown,ArrowRight"":7}","true","ArrowUp,ArrowLeft","","revaluation","1","34","","",""
"html-keyboard-response","253","986971","0.0-4.0-4.0-1.17","spark_pilot_norest","8589","6","11","Female","","","","","","","null","<div style=""font-size:60px;"">+</div>","null","fixation","","","","","","","","","35","","",""
"learning-instructions","254","995657","0.0-4.0-5.0-0.0","spark_pilot_norest","8589","6","11","Female","","","","","","","null","<p> You have almost finished this part of the game! </p>
            <p> We are going to ask you to make a few more choices. </p>","","instructions","","","","","","","","","","","",""
"learning-instructions","255","1011638","0.0-4.0-5.0-0.1","spark_pilot_norest","8589","6","11","Female","","","","","","","null","<p> First, you need to decide whether to go up or down. When you see each picture, use the arrow keys to make your choice. </p>
            <p><b>You will not see which animal you found, but try to get to the one that will give you the most treasure.</b></p>","","instructions","","","","","","","","","","","",""
"html-keyboard-response","256","1012642","0.0-4.0-6.0-0.0","spark_pilot_norest","8589","6","11","Female","","","","","","","null","<div style=""font-size:100px;color:red;"">Starting in...</div>","null","","","","","","","","","","","","",""
"html-keyboard-response","257","1013660","0.0-4.0-6.0-1.0","spark_pilot_norest","8589","6","11","Female","","","","","","","null","<div style=""font-size:200px;color:red;"">3</div>","null","","","","","","","","","","","","",""
"html-keyboard-response","258","1014663","0.0-4.0-6.0-2.0","spark_pilot_norest","8589","6","11","Female","","","","","","","null","<div style=""font-size:200px;color:red;"">2</div>","null","","","","","","","","","","","","",""
"html-keyboard-response","259","1015681","0.0-4.0-6.0-3.0","spark_pilot_norest","8589","6","11","Female","","","","","","","null","<div style=""font-size:200px;color:red;"">1</div>","null","","","","","","","","","","","","",""
"revaluation","260","1016423","0.0-4.0-7.0-0.0","spark_pilot_norest","8589","6","11","Female","","false","","","","","[737.2000000476837]","./assets/img/canyon/test/3.jpg","[""ArrowUp""]","first stage test","canyon","0","{""ArrowUp,ArrowLeft"":27,""ArrowUp,ArrowRight"":15,""ArrowDown,ArrowLeft"":21,""ArrowDown,ArrowRight"":7}","true","ArrowUp","false","revaluation","1","","","",""
"html-keyboard-response","261","1016933","0.0-4.0-7.0-1.0","spark_pilot_norest","8589","6","11","Female","","","","","","","null","<div style=""font-size:60px;"">+</div>","null","fixation","","","","","","","","","","","",""
"revaluation","262","1018175","0.0-4.0-7.0-0.1","spark_pilot_norest","8589","6","11","Female","","false","","","","","[1237.5]","./assets/img/canyon/test/2.jpg","[""ArrowDown""]","first stage test","canyon","0","{""ArrowUp,ArrowLeft"":27,""ArrowUp,ArrowRight"":15,""ArrowDown,ArrowLeft"":21,""ArrowDown,ArrowRight"":7}","false","ArrowDown","false","revaluation","1","","","",""
"html-keyboard-response","263","1018692","0.0-4.0-7.0-1.1","spark_pilot_norest","8589","6","11","Female","","","","","","","null","<div style=""font-size:60px;"">+</div>","null","fixation","","","","","","","","","","","",""
"revaluation","264","1019712","0.0-4.0-7.0-0.2","spark_pilot_norest","8589","6","11","Female","","false","","","","","[1015.1000001430511]","./assets/img/canyon/test/0.jpg","[""ArrowUp""]","first stage test","canyon","0","{""ArrowUp,ArrowLeft"":27,""ArrowUp,ArrowRight"":15,""ArrowDown,ArrowLeft"":21,""ArrowDown,ArrowRight"":7}","true","ArrowUp","false","revaluation","1","","","",""
"html-keyboard-response","265","1020221","0.0-4.0-7.0-1.2","spark_pilot_norest","8589","6","11","Female","","","","","","","null","<div style=""font-size:60px;"">+</div>","null","fixation","","","","","","","","","","","",""
"revaluation","266","1021140","0.0-4.0-7.0-0.3","spark_pilot_norest","8589","6","11","Female","","false","","","","","[915.4000000953674]","./assets/img/canyon/test/1.jpg","[""ArrowUp""]","first stage test","canyon","0","{""ArrowUp,ArrowLeft"":27,""ArrowUp,ArrowRight"":15,""ArrowDown,ArrowLeft"":21,""ArrowDown,ArrowRight"":7}","true","ArrowUp","false","revaluation","1","","","",""
"html-keyboard-response","267","1021647","0.0-4.0-7.0-1.3","spark_pilot_norest","8589","6","11","Female","","","","","","","null","<div style=""font-size:60px;"">+</div>","null","fixation","","","","","","","","","","","",""
"learning-instructions","268","1034985","0.0-4.0-8.0-0.0","spark_pilot_norest","8589","6","11","Female","","","","","","","null","<p> Now you will see the animals again and can search their chests for treasure. </p>
            <p> This time, you will not see how much treasure you earned, but you will earn more bonus money for making better choices. </p>","","instructions","","","","","","","","","","","",""
"html-keyboard-response","269","1035997","0.0-4.0-9.0-0.0","spark_pilot_norest","8589","6","11","Female","","","","","","","null","<div style=""font-size:100px;color:red;"">Starting in...</div>","null","","","","","","","","","","","","",""
"html-keyboard-response","270","1037002","0.0-4.0-9.0-1.0","spark_pilot_norest","8589","6","11","Female","","","","","","","null","<div style=""font-size:200px;color:red;"">3</div>","null","","","","","","","","","","","","",""
"html-keyboard-response","271","1038005","0.0-4.0-9.0-2.0","spark_pilot_norest","8589","6","11","Female","","","","","","","null","<div style=""font-size:200px;color:red;"">2</div>","null","","","","","","","","","","","","",""
"html-keyboard-response","272","1039008","0.0-4.0-9.0-3.0","spark_pilot_norest","8589","6","11","Female","","","","","","","null","<div style=""font-size:200px;color:red;"">1</div>","null","","","","","","","","","","","","",""
"revaluation","273","1039750","0.0-4.0-10.0-0.0","spark_pilot_norest","8589","6","11","Female","","false","","","","","[737.2999999523163]","./assets/img/canyon/animals/giraffe.jpg","[""ArrowRight""]","second stage test","canyon","0","{""ArrowUp,ArrowLeft"":27,""ArrowUp,ArrowRight"":15,""ArrowDown,ArrowLeft"":21,""ArrowDown,ArrowRight"":7}","false","ArrowUp,ArrowRight","","revaluation","1","","","",""
"html-keyboard-response","274","1040261","0.0-4.0-10.0-1.0","spark_pilot_norest","8589","6","11","Female","","","","","","","null","<div style=""font-size:60px;"">+</div>","null","fixation","","","","","","","","","","","",""
"revaluation","275","1040972","0.0-4.0-10.0-0.1","spark_pilot_norest","8589","6","11","Female","","false","","","","","[705.9000000953674]","./assets/img/canyon/animals/giraffe.jpg","[""ArrowLeft""]","second stage test","canyon","0","{""ArrowUp,ArrowLeft"":27,""ArrowUp,ArrowRight"":15,""ArrowDown,ArrowLeft"":21,""ArrowDown,ArrowRight"":7}","true","ArrowUp,ArrowLeft","","revaluation","1","","","",""
"html-keyboard-response","276","1041474","0.0-4.0-10.0-1.1","spark_pilot_norest","8589","6","11","Female","","","","","","","null","<div style=""font-size:60px;"">+</div>","null","fixation","","","","","","","","","","","",""
"revaluation","277","1041933","0.0-4.0-10.0-0.2","spark_pilot_norest","8589","6","11","Female","","false","","","","","[454.89999985694885]","./assets/img/canyon/animals/giraffe.jpg","[""ArrowLeft""]","second stage test","canyon","0","{""ArrowUp,ArrowLeft"":27,""ArrowUp,ArrowRight"":15,""ArrowDown,ArrowLeft"":21,""ArrowDown,ArrowRight"":7}","true","ArrowUp,ArrowLeft","","revaluation","1","","","",""
"html-keyboard-response","278","1042447","0.0-4.0-10.0-1.2","spark_pilot_norest","8589","6","11","Female","","","","","","","null","<div style=""font-size:60px;"">+</div>","null","fixation","","","","","","","","","","","",""
"revaluation","279","1042951","0.0-4.0-10.0-0.3","spark_pilot_norest","8589","6","11","Female","","false","","","","","[499.80000019073486]","./assets/img/canyon/animals/giraffe.jpg","[""ArrowLeft""]","second stage test","canyon","0","{""ArrowUp,ArrowLeft"":27,""ArrowUp,ArrowRight"":15,""ArrowDown,ArrowLeft"":21,""ArrowDown,ArrowRight"":7}","true","ArrowUp,ArrowLeft","","revaluation","1","","","",""
"html-keyboard-response","280","1043467","0.0-4.0-10.0-1.3","spark_pilot_norest","8589","6","11","Female","","","","","","","null","<div style=""font-size:60px;"">+</div>","null","fixation","","","","","","","","","","","",""
"revaluation","281","1044387","0.0-4.0-10.0-0.4","spark_pilot_norest","8589","6","11","Female","","false","","","","","[917.1000001430511]","./assets/img/canyon/animals/lion.jpg","[""ArrowLeft""]","second stage test","canyon","0","{""ArrowUp,ArrowLeft"":27,""ArrowUp,ArrowRight"":15,""ArrowDown,ArrowLeft"":21,""ArrowDown,ArrowRight"":7}","true","ArrowDown,ArrowLeft","","revaluation","1","","","",""
"html-keyboard-response","282","1044901","0.0-4.0-10.0-1.4","spark_pilot_norest","8589","6","11","Female","","","","","","","null","<div style=""font-size:60px;"">+</div>","null","fixation","","","","","","","","","","","",""
"revaluation","283","1045251","0.0-4.0-10.0-0.5","spark_pilot_norest","8589","6","11","Female","","false","","","","","[348.40000009536743]","./assets/img/canyon/animals/lion.jpg","[""ArrowLeft""]","second stage test","canyon","0","{""ArrowUp,ArrowLeft"":27,""ArrowUp,ArrowRight"":15,""ArrowDown,ArrowLeft"":21,""ArrowDown,ArrowRight"":7}","true","ArrowDown,ArrowLeft","","revaluation","1","","","",""
"html-keyboard-response","284","1045764","0.0-4.0-10.0-1.5","spark_pilot_norest","8589","6","11","Female","","","","","","","null","<div style=""font-size:60px;"">+</div>","null","fixation","","","","","","","","","","","",""
"revaluation","285","1046058","0.0-4.0-10.0-0.6","spark_pilot_norest","8589","6","11","Female","","false","","","","","[290.59999990463257]","./assets/img/canyon/animals/lion.jpg","[""ArrowLeft""]","second stage test","canyon","0","{""ArrowUp,ArrowLeft"":27,""ArrowUp,ArrowRight"":15,""ArrowDown,ArrowLeft"":21,""ArrowDown,ArrowRight"":7}","true","ArrowDown,ArrowLeft","","revaluation","1","","","",""
"html-keyboard-response","286","1046566","0.0-4.0-10.0-1.6","spark_pilot_norest","8589","6","11","Female","","","","","","","null","<div style=""font-size:60px;"">+</div>","null","fixation","","","","","","","","","","","",""
"revaluation","287","1046955","0.0-4.0-10.0-0.7","spark_pilot_norest","8589","6","11","Female","","false","","","","","[385.40000009536743]","./assets/img/canyon/animals/lion.jpg","[""ArrowLeft""]","second stage test","canyon","0","{""ArrowUp,ArrowLeft"":27,""ArrowUp,ArrowRight"":15,""ArrowDown,ArrowLeft"":21,""ArrowDown,ArrowRight"":7}","true","ArrowDown,ArrowLeft","","revaluation","1","","","",""
"html-keyboard-response","288","1047460","0.0-4.0-10.0-1.7","spark_pilot_norest","8589","6","11","Female","","","","","","","null","<div style=""font-size:60px;"">+</div>","null","fixation","","","","","","","","","","","",""
"learning-instructions","289","1052900","0.0-4.0-0.1-0.2","spark_pilot_norest","8589","6","11","Female","","","","","","","2715.699999809265","<p> This time you are searching for treasure in the <b>ocean</b>.</p>","","instructions","","","","","","","","","","","",""
"learning-instructions","290","1073090","0.0-4.0-0.1-0.3","spark_pilot_norest","8589","6","11","Female","","","","","","","2946.0999999046326","<p><b>New</b> animals with <b>new</b> treasure chests live here. You need to explore to discover where the animal with the best treasure chest is.</p>
                    <p> Like before, once you figure out which animal has the chest with the most treasure, you should try to get to that animal and select that chest! </p>","","instructions","","","","","","","","","","","",""
"learning-instructions","291","1090073","0.0-4.0-1.1-0.1","spark_pilot_norest","8589","6","11","Female","","","","","","","2259.5","<p> Remember, when you see a picture of the place, use the up and down keys to <b>find an animal</b>.</p>
            <p> When you encounter an animal, you should use the left and right keys to <b>select a treasure chest</b>.</p>
            <p> Don't forget to look out for the robber! </p>","","instructions","","","","","","","","","","","",""
"revaluation","292","1096090","0.0-4.0-2.1-0.50","spark_pilot_norest","8589","6","11","Female","","false","","","","","[1502.8999998569489,747.5]","./assets/img/ocean/memory/2.jpg","[""ArrowUp"",""ArrowRight""]","value training","ocean","10","{""ArrowUp,ArrowLeft"":26,""ArrowUp,ArrowRight"":10,""ArrowDown,ArrowLeft"":5,""ArrowDown,ArrowRight"":17}","false","ArrowUp,ArrowRight","false","original","2","0","","",""
"html-keyboard-response","293","1096608","0.0-4.0-2.1-1.50","spark_pilot_norest","8589","6","11","Female","","","","","","","null","<div style=""font-size:60px;"">+</div>","null","fixation","","","","","","","","","1","","",""
"revaluation","294","1102632","0.0-4.0-2.1-0.51","spark_pilot_norest","8589","6","11","Female","","false","","","","","[1109.2999999523163,396]","./assets/img/ocean/memory/18.jpg","[""ArrowUp"",""ArrowLeft""]","value training","ocean","26","{""ArrowUp,ArrowLeft"":26,""ArrowUp,ArrowRight"":10,""ArrowDown,ArrowLeft"":5,""ArrowDown,ArrowRight"":17}","true","ArrowUp,ArrowLeft","false","original","2","2","","",""
"html-keyboard-response","295","1103135","0.0-4.0-2.1-1.51","spark_pilot_norest","8589","6","11","Female","","","","","","","null","<div style=""font-size:60px;"">+</div>","null","fixation","","","","","","","","","3","","",""
"revaluation","296","1109163","0.0-4.0-2.1-0.52","spark_pilot_norest","8589","6","11","Female","","false","","","","","[836,425.40000009536743]","./assets/img/ocean/memory/9.jpg","[""ArrowDown"",""ArrowRight""]","value training","ocean","17","{""ArrowUp,ArrowLeft"":26,""ArrowUp,ArrowRight"":10,""ArrowDown,ArrowLeft"":5,""ArrowDown,ArrowRight"":17}","false","ArrowDown,ArrowRight","false","original","2","4","","",""
"html-keyboard-response","297","1109666","0.0-4.0-2.1-1.52","spark_pilot_norest","8589","6","11","Female","","","","","","","null","<div style=""font-size:60px;"">+</div>","null","fixation","","","","","","","","","5","","",""
"revaluation","298","1115694","0.0-4.0-2.1-0.53","spark_pilot_norest","8589","6","11","Female","","false","","","","","[629.7000000476837,443.59999990463257]","./assets/img/ocean/memory/16.jpg","[""ArrowDown"",""ArrowLeft""]","value training","ocean","5","{""ArrowUp,ArrowLeft"":26,""ArrowUp,ArrowRight"":10,""ArrowDown,ArrowLeft"":5,""ArrowDown,ArrowRight"":17}","false","ArrowDown,ArrowLeft","false","original","2","6","","",""
"html-keyboard-response","299","1116208","0.0-4.0-2.1-1.53","spark_pilot_norest","8589","6","11","Female","","","","","","","null","<div style=""font-size:60px;"">+</div>","null","fixation","","","","","","","","","7","","",""
"revaluation","300","1122216","0.0-4.0-2.1-0.54","spark_pilot_norest","8589","6","11","Female","","false","","","","","[710.5999999046326,227.89999985694885]","./assets/img/ocean/memory/18.jpg","[""ArrowUp"",""ArrowRight""]","value training","ocean","10","{""ArrowUp,ArrowLeft"":26,""ArrowUp,ArrowRight"":10,""ArrowDown,ArrowLeft"":5,""ArrowDown,ArrowRight"":17}","false","ArrowUp,ArrowRight","false","original","2","8","","",""
"html-keyboard-response","301","1122718","0.0-4.0-2.1-1.54","spark_pilot_norest","8589","6","11","Female","","","","","","","null","<div style=""font-size:60px;"">+</div>","null","fixation","","","","","","","","","9","","",""
"revaluation","302","1128725","0.0-4.0-2.1-0.55","spark_pilot_norest","8589","6","11","Female","","false","","","","","[533.1000001430511,270.40000009536743]","./assets/img/ocean/memory/12.jpg","[""ArrowUp"",""ArrowLeft""]","value training","ocean","26","{""ArrowUp,ArrowLeft"":26,""ArrowUp,ArrowRight"":10,""ArrowDown,ArrowLeft"":5,""ArrowDown,ArrowRight"":17}","true","ArrowUp,ArrowLeft","false","original","2","10","","",""
"html-keyboard-response","303","1129226","0.0-4.0-2.1-1.55","spark_pilot_norest","8589","6","11","Female","","","","","","","null","<div style=""font-size:60px;"">+</div>","null","fixation","","","","","","","","","11","","",""
"revaluation","304","1135234","0.0-4.0-2.1-0.56","spark_pilot_norest","8589","6","11","Female","","false","","","","","[595.1000001430511,554.7000000476837]","./assets/img/ocean/memory/33.jpg","[""ArrowUp"",""ArrowLeft""]","value training","ocean","26","{""ArrowUp,ArrowLeft"":26,""ArrowUp,ArrowRight"":10,""ArrowDown,ArrowLeft"":5,""ArrowDown,ArrowRight"":17}","true","ArrowUp,ArrowLeft","false","original","2","12","","",""
"html-keyboard-response","305","1135736","0.0-4.0-2.1-1.56","spark_pilot_norest","8589","6","11","Female","","","","","","","null","<div style=""font-size:60px;"">+</div>","null","fixation","","","","","","","","","13","","",""
"revaluation","306","1141742","0.0-4.0-2.1-0.57","spark_pilot_norest","8589","6","11","Female","","false","","","","","[311.7000000476837,389]","./assets/img/ocean/memory/17.jpg","[""ArrowUp"",""ArrowLeft""]","value training","ocean","26","{""ArrowUp,ArrowLeft"":26,""ArrowUp,ArrowRight"":10,""ArrowDown,ArrowLeft"":5,""ArrowDown,ArrowRight"":17}","true","ArrowUp,ArrowLeft","false","original","2","14","","",""
"html-keyboard-response","307","1142244","0.0-4.0-2.1-1.57","spark_pilot_norest","8589","6","11","Female","","","","","","","null","<div style=""font-size:60px;"">+</div>","null","fixation","","","","","","","","","15","","",""
"revaluation","308","1148251","0.0-4.0-2.1-0.58","spark_pilot_norest","8589","6","11","Female","","false","","","","","[376.2999999523163,454]","./assets/img/ocean/memory/27.jpg","[""ArrowUp"",""ArrowLeft""]","value training","ocean","26","{""ArrowUp,ArrowLeft"":26,""ArrowUp,ArrowRight"":10,""ArrowDown,ArrowLeft"":5,""ArrowDown,ArrowRight"":17}","true","ArrowUp,ArrowLeft","false","original","2","16","","",""
"html-keyboard-response","309","1148753","0.0-4.0-2.1-1.58","spark_pilot_norest","8589","6","11","Female","","","","","","","null","<div style=""font-size:60px;"">+</div>","null","fixation","","","","","","","","","17","","",""
