"trial_type","trial_index","time_elapsed","internal_node_id","task_version","subject_id","assigned_condition","age","gender","success","timeout","failed_images","failed_audio","failed_video","browser_interaction","value","rt","stimulus","response","task_part","environment","score","rewardMap","correct","fullState","isCatch","condition","order","trial_num","key_press","ground_truth","bonus"
"pavlovia","0","1140","0.0-0.0","spark_pilot_norest","8357","4","18","Female","","","","","","","","","","","","","","","","","","","","","","",""
"preload","1","12297","0.0-1.0","spark_pilot_norest","8357","4","18","Female","true","false","[]","[]","[]","[{""event"":""fullscreenenter"",""trial"":2,""time"":18089}]","","","","","","","","","","","","","","","","",""
"fullscreen","2","18991","0.0-2.0","spark_pilot_norest","8357","4","18","Female","true","","","","","","","","","","","","","","","","","","","","","",""
"call-function","3","20444","0.0-3.0","spark_pilot_norest","8357","4","18","Female","","","","","","","","","","","","","","","","","","","","","","",""
"audio-button-response","4","29338","0.0-4.0-0.0-0.0","spark_pilot_norest","8357","4","18","Female","","","","","","","","8861","./assets/audio/audiotest/turtle.mp3","4","audio_test","","","","","","","","","","","",""
"audio-button-response","5","32621","0.0-4.0-0.1-0.1","spark_pilot_norest","8357","4","18","Female","","","","","","","","2280","./assets/audio/audiotest/turtle.mp3","2","audio_test","","","","","","","","","","","",""
"learning-instructions","6","41456","0.0-4.0-1.0-0.0","spark_pilot_norest","8357","4","18","Female","","","","","","","","1875","<p> Welcome! Please remember to stay in fullscreen mode and don't click away from the experiment. </p>","","instructions","","","","","","","","","","","",""
"learning-instructions","7","51526","0.0-4.0-1.0-0.1","spark_pilot_norest","8357","4","18","Female","","","","","","","","1679","<p> Today you will be playing a game to earn treasure. </p>
            <p> At the end of the experiment, you will earn a bonus based on how much treasure you find. </p>
            <img src='./assets/img/instructions/treasure.jpg' class='instructions-image'>","","instructions","","","","","","","","","","","",""
"learning-instructions","8","60680","0.0-4.0-1.0-0.2","spark_pilot_norest","8357","4","18","Female","","","","","","","","913","<p> Animals have hidden treasure in treasure chests. </p>
            <p> You need to first find an animal and then choose which of their treasure chests to search. </p>
            <img src='./assets/img/space/animals/cat.jpg' class='instructions-image'>","","instructions","","","","","","","","","","","",""
"learning-instructions","9","74751","0.0-4.0-1.0-0.3","spark_pilot_norest","8357","4","18","Female","","","","","","","","938.9999999999854","<p> In each round, you will search for treasure in a different place. In the real game, there will be two rounds. </p>
            <p> You will begin with a separate, practice round where you will search for treasure in outer space. </p>
            <img src='./assets/img/space/0.jpg' class='instructions-image'>","","instructions","","","","","","","","","","","",""
"learning-instructions","10","88074","0.0-4.0-1.0-0.4","spark_pilot_norest","8357","4","18","Female","","","","","","","","928","<p> On every turn, you will see a picture of the place that you are in, but the specific image may be different each time. </p>
            <p> For example, both of these images mean you are in outer space. </p>
            <img src='./assets/img/instructions/outerspace.jpg' class='instructions-image'>","","instructions","","","","","","","","","","","",""
"learning-instructions","11","96691","0.0-4.0-1.0-0.5","spark_pilot_norest","8357","4","18","Female","","","","","","","","809.0000000000146","<p> You need to decide which direction to travel in. </p>
            <p> You can choose between going <b>up or down</b> by using the arrow keys. </p>
            <img src='./assets/img/instructions/updown.jpg' class='instructions-image'>","","instructions","","","","","","","","","","","",""
"learning-instructions","12","106698","0.0-4.0-1.0-0.6","spark_pilot_norest","8357","4","18","Female","","","","","","","","1216","<p> You will have <b>2 seconds</b> to make your choice. </p>
            <p> If you do not make a choice within 2 seconds, you will not find an animal or earn treasure. </p>
            <img src='./assets/img/instructions/2seconds.jpg' class='instructions-image'>","","instructions","","","","","","","","","","","",""
"learning-instructions","13","114845","0.0-4.0-1.0-0.7","spark_pilot_norest","8357","4","18","Female","","","","","","","","1127","<p> Let’s try practicing that now! </p>
            <p> When you see a picture of the place you are in, press the <b>up</b> key to travel up. </p>
            <img src='./assets/img/instructions/pressUp.jpg' class='instructions-image'>","","instructions","","","","","","","","","","","",""
"revaluation","14","118863","0.0-4.0-2.0-0.0","spark_pilot_norest","8357","4","18","Female","","false","","","","","","[651]","./assets/img/space/0.jpg","[""ArrowUp""]","first stage practice","space","0","null","null","ArrowUp","false","","","","","",""
"html-keyboard-response","15","119365","0.0-4.0-2.0-1.0","spark_pilot_norest","8357","4","18","Female","","","","","","","","null","<div style=""font-size:60px;"">+</div>","null","fixation","","","","","","","","","","","",""
"revaluation","16","123369","0.0-4.0-2.0-0.1","spark_pilot_norest","8357","4","18","Female","","false","","","","","","[1046]","./assets/img/space/1.jpg","[""ArrowUp""]","first stage practice","space","0","null","null","ArrowUp","false","","","","","",""
"html-keyboard-response","17","123871","0.0-4.0-2.0-1.1","spark_pilot_norest","8357","4","18","Female","","","","","","","","null","<div style=""font-size:60px;"">+</div>","null","fixation","","","","","","","","","","","",""
"revaluation","18","127876","0.0-4.0-2.0-0.2","spark_pilot_norest","8357","4","18","Female","","false","","","","","","[485]","./assets/img/space/2.jpg","[""ArrowUp""]","first stage practice","space","0","null","null","ArrowUp","false","","","","","",""
"html-keyboard-response","19","128377","0.0-4.0-2.0-1.2","spark_pilot_norest","8357","4","18","Female","","","","","","","","null","<div style=""font-size:60px;"">+</div>","null","fixation","","","","","","","","","","","",""
"learning-instructions","20","134897","0.0-4.0-3.0-0.0","spark_pilot_norest","8357","4","18","Female","","","","","","","","1836","<p> Great job! Now try pressing the <b>down</b> key to travel down. </p>
            <img src='./assets/img/instructions/pressDown.jpg' class='instructions-image'>","","instructions","","","","","","","","","","","",""
"revaluation","21","138901","0.0-4.0-4.0-0.0","spark_pilot_norest","8357","4","18","Female","","false","","","","","","[550.9999999999709]","./assets/img/space/3.jpg","[""ArrowDown""]","first stage practice","space","0","null","null","ArrowDown","false","","","","","",""
"html-keyboard-response","22","139402","0.0-4.0-4.0-1.0","spark_pilot_norest","8357","4","18","Female","","","","","","","","null","<div style=""font-size:60px;"">+</div>","null","fixation","","","","","","","","","","","",""
"revaluation","23","143406","0.0-4.0-4.0-0.1","spark_pilot_norest","8357","4","18","Female","","false","","","","","","[380]","./assets/img/space/4.jpg","[""ArrowDown""]","first stage practice","space","0","null","null","ArrowDown","false","","","","","",""
"html-keyboard-response","24","143908","0.0-4.0-4.0-1.1","spark_pilot_norest","8357","4","18","Female","","","","","","","","null","<div style=""font-size:60px;"">+</div>","null","fixation","","","","","","","","","","","",""
"revaluation","25","147912","0.0-4.0-4.0-0.2","spark_pilot_norest","8357","4","18","Female","","false","","","","","","[641]","./assets/img/space/5.jpg","[""ArrowDown""]","first stage practice","space","0","null","null","ArrowDown","false","","","","","",""
"html-keyboard-response","26","148414","0.0-4.0-4.0-1.2","spark_pilot_norest","8357","4","18","Female","","","","","","","","null","<div style=""font-size:60px;"">+</div>","null","fixation","","","","","","","","","","","",""
"learning-instructions","27","159491","0.0-4.0-5.0-0.0","spark_pilot_norest","8357","4","18","Female","","","","","","","","1249","<p> The animals don’t move, so the animal in the upper part of a place will stay in the upper part of a place, and the animal in the lower part of a place will stay in the lower part of a place. </p>","","instructions","","","","","","","","","","","",""
"learning-instructions","28","170036","0.0-4.0-5.0-0.1","spark_pilot_norest","8357","4","18","Female","","","","","","","","1430","<p> Each animal has two treasure chests for you to choose from. </p>
            <p> The amount of treasure in each chest can range from <b> 0 to 40 pieces.</b></p>","","instructions","","","","","","","","","","","",""
"learning-instructions","29","184661","0.0-4.0-5.0-0.2","spark_pilot_norest","8357","4","18","Female","","","","","","","","2683.000000000029","<p> You should decide which chest to search for treasure by using the <b>left</b> and <b>right</b> arrow keys. </p>
            <p><b> Pay attention to which animal is on the screen, as the animals have different treasure chests. </b></p>
            <img src='./assets/img/instructions/leftright.jpg' class='instructions-image'>","","instructions","","","","","","","","","","","",""
"learning-instructions","30","192333","0.0-4.0-5.0-0.3","spark_pilot_norest","8357","4","18","Female","","","","","","","","1320","<p> Let’s try practicing that now. </p>
            <p> When you see an animal, choose which chest to search for treasure. </p>
            <img src='./assets/img/instructions/chooseChest.jpg' class='instructions-image'>","","instructions","","","","","","","","","","","",""
"revaluation","31","196339","0.0-4.0-6.0-0.0","spark_pilot_norest","8357","4","18","Female","","false","","","","","","[482]","./assets/img/space/animals/cat.jpg","[""ArrowLeft""]","second stage practice","space","3","{""ArrowUp,ArrowLeft"":3,""ArrowUp,ArrowRight"":36,""ArrowDown,ArrowLeft"":15,""ArrowDown,ArrowRight"":23}","false","ArrowUp,ArrowLeft","","","","","","",""
"html-keyboard-response","32","196841","0.0-4.0-6.0-1.0","spark_pilot_norest","8357","4","18","Female","","","","","","","","null","<div style=""font-size:60px;"">+</div>","null","fixation","","","","","","","","","","","",""
"revaluation","33","200845","0.0-4.0-6.0-0.1","spark_pilot_norest","8357","4","18","Female","","false","","","","","","[1157]","./assets/img/space/animals/cat.jpg","[""ArrowRight""]","second stage practice","space","36","{""ArrowUp,ArrowLeft"":3,""ArrowUp,ArrowRight"":36,""ArrowDown,ArrowLeft"":15,""ArrowDown,ArrowRight"":23}","true","ArrowUp,ArrowRight","","","","","","",""
"html-keyboard-response","34","201348","0.0-4.0-6.0-1.1","spark_pilot_norest","8357","4","18","Female","","","","","","","","null","<div style=""font-size:60px;"">+</div>","null","fixation","","","","","","","","","","","",""
"revaluation","35","205353","0.0-4.0-6.0-0.2","spark_pilot_norest","8357","4","18","Female","","false","","","","","","[875.9999999999709]","./assets/img/space/animals/rabbit.jpg","[""ArrowLeft""]","second stage practice","space","15","{""ArrowUp,ArrowLeft"":3,""ArrowUp,ArrowRight"":36,""ArrowDown,ArrowLeft"":15,""ArrowDown,ArrowRight"":23}","false","ArrowDown,ArrowLeft","","","","","","",""
"html-keyboard-response","36","205855","0.0-4.0-6.0-1.2","spark_pilot_norest","8357","4","18","Female","","","","","","","","null","<div style=""font-size:60px;"">+</div>","null","fixation","","","","","","","","","","","",""
"revaluation","37","209860","0.0-4.0-6.0-0.3","spark_pilot_norest","8357","4","18","Female","","false","","","","","","[603]","./assets/img/space/animals/rabbit.jpg","[""ArrowRight""]","second stage practice","space","23","{""ArrowUp,ArrowLeft"":3,""ArrowUp,ArrowRight"":36,""ArrowDown,ArrowLeft"":15,""ArrowDown,ArrowRight"":23}","true","ArrowDown,ArrowRight","","","","","","",""
"html-keyboard-response","38","210362","0.0-4.0-6.0-1.3","spark_pilot_norest","8357","4","18","Female","","","","","","","","null","<div style=""font-size:60px;"">+</div>","null","fixation","","","","","","","","","","","",""
"learning-instructions","39","229084","0.0-4.0-7.0-0.0","spark_pilot_norest","8357","4","18","Female","","","","","","","","1107","<p> Great job. Now let’s try putting it together. </p>
            <p> On each turn, you will first see a picture to remind you of the place you are in, and you need to choose whether to go up or down. </p>
            <p> Then you will see an animal and choose which of its chests to search for treasure. </p>","","instructions","","","","","","","","","","","",""
"learning-instructions","40","238687","0.0-4.0-7.0-0.1","spark_pilot_norest","8357","4","18","Female","","","","","","","","1361.000000000029","<p> When you choose whether to go up or down, try to go to the animal with the chest with the most treasure. </p>
            <p> Try practicing that now! </p>","","instructions","","","","","","","","","","","",""
"revaluation","41","244691","0.0-4.0-8.0-0.0","spark_pilot_norest","8357","4","18","Female","","false","","","","","","[1845,748]","./assets/img/space/6.jpg","[""ArrowUp"",""ArrowLeft""]","full practice","space","3","{""ArrowUp,ArrowLeft"":3,""ArrowUp,ArrowRight"":36,""ArrowDown,ArrowLeft"":15,""ArrowDown,ArrowRight"":23}","false","ArrowUp,ArrowLeft","false","","","","","",""
"html-keyboard-response","42","245192","0.0-4.0-8.0-1.0","spark_pilot_norest","8357","4","18","Female","","","","","","","","null","<div style=""font-size:60px;"">+</div>","null","fixation","","","","","","","","","","","",""
"revaluation","43","251196","0.0-4.0-8.0-0.1","spark_pilot_norest","8357","4","18","Female","","false","","","","","","[638,972]","./assets/img/space/7.jpg","[""ArrowUp"",""ArrowRight""]","full practice","space","36","{""ArrowUp,ArrowLeft"":3,""ArrowUp,ArrowRight"":36,""ArrowDown,ArrowLeft"":15,""ArrowDown,ArrowRight"":23}","true","ArrowUp,ArrowRight","false","","","","","",""
"html-keyboard-response","44","251698","0.0-4.0-8.0-1.1","spark_pilot_norest","8357","4","18","Female","","","","","","","","null","<div style=""font-size:60px;"">+</div>","null","fixation","","","","","","","","","","","",""
"revaluation","45","257704","0.0-4.0-8.0-0.2","spark_pilot_norest","8357","4","18","Female","","false","","","","","","[336,989]","./assets/img/space/8.jpg","[""ArrowUp"",""ArrowRight""]","full practice","space","36","{""ArrowUp,ArrowLeft"":3,""ArrowUp,ArrowRight"":36,""ArrowDown,ArrowLeft"":15,""ArrowDown,ArrowRight"":23}","true","ArrowUp,ArrowRight","false","","","","","",""
"html-keyboard-response","46","258205","0.0-4.0-8.0-1.2","spark_pilot_norest","8357","4","18","Female","","","","","","","","null","<div style=""font-size:60px;"">+</div>","null","fixation","","","","","","","","","","","",""
"revaluation","47","264211","0.0-4.0-8.0-0.3","spark_pilot_norest","8357","4","18","Female","","false","","","","","","[1236.999999999971,631.0000000000582]","./assets/img/space/9.jpg","[""ArrowUp"",""ArrowRight""]","full practice","space","36","{""ArrowUp,ArrowLeft"":3,""ArrowUp,ArrowRight"":36,""ArrowDown,ArrowLeft"":15,""ArrowDown,ArrowRight"":23}","true","ArrowUp,ArrowRight","false","","","","","",""
"html-keyboard-response","48","264712","0.0-4.0-8.0-1.3","spark_pilot_norest","8357","4","18","Female","","","","","","","","null","<div style=""font-size:60px;"">+</div>","null","fixation","","","","","","","","","","","",""
"revaluation","49","270717","0.0-4.0-8.0-0.4","spark_pilot_norest","8357","4","18","Female","","false","","","","","","[459.9999999999418,1321.9999999999418]","./assets/img/space/10.jpg","[""ArrowDown"",""ArrowLeft""]","full practice","space","15","{""ArrowUp,ArrowLeft"":3,""ArrowUp,ArrowRight"":36,""ArrowDown,ArrowLeft"":15,""ArrowDown,ArrowRight"":23}","false","ArrowDown,ArrowLeft","false","","","","","",""
"html-keyboard-response","50","271219","0.0-4.0-8.0-1.4","spark_pilot_norest","8357","4","18","Female","","","","","","","","null","<div style=""font-size:60px;"">+</div>","null","fixation","","","","","","","","","","","",""
"learning-instructions","51","282384","0.0-4.0-9.0-0.0","spark_pilot_norest","8357","4","18","Female","","","","","","","","875","<p> One last thing: sometimes, you will see a robber. The robber can be anywhere in the picture. </p>
            <p> If you do not stop them, you will lose treasure. </p>
            <img src='./assets/img/instructions/robber.jpg' class='instructions-image'>","","instructions","","","","","","","","","","","",""
"learning-instructions","52","291473","0.0-4.0-9.0-0.1","spark_pilot_norest","8357","4","18","Female","","","","","","","","1279","<p> If you see the robber, you should <b>press the space bar</b> rather than using the arrow keys. </p>
            <p> Try practicing that now! </p>","","instructions","","","","","","","","","","","",""
"revaluation","53","295478","0.0-4.0-10.0-0.0","spark_pilot_norest","8357","4","18","Female","","false","","","","","","[1261]","./assets/img/space/catch/0.jpg","[""spaceBar""]","catch practice","space","0","{""ArrowUp,ArrowLeft"":3,""ArrowUp,ArrowRight"":36,""ArrowDown,ArrowLeft"":15,""ArrowDown,ArrowRight"":23}","true","spaceBar","true","","","","","",""
"html-keyboard-response","54","295979","0.0-4.0-10.0-1.0","spark_pilot_norest","8357","4","18","Female","","","","","","","","null","<div style=""font-size:60px;"">+</div>","null","fixation","","","","","","","","","","","",""
"revaluation","55","299983","0.0-4.0-10.0-0.1","spark_pilot_norest","8357","4","18","Female","","false","","","","","","[846]","./assets/img/space/catch/1.jpg","[""spaceBar""]","catch practice","space","0","{""ArrowUp,ArrowLeft"":3,""ArrowUp,ArrowRight"":36,""ArrowDown,ArrowLeft"":15,""ArrowDown,ArrowRight"":23}","true","spaceBar","true","","","","","",""
"html-keyboard-response","56","300487","0.0-4.0-10.0-1.1","spark_pilot_norest","8357","4","18","Female","","","","","","","","null","<div style=""font-size:60px;"">+</div>","null","fixation","","","","","","","","","","","",""
"revaluation","57","304493","0.0-4.0-10.0-0.2","spark_pilot_norest","8357","4","18","Female","","false","","","","","","[587]","./assets/img/space/catch/2.jpg","[""spaceBar""]","catch practice","space","0","{""ArrowUp,ArrowLeft"":3,""ArrowUp,ArrowRight"":36,""ArrowDown,ArrowLeft"":15,""ArrowDown,ArrowRight"":23}","true","spaceBar","true","","","","","",""
"html-keyboard-response","58","304995","0.0-4.0-10.0-1.2","spark_pilot_norest","8357","4","18","Female","","","","","","","","null","<div style=""font-size:60px;"">+</div>","null","fixation","","","","","","","","","","","",""
"learning-instructions","59","311244","0.0-4.0-11.0-0.0-0.0","spark_pilot_norest","8357","4","18","Female","","","","","","","","1022.0000000000582","<p> Now, you will practice a shortened version of the game to get a sense of how it all fits together. </p>","","instructions","","","","","","","","","","","",""
"learning-instructions","60","315657","0.0-4.0-11.0-0.0-0.1","spark_pilot_norest","8357","4","18","Female","","","","","","","","1238","<p>This time you are searching for treasure in outer space.</p>","","instructions","","","","","","","","","","","",""
"learning-instructions","61","332013","0.0-4.0-11.0-1.0-0.0","spark_pilot_norest","8357","4","18","Female","","","","","","","","734","<p> Remember, when you see a picture of the place, use the up and down keys to <b>find an animal</b>.</p>
            <p> When you encounter an animal, you should use the left and right keys to <b>select a treasure chest</b>.</p>
            <p> Don't forget to look out for the robber! </p>","","instructions","","","","","","","","","","","",""
"revaluation","62","338019","0.0-4.0-11.0-2.0-0.0","spark_pilot_norest","8357","4","18","Female","","false","","","","","","[1896,661]","./assets/img/space/11.jpg","[""ArrowUp"",""ArrowLeft""]","practice block","space","3","{""ArrowUp,ArrowLeft"":3,""ArrowUp,ArrowRight"":36,""ArrowDown,ArrowLeft"":15,""ArrowDown,ArrowRight"":23}","false","ArrowUp,ArrowLeft","false","","","","","",""
"html-keyboard-response","63","338521","0.0-4.0-11.0-2.0-1.0","spark_pilot_norest","8357","4","18","Female","","","","","","","","null","<div style=""font-size:60px;"">+</div>","null","fixation","","","","","","","","","","","",""
"revaluation","64","344525","0.0-4.0-11.0-2.0-0.1","spark_pilot_norest","8357","4","18","Female","","false","","","","","","[1070,603]","./assets/img/space/12.jpg","[""ArrowUp"",""ArrowRight""]","practice block","space","36","{""ArrowUp,ArrowLeft"":3,""ArrowUp,ArrowRight"":36,""ArrowDown,ArrowLeft"":15,""ArrowDown,ArrowRight"":23}","true","ArrowUp,ArrowRight","false","","","","","",""
"html-keyboard-response","65","345027","0.0-4.0-11.0-2.0-1.1","spark_pilot_norest","8357","4","18","Female","","","","","","","","null","<div style=""font-size:60px;"">+</div>","null","fixation","","","","","","","","","","","",""
"revaluation","66","351033","0.0-4.0-11.0-2.0-0.2","spark_pilot_norest","8357","4","18","Female","","false","","","","","","[917,515]","./assets/img/space/13.jpg","[""ArrowDown"",""ArrowRight""]","practice block","space","23","{""ArrowUp,ArrowLeft"":3,""ArrowUp,ArrowRight"":36,""ArrowDown,ArrowLeft"":15,""ArrowDown,ArrowRight"":23}","false","ArrowDown,ArrowRight","false","","","","","",""
"html-keyboard-response","67","351534","0.0-4.0-11.0-2.0-1.2","spark_pilot_norest","8357","4","18","Female","","","","","","","","null","<div style=""font-size:60px;"">+</div>","null","fixation","","","","","","","","","","","",""
"revaluation","68","357539","0.0-4.0-11.0-2.0-0.3","spark_pilot_norest","8357","4","18","Female","","false","","","","","","[1070,1032]","./assets/img/space/14.jpg","[""ArrowUp"",""ArrowRight""]","practice block","space","36","{""ArrowUp,ArrowLeft"":3,""ArrowUp,ArrowRight"":36,""ArrowDown,ArrowLeft"":15,""ArrowDown,ArrowRight"":23}","true","ArrowUp,ArrowRight","false","","","","","",""
"html-keyboard-response","69","358040","0.0-4.0-11.0-2.0-1.3","spark_pilot_norest","8357","4","18","Female","","","","","","","","null","<div style=""font-size:60px;"">+</div>","null","fixation","","","","","","","","","","","",""
"revaluation","70","364046","0.0-4.0-11.0-2.0-0.4","spark_pilot_norest","8357","4","18","Female","","false","","","","","","[1343.9999999999418,439]","./assets/img/space/11.jpg","[""ArrowUp"",""ArrowRight""]","practice block","space","36","{""ArrowUp,ArrowLeft"":3,""ArrowUp,ArrowRight"":36,""ArrowDown,ArrowLeft"":15,""ArrowDown,ArrowRight"":23}","true","ArrowUp,ArrowRight","false","","","","","",""
"html-keyboard-response","71","364547","0.0-4.0-11.0-2.0-1.4","spark_pilot_norest","8357","4","18","Female","","","","","","","","null","<div style=""font-size:60px;"">+</div>","null","fixation","","","","","","","","","","","",""
"revaluation","72","370553","0.0-4.0-11.0-2.0-0.5","spark_pilot_norest","8357","4","18","Female","","false","","","","","","[903,968]","./assets/img/space/12.jpg","[""ArrowDown"",""ArrowRight""]","practice block","space","23","{""ArrowUp,ArrowLeft"":3,""ArrowUp,ArrowRight"":36,""ArrowDown,ArrowLeft"":15,""ArrowDown,ArrowRight"":23}","false","ArrowDown,ArrowRight","false","","","","","",""
"html-keyboard-response","73","371054","0.0-4.0-11.0-2.0-1.5","spark_pilot_norest","8357","4","18","Female","","","","","","","","null","<div style=""font-size:60px;"">+</div>","null","fixation","","","","","","","","","","","",""
"revaluation","74","375060","0.0-4.0-11.0-2.0-0.6","spark_pilot_norest","8357","4","18","Female","","true","","","","","","[]","./assets/img/space/13.jpg","[]","practice block","space","-5","{""ArrowUp,ArrowLeft"":3,""ArrowUp,ArrowRight"":36,""ArrowDown,ArrowLeft"":15,""ArrowDown,ArrowRight"":23}","false","","false","","","","","",""
"html-keyboard-response","75","375561","0.0-4.0-11.0-2.0-1.6","spark_pilot_norest","8357","4","18","Female","","","","","","","","null","<div style=""font-size:60px;"">+</div>","null","fixation","","","","","","","","","","","",""
"revaluation","76","381566","0.0-4.0-11.0-2.0-0.7","spark_pilot_norest","8357","4","18","Female","","false","","","","","","[641,403.0000000000582]","./assets/img/space/14.jpg","[""ArrowUp"",""ArrowRight""]","practice block","space","36","{""ArrowUp,ArrowLeft"":3,""ArrowUp,ArrowRight"":36,""ArrowDown,ArrowLeft"":15,""ArrowDown,ArrowRight"":23}","true","ArrowUp,ArrowRight","false","","","","","",""
"html-keyboard-response","77","382068","0.0-4.0-11.0-2.0-1.7","spark_pilot_norest","8357","4","18","Female","","","","","","","","null","<div style=""font-size:60px;"">+</div>","null","fixation","","","","","","","","","","","",""
"revaluation","78","386072","0.0-4.0-11.0-2.0-0.8","spark_pilot_norest","8357","4","18","Female","","false","","","","","","[683.0000000000582]","./assets/img/space/catch/3.jpg","[""spaceBar""]","practice block","space","0","{""ArrowUp,ArrowLeft"":3,""ArrowUp,ArrowRight"":36,""ArrowDown,ArrowLeft"":15,""ArrowDown,ArrowRight"":23}","true","spaceBar","true","","","","","",""
"html-keyboard-response","79","386574","0.0-4.0-11.0-2.0-1.8","spark_pilot_norest","8357","4","18","Female","","","","","","","","null","<div style=""font-size:60px;"">+</div>","null","fixation","","","","","","","","","","","",""
"learning-instructions","80","400779","0.0-4.0-11.0-3.0-0.0","spark_pilot_norest","8357","4","18","Female","","","","","","","","1308","<p> Now, you will travel with a friend who will choose whether you go up or down first. </p>
            <p> On these turns, you will just see the animal that they found. You will still get to choose which chest to search for treasure.</p>","","instructions","","","","","","","","","","","",""
"revaluation","81","404783","0.0-4.0-11.0-4.0-0.0","spark_pilot_norest","8357","4","18","Female","","false","","","","","","[629]","./assets/img/space/animals/cat.jpg","[""ArrowRight""]","practice block","space","36","{""ArrowUp,ArrowLeft"":3,""ArrowUp,ArrowRight"":36,""ArrowDown,ArrowLeft"":15,""ArrowDown,ArrowRight"":23}","true","ArrowUp,ArrowRight","","","","","","",""
"html-keyboard-response","82","405284","0.0-4.0-11.0-4.0-1.0","spark_pilot_norest","8357","4","18","Female","","","","","","","","null","<div style=""font-size:60px;"">+</div>","null","fixation","","","","","","","","","","","",""
"revaluation","83","409288","0.0-4.0-11.0-4.0-0.1","spark_pilot_norest","8357","4","18","Female","","false","","","","","","[547]","./assets/img/space/animals/rabbit.jpg","[""ArrowRight""]","practice block","space","23","{""ArrowUp,ArrowLeft"":3,""ArrowUp,ArrowRight"":36,""ArrowDown,ArrowLeft"":15,""ArrowDown,ArrowRight"":23}","true","ArrowDown,ArrowRight","","","","","","",""
"html-keyboard-response","84","409789","0.0-4.0-11.0-4.0-1.1","spark_pilot_norest","8357","4","18","Female","","","","","","","","null","<div style=""font-size:60px;"">+</div>","null","fixation","","","","","","","","","","","",""
"revaluation","85","413793","0.0-4.0-11.0-4.0-0.2","spark_pilot_norest","8357","4","18","Female","","false","","","","","","[535]","./assets/img/space/animals/cat.jpg","[""ArrowRight""]","practice block","space","36","{""ArrowUp,ArrowLeft"":3,""ArrowUp,ArrowRight"":36,""ArrowDown,ArrowLeft"":15,""ArrowDown,ArrowRight"":23}","true","ArrowUp,ArrowRight","","","","","","",""
"html-keyboard-response","86","414295","0.0-4.0-11.0-4.0-1.2","spark_pilot_norest","8357","4","18","Female","","","","","","","","null","<div style=""font-size:60px;"">+</div>","null","fixation","","","","","","","","","","","",""
"revaluation","87","418299","0.0-4.0-11.0-4.0-0.3","spark_pilot_norest","8357","4","18","Female","","false","","","","","","[592]","./assets/img/space/animals/rabbit.jpg","[""ArrowRight""]","practice block","space","23","{""ArrowUp,ArrowLeft"":3,""ArrowUp,ArrowRight"":36,""ArrowDown,ArrowLeft"":15,""ArrowDown,ArrowRight"":23}","true","ArrowDown,ArrowRight","","","","","","",""
"html-keyboard-response","88","418801","0.0-4.0-11.0-4.0-1.3","spark_pilot_norest","8357","4","18","Female","","","","","","","","null","<div style=""font-size:60px;"">+</div>","null","fixation","","","","","","","","","","","",""
"learning-instructions","89","427602","0.0-4.0-11.0-5.0-0.0","spark_pilot_norest","8357","4","18","Female","","","","","","","","null","<p> You have almost finished this part of the game! </p>
            <p> We are going to ask you to make a few more choices. </p>","","instructions","","","","","","","","","","","",""
"learning-instructions","90","443589","0.0-4.0-11.0-5.0-0.1","spark_pilot_norest","8357","4","18","Female","","","","","","","","null","<p> First, you need to decide whether to go up or down. When you see each picture, use the arrow keys to make your choice. </p>
            <p><b>You will not see which animal you found, but try to get to the one that will give you the most treasure.</b></p>","","instructions","","","","","","","","","","","",""
"html-keyboard-response","91","444591","0.0-4.0-11.0-6.0-0.0","spark_pilot_norest","8357","4","18","Female","","","","","","","","null","<div style=""font-size:100px;color:red;"">Starting in...</div>","null","","","","","","","","","","","","",""
"html-keyboard-response","92","445593","0.0-4.0-11.0-6.0-1.0","spark_pilot_norest","8357","4","18","Female","","","","","","","","null","<div style=""font-size:200px;color:red;"">3</div>","null","","","","","","","","","","","","",""
"html-keyboard-response","93","446595","0.0-4.0-11.0-6.0-2.0","spark_pilot_norest","8357","4","18","Female","","","","","","","","null","<div style=""font-size:200px;color:red;"">2</div>","null","","","","","","","","","","","","",""
"html-keyboard-response","94","447596","0.0-4.0-11.0-6.0-3.0","spark_pilot_norest","8357","4","18","Female","","","","","","","","null","<div style=""font-size:200px;color:red;"">1</div>","null","","","","","","","","","","","","",""
"revaluation","95","447992","0.0-4.0-11.0-7.0","spark_pilot_norest","8357","4","18","Female","","false","","","","","","[394.0000000000582]","./assets/img/space/15.jpg","[""ArrowUp""]","practice block","space","0","{""ArrowUp,ArrowLeft"":3,""ArrowUp,ArrowRight"":36,""ArrowDown,ArrowLeft"":15,""ArrowDown,ArrowRight"":23}","true","ArrowUp","false","","","","","",""
"html-keyboard-response","96","448495","0.0-4.0-11.0-8.0","spark_pilot_norest","8357","4","18","Female","","","","","","","","null","<div style=""font-size:60px;"">+</div>","null","fixation","","","","","","","","","","","",""
"learning-instructions","97","462612","0.0-4.0-11.0-9.0-0.0","spark_pilot_norest","8357","4","18","Female","","","","","","","","null","<p> Now you will see the animals again and can search their chests for treasure. </p>
            <p> This time, you will not see how much treasure you earned, but you will earn more bonus money for making better choices. </p>","","instructions","","","","","","","","","","","",""
"html-keyboard-response","98","463615","0.0-4.0-11.0-10.0-0.0","spark_pilot_norest","8357","4","18","Female","","","","","","","","null","<div style=""font-size:100px;color:red;"">Starting in...</div>","null","","","","","","","","","","","","",""
"html-keyboard-response","99","464615","0.0-4.0-11.0-10.0-1.0","spark_pilot_norest","8357","4","18","Female","","","","","","","","null","<div style=""font-size:200px;color:red;"">3</div>","null","","","","","","","","","","","","",""
"html-keyboard-response","100","465616","0.0-4.0-11.0-10.0-2.0","spark_pilot_norest","8357","4","18","Female","","","","","","","","null","<div style=""font-size:200px;color:red;"">2</div>","null","","","","","","","","","","","","",""
"html-keyboard-response","101","466617","0.0-4.0-11.0-10.0-3.0","spark_pilot_norest","8357","4","18","Female","","","","","","","","null","<div style=""font-size:200px;color:red;"">1</div>","null","","","","","","","","","","","","",""
"revaluation","102","467176","0.0-4.0-11.0-11.0-0.0","spark_pilot_norest","8357","4","18","Female","","false","","","","","","[555]","./assets/img/space/animals/cat.jpg","[""ArrowRight""]","practice block","space","0","{""ArrowUp,ArrowLeft"":3,""ArrowUp,ArrowRight"":36,""ArrowDown,ArrowLeft"":15,""ArrowDown,ArrowRight"":23}","true","ArrowUp,ArrowRight","","","","","","",""
"html-keyboard-response","103","467677","0.0-4.0-11.0-11.0-1.0","spark_pilot_norest","8357","4","18","Female","","","","","","","","null","<div style=""font-size:60px;"">+</div>","null","fixation","","","","","","","","","","","",""
"revaluation","104","468186","0.0-4.0-11.0-11.0-0.1","spark_pilot_norest","8357","4","18","Female","","false","","","","","","[508]","./assets/img/space/animals/rabbit.jpg","[""ArrowRight""]","practice block","space","0","{""ArrowUp,ArrowLeft"":3,""ArrowUp,ArrowRight"":36,""ArrowDown,ArrowLeft"":15,""ArrowDown,ArrowRight"":23}","true","ArrowDown,ArrowRight","","","","","","",""
"html-keyboard-response","105","468687","0.0-4.0-11.0-11.0-1.1","spark_pilot_norest","8357","4","18","Female","","","","","","","","null","<div style=""font-size:60px;"">+</div>","null","fixation","","","","","","","","","","","",""
"learning-instructions","106","474415","0.0-4.0-12.0-0.0","spark_pilot_norest","8357","4","18","Female","","","","","","","","1165","<p> Before you start, we're going to ask you a few questions about how the game works. </p>","","instructions","","","","","","","","","","","",""
"comp-q","107","481770","0.0-4.0-13.0-0.0-0.0","spark_pilot_norest","8357","4","18","Female","","","","","","","","1779","<p> <b> True or False? </b> </p>
            <p> There can be 50 pieces of treasure in a given animal's chest. </p>","1","comp_question","","","","true","","","","","","","",""
"comp-q","108","489966","0.0-4.0-13.0-0.0-1.0","spark_pilot_norest","8357","4","18","Female","","","","","","","","905","<p> <b> That's right! </b> The amount of treasure in each chest can range from 0 to 40 pieces. </p>","0","comp_answer","","","","","","","","","","","",""
"comp-q","109","498843","0.0-4.0-13.0-0.1-0.1","spark_pilot_norest","8357","4","18","Female","","","","","","","","1043","<p> <b> True or False? </b> </p><p> In this game, all animals have the same amount of treasure in their left and right chests. </p>","1","comp_question","","","","true","","","","","","","",""
"comp-q","110","505341","0.0-4.0-13.0-0.1-1.1","spark_pilot_norest","8357","4","18","Female","","","","","","","","1282.9999999999418","<p> <b> That's right! </b> Animals have different amounts of treasure in their treasure chests. </p>","0","comp_answer","","","","","","","","","","","",""
"comp-q","111","514322","0.0-4.0-13.0-0.2-0.2","spark_pilot_norest","8357","4","18","Female","","","","","","","","3151.000000000058","<p> <b> True or False? </b> </p><p> The same animal will always be there if you go up in the same place. </p>","1","comp_question","","","","false","","","","","","","",""
"comp-q","112","522257","0.0-4.0-13.0-0.2-1.2","spark_pilot_norest","8357","4","18","Female","","","","","","","","977.9999999999418","<p> <b>Incorrect.</b> One animal lives in the upper part and one lives in the lower part of every place. </p>","0","comp_answer","","","","","","","","","","","",""
"comp-q","113","529059","0.0-4.0-13.0-0.3-0.3","spark_pilot_norest","8357","4","18","Female","","","","","","","","980","<p> <b> True or False? </b> </p><p> The same animal will always be there if you go up in the same place. </p>","0","comp_question","","","","true","","","","","","","",""
"comp-q","114","537553","0.0-4.0-13.0-0.3-1.3","spark_pilot_norest","8357","4","18","Female","","","","","","","","1445","<p> <b> That's right! </b> One animal lives in the upper part and one lives in the lower part of every place. </p>","0","comp_answer","","","","","","","","","","","",""
"comp-q","115","544370","0.0-4.0-13.0-0.4-0.4","spark_pilot_norest","8357","4","18","Female","","","","","","","","605.0000000001164","<p> <b> True or False? </b> </p><p> If you see a different picture, it means you are in a new place. </p>","1","comp_question","","","","true","","","","","","","",""
"comp-q","116","557177","0.0-4.0-13.0-0.4-1.4","spark_pilot_norest","8357","4","18","Female","","","","","","","","820","<p> <b> That's right! </b> Lots of different images may show the same place. For example,  you may see three different images that all remind you that you are in outer space. </p>","0","comp_answer","","","","","","","","","","","",""
"learning-instructions","117","568363","0.0-4.0-14.0-0.0","spark_pilot_norest","8357","4","18","Female","","","","","","","","1350","<p> Good job. Remember to do your best because the amount of treasure you earn will be converted into bonus money. </p>
            <p> It’s time to start the real game! </p>","","instructions","","","","","","","","","","","",""
"learning-instructions","118","574227","0.0-5.0-0.0-0.0","spark_pilot_norest","8357","4","18","Female","","","","","","","","3168.0000000001164","<p> This time you are searching for treasure in the <b>ocean</b>.</p>","","instructions","","","","","","","","","","","",""
"learning-instructions","119","592595","0.0-5.0-0.0-0.1","spark_pilot_norest","8357","4","18","Female","","","","","","","","1093","<p><b>New</b> animals with <b>new</b> treasure chests live here. You need to explore to discover where the animal with the best treasure chest is.</p>
                    <p> Like before, once you figure out which animal has the chest with the most treasure, you should try to get to that animal and select that chest! </p>","","instructions","","","","","","","","","","","",""
"learning-instructions","120","608439","0.0-5.0-1.0-0.0","spark_pilot_norest","8357","4","18","Female","","","","","","","","1110.9999999998836","<p> Remember, when you see a picture of the place, use the up and down keys to <b>find an animal</b>.</p>
            <p> When you encounter an animal, you should use the left and right keys to <b>select a treasure chest</b>.</p>
            <p> Don't forget to look out for the robber! </p>","","instructions","","","","","","","","","","","",""
"revaluation","121","614449","0.0-5.0-2.0-0.0","spark_pilot_norest","8357","4","18","Female","","false","","","","","","[1092,531]","./assets/img/ocean/memory/39.jpg","[""ArrowUp"",""ArrowRight""]","value training","ocean","10","{""ArrowUp,ArrowLeft"":26,""ArrowUp,ArrowRight"":10,""ArrowDown,ArrowLeft"":5,""ArrowDown,ArrowRight"":17}","false","ArrowUp,ArrowRight","false","revaluation","1","0","","",""
"html-keyboard-response","122","614951","0.0-5.0-2.0-1.0","spark_pilot_norest","8357","4","18","Female","","","","","","","","null","<div style=""font-size:60px;"">+</div>","null","fixation","","","","","","","","","1","","",""
"revaluation","123","620956","0.0-5.0-2.0-0.1","spark_pilot_norest","8357","4","18","Female","","false","","","","","","[377.9999999998836,357]","./assets/img/ocean/memory/2.jpg","[""ArrowUp"",""ArrowLeft""]","value training","ocean","26","{""ArrowUp,ArrowLeft"":26,""ArrowUp,ArrowRight"":10,""ArrowDown,ArrowLeft"":5,""ArrowDown,ArrowRight"":17}","true","ArrowUp,ArrowLeft","false","revaluation","1","2","","",""
"html-keyboard-response","124","621458","0.0-5.0-2.0-1.1","spark_pilot_norest","8357","4","18","Female","","","","","","","","null","<div style=""font-size:60px;"">+</div>","null","fixation","","","","","","","","","3","","",""
"revaluation","125","625462","0.0-5.0-2.0-0.2","spark_pilot_norest","8357","4","18","Female","","false","","","","","","[657]","./assets/img/ocean/catch/0.jpg","[""spaceBar""]","value training","ocean","0","{""ArrowUp,ArrowLeft"":26,""ArrowUp,ArrowRight"":10,""ArrowDown,ArrowLeft"":5,""ArrowDown,ArrowRight"":17}","true","spaceBar","true","revaluation","1","4","","",""
"html-keyboard-response","126","625964","0.0-5.0-2.0-1.2","spark_pilot_norest","8357","4","18","Female","","","","","","","","null","<div style=""font-size:60px;"">+</div>","null","fixation","","","","","","","","","5","","",""
"revaluation","127","631970","0.0-5.0-2.0-0.3","spark_pilot_norest","8357","4","18","Female","","false","","","","","","[734,444]","./assets/img/ocean/memory/38.jpg","[""ArrowDown"",""ArrowRight""]","value training","ocean","17","{""ArrowUp,ArrowLeft"":26,""ArrowUp,ArrowRight"":10,""ArrowDown,ArrowLeft"":5,""ArrowDown,ArrowRight"":17}","false","ArrowDown,ArrowRight","false","revaluation","1","6","","",""
"html-keyboard-response","128","632472","0.0-5.0-2.0-1.3","spark_pilot_norest","8357","4","18","Female","","","","","","","","null","<div style=""font-size:60px;"">+</div>","null","fixation","","","","","","","","","7","","",""
"revaluation","129","638474","0.0-5.0-2.0-0.4","spark_pilot_norest","8357","4","18","Female","","false","","","","","","[522,445.0000000001164]","./assets/img/ocean/memory/39.jpg","[""ArrowUp"",""ArrowLeft""]","value training","ocean","26","{""ArrowUp,ArrowLeft"":26,""ArrowUp,ArrowRight"":10,""ArrowDown,ArrowLeft"":5,""ArrowDown,ArrowRight"":17}","true","ArrowUp,ArrowLeft","false","revaluation","1","8","","",""
"html-keyboard-response","130","638975","0.0-5.0-2.0-1.4","spark_pilot_norest","8357","4","18","Female","","","","","","","","null","<div style=""font-size:60px;"">+</div>","null","fixation","","","","","","","","","9","","",""
"revaluation","131","644975","0.0-5.0-2.0-0.5","spark_pilot_norest","8357","4","18","Female","","false","","","","","","[687,357]","./assets/img/ocean/memory/31.jpg","[""ArrowUp"",""ArrowLeft""]","value training","ocean","26","{""ArrowUp,ArrowLeft"":26,""ArrowUp,ArrowRight"":10,""ArrowDown,ArrowLeft"":5,""ArrowDown,ArrowRight"":17}","true","ArrowUp,ArrowLeft","false","revaluation","1","10","","",""
"html-keyboard-response","132","645477","0.0-5.0-2.0-1.5","spark_pilot_norest","8357","4","18","Female","","","","","","","","null","<div style=""font-size:60px;"">+</div>","null","fixation","","","","","","","","","11","","",""
"revaluation","133","651480","0.0-5.0-2.0-0.6","spark_pilot_norest","8357","4","18","Female","","false","","","","","","[680,353]","./assets/img/ocean/memory/35.jpg","[""ArrowUp"",""ArrowLeft""]","value training","ocean","26","{""ArrowUp,ArrowLeft"":26,""ArrowUp,ArrowRight"":10,""ArrowDown,ArrowLeft"":5,""ArrowDown,ArrowRight"":17}","true","ArrowUp,ArrowLeft","false","revaluation","1","12","","",""
"html-keyboard-response","134","651981","0.0-5.0-2.0-1.6","spark_pilot_norest","8357","4","18","Female","","","","","","","","null","<div style=""font-size:60px;"">+</div>","null","fixation","","","","","","","","","13","","",""
"revaluation","135","657985","0.0-5.0-2.0-0.7","spark_pilot_norest","8357","4","18","Female","","false","","","","","","[815,552]","./assets/img/ocean/memory/41.jpg","[""ArrowDown"",""ArrowLeft""]","value training","ocean","5","{""ArrowUp,ArrowLeft"":26,""ArrowUp,ArrowRight"":10,""ArrowDown,ArrowLeft"":5,""ArrowDown,ArrowRight"":17}","false","ArrowDown,ArrowLeft","false","revaluation","1","14","","",""
"html-keyboard-response","136","658486","0.0-5.0-2.0-1.7","spark_pilot_norest","8357","4","18","Female","","","","","","","","null","<div style=""font-size:60px;"">+</div>","null","fixation","","","","","","","","","15","","",""
"revaluation","137","664491","0.0-5.0-2.0-0.8","spark_pilot_norest","8357","4","18","Female","","false","","","","","","[540.9999999998836,370]","./assets/img/ocean/memory/1.jpg","[""ArrowDown"",""ArrowRight""]","value training","ocean","17","{""ArrowUp,ArrowLeft"":26,""ArrowUp,ArrowRight"":10,""ArrowDown,ArrowLeft"":5,""ArrowDown,ArrowRight"":17}","false","ArrowDown,ArrowRight","false","revaluation","1","16","","",""
"html-keyboard-response","138","664993","0.0-5.0-2.0-1.8","spark_pilot_norest","8357","4","18","Female","","","","","","","","null","<div style=""font-size:60px;"">+</div>","null","fixation","","","","","","","","","17","","",""
"revaluation","139","670997","0.0-5.0-2.0-0.9","spark_pilot_norest","8357","4","18","Female","","false","","","","","","[796,379]","./assets/img/ocean/memory/6.jpg","[""ArrowUp"",""ArrowLeft""]","value training","ocean","26","{""ArrowUp,ArrowLeft"":26,""ArrowUp,ArrowRight"":10,""ArrowDown,ArrowLeft"":5,""ArrowDown,ArrowRight"":17}","true","ArrowUp,ArrowLeft","false","revaluation","1","18","","",""
"html-keyboard-response","140","671499","0.0-5.0-2.0-1.9","spark_pilot_norest","8357","4","18","Female","","","","","","","","null","<div style=""font-size:60px;"">+</div>","null","fixation","","","","","","","","","19","","",""
"revaluation","141","677504","0.0-5.0-2.0-0.10","spark_pilot_norest","8357","4","18","Female","","false","","","","","","[896,381]","./assets/img/ocean/memory/32.jpg","[""ArrowUp"",""ArrowLeft""]","value training","ocean","26","{""ArrowUp,ArrowLeft"":26,""ArrowUp,ArrowRight"":10,""ArrowDown,ArrowLeft"":5,""ArrowDown,ArrowRight"":17}","true","ArrowUp,ArrowLeft","false","revaluation","1","20","","",""
"html-keyboard-response","142","678006","0.0-5.0-2.0-1.10","spark_pilot_norest","8357","4","18","Female","","","","","","","","null","<div style=""font-size:60px;"">+</div>","null","fixation","","","","","","","","","21","","",""
"revaluation","143","684010","0.0-5.0-2.0-0.11","spark_pilot_norest","8357","4","18","Female","","false","","","","","","[689,327]","./assets/img/ocean/memory/33.jpg","[""ArrowUp"",""ArrowLeft""]","value training","ocean","26","{""ArrowUp,ArrowLeft"":26,""ArrowUp,ArrowRight"":10,""ArrowDown,ArrowLeft"":5,""ArrowDown,ArrowRight"":17}","true","ArrowUp,ArrowLeft","false","revaluation","1","22","","",""
"html-keyboard-response","144","684511","0.0-5.0-2.0-1.11","spark_pilot_norest","8357","4","18","Female","","","","","","","","null","<div style=""font-size:60px;"">+</div>","null","fixation","","","","","","","","","23","","",""
"revaluation","145","690517","0.0-5.0-2.0-0.12","spark_pilot_norest","8357","4","18","Female","","false","","","","","","[613,294.9999999998836]","./assets/img/ocean/memory/38.jpg","[""ArrowUp"",""ArrowLeft""]","value training","ocean","26","{""ArrowUp,ArrowLeft"":26,""ArrowUp,ArrowRight"":10,""ArrowDown,ArrowLeft"":5,""ArrowDown,ArrowRight"":17}","true","ArrowUp,ArrowLeft","false","revaluation","1","24","","",""
"html-keyboard-response","146","691018","0.0-5.0-2.0-1.12","spark_pilot_norest","8357","4","18","Female","","","","","","","","null","<div style=""font-size:60px;"">+</div>","null","fixation","","","","","","","","","25","","",""
"revaluation","147","697023","0.0-5.0-2.0-0.13","spark_pilot_norest","8357","4","18","Female","","false","","","","","","[800,263.0000000001164]","./assets/img/ocean/memory/37.jpg","[""ArrowUp"",""ArrowLeft""]","value training","ocean","26","{""ArrowUp,ArrowLeft"":26,""ArrowUp,ArrowRight"":10,""ArrowDown,ArrowLeft"":5,""ArrowDown,ArrowRight"":17}","true","ArrowUp,ArrowLeft","false","revaluation","1","26","","",""
"html-keyboard-response","148","697525","0.0-5.0-2.0-1.13","spark_pilot_norest","8357","4","18","Female","","","","","","","","null","<div style=""font-size:60px;"">+</div>","null","fixation","","","","","","","","","27","","",""
"revaluation","149","703531","0.0-5.0-2.0-0.14","spark_pilot_norest","8357","4","18","Female","","false","","","","","","[806,309.0000000001164]","./assets/img/ocean/memory/22.jpg","[""ArrowUp"",""ArrowLeft""]","value training","ocean","26","{""ArrowUp,ArrowLeft"":26,""ArrowUp,ArrowRight"":10,""ArrowDown,ArrowLeft"":5,""ArrowDown,ArrowRight"":17}","true","ArrowUp,ArrowLeft","false","revaluation","1","28","","",""
"html-keyboard-response","150","704031","0.0-5.0-2.0-1.14","spark_pilot_norest","8357","4","18","Female","","","","","","","","null","<div style=""font-size:60px;"">+</div>","null","fixation","","","","","","","","","29","","",""
"revaluation","151","710037","0.0-5.0-2.0-0.15","spark_pilot_norest","8357","4","18","Female","","false","","","","","","[731,347.9999999998836]","./assets/img/ocean/memory/1.jpg","[""ArrowUp"",""ArrowLeft""]","value training","ocean","26","{""ArrowUp,ArrowLeft"":26,""ArrowUp,ArrowRight"":10,""ArrowDown,ArrowLeft"":5,""ArrowDown,ArrowRight"":17}","true","ArrowUp,ArrowLeft","false","revaluation","1","30","","",""
"html-keyboard-response","152","710538","0.0-5.0-2.0-1.15","spark_pilot_norest","8357","4","18","Female","","","","","","","","null","<div style=""font-size:60px;"">+</div>","null","fixation","","","","","","","","","31","","",""
"revaluation","153","716544","0.0-5.0-2.0-0.16","spark_pilot_norest","8357","4","18","Female","","false","","","","","","[891,425]","./assets/img/ocean/memory/31.jpg","[""ArrowUp"",""ArrowLeft""]","value training","ocean","26","{""ArrowUp,ArrowLeft"":26,""ArrowUp,ArrowRight"":10,""ArrowDown,ArrowLeft"":5,""ArrowDown,ArrowRight"":17}","true","ArrowUp,ArrowLeft","false","revaluation","1","32","","",""
"html-keyboard-response","154","717045","0.0-5.0-2.0-1.16","spark_pilot_norest","8357","4","18","Female","","","","","","","","null","<div style=""font-size:60px;"">+</div>","null","fixation","","","","","","","","","33","","",""
"revaluation","155","723050","0.0-5.0-2.0-0.17","spark_pilot_norest","8357","4","18","Female","","false","","","","","","[954,373]","./assets/img/ocean/memory/27.jpg","[""ArrowUp"",""ArrowLeft""]","value training","ocean","26","{""ArrowUp,ArrowLeft"":26,""ArrowUp,ArrowRight"":10,""ArrowDown,ArrowLeft"":5,""ArrowDown,ArrowRight"":17}","true","ArrowUp,ArrowLeft","false","revaluation","1","34","","",""
"html-keyboard-response","156","723552","0.0-5.0-2.0-1.17","spark_pilot_norest","8357","4","18","Female","","","","","","","","null","<div style=""font-size:60px;"">+</div>","null","fixation","","","","","","","","","35","","",""
"revaluation","157","729556","0.0-5.0-2.0-0.18","spark_pilot_norest","8357","4","18","Female","","false","","","","","","[705.9999999998836,352]","./assets/img/ocean/memory/34.jpg","[""ArrowUp"",""ArrowLeft""]","value training","ocean","26","{""ArrowUp,ArrowLeft"":26,""ArrowUp,ArrowRight"":10,""ArrowDown,ArrowLeft"":5,""ArrowDown,ArrowRight"":17}","true","ArrowUp,ArrowLeft","false","revaluation","1","36","","",""
"html-keyboard-response","158","730058","0.0-5.0-2.0-1.18","spark_pilot_norest","8357","4","18","Female","","","","","","","","null","<div style=""font-size:60px;"">+</div>","null","fixation","","","","","","","","","37","","",""
"revaluation","159","736066","0.0-5.0-2.0-0.19","spark_pilot_norest","8357","4","18","Female","","false","","","","","","[589,297]","./assets/img/ocean/memory/33.jpg","[""ArrowUp"",""ArrowLeft""]","value training","ocean","26","{""ArrowUp,ArrowLeft"":26,""ArrowUp,ArrowRight"":10,""ArrowDown,ArrowLeft"":5,""ArrowDown,ArrowRight"":17}","true","ArrowUp,ArrowLeft","false","revaluation","1","38","","",""
"html-keyboard-response","160","736568","0.0-5.0-2.0-1.19","spark_pilot_norest","8357","4","18","Female","","","","","","","","null","<div style=""font-size:60px;"">+</div>","null","fixation","","","","","","","","","39","","",""
"revaluation","161","742575","0.0-5.0-2.0-0.20","spark_pilot_norest","8357","4","18","Female","","false","","","","","","[898,338.0000000001164]","./assets/img/ocean/memory/2.jpg","[""ArrowUp"",""ArrowLeft""]","value training","ocean","26","{""ArrowUp,ArrowLeft"":26,""ArrowUp,ArrowRight"":10,""ArrowDown,ArrowLeft"":5,""ArrowDown,ArrowRight"":17}","true","ArrowUp,ArrowLeft","false","revaluation","1","40","","",""
"html-keyboard-response","162","743076","0.0-5.0-2.0-1.20","spark_pilot_norest","8357","4","18","Female","","","","","","","","null","<div style=""font-size:60px;"">+</div>","null","fixation","","","","","","","","","41","","",""
"revaluation","163","749083","0.0-5.0-2.0-0.21","spark_pilot_norest","8357","4","18","Female","","false","","","","","","[768,372]","./assets/img/ocean/memory/40.jpg","[""ArrowUp"",""ArrowLeft""]","value training","ocean","26","{""ArrowUp,ArrowLeft"":26,""ArrowUp,ArrowRight"":10,""ArrowDown,ArrowLeft"":5,""ArrowDown,ArrowRight"":17}","true","ArrowUp,ArrowLeft","false","revaluation","1","42","","",""
"html-keyboard-response","164","749584","0.0-5.0-2.0-1.21","spark_pilot_norest","8357","4","18","Female","","","","","","","","null","<div style=""font-size:60px;"">+</div>","null","fixation","","","","","","","","","43","","",""
"revaluation","165","755588","0.0-5.0-2.0-0.22","spark_pilot_norest","8357","4","18","Female","","false","","","","","","[1030,307]","./assets/img/ocean/memory/3.jpg","[""ArrowUp"",""ArrowLeft""]","value training","ocean","26","{""ArrowUp,ArrowLeft"":26,""ArrowUp,ArrowRight"":10,""ArrowDown,ArrowLeft"":5,""ArrowDown,ArrowRight"":17}","true","ArrowUp,ArrowLeft","false","revaluation","1","44","","",""
"html-keyboard-response","166","756090","0.0-5.0-2.0-1.22","spark_pilot_norest","8357","4","18","Female","","","","","","","","null","<div style=""font-size:60px;"">+</div>","null","fixation","","","","","","","","","45","","",""
"revaluation","167","762095","0.0-5.0-2.0-0.23","spark_pilot_norest","8357","4","18","Female","","false","","","","","","[838,314]","./assets/img/ocean/memory/30.jpg","[""ArrowUp"",""ArrowLeft""]","value training","ocean","26","{""ArrowUp,ArrowLeft"":26,""ArrowUp,ArrowRight"":10,""ArrowDown,ArrowLeft"":5,""ArrowDown,ArrowRight"":17}","true","ArrowUp,ArrowLeft","false","revaluation","1","46","","",""
"html-keyboard-response","168","762597","0.0-5.0-2.0-1.23","spark_pilot_norest","8357","4","18","Female","","","","","","","","null","<div style=""font-size:60px;"">+</div>","null","fixation","","","","","","","","","47","","",""
"revaluation","169","768602","0.0-5.0-2.0-0.24","spark_pilot_norest","8357","4","18","Female","","false","","","","","","[1118,330]","./assets/img/ocean/memory/36.jpg","[""ArrowUp"",""ArrowLeft""]","value training","ocean","26","{""ArrowUp,ArrowLeft"":26,""ArrowUp,ArrowRight"":10,""ArrowDown,ArrowLeft"":5,""ArrowDown,ArrowRight"":17}","true","ArrowUp,ArrowLeft","false","revaluation","1","48","","",""
"html-keyboard-response","170","769104","0.0-5.0-2.0-1.24","spark_pilot_norest","8357","4","18","Female","","","","","","","","null","<div style=""font-size:60px;"">+</div>","null","fixation","","","","","","","","","49","","",""
"revaluation","171","775110","0.0-5.0-2.0-0.25","spark_pilot_norest","8357","4","18","Female","","false","","","","","","[1371.0000000001164,360.9999999998836]","./assets/img/ocean/memory/35.jpg","[""ArrowUp"",""ArrowLeft""]","value training","ocean","26","{""ArrowUp,ArrowLeft"":26,""ArrowUp,ArrowRight"":10,""ArrowDown,ArrowLeft"":5,""ArrowDown,ArrowRight"":17}","true","ArrowUp,ArrowLeft","false","revaluation","1","50","","",""
"html-keyboard-response","172","775611","0.0-5.0-2.0-1.25","spark_pilot_norest","8357","4","18","Female","","","","","","","","null","<div style=""font-size:60px;"">+</div>","null","fixation","","","","","","","","","51","","",""
"revaluation","173","781619","0.0-5.0-2.0-0.26","spark_pilot_norest","8357","4","18","Female","","false","","","","","","[707,333]","./assets/img/ocean/memory/37.jpg","[""ArrowUp"",""ArrowLeft""]","value training","ocean","26","{""ArrowUp,ArrowLeft"":26,""ArrowUp,ArrowRight"":10,""ArrowDown,ArrowLeft"":5,""ArrowDown,ArrowRight"":17}","true","ArrowUp,ArrowLeft","false","revaluation","1","52","","",""
"html-keyboard-response","174","782122","0.0-5.0-2.0-1.26","spark_pilot_norest","8357","4","18","Female","","","","","","","","null","<div style=""font-size:60px;"">+</div>","null","fixation","","","","","","","","","53","","",""
"revaluation","175","786126","0.0-5.0-2.0-0.27","spark_pilot_norest","8357","4","18","Female","","false","","","","","","[871]","./assets/img/ocean/catch/6.jpg","[""spaceBar""]","value training","ocean","0","{""ArrowUp,ArrowLeft"":26,""ArrowUp,ArrowRight"":10,""ArrowDown,ArrowLeft"":5,""ArrowDown,ArrowRight"":17}","true","spaceBar","true","revaluation","1","54","","",""
"html-keyboard-response","176","786629","0.0-5.0-2.0-1.27","spark_pilot_norest","8357","4","18","Female","","","","","","","","null","<div style=""font-size:60px;"">+</div>","null","fixation","","","","","","","","","55","","",""
"revaluation","177","792633","0.0-5.0-2.0-0.28","spark_pilot_norest","8357","4","18","Female","","false","","","","","","[1754,590.9999999998836]","./assets/img/ocean/memory/24.jpg","[""ArrowUp"",""ArrowLeft""]","value training","ocean","26","{""ArrowUp,ArrowLeft"":26,""ArrowUp,ArrowRight"":10,""ArrowDown,ArrowLeft"":5,""ArrowDown,ArrowRight"":17}","true","ArrowUp,ArrowLeft","false","revaluation","1","56","","",""
"html-keyboard-response","178","793134","0.0-5.0-2.0-1.28","spark_pilot_norest","8357","4","18","Female","","","","","","","","null","<div style=""font-size:60px;"">+</div>","null","fixation","","","","","","","","","57","","",""
"revaluation","179","797138","0.0-5.0-2.0-0.29","spark_pilot_norest","8357","4","18","Female","","false","","","","","","[646]","./assets/img/ocean/catch/4.jpg","[""spaceBar""]","value training","ocean","0","{""ArrowUp,ArrowLeft"":26,""ArrowUp,ArrowRight"":10,""ArrowDown,ArrowLeft"":5,""ArrowDown,ArrowRight"":17}","true","spaceBar","true","revaluation","1","58","","",""
"html-keyboard-response","180","797640","0.0-5.0-2.0-1.29","spark_pilot_norest","8357","4","18","Female","","","","","","","","null","<div style=""font-size:60px;"">+</div>","null","fixation","","","","","","","","","59","","",""
"revaluation","181","803645","0.0-5.0-2.0-0.30","spark_pilot_norest","8357","4","18","Female","","false","","","","","","[588.9999999998836,349]","./assets/img/ocean/memory/34.jpg","[""ArrowUp"",""ArrowLeft""]","value training","ocean","26","{""ArrowUp,ArrowLeft"":26,""ArrowUp,ArrowRight"":10,""ArrowDown,ArrowLeft"":5,""ArrowDown,ArrowRight"":17}","true","ArrowUp,ArrowLeft","false","revaluation","1","60","","",""
"html-keyboard-response","182","804147","0.0-5.0-2.0-1.30","spark_pilot_norest","8357","4","18","Female","","","","","","","","null","<div style=""font-size:60px;"">+</div>","null","fixation","","","","","","","","","61","","",""
"revaluation","183","810152","0.0-5.0-2.0-0.31","spark_pilot_norest","8357","4","18","Female","","false","","","","","","[839.0000000001164,331]","./assets/img/ocean/memory/30.jpg","[""ArrowUp"",""ArrowLeft""]","value training","ocean","26","{""ArrowUp,ArrowLeft"":26,""ArrowUp,ArrowRight"":10,""ArrowDown,ArrowLeft"":5,""ArrowDown,ArrowRight"":17}","true","ArrowUp,ArrowLeft","false","revaluation","1","62","","",""
"html-keyboard-response","184","810654","0.0-5.0-2.0-1.31","spark_pilot_norest","8357","4","18","Female","","","","","","","","null","<div style=""font-size:60px;"">+</div>","null","fixation","","","","","","","","","63","","",""
"revaluation","185","814658","0.0-5.0-2.0-0.32","spark_pilot_norest","8357","4","18","Female","","false","","","","","","[1434.9999999998836]","./assets/img/ocean/catch/5.jpg","[""spaceBar""]","value training","ocean","0","{""ArrowUp,ArrowLeft"":26,""ArrowUp,ArrowRight"":10,""ArrowDown,ArrowLeft"":5,""ArrowDown,ArrowRight"":17}","true","spaceBar","true","revaluation","1","64","","",""
"html-keyboard-response","186","815160","0.0-5.0-2.0-1.32","spark_pilot_norest","8357","4","18","Female","","","","","","","","null","<div style=""font-size:60px;"">+</div>","null","fixation","","","","","","","","","65","","",""
"revaluation","187","819165","0.0-5.0-2.0-0.33","spark_pilot_norest","8357","4","18","Female","","false","","","","","","[661]","./assets/img/ocean/catch/1.jpg","[""spaceBar""]","value training","ocean","0","{""ArrowUp,ArrowLeft"":26,""ArrowUp,ArrowRight"":10,""ArrowDown,ArrowLeft"":5,""ArrowDown,ArrowRight"":17}","true","spaceBar","true","revaluation","1","66","","",""
"html-keyboard-response","188","819667","0.0-5.0-2.0-1.33","spark_pilot_norest","8357","4","18","Female","","","","","","","","null","<div style=""font-size:60px;"">+</div>","null","fixation","","","","","","","","","67","","",""
"revaluation","189","825673","0.0-5.0-2.0-0.34","spark_pilot_norest","8357","4","18","Female","","false","","","","","","[875,385.0000000001164]","./assets/img/ocean/memory/27.jpg","[""ArrowUp"",""ArrowLeft""]","value training","ocean","26","{""ArrowUp,ArrowLeft"":26,""ArrowUp,ArrowRight"":10,""ArrowDown,ArrowLeft"":5,""ArrowDown,ArrowRight"":17}","true","ArrowUp,ArrowLeft","false","revaluation","1","68","","",""
"html-keyboard-response","190","826174","0.0-5.0-2.0-1.34","spark_pilot_norest","8357","4","18","Female","","","","","","","","null","<div style=""font-size:60px;"">+</div>","null","fixation","","","","","","","","","69","","",""
"revaluation","191","830177","0.0-5.0-2.0-0.35","spark_pilot_norest","8357","4","18","Female","","true","","","","","","[]","./assets/img/ocean/memory/24.jpg","[]","value training","ocean","-5","{""ArrowUp,ArrowLeft"":26,""ArrowUp,ArrowRight"":10,""ArrowDown,ArrowLeft"":5,""ArrowDown,ArrowRight"":17}","false","","false","revaluation","1","70","","",""
"html-keyboard-response","192","830678","0.0-5.0-2.0-1.35","spark_pilot_norest","8357","4","18","Female","","","","","","","","null","<div style=""font-size:60px;"">+</div>","null","fixation","","","","","","","","","71","","",""
"revaluation","193","836683","0.0-5.0-2.0-0.36","spark_pilot_norest","8357","4","18","Female","","false","","","","","","[666,357.9999999998836]","./assets/img/ocean/memory/7.jpg","[""ArrowUp"",""ArrowLeft""]","value training","ocean","26","{""ArrowUp,ArrowLeft"":26,""ArrowUp,ArrowRight"":10,""ArrowDown,ArrowLeft"":5,""ArrowDown,ArrowRight"":17}","true","ArrowUp,ArrowLeft","false","revaluation","1","72","","",""
"html-keyboard-response","194","837184","0.0-5.0-2.0-1.36","spark_pilot_norest","8357","4","18","Female","","","","","","","","null","<div style=""font-size:60px;"">+</div>","null","fixation","","","","","","","","","73","","",""
"revaluation","195","843190","0.0-5.0-2.0-0.37","spark_pilot_norest","8357","4","18","Female","","false","","","","","","[675,374]","./assets/img/ocean/memory/8.jpg","[""ArrowUp"",""ArrowLeft""]","value training","ocean","26","{""ArrowUp,ArrowLeft"":26,""ArrowUp,ArrowRight"":10,""ArrowDown,ArrowLeft"":5,""ArrowDown,ArrowRight"":17}","true","ArrowUp,ArrowLeft","false","revaluation","1","74","","",""
"html-keyboard-response","196","843691","0.0-5.0-2.0-1.37","spark_pilot_norest","8357","4","18","Female","","","","","","","","null","<div style=""font-size:60px;"">+</div>","null","fixation","","","","","","","","","75","","",""
"revaluation","197","849697","0.0-5.0-2.0-0.38","spark_pilot_norest","8357","4","18","Female","","false","","","","","","[633,317]","./assets/img/ocean/memory/6.jpg","[""ArrowUp"",""ArrowLeft""]","value training","ocean","26","{""ArrowUp,ArrowLeft"":26,""ArrowUp,ArrowRight"":10,""ArrowDown,ArrowLeft"":5,""ArrowDown,ArrowRight"":17}","true","ArrowUp,ArrowLeft","false","revaluation","1","76","","",""
"html-keyboard-response","198","850199","0.0-5.0-2.0-1.38","spark_pilot_norest","8357","4","18","Female","","","","","","","","null","<div style=""font-size:60px;"">+</div>","null","fixation","","","","","","","","","77","","",""
"revaluation","199","856203","0.0-5.0-2.0-0.39","spark_pilot_norest","8357","4","18","Female","","false","","","","","","[605.0000000001164,335]","./assets/img/ocean/memory/3.jpg","[""ArrowUp"",""ArrowLeft""]","value training","ocean","26","{""ArrowUp,ArrowLeft"":26,""ArrowUp,ArrowRight"":10,""ArrowDown,ArrowLeft"":5,""ArrowDown,ArrowRight"":17}","true","ArrowUp,ArrowLeft","false","revaluation","1","78","","",""
"html-keyboard-response","200","856705","0.0-5.0-2.0-1.39","spark_pilot_norest","8357","4","18","Female","","","","","","","","null","<div style=""font-size:60px;"">+</div>","null","fixation","","","","","","","","","79","","",""
"revaluation","201","862709","0.0-5.0-2.0-0.40","spark_pilot_norest","8357","4","18","Female","","false","","","","","","[703,341]","./assets/img/ocean/memory/40.jpg","[""ArrowUp"",""ArrowLeft""]","value training","ocean","26","{""ArrowUp,ArrowLeft"":26,""ArrowUp,ArrowRight"":10,""ArrowDown,ArrowLeft"":5,""ArrowDown,ArrowRight"":17}","true","ArrowUp,ArrowLeft","false","revaluation","1","80","","",""
"html-keyboard-response","202","863214","0.0-5.0-2.0-1.40","spark_pilot_norest","8357","4","18","Female","","","","","","","","null","<div style=""font-size:60px;"">+</div>","null","fixation","","","","","","","","","81","","",""
"revaluation","203","869220","0.0-5.0-2.0-0.41","spark_pilot_norest","8357","4","18","Female","","false","","","","","","[595,269]","./assets/img/ocean/memory/7.jpg","[""ArrowUp"",""ArrowLeft""]","value training","ocean","26","{""ArrowUp,ArrowLeft"":26,""ArrowUp,ArrowRight"":10,""ArrowDown,ArrowLeft"":5,""ArrowDown,ArrowRight"":17}","true","ArrowUp,ArrowLeft","false","revaluation","1","82","","",""
"html-keyboard-response","204","869722","0.0-5.0-2.0-1.41","spark_pilot_norest","8357","4","18","Female","","","","","","","","null","<div style=""font-size:60px;"">+</div>","null","fixation","","","","","","","","","83","","",""
"revaluation","205","875727","0.0-5.0-2.0-0.42","spark_pilot_norest","8357","4","18","Female","","false","","","","","","[764,289]","./assets/img/ocean/memory/22.jpg","[""ArrowUp"",""ArrowLeft""]","value training","ocean","26","{""ArrowUp,ArrowLeft"":26,""ArrowUp,ArrowRight"":10,""ArrowDown,ArrowLeft"":5,""ArrowDown,ArrowRight"":17}","true","ArrowUp,ArrowLeft","false","revaluation","1","84","","",""
"html-keyboard-response","206","876228","0.0-5.0-2.0-1.42","spark_pilot_norest","8357","4","18","Female","","","","","","","","null","<div style=""font-size:60px;"">+</div>","null","fixation","","","","","","","","","85","","",""
"revaluation","207","880232","0.0-5.0-2.0-0.43","spark_pilot_norest","8357","4","18","Female","","false","","","","","","[651.9999999998836]","./assets/img/ocean/catch/2.jpg","[""spaceBar""]","value training","ocean","0","{""ArrowUp,ArrowLeft"":26,""ArrowUp,ArrowRight"":10,""ArrowDown,ArrowLeft"":5,""ArrowDown,ArrowRight"":17}","true","spaceBar","true","revaluation","1","86","","",""
"html-keyboard-response","208","880734","0.0-5.0-2.0-1.43","spark_pilot_norest","8357","4","18","Female","","","","","","","","null","<div style=""font-size:60px;"">+</div>","null","fixation","","","","","","","","","87","","",""
"revaluation","209","886738","0.0-5.0-2.0-0.44","spark_pilot_norest","8357","4","18","Female","","false","","","","","","[1404,364]","./assets/img/ocean/memory/41.jpg","[""ArrowUp"",""ArrowLeft""]","value training","ocean","26","{""ArrowUp,ArrowLeft"":26,""ArrowUp,ArrowRight"":10,""ArrowDown,ArrowLeft"":5,""ArrowDown,ArrowRight"":17}","true","ArrowUp,ArrowLeft","false","revaluation","1","88","","",""
"html-keyboard-response","210","887241","0.0-5.0-2.0-1.44","spark_pilot_norest","8357","4","18","Female","","","","","","","","null","<div style=""font-size:60px;"">+</div>","null","fixation","","","","","","","","","89","","",""
"revaluation","211","893246","0.0-5.0-2.0-0.45","spark_pilot_norest","8357","4","18","Female","","false","","","","","","[658,317]","./assets/img/ocean/memory/36.jpg","[""ArrowUp"",""ArrowLeft""]","value training","ocean","26","{""ArrowUp,ArrowLeft"":26,""ArrowUp,ArrowRight"":10,""ArrowDown,ArrowLeft"":5,""ArrowDown,ArrowRight"":17}","true","ArrowUp,ArrowLeft","false","revaluation","1","90","","",""
"html-keyboard-response","212","893748","0.0-5.0-2.0-1.45","spark_pilot_norest","8357","4","18","Female","","","","","","","","null","<div style=""font-size:60px;"">+</div>","null","fixation","","","","","","","","","91","","",""
"revaluation","213","897752","0.0-5.0-2.0-0.46","spark_pilot_norest","8357","4","18","Female","","false","","","","","","[640]","./assets/img/ocean/catch/3.jpg","[""spaceBar""]","value training","ocean","0","{""ArrowUp,ArrowLeft"":26,""ArrowUp,ArrowRight"":10,""ArrowDown,ArrowLeft"":5,""ArrowDown,ArrowRight"":17}","true","spaceBar","true","revaluation","1","92","","",""
"html-keyboard-response","214","898254","0.0-5.0-2.0-1.46","spark_pilot_norest","8357","4","18","Female","","","","","","","","null","<div style=""font-size:60px;"">+</div>","null","fixation","","","","","","","","","93","","",""
"revaluation","215","904260","0.0-5.0-2.0-0.47","spark_pilot_norest","8357","4","18","Female","","false","","","","","","[740,411.0000000001164]","./assets/img/ocean/memory/32.jpg","[""ArrowUp"",""ArrowLeft""]","value training","ocean","26","{""ArrowUp,ArrowLeft"":26,""ArrowUp,ArrowRight"":10,""ArrowDown,ArrowLeft"":5,""ArrowDown,ArrowRight"":17}","true","ArrowUp,ArrowLeft","false","revaluation","1","94","","",""
"html-keyboard-response","216","904761","0.0-5.0-2.0-1.47","spark_pilot_norest","8357","4","18","Female","","","","","","","","null","<div style=""font-size:60px;"">+</div>","null","fixation","","","","","","","","","95","","",""
"revaluation","217","908766","0.0-5.0-2.0-0.48","spark_pilot_norest","8357","4","18","Female","","false","","","","","","[613]","./assets/img/ocean/catch/7.jpg","[""spaceBar""]","value training","ocean","0","{""ArrowUp,ArrowLeft"":26,""ArrowUp,ArrowRight"":10,""ArrowDown,ArrowLeft"":5,""ArrowDown,ArrowRight"":17}","true","spaceBar","true","revaluation","1","96","","",""
"html-keyboard-response","218","909268","0.0-5.0-2.0-1.48","spark_pilot_norest","8357","4","18","Female","","","","","","","","null","<div style=""font-size:60px;"">+</div>","null","fixation","","","","","","","","","97","","",""
"revaluation","219","915273","0.0-5.0-2.0-0.49","spark_pilot_norest","8357","4","18","Female","","false","","","","","","[590.0000000001164,348]","./assets/img/ocean/memory/8.jpg","[""ArrowUp"",""ArrowLeft""]","value training","ocean","26","{""ArrowUp,ArrowLeft"":26,""ArrowUp,ArrowRight"":10,""ArrowDown,ArrowLeft"":5,""ArrowDown,ArrowRight"":17}","true","ArrowUp,ArrowLeft","false","revaluation","1","98","","",""
"html-keyboard-response","220","915775","0.0-5.0-2.0-1.49","spark_pilot_norest","8357","4","18","Female","","","","","","","","null","<div style=""font-size:60px;"">+</div>","null","fixation","","","","","","","","","99","","",""
"learning-instructions","221","930435","0.0-5.0-3.0-0.0","spark_pilot_norest","8357","4","18","Female","","","","","","","","1777","<p> Now, you will travel with a friend who will choose whether you go up or down first. </p>
            <p> On these turns, you will just see the animal that they found. You will still get to choose which chest to search for treasure.</p>","","instructions","","","","","","","","","","","",""
"revaluation","222","934440","0.0-5.0-4.0-0.0","spark_pilot_norest","8357","4","18","Female","","false","","","","","","[1226]","./assets/img/ocean/animals/seahorse.jpg","[""ArrowRight""]","revaluation","ocean","27","{""ArrowUp,ArrowLeft"":2,""ArrowUp,ArrowRight"":11,""ArrowDown,ArrowLeft"":8,""ArrowDown,ArrowRight"":27}","true","ArrowDown,ArrowRight","","revaluation","1","0","","",""
"html-keyboard-response","223","934943","0.0-5.0-4.0-1.0","spark_pilot_norest","8357","4","18","Female","","","","","","","","null","<div style=""font-size:60px;"">+</div>","null","fixation","","","","","","","","","1","","",""
"revaluation","224","938947","0.0-5.0-4.0-0.1","spark_pilot_norest","8357","4","18","Female","","false","","","","","","[774]","./assets/img/ocean/animals/seahorse.jpg","[""ArrowRight""]","revaluation","ocean","27","{""ArrowUp,ArrowLeft"":2,""ArrowUp,ArrowRight"":11,""ArrowDown,ArrowLeft"":8,""ArrowDown,ArrowRight"":27}","true","ArrowDown,ArrowRight","","revaluation","1","2","","",""
"html-keyboard-response","225","939449","0.0-5.0-4.0-1.1","spark_pilot_norest","8357","4","18","Female","","","","","","","","null","<div style=""font-size:60px;"">+</div>","null","fixation","","","","","","","","","3","","",""
"revaluation","226","943454","0.0-5.0-4.0-0.2","spark_pilot_norest","8357","4","18","Female","","false","","","","","","[571.9999999998836]","./assets/img/ocean/animals/octopus.jpg","[""ArrowLeft""]","revaluation","ocean","2","{""ArrowUp,ArrowLeft"":2,""ArrowUp,ArrowRight"":11,""ArrowDown,ArrowLeft"":8,""ArrowDown,ArrowRight"":27}","false","ArrowUp,ArrowLeft","","revaluation","1","4","","",""
"html-keyboard-response","227","943956","0.0-5.0-4.0-1.2","spark_pilot_norest","8357","4","18","Female","","","","","","","","null","<div style=""font-size:60px;"">+</div>","null","fixation","","","","","","","","","5","","",""
"revaluation","228","947960","0.0-5.0-4.0-0.3","spark_pilot_norest","8357","4","18","Female","","false","","","","","","[670]","./assets/img/ocean/animals/octopus.jpg","[""ArrowRight""]","revaluation","ocean","11","{""ArrowUp,ArrowLeft"":2,""ArrowUp,ArrowRight"":11,""ArrowDown,ArrowLeft"":8,""ArrowDown,ArrowRight"":27}","true","ArrowUp,ArrowRight","","revaluation","1","6","","",""
"html-keyboard-response","229","948462","0.0-5.0-4.0-1.3","spark_pilot_norest","8357","4","18","Female","","","","","","","","null","<div style=""font-size:60px;"">+</div>","null","fixation","","","","","","","","","7","","",""
"revaluation","230","952467","0.0-5.0-4.0-0.4","spark_pilot_norest","8357","4","18","Female","","false","","","","","","[546.0000000001164]","./assets/img/ocean/animals/seahorse.jpg","[""ArrowLeft""]","revaluation","ocean","8","{""ArrowUp,ArrowLeft"":2,""ArrowUp,ArrowRight"":11,""ArrowDown,ArrowLeft"":8,""ArrowDown,ArrowRight"":27}","false","ArrowDown,ArrowLeft","","revaluation","1","8","","",""
"html-keyboard-response","231","952969","0.0-5.0-4.0-1.4","spark_pilot_norest","8357","4","18","Female","","","","","","","","null","<div style=""font-size:60px;"">+</div>","null","fixation","","","","","","","","","9","","",""
"revaluation","232","956974","0.0-5.0-4.0-0.5","spark_pilot_norest","8357","4","18","Female","","false","","","","","","[431]","./assets/img/ocean/animals/octopus.jpg","[""ArrowRight""]","revaluation","ocean","11","{""ArrowUp,ArrowLeft"":2,""ArrowUp,ArrowRight"":11,""ArrowDown,ArrowLeft"":8,""ArrowDown,ArrowRight"":27}","true","ArrowUp,ArrowRight","","revaluation","1","10","","",""
"html-keyboard-response","233","957476","0.0-5.0-4.0-1.5","spark_pilot_norest","8357","4","18","Female","","","","","","","","null","<div style=""font-size:60px;"">+</div>","null","fixation","","","","","","","","","11","","",""
"revaluation","234","961481","0.0-5.0-4.0-0.6","spark_pilot_norest","8357","4","18","Female","","false","","","","","","[435]","./assets/img/ocean/animals/seahorse.jpg","[""ArrowRight""]","revaluation","ocean","27","{""ArrowUp,ArrowLeft"":2,""ArrowUp,ArrowRight"":11,""ArrowDown,ArrowLeft"":8,""ArrowDown,ArrowRight"":27}","true","ArrowDown,ArrowRight","","revaluation","1","12","","",""
"html-keyboard-response","235","961983","0.0-5.0-4.0-1.6","spark_pilot_norest","8357","4","18","Female","","","","","","","","null","<div style=""font-size:60px;"">+</div>","null","fixation","","","","","","","","","13","","",""
"revaluation","236","965986","0.0-5.0-4.0-0.7","spark_pilot_norest","8357","4","18","Female","","false","","","","","","[236]","./assets/img/ocean/animals/seahorse.jpg","[""ArrowRight""]","revaluation","ocean","27","{""ArrowUp,ArrowLeft"":2,""ArrowUp,ArrowRight"":11,""ArrowDown,ArrowLeft"":8,""ArrowDown,ArrowRight"":27}","true","ArrowDown,ArrowRight","","revaluation","1","14","","",""
"html-keyboard-response","237","966487","0.0-5.0-4.0-1.7","spark_pilot_norest","8357","4","18","Female","","","","","","","","null","<div style=""font-size:60px;"">+</div>","null","fixation","","","","","","","","","15","","",""
"revaluation","238","970491","0.0-5.0-4.0-0.8","spark_pilot_norest","8357","4","18","Female","","false","","","","","","[197]","./assets/img/ocean/animals/octopus.jpg","[""ArrowRight""]","revaluation","ocean","11","{""ArrowUp,ArrowLeft"":2,""ArrowUp,ArrowRight"":11,""ArrowDown,ArrowLeft"":8,""ArrowDown,ArrowRight"":27}","true","ArrowUp,ArrowRight","","revaluation","1","16","","",""
"html-keyboard-response","239","970993","0.0-5.0-4.0-1.8","spark_pilot_norest","8357","4","18","Female","","","","","","","","null","<div style=""font-size:60px;"">+</div>","null","fixation","","","","","","","","","17","","",""
"revaluation","240","974998","0.0-5.0-4.0-0.9","spark_pilot_norest","8357","4","18","Female","","false","","","","","","[225]","./assets/img/ocean/animals/seahorse.jpg","[""ArrowRight""]","revaluation","ocean","27","{""ArrowUp,ArrowLeft"":2,""ArrowUp,ArrowRight"":11,""ArrowDown,ArrowLeft"":8,""ArrowDown,ArrowRight"":27}","true","ArrowDown,ArrowRight","","revaluation","1","18","","",""
"html-keyboard-response","241","975500","0.0-5.0-4.0-1.9","spark_pilot_norest","8357","4","18","Female","","","","","","","","null","<div style=""font-size:60px;"">+</div>","null","fixation","","","","","","","","","19","","",""
"revaluation","242","979506","0.0-5.0-4.0-0.10","spark_pilot_norest","8357","4","18","Female","","false","","","","","","[308]","./assets/img/ocean/animals/octopus.jpg","[""ArrowRight""]","revaluation","ocean","11","{""ArrowUp,ArrowLeft"":2,""ArrowUp,ArrowRight"":11,""ArrowDown,ArrowLeft"":8,""ArrowDown,ArrowRight"":27}","true","ArrowUp,ArrowRight","","revaluation","1","20","","",""
"html-keyboard-response","243","980008","0.0-5.0-4.0-1.10","spark_pilot_norest","8357","4","18","Female","","","","","","","","null","<div style=""font-size:60px;"">+</div>","null","fixation","","","","","","","","","21","","",""
"revaluation","244","984013","0.0-5.0-4.0-0.11","spark_pilot_norest","8357","4","18","Female","","false","","","","","","[299.9999999998836]","./assets/img/ocean/animals/octopus.jpg","[""ArrowRight""]","revaluation","ocean","11","{""ArrowUp,ArrowLeft"":2,""ArrowUp,ArrowRight"":11,""ArrowDown,ArrowLeft"":8,""ArrowDown,ArrowRight"":27}","true","ArrowUp,ArrowRight","","revaluation","1","22","","",""
"html-keyboard-response","245","984514","0.0-5.0-4.0-1.11","spark_pilot_norest","8357","4","18","Female","","","","","","","","null","<div style=""font-size:60px;"">+</div>","null","fixation","","","","","","","","","23","","",""
"revaluation","246","988518","0.0-5.0-4.0-0.12","spark_pilot_norest","8357","4","18","Female","","false","","","","","","[157]","./assets/img/ocean/animals/octopus.jpg","[""ArrowRight""]","revaluation","ocean","11","{""ArrowUp,ArrowLeft"":2,""ArrowUp,ArrowRight"":11,""ArrowDown,ArrowLeft"":8,""ArrowDown,ArrowRight"":27}","true","ArrowUp,ArrowRight","","revaluation","1","24","","",""
"html-keyboard-response","247","989020","0.0-5.0-4.0-1.12","spark_pilot_norest","8357","4","18","Female","","","","","","","","null","<div style=""font-size:60px;"">+</div>","null","fixation","","","","","","","","","25","","",""
"revaluation","248","993025","0.0-5.0-4.0-0.13","spark_pilot_norest","8357","4","18","Female","","false","","","","","","[392]","./assets/img/ocean/animals/seahorse.jpg","[""ArrowRight""]","revaluation","ocean","27","{""ArrowUp,ArrowLeft"":2,""ArrowUp,ArrowRight"":11,""ArrowDown,ArrowLeft"":8,""ArrowDown,ArrowRight"":27}","true","ArrowDown,ArrowRight","","revaluation","1","26","","",""
"html-keyboard-response","249","993527","0.0-5.0-4.0-1.13","spark_pilot_norest","8357","4","18","Female","","","","","","","","null","<div style=""font-size:60px;"">+</div>","null","fixation","","","","","","","","","27","","",""
"revaluation","250","997530","0.0-5.0-4.0-0.14","spark_pilot_norest","8357","4","18","Female","","false","","","","","","[350]","./assets/img/ocean/animals/seahorse.jpg","[""ArrowRight""]","revaluation","ocean","27","{""ArrowUp,ArrowLeft"":2,""ArrowUp,ArrowRight"":11,""ArrowDown,ArrowLeft"":8,""ArrowDown,ArrowRight"":27}","true","ArrowDown,ArrowRight","","revaluation","1","28","","",""
"html-keyboard-response","251","998031","0.0-5.0-4.0-1.14","spark_pilot_norest","8357","4","18","Female","","","","","","","","null","<div style=""font-size:60px;"">+</div>","null","fixation","","","","","","","","","29","","",""
"revaluation","252","1002035","0.0-5.0-4.0-0.15","spark_pilot_norest","8357","4","18","Female","","false","","","","","","[300]","./assets/img/ocean/animals/seahorse.jpg","[""ArrowRight""]","revaluation","ocean","27","{""ArrowUp,ArrowLeft"":2,""ArrowUp,ArrowRight"":11,""ArrowDown,ArrowLeft"":8,""ArrowDown,ArrowRight"":27}","true","ArrowDown,ArrowRight","","revaluation","1","30","","",""
"html-keyboard-response","253","1002537","0.0-5.0-4.0-1.15","spark_pilot_norest","8357","4","18","Female","","","","","","","","null","<div style=""font-size:60px;"">+</div>","null","fixation","","","","","","","","","31","","",""
"revaluation","254","1006543","0.0-5.0-4.0-0.16","spark_pilot_norest","8357","4","18","Female","","false","","","","","","[351]","./assets/img/ocean/animals/octopus.jpg","[""ArrowRight""]","revaluation","ocean","11","{""ArrowUp,ArrowLeft"":2,""ArrowUp,ArrowRight"":11,""ArrowDown,ArrowLeft"":8,""ArrowDown,ArrowRight"":27}","true","ArrowUp,ArrowRight","","revaluation","1","32","","",""
"html-keyboard-response","255","1007045","0.0-5.0-4.0-1.16","spark_pilot_norest","8357","4","18","Female","","","","","","","","null","<div style=""font-size:60px;"">+</div>","null","fixation","","","","","","","","","33","","",""
"revaluation","256","1011048","0.0-5.0-4.0-0.17","spark_pilot_norest","8357","4","18","Female","","false","","","","","","[290]","./assets/img/ocean/animals/octopus.jpg","[""ArrowRight""]","revaluation","ocean","11","{""ArrowUp,ArrowLeft"":2,""ArrowUp,ArrowRight"":11,""ArrowDown,ArrowLeft"":8,""ArrowDown,ArrowRight"":27}","true","ArrowUp,ArrowRight","","revaluation","1","34","","",""
"html-keyboard-response","257","1011550","0.0-5.0-4.0-1.17","spark_pilot_norest","8357","4","18","Female","","","","","","","","null","<div style=""font-size:60px;"">+</div>","null","fixation","","","","","","","","","35","","",""
"learning-instructions","258","1019653","0.0-5.0-5.0-0.0","spark_pilot_norest","8357","4","18","Female","","","","","","","","null","<p> You have almost finished this part of the game! </p>
            <p> We are going to ask you to make a few more choices. </p>","","instructions","","","","","","","","","","","",""
"learning-instructions","259","1035625","0.0-5.0-5.0-0.1","spark_pilot_norest","8357","4","18","Female","","","","","","","","null","<p> First, you need to decide whether to go up or down. When you see each picture, use the arrow keys to make your choice. </p>
            <p><b>You will not see which animal you found, but try to get to the one that will give you the most treasure.</b></p>","","instructions","","","","","","","","","","","",""
"html-keyboard-response","260","1036626","0.0-5.0-6.0-0.0","spark_pilot_norest","8357","4","18","Female","","","","","","","","null","<div style=""font-size:100px;color:red;"">Starting in...</div>","null","","","","","","","","","","","","",""
"html-keyboard-response","261","1037628","0.0-5.0-6.0-1.0","spark_pilot_norest","8357","4","18","Female","","","","","","","","null","<div style=""font-size:200px;color:red;"">3</div>","null","","","","","","","","","","","","",""
"html-keyboard-response","262","1038629","0.0-5.0-6.0-2.0","spark_pilot_norest","8357","4","18","Female","","","","","","","","null","<div style=""font-size:200px;color:red;"">2</div>","null","","","","","","","","","","","","",""
"html-keyboard-response","263","1039631","0.0-5.0-6.0-3.0","spark_pilot_norest","8357","4","18","Female","","","","","","","","null","<div style=""font-size:200px;color:red;"">1</div>","null","","","","","","","","","","","","",""
"revaluation","264","1040426","0.0-5.0-7.0-0.0","spark_pilot_norest","8357","4","18","Female","","false","","","","","","[789]","./assets/img/ocean/test/1.jpg","[""ArrowUp""]","first stage test","ocean","0","{""ArrowUp,ArrowLeft"":2,""ArrowUp,ArrowRight"":11,""ArrowDown,ArrowLeft"":8,""ArrowDown,ArrowRight"":27}","false","ArrowUp","false","revaluation","1","","","",""
"html-keyboard-response","265","1040930","0.0-5.0-7.0-1.0","spark_pilot_norest","8357","4","18","Female","","","","","","","","null","<div style=""font-size:60px;"">+</div>","null","fixation","","","","","","","","","","","",""
"revaluation","266","1041451","0.0-5.0-7.0-0.1","spark_pilot_norest","8357","4","18","Female","","false","","","","","","[518]","./assets/img/ocean/test/0.jpg","[""ArrowUp""]","first stage test","ocean","0","{""ArrowUp,ArrowLeft"":2,""ArrowUp,ArrowRight"":11,""ArrowDown,ArrowLeft"":8,""ArrowDown,ArrowRight"":27}","false","ArrowUp","false","revaluation","1","","","",""
"html-keyboard-response","267","1041952","0.0-5.0-7.0-1.1","spark_pilot_norest","8357","4","18","Female","","","","","","","","null","<div style=""font-size:60px;"">+</div>","null","fixation","","","","","","","","","","","",""
"revaluation","268","1042410","0.0-5.0-7.0-0.2","spark_pilot_norest","8357","4","18","Female","","false","","","","","","[455.00000000023283]","./assets/img/ocean/test/3.jpg","[""ArrowUp""]","first stage test","ocean","0","{""ArrowUp,ArrowLeft"":2,""ArrowUp,ArrowRight"":11,""ArrowDown,ArrowLeft"":8,""ArrowDown,ArrowRight"":27}","false","ArrowUp","false","revaluation","1","","","",""
"html-keyboard-response","269","1042911","0.0-5.0-7.0-1.2","spark_pilot_norest","8357","4","18","Female","","","","","","","","null","<div style=""font-size:60px;"">+</div>","null","fixation","","","","","","","","","","","",""
"revaluation","270","1043323","0.0-5.0-7.0-0.3","spark_pilot_norest","8357","4","18","Female","","false","","","","","","[409.0000000001164]","./assets/img/ocean/test/2.jpg","[""ArrowUp""]","first stage test","ocean","0","{""ArrowUp,ArrowLeft"":2,""ArrowUp,ArrowRight"":11,""ArrowDown,ArrowLeft"":8,""ArrowDown,ArrowRight"":27}","false","ArrowUp","false","revaluation","1","","","",""
"html-keyboard-response","271","1043825","0.0-5.0-7.0-1.3","spark_pilot_norest","8357","4","18","Female","","","","","","","","null","<div style=""font-size:60px;"">+</div>","null","fixation","","","","","","","","","","","",""
"learning-instructions","272","1057168","0.0-5.0-8.0-0.0","spark_pilot_norest","8357","4","18","Female","","","","","","","","null","<p> Now you will see the animals again and can search their chests for treasure. </p>
            <p> This time, you will not see how much treasure you earned, but you will earn more bonus money for making better choices. </p>","","instructions","","","","","","","","","","","",""
"html-keyboard-response","273","1058170","0.0-5.0-9.0-0.0","spark_pilot_norest","8357","4","18","Female","","","","","","","","null","<div style=""font-size:100px;color:red;"">Starting in...</div>","null","","","","","","","","","","","","",""
"html-keyboard-response","274","1059172","0.0-5.0-9.0-1.0","spark_pilot_norest","8357","4","18","Female","","","","","","","","null","<div style=""font-size:200px;color:red;"">3</div>","null","","","","","","","","","","","","",""
"html-keyboard-response","275","1060173","0.0-5.0-9.0-2.0","spark_pilot_norest","8357","4","18","Female","","","","","","","","null","<div style=""font-size:200px;color:red;"">2</div>","null","","","","","","","","","","","","",""
"html-keyboard-response","276","1061175","0.0-5.0-9.0-3.0","spark_pilot_norest","8357","4","18","Female","","","","","","","","null","<div style=""font-size:200px;color:red;"">1</div>","null","","","","","","","","","","","","",""
"revaluation","277","1061822","0.0-5.0-10.0-0.0","spark_pilot_norest","8357","4","18","Female","","false","","","","","","[645.0000000002328]","./assets/img/ocean/animals/octopus.jpg","[""ArrowRight""]","second stage test","ocean","0","{""ArrowUp,ArrowLeft"":2,""ArrowUp,ArrowRight"":11,""ArrowDown,ArrowLeft"":8,""ArrowDown,ArrowRight"":27}","true","ArrowUp,ArrowRight","","revaluation","1","","","",""
"html-keyboard-response","278","1062324","0.0-5.0-10.0-1.0","spark_pilot_norest","8357","4","18","Female","","","","","","","","null","<div style=""font-size:60px;"">+</div>","null","fixation","","","","","","","","","","","",""
"revaluation","279","1062764","0.0-5.0-10.0-0.1","spark_pilot_norest","8357","4","18","Female","","false","","","","","","[437.00000000023283]","./assets/img/ocean/animals/octopus.jpg","[""ArrowRight""]","second stage test","ocean","0","{""ArrowUp,ArrowLeft"":2,""ArrowUp,ArrowRight"":11,""ArrowDown,ArrowLeft"":8,""ArrowDown,ArrowRight"":27}","true","ArrowUp,ArrowRight","","revaluation","1","","","",""
"html-keyboard-response","280","1063266","0.0-5.0-10.0-1.1","spark_pilot_norest","8357","4","18","Female","","","","","","","","null","<div style=""font-size:60px;"">+</div>","null","fixation","","","","","","","","","","","",""
"revaluation","281","1063534","0.0-5.0-10.0-0.2","spark_pilot_norest","8357","4","18","Female","","false","","","","","","[265]","./assets/img/ocean/animals/octopus.jpg","[""ArrowRight""]","second stage test","ocean","0","{""ArrowUp,ArrowLeft"":2,""ArrowUp,ArrowRight"":11,""ArrowDown,ArrowLeft"":8,""ArrowDown,ArrowRight"":27}","true","ArrowUp,ArrowRight","","revaluation","1","","","",""
"html-keyboard-response","282","1064035","0.0-5.0-10.0-1.2","spark_pilot_norest","8357","4","18","Female","","","","","","","","null","<div style=""font-size:60px;"">+</div>","null","fixation","","","","","","","","","","","",""
"revaluation","283","1064090","0.0-5.0-10.0-0.3","spark_pilot_norest","8357","4","18","Female","","false","","","","","","[51]","./assets/img/ocean/animals/octopus.jpg","[""ArrowRight""]","second stage test","ocean","0","{""ArrowUp,ArrowLeft"":2,""ArrowUp,ArrowRight"":11,""ArrowDown,ArrowLeft"":8,""ArrowDown,ArrowRight"":27}","true","ArrowUp,ArrowRight","","revaluation","1","","","",""
"html-keyboard-response","284","1064592","0.0-5.0-10.0-1.3","spark_pilot_norest","8357","4","18","Female","","","","","","","","null","<div style=""font-size:60px;"">+</div>","null","fixation","","","","","","","","","","","",""
"revaluation","285","1064628","0.0-5.0-10.0-0.4","spark_pilot_norest","8357","4","18","Female","","false","","","","","","[33]","./assets/img/ocean/animals/seahorse.jpg","[""ArrowLeft""]","second stage test","ocean","0","{""ArrowUp,ArrowLeft"":2,""ArrowUp,ArrowRight"":11,""ArrowDown,ArrowLeft"":8,""ArrowDown,ArrowRight"":27}","false","ArrowDown,ArrowLeft","","revaluation","1","","","",""
"html-keyboard-response","286","1065130","0.0-5.0-10.0-1.4","spark_pilot_norest","8357","4","18","Female","","","","","","","","null","<div style=""font-size:60px;"">+</div>","null","fixation","","","","","","","","","","","",""
"revaluation","287","1065290","0.0-5.0-10.0-0.5","spark_pilot_norest","8357","4","18","Female","","false","","","","","","[158]","./assets/img/ocean/animals/seahorse.jpg","[""ArrowLeft""]","second stage test","ocean","0","{""ArrowUp,ArrowLeft"":2,""ArrowUp,ArrowRight"":11,""ArrowDown,ArrowLeft"":8,""ArrowDown,ArrowRight"":27}","false","ArrowDown,ArrowLeft","","revaluation","1","","","",""
"html-keyboard-response","288","1065792","0.0-5.0-10.0-1.5","spark_pilot_norest","8357","4","18","Female","","","","","","","","null","<div style=""font-size:60px;"">+</div>","null","fixation","","","","","","","","","","","",""
"revaluation","289","1066033","0.0-5.0-10.0-0.6","spark_pilot_norest","8357","4","18","Female","","false","","","","","","[238]","./assets/img/ocean/animals/seahorse.jpg","[""ArrowRight""]","second stage test","ocean","0","{""ArrowUp,ArrowLeft"":2,""ArrowUp,ArrowRight"":11,""ArrowDown,ArrowLeft"":8,""ArrowDown,ArrowRight"":27}","true","ArrowDown,ArrowRight","","revaluation","1","","","",""
"html-keyboard-response","290","1066534","0.0-5.0-10.0-1.6","spark_pilot_norest","8357","4","18","Female","","","","","","","","null","<div style=""font-size:60px;"">+</div>","null","fixation","","","","","","","","","","","",""
"revaluation","291","1066556","0.0-5.0-10.0-0.7","spark_pilot_norest","8357","4","18","Female","","false","","","","","","[20]","./assets/img/ocean/animals/seahorse.jpg","[""ArrowRight""]","second stage test","ocean","0","{""ArrowUp,ArrowLeft"":2,""ArrowUp,ArrowRight"":11,""ArrowDown,ArrowLeft"":8,""ArrowDown,ArrowRight"":27}","true","ArrowDown,ArrowRight","","revaluation","1","","","",""
"html-keyboard-response","292","1067058","0.0-5.0-10.0-1.7","spark_pilot_norest","8357","4","18","Female","","","","","","","","null","<div style=""font-size:60px;"">+</div>","null","fixation","","","","","","","","","","","",""
"learning-instructions","293","1076123","0.0-5.0-0.1-0.2","spark_pilot_norest","8357","4","18","Female","","","","","","","","6309","<p> This time you are searching for treasure in the <b>canyon</b>.</p>","","instructions","","","","","","","","","","","",""
"learning-instructions","294","1094366","0.0-5.0-0.1-0.3","spark_pilot_norest","8357","4","18","Female","","","","","","","","989","<p><b>New</b> animals with <b>new</b> treasure chests live here. You need to explore to discover where the animal with the best treasure chest is.</p>
                    <p> Like before, once you figure out which animal has the chest with the most treasure, you should try to get to that animal and select that chest! </p>","","instructions","","","","","","","","","","","",""
"learning-instructions","295","1110665","0.0-5.0-1.1-0.1","spark_pilot_norest","8357","4","18","Female","","","","","","","","1565","<p> Remember, when you see a picture of the place, use the up and down keys to <b>find an animal</b>.</p>
            <p> When you encounter an animal, you should use the left and right keys to <b>select a treasure chest</b>.</p>
            <p> Don't forget to look out for the robber! </p>","","instructions","","","","","","","","","","","",""
"revaluation","296","1116671","0.0-5.0-2.1-0.50","spark_pilot_norest","8357","4","18","Female","","false","","","","","","[635,404.99999999976717]","./assets/img/canyon/memory/22.jpg","[""ArrowUp"",""ArrowLeft""]","value training","canyon","23","{""ArrowUp,ArrowLeft"":23,""ArrowUp,ArrowRight"":10,""ArrowDown,ArrowLeft"":8,""ArrowDown,ArrowRight"":30}","false","ArrowUp,ArrowLeft","false","original","2","0","","",""
"html-keyboard-response","297","1117173","0.0-5.0-2.1-1.50","spark_pilot_norest","8357","4","18","Female","","","","","","","","null","<div style=""font-size:60px;"">+</div>","null","fixation","","","","","","","","","1","","",""
"revaluation","298","1123179","0.0-5.0-2.1-0.51","spark_pilot_norest","8357","4","18","Female","","false","","","","","","[538,300]","./assets/img/canyon/memory/38.jpg","[""ArrowUp"",""ArrowRight""]","value training","canyon","10","{""ArrowUp,ArrowLeft"":23,""ArrowUp,ArrowRight"":10,""ArrowDown,ArrowLeft"":8,""ArrowDown,ArrowRight"":30}","false","ArrowUp,ArrowRight","false","original","2","2","","",""
"html-keyboard-response","299","1123680","0.0-5.0-2.1-1.51","spark_pilot_norest","8357","4","18","Female","","","","","","","","null","<div style=""font-size:60px;"">+</div>","null","fixation","","","","","","","","","3","","",""
"revaluation","300","1129685","0.0-5.0-2.1-0.52","spark_pilot_norest","8357","4","18","Female","","false","","","","","","[648,343]","./assets/img/canyon/memory/35.jpg","[""ArrowDown"",""ArrowLeft""]","value training","canyon","8","{""ArrowUp,ArrowLeft"":23,""ArrowUp,ArrowRight"":10,""ArrowDown,ArrowLeft"":8,""ArrowDown,ArrowRight"":30}","false","ArrowDown,ArrowLeft","false","original","2","4","","",""
"html-keyboard-response","301","1130187","0.0-5.0-2.1-1.52","spark_pilot_norest","8357","4","18","Female","","","","","","","","null","<div style=""font-size:60px;"">+</div>","null","fixation","","","","","","","","","5","","",""
"revaluation","302","1136192","0.0-5.0-2.1-0.53","spark_pilot_norest","8357","4","18","Female","","false","","","","","","[546.9999999997672,406]","./assets/img/canyon/memory/41.jpg","[""ArrowDown"",""ArrowRight""]","value training","canyon","30","{""ArrowUp,ArrowLeft"":23,""ArrowUp,ArrowRight"":10,""ArrowDown,ArrowLeft"":8,""ArrowDown,ArrowRight"":30}","true","ArrowDown,ArrowRight","false","original","2","6","","",""
"html-keyboard-response","303","1136695","0.0-5.0-2.1-1.53","spark_pilot_norest","8357","4","18","Female","","","","","","","","null","<div style=""font-size:60px;"">+</div>","null","fixation","","","","","","","","","7","","",""
"revaluation","304","1142701","0.0-5.0-2.1-0.54","spark_pilot_norest","8357","4","18","Female","","false","","","","","","[633,379.99999999976717]","./assets/img/canyon/memory/37.jpg","[""ArrowDown"",""ArrowRight""]","value training","canyon","30","{""ArrowUp,ArrowLeft"":23,""ArrowUp,ArrowRight"":10,""ArrowDown,ArrowLeft"":8,""ArrowDown,ArrowRight"":30}","true","ArrowDown,ArrowRight","false","original","2","8","","",""
"html-keyboard-response","305","1143203","0.0-5.0-2.1-1.54","spark_pilot_norest","8357","4","18","Female","","","","","","","","null","<div style=""font-size:60px;"">+</div>","null","fixation","","","","","","","","","9","","",""
"revaluation","306","1149209","0.0-5.0-2.1-0.55","spark_pilot_norest","8357","4","18","Female","","false","","","","","","[978,359]","./assets/img/canyon/memory/6.jpg","[""ArrowDown"",""ArrowRight""]","value training","canyon","30","{""ArrowUp,ArrowLeft"":23,""ArrowUp,ArrowRight"":10,""ArrowDown,ArrowLeft"":8,""ArrowDown,ArrowRight"":30}","true","ArrowDown,ArrowRight","false","original","2","10","","",""
"html-keyboard-response","307","1149710","0.0-5.0-2.1-1.55","spark_pilot_norest","8357","4","18","Female","","","","","","","","null","<div style=""font-size:60px;"">+</div>","null","fixation","","","","","","","","","11","","",""
"revaluation","308","1155716","0.0-5.0-2.1-0.56","spark_pilot_norest","8357","4","18","Female","","false","","","","","","[670.0000000002328,530]","./assets/img/canyon/memory/3.jpg","[""ArrowDown"",""ArrowRight""]","value training","canyon","30","{""ArrowUp,ArrowLeft"":23,""ArrowUp,ArrowRight"":10,""ArrowDown,ArrowLeft"":8,""ArrowDown,ArrowRight"":30}","true","ArrowDown,ArrowRight","false","original","2","12","","",""
"html-keyboard-response","309","1156218","0.0-5.0-2.1-1.56","spark_pilot_norest","8357","4","18","Female","","","","","","","","null","<div style=""font-size:60px;"">+</div>","null","fixation","","","","","","","","","13","","",""
"revaluation","310","1160222","0.0-5.0-2.1-0.57","spark_pilot_norest","8357","4","18","Female","","false","","","","","","[673]","./assets/img/canyon/catch/7.jpg","[""spaceBar""]","value training","canyon","0","{""ArrowUp,ArrowLeft"":23,""ArrowUp,ArrowRight"":10,""ArrowDown,ArrowLeft"":8,""ArrowDown,ArrowRight"":30}","true","spaceBar","true","original","2","14","","",""
"html-keyboard-response","311","1160723","0.0-5.0-2.1-1.57","spark_pilot_norest","8357","4","18","Female","","","","","","","","null","<div style=""font-size:60px;"">+</div>","null","fixation","","","","","","","","","15","","",""
"revaluation","312","1166729","0.0-5.0-2.1-0.58","spark_pilot_norest","8357","4","18","Female","","false","","","","","","[679,262]","./assets/img/canyon/memory/40.jpg","[""ArrowDown"",""ArrowRight""]","value training","canyon","30","{""ArrowUp,ArrowLeft"":23,""ArrowUp,ArrowRight"":10,""ArrowDown,ArrowLeft"":8,""ArrowDown,ArrowRight"":30}","true","ArrowDown,ArrowRight","false","original","2","16","","",""
"html-keyboard-response","313","1167230","0.0-5.0-2.1-1.58","spark_pilot_norest","8357","4","18","Female","","","","","","","","null","<div style=""font-size:60px;"">+</div>","null","fixation","","","","","","","","","17","","",""
"revaluation","314","1173235","0.0-5.0-2.1-0.59","spark_pilot_norest","8357","4","18","Female","","false","","","","","","[589,303]","./assets/img/canyon/memory/8.jpg","[""ArrowDown"",""ArrowRight""]","value training","canyon","30","{""ArrowUp,ArrowLeft"":23,""ArrowUp,ArrowRight"":10,""ArrowDown,ArrowLeft"":8,""ArrowDown,ArrowRight"":30}","true","ArrowDown,ArrowRight","false","original","2","18","","",""
"html-keyboard-response","315","1173737","0.0-5.0-2.1-1.59","spark_pilot_norest","8357","4","18","Female","","","","","","","","null","<div style=""font-size:60px;"">+</div>","null","fixation","","","","","","","","","19","","",""
