"trial_type","trial_index","time_elapsed","internal_node_id","task_version","subject_id","assigned_condition","age","gender","success","timeout","failed_images","failed_audio","failed_video","browser_interaction","rt","stimulus","response","task_part","environment","score","rewardMap","correct","fullState","isCatch","condition","order","trial_num","key_press","ground_truth","bonus"
"pavlovia","0","1722","0.0-0.0","spark_pilot_norest","8607","3","13","Male","","","","","","","","","","","","","","","","","","","","","",""
"preload","1","125483","0.0-1.0","spark_pilot_norest","8607","3","13","Male","true","false","[]","[]","[]","[{""event"":""fullscreenenter"",""trial"":2,""time"":247283}]","","","","","","","","","","","","","","","",""
"fullscreen","2","248274","0.0-2.0","spark_pilot_norest","8607","3","13","Male","true","","","","","","","","","","","","","","","","","","","","",""
"audio-button-response","3","260618","0.0-3.0-0.0-0.0","spark_pilot_norest","8607","3","13","Male","","","","","","","11861","./assets/audio/audiotest/turtle.mp3","4","audio_test","","","","","","","","","","","",""
"audio-button-response","4","269574","0.0-3.0-0.1-0.1","spark_pilot_norest","8607","3","13","Male","","","","","","","7952","./assets/audio/audiotest/turtle.mp3","4","audio_test","","","","","","","","","","","",""
"audio-button-response","5","309726","0.0-3.0-0.2-0.2","spark_pilot_norest","8607","3","13","Male","","","","","","","39152","./assets/audio/audiotest/turtle.mp3","4","audio_test","","","","","","","","","","","",""
"audio-button-response","6","314487","0.0-3.0-0.3-0.3","spark_pilot_norest","8607","3","13","Male","","","","","","","3680","./assets/audio/audiotest/turtle.mp3","4","audio_test","","","","","","","","","","","",""
"audio-button-response","7","323120","0.0-3.0-0.4-0.4","spark_pilot_norest","8607","3","13","Male","","","","","","","7501","./assets/audio/audiotest/turtle.mp3","4","audio_test","","","","","","","","","","","",""
"audio-button-response","8","326654","0.0-3.0-0.5-0.5","spark_pilot_norest","8607","3","13","Male","","","","","","","2499","./assets/audio/audiotest/turtle.mp3","2","audio_test","","","","","","","","","","","",""
"learning-instructions","9","335230","0.0-3.0-1.0-0.0","spark_pilot_norest","8607","3","13","Male","","","","","","","1549.3999998569489","<p> Welcome! Please remember to stay in fullscreen mode and don't click away from the experiment. </p>","","instructions","","","","","","","","","","","",""
"learning-instructions","10","344150","0.0-3.0-1.0-0.1","spark_pilot_norest","8607","3","13","Male","","","","","","","519.2000000476837","<p> Today you will be playing a game to earn treasure. </p>
            <p> At the end of the experiment, you will earn a bonus based on how much treasure you find. </p>
            <img src='./assets/img/instructions/treasure.jpg' class='instructions-image'>","","instructions","","","","","","","","","","","",""
"learning-instructions","11","352767","0.0-3.0-1.0-0.2","spark_pilot_norest","8607","3","13","Male","","","","","","","330.40000009536743","<p> Animals have hidden treasure in treasure chests. </p>
            <p> You need to first find an animal and then choose which of their treasure chests to search. </p>
            <img src='./assets/img/space/animals/cat.jpg' class='instructions-image'>","","instructions","","","","","","","","","","","",""
"learning-instructions","12","366151","0.0-3.0-1.0-0.3","spark_pilot_norest","8607","3","13","Male","","","","","","","199.69999980926514","<p> In each round, you will search for treasure in a different place. In the real game, there will be two rounds. </p>
            <p> You will begin with a separate, practice round where you will search for treasure in outer space. </p>
            <img src='./assets/img/space/0.jpg' class='instructions-image'>","","instructions","","","","","","","","","","","",""
"learning-instructions","13","377815","0.0-3.0-1.0-0.4","spark_pilot_norest","8607","3","13","Male","","","","","","","226.5","<p> On every turn, you will see a picture of the place that you are in, but the specific image may be different each time. </p>
            <p> For example, both of these images mean you are in outer space. </p>
            <img src='./assets/img/instructions/outerspace.jpg' class='instructions-image'>","","instructions","","","","","","","","","","","",""
"learning-instructions","14","386175","0.0-3.0-1.0-0.5","spark_pilot_norest","8607","3","13","Male","","","","","","","522.4000000953674","<p> You need to decide which direction to travel in. </p>
            <p> You can choose between going <b>up or down</b> by using the arrow keys. </p>
            <img src='./assets/img/instructions/updown.jpg' class='instructions-image'>","","instructions","","","","","","","","","","","",""
"learning-instructions","15","395880","0.0-3.0-1.0-0.6","spark_pilot_norest","8607","3","13","Male","","","","","","","882.7000000476837","<p> You will have <b>2 seconds</b> to make your choice. </p>
            <p> If you do not make a choice within 2 seconds, you will not find an animal or earn treasure. </p>
            <img src='./assets/img/instructions/2seconds.jpg' class='instructions-image'>","","instructions","","","","","","","","","","","",""
"learning-instructions","16","403383","0.0-3.0-1.0-0.7","spark_pilot_norest","8607","3","13","Male","","","","","","","460.7999999523163","<p> Let’s try practicing that now! </p>
            <p> When you see a picture of the place you are in, press the <b>up</b> key to travel up. </p>
            <img src='./assets/img/instructions/pressUp.jpg' class='instructions-image'>","","instructions","","","","","","","","","","","",""
"revaluation","17","407423","0.0-3.0-2.0-0.0","spark_pilot_norest","8607","3","13","Male","","false","","","","","[1149.3000001907349]","./assets/img/space/0.jpg","[""ArrowUp""]","first stage practice","space","0","null","null","ArrowUp","false","","","","","",""
"html-keyboard-response","18","407945","0.0-3.0-2.0-1.0","spark_pilot_norest","8607","3","13","Male","","","","","","","null","<div style=""font-size:60px;"">+</div>","null","fixation","","","","","","","","","","","",""
"revaluation","19","411978","0.0-3.0-2.0-0.1","spark_pilot_norest","8607","3","13","Male","","false","","","","","[142.09999990463257]","./assets/img/space/1.jpg","[""ArrowUp""]","first stage practice","space","0","null","null","ArrowUp","false","","","","","",""
"html-keyboard-response","20","412499","0.0-3.0-2.0-1.1","spark_pilot_norest","8607","3","13","Male","","","","","","","null","<div style=""font-size:60px;"">+</div>","null","fixation","","","","","","","","","","","",""
"revaluation","21","416510","0.0-3.0-2.0-0.2","spark_pilot_norest","8607","3","13","Male","","false","","","","","[735.1999998092651]","./assets/img/space/2.jpg","[""ArrowUp""]","first stage practice","space","0","null","null","ArrowUp","false","","","","","",""
"html-keyboard-response","22","417011","0.0-3.0-2.0-1.2","spark_pilot_norest","8607","3","13","Male","","","","","","","null","<div style=""font-size:60px;"">+</div>","null","fixation","","","","","","","","","","","",""
"learning-instructions","23","422395","0.0-3.0-3.0-0.0","spark_pilot_norest","8607","3","13","Male","","","","","","","677.8999998569489","<p> Great job! Now try pressing the <b>down</b> key to travel down. </p>
            <img src='./assets/img/instructions/pressDown.jpg' class='instructions-image'>","","instructions","","","","","","","","","","","",""
"revaluation","24","426420","0.0-3.0-4.0-0.0","spark_pilot_norest","8607","3","13","Male","","false","","","","","[723.9000000953674]","./assets/img/space/3.jpg","[""ArrowDown""]","first stage practice","space","0","null","null","ArrowDown","false","","","","","",""
"html-keyboard-response","25","426942","0.0-3.0-4.0-1.0","spark_pilot_norest","8607","3","13","Male","","","","","","","null","<div style=""font-size:60px;"">+</div>","null","fixation","","","","","","","","","","","",""
"revaluation","26","430953","0.0-3.0-4.0-0.1","spark_pilot_norest","8607","3","13","Male","","false","","","","","[210.59999990463257]","./assets/img/space/4.jpg","[""ArrowDown""]","first stage practice","space","0","null","null","ArrowDown","false","","","","","",""
"html-keyboard-response","27","431472","0.0-3.0-4.0-1.1","spark_pilot_norest","8607","3","13","Male","","","","","","","null","<div style=""font-size:60px;"">+</div>","null","fixation","","","","","","","","","","","",""
"revaluation","28","435497","0.0-3.0-4.0-0.2","spark_pilot_norest","8607","3","13","Male","","false","","","","","[349.5]","./assets/img/space/5.jpg","[""ArrowDown""]","first stage practice","space","0","null","null","ArrowDown","false","","","","","",""
"html-keyboard-response","29","435998","0.0-3.0-4.0-1.2","spark_pilot_norest","8607","3","13","Male","","","","","","","null","<div style=""font-size:60px;"">+</div>","null","fixation","","","","","","","","","","","",""
"learning-instructions","30","448503","0.0-3.0-5.0-0.0","spark_pilot_norest","8607","3","13","Male","","","","","","","2626.5999999046326","<p> The animals don’t move, so the animal in the upper part of a place will stay in the upper part of a place, and the animal in the lower part of a place will stay in the lower part of a place. </p>","","instructions","","","","","","","","","","","",""
"learning-instructions","31","457991","0.0-3.0-5.0-0.1","spark_pilot_norest","8607","3","13","Male","","","","","","","328.09999990463257","<p> Each animal has two treasure chests for you to choose from. </p>
            <p> The amount of treasure in each chest can range from <b> 0 to 40 pieces.</b></p>","","instructions","","","","","","","","","","","",""
"learning-instructions","32","469615","0.0-3.0-5.0-0.2","spark_pilot_norest","8607","3","13","Male","","","","","","","410.59999990463257","<p> You should decide which chest to search for treasure by using the <b>left</b> and <b>right</b> arrow keys. </p>
            <p><b> Pay attention to which animal is on the screen, as the animals have different treasure chests. </b></p>
            <img src='./assets/img/instructions/leftright.jpg' class='instructions-image'>","","instructions","","","","","","","","","","","",""
"learning-instructions","33","478087","0.0-3.0-5.0-0.3","spark_pilot_norest","8607","3","13","Male","","","","","","","2098.5999999046326","<p> Let’s try practicing that now. </p>
            <p> When you see an animal, choose which chest to search for treasure. </p>
            <img src='./assets/img/instructions/chooseChest.jpg' class='instructions-image'>","","instructions","","","","","","","","","","","",""
"revaluation","34","482105","0.0-3.0-6.0-0.0","spark_pilot_norest","8607","3","13","Male","","false","","","","","[517.9000000953674]","./assets/img/space/animals/rabbit.jpg","[""ArrowRight""]","second stage practice","space","23","{""ArrowUp,ArrowLeft"":3,""ArrowUp,ArrowRight"":36,""ArrowDown,ArrowLeft"":15,""ArrowDown,ArrowRight"":23}","true","ArrowDown,ArrowRight","","","","","","",""
"html-keyboard-response","35","482622","0.0-3.0-6.0-1.0","spark_pilot_norest","8607","3","13","Male","","","","","","","null","<div style=""font-size:60px;"">+</div>","null","fixation","","","","","","","","","","","",""
"revaluation","36","486633","0.0-3.0-6.0-0.1","spark_pilot_norest","8607","3","13","Male","","false","","","","","[253.90000009536743]","./assets/img/space/animals/rabbit.jpg","[""ArrowLeft""]","second stage practice","space","15","{""ArrowUp,ArrowLeft"":3,""ArrowUp,ArrowRight"":36,""ArrowDown,ArrowLeft"":15,""ArrowDown,ArrowRight"":23}","false","ArrowDown,ArrowLeft","","","","","","",""
"html-keyboard-response","37","487155","0.0-3.0-6.0-1.1","spark_pilot_norest","8607","3","13","Male","","","","","","","null","<div style=""font-size:60px;"">+</div>","null","fixation","","","","","","","","","","","",""
"revaluation","38","491166","0.0-3.0-6.0-0.2","spark_pilot_norest","8607","3","13","Male","","false","","","","","[307.2000000476837]","./assets/img/space/animals/cat.jpg","[""ArrowRight""]","second stage practice","space","36","{""ArrowUp,ArrowLeft"":3,""ArrowUp,ArrowRight"":36,""ArrowDown,ArrowLeft"":15,""ArrowDown,ArrowRight"":23}","true","ArrowUp,ArrowRight","","","","","","",""
"html-keyboard-response","39","491688","0.0-3.0-6.0-1.2","spark_pilot_norest","8607","3","13","Male","","","","","","","null","<div style=""font-size:60px;"">+</div>","null","fixation","","","","","","","","","","","",""
"revaluation","40","495700","0.0-3.0-6.0-0.3","spark_pilot_norest","8607","3","13","Male","","false","","","","","[354.2000000476837]","./assets/img/space/animals/cat.jpg","[""ArrowRight""]","second stage practice","space","36","{""ArrowUp,ArrowLeft"":3,""ArrowUp,ArrowRight"":36,""ArrowDown,ArrowLeft"":15,""ArrowDown,ArrowRight"":23}","true","ArrowUp,ArrowRight","","","","","","",""
"html-keyboard-response","41","496222","0.0-3.0-6.0-1.3","spark_pilot_norest","8607","3","13","Male","","","","","","","null","<div style=""font-size:60px;"">+</div>","null","fixation","","","","","","","","","","","",""
"learning-instructions","42","513799","0.0-3.0-7.0-0.0","spark_pilot_norest","8607","3","13","Male","","","","","","","722.5","<p> Great job. Now let’s try putting it together. </p>
            <p> On each turn, you will first see a picture to remind you of the place you are in, and you need to choose whether to go up or down. </p>
            <p> Then you will see an animal and choose which of its chests to search for treasure. </p>","","instructions","","","","","","","","","","","",""
"learning-instructions","43","522479","0.0-3.0-7.0-0.1","spark_pilot_norest","8607","3","13","Male","","","","","","","411.09999990463257","<p> When you choose whether to go up or down, try to go to the animal with the chest with the most treasure. </p>
            <p> Try practicing that now! </p>","","instructions","","","","","","","","","","","",""
"revaluation","44","528499","0.0-3.0-8.0-0.0","spark_pilot_norest","8607","3","13","Male","","false","","","","","[1461.2999999523163,662.2999999523163]","./assets/img/space/6.jpg","[""ArrowDown"",""ArrowRight""]","full practice","space","23","{""ArrowUp,ArrowLeft"":3,""ArrowUp,ArrowRight"":36,""ArrowDown,ArrowLeft"":15,""ArrowDown,ArrowRight"":23}","false","ArrowDown,ArrowRight","false","","","","","",""
"html-keyboard-response","45","529001","0.0-3.0-8.0-1.0","spark_pilot_norest","8607","3","13","Male","","","","","","","null","<div style=""font-size:60px;"">+</div>","null","fixation","","","","","","","","","","","",""
"revaluation","46","535017","0.0-3.0-8.0-0.1","spark_pilot_norest","8607","3","13","Male","","false","","","","","[130.29999995231628,544.2999999523163]","./assets/img/space/7.jpg","[""ArrowDown"",""ArrowLeft""]","full practice","space","15","{""ArrowUp,ArrowLeft"":3,""ArrowUp,ArrowRight"":36,""ArrowDown,ArrowLeft"":15,""ArrowDown,ArrowRight"":23}","false","ArrowDown,ArrowLeft","false","","","","","",""
"html-keyboard-response","47","535540","0.0-3.0-8.0-1.1","spark_pilot_norest","8607","3","13","Male","","","","","","","null","<div style=""font-size:60px;"">+</div>","null","fixation","","","","","","","","","","","",""
"revaluation","48","541556","0.0-3.0-8.0-0.2","spark_pilot_norest","8607","3","13","Male","","false","","","","","[382.5,138.29999995231628]","./assets/img/space/8.jpg","[""ArrowUp"",""ArrowLeft""]","full practice","space","3","{""ArrowUp,ArrowLeft"":3,""ArrowUp,ArrowRight"":36,""ArrowDown,ArrowLeft"":15,""ArrowDown,ArrowRight"":23}","false","ArrowUp,ArrowLeft","false","","","","","",""
"html-keyboard-response","49","542067","0.0-3.0-8.0-1.2","spark_pilot_norest","8607","3","13","Male","","","","","","","null","<div style=""font-size:60px;"">+</div>","null","fixation","","","","","","","","","","","",""
"revaluation","50","548116","0.0-3.0-8.0-0.3","spark_pilot_norest","8607","3","13","Male","","false","","","","","[335.39999985694885,217.79999995231628]","./assets/img/space/9.jpg","[""ArrowUp"",""ArrowRight""]","full practice","space","36","{""ArrowUp,ArrowLeft"":3,""ArrowUp,ArrowRight"":36,""ArrowDown,ArrowLeft"":15,""ArrowDown,ArrowRight"":23}","true","ArrowUp,ArrowRight","false","","","","","",""
"html-keyboard-response","51","548638","0.0-3.0-8.0-1.3","spark_pilot_norest","8607","3","13","Male","","","","","","","null","<div style=""font-size:60px;"">+</div>","null","fixation","","","","","","","","","","","",""
"revaluation","52","554656","0.0-3.0-8.0-0.4","spark_pilot_norest","8607","3","13","Male","","false","","","","","[415,239.09999990463257]","./assets/img/space/10.jpg","[""ArrowUp"",""ArrowRight""]","full practice","space","36","{""ArrowUp,ArrowLeft"":3,""ArrowUp,ArrowRight"":36,""ArrowDown,ArrowLeft"":15,""ArrowDown,ArrowRight"":23}","true","ArrowUp,ArrowRight","false","","","","","",""
"html-keyboard-response","53","555158","0.0-3.0-8.0-1.4","spark_pilot_norest","8607","3","13","Male","","","","","","","null","<div style=""font-size:60px;"">+</div>","null","fixation","","","","","","","","","","","",""
"learning-instructions","54","567999","0.0-3.0-9.0-0.0","spark_pilot_norest","8607","3","13","Male","","","","","","","2539.2999999523163","<p> One last thing: sometimes, you will see a robber. The robber can be anywhere in the picture. </p>
            <p> If you do not stop them, you will lose treasure. </p>
            <img src='./assets/img/instructions/robber.jpg' class='instructions-image'>","","instructions","","","","","","","","","","","",""
"learning-instructions","55","575871","0.0-3.0-9.0-0.1","spark_pilot_norest","8607","3","13","Male","","","","","","","673.0999999046326","<p> If you see the robber, you should <b>press the space bar</b> rather than using the arrow keys. </p>
            <p> Try practicing that now! </p>","","instructions","","","","","","","","","","","",""
"revaluation","56","579880","0.0-3.0-10.0-0.0","spark_pilot_norest","8607","3","13","Male","","false","","","","","[1377.7000000476837]","./assets/img/space/catch/0.jpg","[""ArrowDown""]","catch practice","space","-10","{""ArrowUp,ArrowLeft"":3,""ArrowUp,ArrowRight"":36,""ArrowDown,ArrowLeft"":15,""ArrowDown,ArrowRight"":23}","false","ArrowDown","true","","","","","",""
"html-keyboard-response","57","580402","0.0-3.0-10.0-1.0","spark_pilot_norest","8607","3","13","Male","","","","","","","null","<div style=""font-size:60px;"">+</div>","null","fixation","","","","","","","","","","","",""
"revaluation","58","584413","0.0-3.0-10.0-0.1","spark_pilot_norest","8607","3","13","Male","","false","","","","","[608.2000000476837]","./assets/img/space/catch/1.jpg","[""spaceBar""]","catch practice","space","0","{""ArrowUp,ArrowLeft"":3,""ArrowUp,ArrowRight"":36,""ArrowDown,ArrowLeft"":15,""ArrowDown,ArrowRight"":23}","true","spaceBar","true","","","","","",""
"html-keyboard-response","59","584933","0.0-3.0-10.0-1.1","spark_pilot_norest","8607","3","13","Male","","","","","","","null","<div style=""font-size:60px;"">+</div>","null","fixation","","","","","","","","","","","",""
"revaluation","60","588944","0.0-3.0-10.0-0.2","spark_pilot_norest","8607","3","13","Male","","false","","","","","[340.2000000476837]","./assets/img/space/catch/2.jpg","[""spaceBar""]","catch practice","space","0","{""ArrowUp,ArrowLeft"":3,""ArrowUp,ArrowRight"":36,""ArrowDown,ArrowLeft"":15,""ArrowDown,ArrowRight"":23}","true","spaceBar","true","","","","","",""
"html-keyboard-response","61","589461","0.0-3.0-10.0-1.2","spark_pilot_norest","8607","3","13","Male","","","","","","","null","<div style=""font-size:60px;"">+</div>","null","fixation","","","","","","","","","","","",""
"learning-instructions","62","596776","0.0-3.0-11.0-0.0-0.0","spark_pilot_norest","8607","3","13","Male","","","","","","","2036.5","<p> Now, you will practice a shortened version of the game to get a sense of how it all fits together. </p>","","instructions","","","","","","","","","","","",""
"learning-instructions","63","602255","0.0-3.0-11.0-0.0-0.1","spark_pilot_norest","8607","3","13","Male","","","","","","","2290","<p>This time you are searching for treasure in outer space.</p>","","instructions","","","","","","","","","","","",""
"learning-instructions","64","618319","0.0-3.0-11.0-1.0-0.0","spark_pilot_norest","8607","3","13","Male","","","","","","","1265.6999998092651","<p> Remember, when you see a picture of the place, use the up and down keys to <b>find an animal</b>.</p>
            <p> When you encounter an animal, you should use the left and right keys to <b>select a treasure chest</b>.</p>
            <p> Don't forget to look out for the robber! </p>","","instructions","","","","","","","","","","","",""
"revaluation","65","624338","0.0-3.0-11.0-2.0-0.0","spark_pilot_norest","8607","3","13","Male","","false","","","","","[1585.6999998092651,678.5]","./assets/img/space/11.jpg","[""ArrowDown"",""ArrowRight""]","practice block","space","23","{""ArrowUp,ArrowLeft"":3,""ArrowUp,ArrowRight"":36,""ArrowDown,ArrowLeft"":15,""ArrowDown,ArrowRight"":23}","false","ArrowDown,ArrowRight","false","","","","","",""
"html-keyboard-response","66","624861","0.0-3.0-11.0-2.0-1.0","spark_pilot_norest","8607","3","13","Male","","","","","","","null","<div style=""font-size:60px;"">+</div>","null","fixation","","","","","","","","","","","",""
"revaluation","67","630877","0.0-3.0-11.0-2.0-0.1","spark_pilot_norest","8607","3","13","Male","","false","","","","","[753.2000000476837,433.7000000476837]","./assets/img/space/12.jpg","[""ArrowDown"",""ArrowLeft""]","practice block","space","15","{""ArrowUp,ArrowLeft"":3,""ArrowUp,ArrowRight"":36,""ArrowDown,ArrowLeft"":15,""ArrowDown,ArrowRight"":23}","false","ArrowDown,ArrowLeft","false","","","","","",""
"html-keyboard-response","68","631399","0.0-3.0-11.0-2.0-1.1","spark_pilot_norest","8607","3","13","Male","","","","","","","null","<div style=""font-size:60px;"">+</div>","null","fixation","","","","","","","","","","","",""
"revaluation","69","637416","0.0-3.0-11.0-2.0-0.2","spark_pilot_norest","8607","3","13","Male","","false","","","","","[354.30000019073486,356.60000014305115]","./assets/img/space/13.jpg","[""ArrowUp"",""ArrowRight""]","practice block","space","36","{""ArrowUp,ArrowLeft"":3,""ArrowUp,ArrowRight"":36,""ArrowDown,ArrowLeft"":15,""ArrowDown,ArrowRight"":23}","true","ArrowUp,ArrowRight","false","","","","","",""
"html-keyboard-response","70","637939","0.0-3.0-11.0-2.0-1.2","spark_pilot_norest","8607","3","13","Male","","","","","","","null","<div style=""font-size:60px;"">+</div>","null","fixation","","","","","","","","","","","",""
"revaluation","71","643954","0.0-3.0-11.0-2.0-0.3","spark_pilot_norest","8607","3","13","Male","","false","","","","","[842.6999998092651,288.59999990463257]","./assets/img/space/14.jpg","[""ArrowUp"",""ArrowRight""]","practice block","space","36","{""ArrowUp,ArrowLeft"":3,""ArrowUp,ArrowRight"":36,""ArrowDown,ArrowLeft"":15,""ArrowDown,ArrowRight"":23}","true","ArrowUp,ArrowRight","false","","","","","",""
"html-keyboard-response","72","644456","0.0-3.0-11.0-2.0-1.3","spark_pilot_norest","8607","3","13","Male","","","","","","","null","<div style=""font-size:60px;"">+</div>","null","fixation","","","","","","","","","","","",""
"revaluation","73","650463","0.0-3.0-11.0-2.0-0.4","spark_pilot_norest","8607","3","13","Male","","false","","","","","[789,299.60000014305115]","./assets/img/space/11.jpg","[""ArrowUp"",""ArrowRight""]","practice block","space","36","{""ArrowUp,ArrowLeft"":3,""ArrowUp,ArrowRight"":36,""ArrowDown,ArrowLeft"":15,""ArrowDown,ArrowRight"":23}","true","ArrowUp,ArrowRight","false","","","","","",""
"html-keyboard-response","74","650964","0.0-3.0-11.0-2.0-1.4","spark_pilot_norest","8607","3","13","Male","","","","","","","null","<div style=""font-size:60px;"">+</div>","null","fixation","","","","","","","","","","","",""
"revaluation","75","656970","0.0-3.0-11.0-2.0-0.5","spark_pilot_norest","8607","3","13","Male","","false","","","","","[708,345.10000014305115]","./assets/img/space/12.jpg","[""ArrowUp"",""ArrowRight""]","practice block","space","36","{""ArrowUp,ArrowLeft"":3,""ArrowUp,ArrowRight"":36,""ArrowDown,ArrowLeft"":15,""ArrowDown,ArrowRight"":23}","true","ArrowUp,ArrowRight","false","","","","","",""
"html-keyboard-response","76","657471","0.0-3.0-11.0-2.0-1.5","spark_pilot_norest","8607","3","13","Male","","","","","","","null","<div style=""font-size:60px;"">+</div>","null","fixation","","","","","","","","","","","",""
"revaluation","77","663477","0.0-3.0-11.0-2.0-0.6","spark_pilot_norest","8607","3","13","Male","","false","","","","","[781.9000000953674,275]","./assets/img/space/13.jpg","[""ArrowUp"",""ArrowRight""]","practice block","space","36","{""ArrowUp,ArrowLeft"":3,""ArrowUp,ArrowRight"":36,""ArrowDown,ArrowLeft"":15,""ArrowDown,ArrowRight"":23}","true","ArrowUp,ArrowRight","false","","","","","",""
"html-keyboard-response","78","663978","0.0-3.0-11.0-2.0-1.6","spark_pilot_norest","8607","3","13","Male","","","","","","","null","<div style=""font-size:60px;"">+</div>","null","fixation","","","","","","","","","","","",""
"revaluation","79","669984","0.0-3.0-11.0-2.0-0.7","spark_pilot_norest","8607","3","13","Male","","false","","","","","[861.2000000476837,259.7999999523163]","./assets/img/space/14.jpg","[""ArrowUp"",""ArrowRight""]","practice block","space","36","{""ArrowUp,ArrowLeft"":3,""ArrowUp,ArrowRight"":36,""ArrowDown,ArrowLeft"":15,""ArrowDown,ArrowRight"":23}","true","ArrowUp,ArrowRight","false","","","","","",""
"html-keyboard-response","80","670486","0.0-3.0-11.0-2.0-1.7","spark_pilot_norest","8607","3","13","Male","","","","","","","null","<div style=""font-size:60px;"">+</div>","null","fixation","","","","","","","","","","","",""
"revaluation","81","674491","0.0-3.0-11.0-2.0-0.8","spark_pilot_norest","8607","3","13","Male","","false","","","","","[554.8999998569489]","./assets/img/space/catch/3.jpg","[""spaceBar""]","practice block","space","0","{""ArrowUp,ArrowLeft"":3,""ArrowUp,ArrowRight"":36,""ArrowDown,ArrowLeft"":15,""ArrowDown,ArrowRight"":23}","true","spaceBar","true","","","","","",""
"html-keyboard-response","82","674993","0.0-3.0-11.0-2.0-1.8","spark_pilot_norest","8607","3","13","Male","","","","","","","null","<div style=""font-size:60px;"">+</div>","null","fixation","","","","","","","","","","","",""
"learning-instructions","83","692231","0.0-3.0-11.0-3.0-0.0","spark_pilot_norest","8607","3","13","Male","","","","","","","3857.5","<p> Now, you will travel with a friend who will choose whether you go up or down first. </p>
            <p> On these turns, you will just see the animal that they found. You will still get to choose which chest to search for treasure.</p>","","instructions","","","","","","","","","","","",""
"revaluation","84","696256","0.0-3.0-11.0-4.0-0.0","spark_pilot_norest","8607","3","13","Male","","false","","","","","[1022.7999999523163]","./assets/img/space/animals/cat.jpg","[""ArrowLeft""]","practice block","space","3","{""ArrowUp,ArrowLeft"":3,""ArrowUp,ArrowRight"":36,""ArrowDown,ArrowLeft"":15,""ArrowDown,ArrowRight"":23}","false","ArrowUp,ArrowLeft","","","","","","",""
"html-keyboard-response","85","696778","0.0-3.0-11.0-4.0-1.0","spark_pilot_norest","8607","3","13","Male","","","","","","","null","<div style=""font-size:60px;"">+</div>","null","fixation","","","","","","","","","","","",""
"revaluation","86","700789","0.0-3.0-11.0-4.0-0.1","spark_pilot_norest","8607","3","13","Male","","false","","","","","[961.8000001907349]","./assets/img/space/animals/rabbit.jpg","[""ArrowRight""]","practice block","space","23","{""ArrowUp,ArrowLeft"":3,""ArrowUp,ArrowRight"":36,""ArrowDown,ArrowLeft"":15,""ArrowDown,ArrowRight"":23}","true","ArrowDown,ArrowRight","","","","","","",""
"html-keyboard-response","87","701309","0.0-3.0-11.0-4.0-1.1","spark_pilot_norest","8607","3","13","Male","","","","","","","null","<div style=""font-size:60px;"">+</div>","null","fixation","","","","","","","","","","","",""
"revaluation","88","705337","0.0-3.0-11.0-4.0-0.2","spark_pilot_norest","8607","3","13","Male","","false","","","","","[782]","./assets/img/space/animals/cat.jpg","[""ArrowRight""]","practice block","space","36","{""ArrowUp,ArrowLeft"":3,""ArrowUp,ArrowRight"":36,""ArrowDown,ArrowLeft"":15,""ArrowDown,ArrowRight"":23}","true","ArrowUp,ArrowRight","","","","","","",""
"html-keyboard-response","89","705856","0.0-3.0-11.0-4.0-1.2","spark_pilot_norest","8607","3","13","Male","","","","","","","null","<div style=""font-size:60px;"">+</div>","null","fixation","","","","","","","","","","","",""
"revaluation","90","709867","0.0-3.0-11.0-4.0-0.3","spark_pilot_norest","8607","3","13","Male","","false","","","","","[918.5999999046326]","./assets/img/space/animals/rabbit.jpg","[""ArrowLeft""]","practice block","space","15","{""ArrowUp,ArrowLeft"":3,""ArrowUp,ArrowRight"":36,""ArrowDown,ArrowLeft"":15,""ArrowDown,ArrowRight"":23}","false","ArrowDown,ArrowLeft","","","","","","",""
"html-keyboard-response","91","710389","0.0-3.0-11.0-4.0-1.3","spark_pilot_norest","8607","3","13","Male","","","","","","","null","<div style=""font-size:60px;"">+</div>","null","fixation","","","","","","","","","","","",""
"learning-instructions","92","718539","0.0-3.0-11.0-5.0-0.0","spark_pilot_norest","8607","3","13","Male","","","","","","","null","<p> You have almost finished this part of the game! </p>
            <p> We are going to ask you to make a few more choices. </p>","","instructions","","","","","","","","","","","",""
"learning-instructions","93","734603","0.0-3.0-11.0-5.0-0.1","spark_pilot_norest","8607","3","13","Male","","","","","","","null","<p> First, you need to decide whether to go up or down. When you see each picture, use the arrow keys to make your choice. </p>
            <p><b>You will not see which animal you found, but try to get to the one that will give you the most treasure.</b></p>","","instructions","","","","","","","","","","","",""
"html-keyboard-response","94","735605","0.0-3.0-11.0-6.0-0.0","spark_pilot_norest","8607","3","13","Male","","","","","","","null","<div style=""font-size:100px;color:red;"">Starting in...</div>","null","","","","","","","","","","","","",""
"html-keyboard-response","95","736619","0.0-3.0-11.0-6.0-1.0","spark_pilot_norest","8607","3","13","Male","","","","","","","null","<div style=""font-size:200px;color:red;"">3</div>","null","","","","","","","","","","","","",""
"html-keyboard-response","96","737632","0.0-3.0-11.0-6.0-2.0","spark_pilot_norest","8607","3","13","Male","","","","","","","null","<div style=""font-size:200px;color:red;"">2</div>","null","","","","","","","","","","","","",""
"html-keyboard-response","97","738635","0.0-3.0-11.0-6.0-3.0","spark_pilot_norest","8607","3","13","Male","","","","","","","null","<div style=""font-size:200px;color:red;"">1</div>","null","","","","","","","","","","","","",""
"revaluation","98","739305","0.0-3.0-11.0-7.0","spark_pilot_norest","8607","3","13","Male","","false","","","","","[664.7000000476837]","./assets/img/space/15.jpg","[""ArrowUp""]","practice block","space","0","{""ArrowUp,ArrowLeft"":3,""ArrowUp,ArrowRight"":36,""ArrowDown,ArrowLeft"":15,""ArrowDown,ArrowRight"":23}","true","ArrowUp","false","","","","","",""
"html-keyboard-response","99","739819","0.0-3.0-11.0-8.0","spark_pilot_norest","8607","3","13","Male","","","","","","","null","<div style=""font-size:60px;"">+</div>","null","fixation","","","","","","","","","","","",""
"learning-instructions","100","753237","0.0-3.0-11.0-9.0-0.0","spark_pilot_norest","8607","3","13","Male","","","","","","","null","<p> Now you will see the animals again and can search their chests for treasure. </p>
            <p> This time, you will not see how much treasure you earned, but you will earn more bonus money for making better choices. </p>","","instructions","","","","","","","","","","","",""
"html-keyboard-response","101","754240","0.0-3.0-11.0-10.0-0.0","spark_pilot_norest","8607","3","13","Male","","","","","","","null","<div style=""font-size:100px;color:red;"">Starting in...</div>","null","","","","","","","","","","","","",""
"html-keyboard-response","102","755253","0.0-3.0-11.0-10.0-1.0","spark_pilot_norest","8607","3","13","Male","","","","","","","null","<div style=""font-size:200px;color:red;"">3</div>","null","","","","","","","","","","","","",""
"html-keyboard-response","103","756255","0.0-3.0-11.0-10.0-2.0","spark_pilot_norest","8607","3","13","Male","","","","","","","null","<div style=""font-size:200px;color:red;"">2</div>","null","","","","","","","","","","","","",""
"html-keyboard-response","104","757258","0.0-3.0-11.0-10.0-3.0","spark_pilot_norest","8607","3","13","Male","","","","","","","null","<div style=""font-size:200px;color:red;"">1</div>","null","","","","","","","","","","","","",""
"revaluation","105","757780","0.0-3.0-11.0-11.0-0.0","spark_pilot_norest","8607","3","13","Male","","false","","","","","[518.5999999046326]","./assets/img/space/animals/cat.jpg","[""ArrowRight""]","practice block","space","0","{""ArrowUp,ArrowLeft"":3,""ArrowUp,ArrowRight"":36,""ArrowDown,ArrowLeft"":15,""ArrowDown,ArrowRight"":23}","true","ArrowUp,ArrowRight","","","","","","",""
"html-keyboard-response","106","758294","0.0-3.0-11.0-11.0-1.0","spark_pilot_norest","8607","3","13","Male","","","","","","","null","<div style=""font-size:60px;"">+</div>","null","fixation","","","","","","","","","","","",""
"revaluation","107","758857","0.0-3.0-11.0-11.0-0.1","spark_pilot_norest","8607","3","13","Male","","false","","","","","[558.7999999523163]","./assets/img/space/animals/rabbit.jpg","[""ArrowRight""]","practice block","space","0","{""ArrowUp,ArrowLeft"":3,""ArrowUp,ArrowRight"":36,""ArrowDown,ArrowLeft"":15,""ArrowDown,ArrowRight"":23}","true","ArrowDown,ArrowRight","","","","","","",""
"html-keyboard-response","108","759359","0.0-3.0-11.0-11.0-1.1","spark_pilot_norest","8607","3","13","Male","","","","","","","null","<div style=""font-size:60px;"">+</div>","null","fixation","","","","","","","","","","","",""
"learning-instructions","109","766863","0.0-3.0-12.0-0.0","spark_pilot_norest","8607","3","13","Male","","","","","","","2915.4000000953674","<p> Before you start, we're going to ask you a few questions about how the game works. </p>","","instructions","","","","","","","","","","","",""
"comp-q","110","777210","0.0-3.0-13.0-0.0-0.0","spark_pilot_norest","8607","3","13","Male","","","","","","","4735.600000143051","<p> <b> True or False? </b> </p>
            <p> There can be 50 pieces of treasure in a given animal's chest. </p>","1","comp_question","","","","true","","","","","","","",""
"comp-q","111","785630","0.0-3.0-13.0-0.0-1.0","spark_pilot_norest","8607","3","13","Male","","","","","","","1747.3999998569489","<p> <b> That's right! </b> The amount of treasure in each chest can range from 0 to 40 pieces. </p>","0","comp_answer","","","","","","","","","","","",""
"comp-q","112","793495","0.0-3.0-13.0-0.1-0.1","spark_pilot_norest","8607","3","13","Male","","","","","","","737","<p> <b> True or False? </b> </p><p> In this game, all animals have the same amount of treasure in their left and right chests. </p>","1","comp_question","","","","true","","","","","","","",""
"comp-q","113","799502","0.0-3.0-13.0-0.1-1.1","spark_pilot_norest","8607","3","13","Male","","","","","","","760.2999999523163","<p> <b> That's right! </b> Animals have different amounts of treasure in their treasure chests. </p>","0","comp_answer","","","","","","","","","","","",""
"comp-q","114","806351","0.0-3.0-13.0-0.2-0.2","spark_pilot_norest","8607","3","13","Male","","","","","","","995.2000000476837","<p> <b> True or False? </b> </p><p> The same animal will always be there if you go up in the same place. </p>","0","comp_question","","","","true","","","","","","","",""
"comp-q","115","814471","0.0-3.0-13.0-0.2-1.2","spark_pilot_norest","8607","3","13","Male","","","","","","","1659.5","<p> <b> That's right! </b> One animal lives in the upper part and one lives in the lower part of every place. </p>","0","comp_answer","","","","","","","","","","","",""
"comp-q","116","821703","0.0-3.0-13.0-0.3-0.3","spark_pilot_norest","8607","3","13","Male","","","","","","","1702.4000000953674","<p> <b> True or False? </b> </p><p> If you see a different picture, it means you are in a new place. </p>","1","comp_question","","","","true","","","","","","","",""
"comp-q","117","836047","0.0-3.0-13.0-0.3-1.3","spark_pilot_norest","8607","3","13","Male","","","","","","","3096.899999856949","<p> <b> That's right! </b> Lots of different images may show the same place. For example,  you may see three different images that all remind you that you are in outer space. </p>","0","comp_answer","","","","","","","","","","","",""
"learning-instructions","118","848807","0.0-3.0-14.0-0.0","spark_pilot_norest","8607","3","13","Male","","","","","","","2886","<p> Good job. Remember to do your best because the amount of treasure you earn will be converted into bonus money. </p>
            <p> It’s time to start the real game! </p>","","instructions","","","","","","","","","","","",""
"learning-instructions","119","852319","0.0-4.0-0.0-0.0","spark_pilot_norest","8607","3","13","Male","","","","","","","788.0999999046326","<p> This time you are searching for treasure in the <b>ocean</b>.</p>","","instructions","","","","","","","","","","","",""
"learning-instructions","120","870863","0.0-4.0-0.0-0.1","spark_pilot_norest","8607","3","13","Male","","","","","","","1198.0999999046326","<p><b>New</b> animals with <b>new</b> treasure chests live here. You need to explore to discover where the animal with the best treasure chest is.</p>
                    <p> Like before, once you figure out which animal has the chest with the most treasure, you should try to get to that animal and select that chest! </p>","","instructions","","","","","","","","","","","",""
"learning-instructions","121","886111","0.0-4.0-1.0-0.0","spark_pilot_norest","8607","3","13","Male","","","","","","","520.9000000953674","<p> Remember, when you see a picture of the place, use the up and down keys to <b>find an animal</b>.</p>
            <p> When you encounter an animal, you should use the left and right keys to <b>select a treasure chest</b>.</p>
            <p> Don't forget to look out for the robber! </p>","","instructions","","","","","","","","","","","",""
"revaluation","122","892144","0.0-4.0-2.0-0.0","spark_pilot_norest","8607","3","13","Male","","false","","","","","[1738.3999998569489,971]","./assets/img/ocean/memory/6.jpg","[""ArrowUp"",""ArrowRight""]","value training","ocean","10","{""ArrowUp,ArrowLeft"":23,""ArrowUp,ArrowRight"":10,""ArrowDown,ArrowLeft"":8,""ArrowDown,ArrowRight"":30}","false","ArrowUp,ArrowRight","false","original","1","0","","",""
"html-keyboard-response","123","892661","0.0-4.0-2.0-1.0","spark_pilot_norest","8607","3","13","Male","","","","","","","null","<div style=""font-size:60px;"">+</div>","null","fixation","","","","","","","","","1","","",""
"revaluation","124","898679","0.0-4.0-2.0-0.1","spark_pilot_norest","8607","3","13","Male","","false","","","","","[656.7999999523163,523.4000000953674]","./assets/img/ocean/memory/9.jpg","[""ArrowUp"",""ArrowLeft""]","value training","ocean","23","{""ArrowUp,ArrowLeft"":23,""ArrowUp,ArrowRight"":10,""ArrowDown,ArrowLeft"":8,""ArrowDown,ArrowRight"":30}","false","ArrowUp,ArrowLeft","false","original","1","2","","",""
"html-keyboard-response","125","899199","0.0-4.0-2.0-1.1","spark_pilot_norest","8607","3","13","Male","","","","","","","null","<div style=""font-size:60px;"">+</div>","null","fixation","","","","","","","","","3","","",""
"revaluation","126","905216","0.0-4.0-2.0-0.2","spark_pilot_norest","8607","3","13","Male","","false","","","","","[606.4000000953674,577]","./assets/img/ocean/memory/29.jpg","[""ArrowDown"",""ArrowLeft""]","value training","ocean","8","{""ArrowUp,ArrowLeft"":23,""ArrowUp,ArrowRight"":10,""ArrowDown,ArrowLeft"":8,""ArrowDown,ArrowRight"":30}","false","ArrowDown,ArrowLeft","false","original","1","4","","",""
"html-keyboard-response","127","905739","0.0-4.0-2.0-1.2","spark_pilot_norest","8607","3","13","Male","","","","","","","null","<div style=""font-size:60px;"">+</div>","null","fixation","","","","","","","","","5","","",""
"revaluation","128","909749","0.0-4.0-2.0-0.3","spark_pilot_norest","8607","3","13","Male","","false","","","","","[680.2999999523163]","./assets/img/ocean/catch/0.jpg","[""spaceBar""]","value training","ocean","0","{""ArrowUp,ArrowLeft"":23,""ArrowUp,ArrowRight"":10,""ArrowDown,ArrowLeft"":8,""ArrowDown,ArrowRight"":30}","true","spaceBar","true","original","1","6","","",""
"html-keyboard-response","129","910272","0.0-4.0-2.0-1.3","spark_pilot_norest","8607","3","13","Male","","","","","","","null","<div style=""font-size:60px;"">+</div>","null","fixation","","","","","","","","","7","","",""
"revaluation","130","916284","0.0-4.0-2.0-0.4","spark_pilot_norest","8607","3","13","Male","","false","","","","","[315.40000009536743,377.7000000476837]","./assets/img/ocean/memory/11.jpg","[""ArrowDown"",""ArrowRight""]","value training","ocean","30","{""ArrowUp,ArrowLeft"":23,""ArrowUp,ArrowRight"":10,""ArrowDown,ArrowLeft"":8,""ArrowDown,ArrowRight"":30}","true","ArrowDown,ArrowRight","false","original","1","8","","",""
"html-keyboard-response","131","916785","0.0-4.0-2.0-1.4","spark_pilot_norest","8607","3","13","Male","","","","","","","null","<div style=""font-size:60px;"">+</div>","null","fixation","","","","","","","","","9","","",""
"revaluation","132","922795","0.0-4.0-2.0-0.5","spark_pilot_norest","8607","3","13","Male","","false","","","","","[573.7000000476837,217]","./assets/img/ocean/memory/0.jpg","[""ArrowDown"",""ArrowRight""]","value training","ocean","30","{""ArrowUp,ArrowLeft"":23,""ArrowUp,ArrowRight"":10,""ArrowDown,ArrowLeft"":8,""ArrowDown,ArrowRight"":30}","true","ArrowDown,ArrowRight","false","original","1","10","","",""
"html-keyboard-response","133","923296","0.0-4.0-2.0-1.5","spark_pilot_norest","8607","3","13","Male","","","","","","","null","<div style=""font-size:60px;"">+</div>","null","fixation","","","","","","","","","11","","",""
"revaluation","134","929302","0.0-4.0-2.0-0.6","spark_pilot_norest","8607","3","13","Male","","false","","","","","[793.8000001907349,53]","./assets/img/ocean/memory/3.jpg","[""ArrowDown"",""ArrowRight""]","value training","ocean","30","{""ArrowUp,ArrowLeft"":23,""ArrowUp,ArrowRight"":10,""ArrowDown,ArrowLeft"":8,""ArrowDown,ArrowRight"":30}","true","ArrowDown,ArrowRight","false","original","1","12","","",""
"html-keyboard-response","135","929803","0.0-4.0-2.0-1.6","spark_pilot_norest","8607","3","13","Male","","","","","","","null","<div style=""font-size:60px;"">+</div>","null","fixation","","","","","","","","","13","","",""
"revaluation","136","933809","0.0-4.0-2.0-0.7","spark_pilot_norest","8607","3","13","Male","","false","","","","","[641.4000000953674]","./assets/img/ocean/catch/5.jpg","[""spaceBar""]","value training","ocean","0","{""ArrowUp,ArrowLeft"":23,""ArrowUp,ArrowRight"":10,""ArrowDown,ArrowLeft"":8,""ArrowDown,ArrowRight"":30}","true","spaceBar","true","original","1","14","","",""
"html-keyboard-response","137","934310","0.0-4.0-2.0-1.7","spark_pilot_norest","8607","3","13","Male","","","","","","","null","<div style=""font-size:60px;"">+</div>","null","fixation","","","","","","","","","15","","",""
"revaluation","138","940319","0.0-4.0-2.0-0.8","spark_pilot_norest","8607","3","13","Male","","false","","","","","[444.5,243.70000004768372]","./assets/img/ocean/memory/0.jpg","[""ArrowUp"",""ArrowRight""]","value training","ocean","10","{""ArrowUp,ArrowLeft"":23,""ArrowUp,ArrowRight"":10,""ArrowDown,ArrowLeft"":8,""ArrowDown,ArrowRight"":30}","false","ArrowUp,ArrowRight","false","original","1","16","","",""
"html-keyboard-response","139","940820","0.0-4.0-2.0-1.8","spark_pilot_norest","8607","3","13","Male","","","","","","","null","<div style=""font-size:60px;"">+</div>","null","fixation","","","","","","","","","17","","",""
"revaluation","140","946828","0.0-4.0-2.0-0.9","spark_pilot_norest","8607","3","13","Male","","false","","","","","[715.6999998092651,293.89999985694885]","./assets/img/ocean/memory/31.jpg","[""ArrowDown"",""ArrowRight""]","value training","ocean","30","{""ArrowUp,ArrowLeft"":23,""ArrowUp,ArrowRight"":10,""ArrowDown,ArrowLeft"":8,""ArrowDown,ArrowRight"":30}","true","ArrowDown,ArrowRight","false","original","1","18","","",""
"html-keyboard-response","141","947330","0.0-4.0-2.0-1.9","spark_pilot_norest","8607","3","13","Male","","","","","","","null","<div style=""font-size:60px;"">+</div>","null","fixation","","","","","","","","","19","","",""
"revaluation","142","953336","0.0-4.0-2.0-0.10","spark_pilot_norest","8607","3","13","Male","","false","","","","","[388.89999985694885,59.90000009536743]","./assets/img/ocean/memory/17.jpg","[""ArrowDown"",""ArrowRight""]","value training","ocean","30","{""ArrowUp,ArrowLeft"":23,""ArrowUp,ArrowRight"":10,""ArrowDown,ArrowLeft"":8,""ArrowDown,ArrowRight"":30}","true","ArrowDown,ArrowRight","false","original","1","20","","",""
"html-keyboard-response","143","953837","0.0-4.0-2.0-1.10","spark_pilot_norest","8607","3","13","Male","","","","","","","null","<div style=""font-size:60px;"">+</div>","null","fixation","","","","","","","","","21","","",""
"revaluation","144","957842","0.0-4.0-2.0-0.11","spark_pilot_norest","8607","3","13","Male","","false","","","","","[659.3999998569489]","./assets/img/ocean/catch/2.jpg","[""spaceBar""]","value training","ocean","0","{""ArrowUp,ArrowLeft"":23,""ArrowUp,ArrowRight"":10,""ArrowDown,ArrowLeft"":8,""ArrowDown,ArrowRight"":30}","true","spaceBar","true","original","1","22","","",""
"html-keyboard-response","145","958344","0.0-4.0-2.0-1.11","spark_pilot_norest","8607","3","13","Male","","","","","","","null","<div style=""font-size:60px;"">+</div>","null","fixation","","","","","","","","","23","","",""
"revaluation","146","964350","0.0-4.0-2.0-0.12","spark_pilot_norest","8607","3","13","Male","","false","","","","","[933.8000001907349,204.29999995231628]","./assets/img/ocean/memory/30.jpg","[""ArrowDown"",""ArrowRight""]","value training","ocean","30","{""ArrowUp,ArrowLeft"":23,""ArrowUp,ArrowRight"":10,""ArrowDown,ArrowLeft"":8,""ArrowDown,ArrowRight"":30}","true","ArrowDown,ArrowRight","false","original","1","24","","",""
"html-keyboard-response","147","964852","0.0-4.0-2.0-1.12","spark_pilot_norest","8607","3","13","Male","","","","","","","null","<div style=""font-size:60px;"">+</div>","null","fixation","","","","","","","","","25","","",""
"revaluation","148","970859","0.0-4.0-2.0-0.13","spark_pilot_norest","8607","3","13","Male","","false","","","","","[608.5,194.5]","./assets/img/ocean/memory/4.jpg","[""ArrowDown"",""ArrowRight""]","value training","ocean","30","{""ArrowUp,ArrowLeft"":23,""ArrowUp,ArrowRight"":10,""ArrowDown,ArrowLeft"":8,""ArrowDown,ArrowRight"":30}","true","ArrowDown,ArrowRight","false","original","1","26","","",""
"html-keyboard-response","149","971360","0.0-4.0-2.0-1.13","spark_pilot_norest","8607","3","13","Male","","","","","","","null","<div style=""font-size:60px;"">+</div>","null","fixation","","","","","","","","","27","","",""
"revaluation","150","975370","0.0-4.0-2.0-0.14","spark_pilot_norest","8607","3","13","Male","","false","","","","","[598.5]","./assets/img/ocean/catch/6.jpg","[""spaceBar""]","value training","ocean","0","{""ArrowUp,ArrowLeft"":23,""ArrowUp,ArrowRight"":10,""ArrowDown,ArrowLeft"":8,""ArrowDown,ArrowRight"":30}","true","spaceBar","true","original","1","28","","",""
"html-keyboard-response","151","975872","0.0-4.0-2.0-1.14","spark_pilot_norest","8607","3","13","Male","","","","","","","null","<div style=""font-size:60px;"">+</div>","null","fixation","","","","","","","","","29","","",""
"revaluation","152","981879","0.0-4.0-2.0-0.15","spark_pilot_norest","8607","3","13","Male","","false","","","","","[731.5,46.09999990463257]","./assets/img/ocean/memory/35.jpg","[""ArrowDown"",""ArrowRight""]","value training","ocean","30","{""ArrowUp,ArrowLeft"":23,""ArrowUp,ArrowRight"":10,""ArrowDown,ArrowLeft"":8,""ArrowDown,ArrowRight"":30}","true","ArrowDown,ArrowRight","false","original","1","30","","",""
"html-keyboard-response","153","982381","0.0-4.0-2.0-1.15","spark_pilot_norest","8607","3","13","Male","","","","","","","null","<div style=""font-size:60px;"">+</div>","null","fixation","","","","","","","","","31","","",""
"revaluation","154","988388","0.0-4.0-2.0-0.16","spark_pilot_norest","8607","3","13","Male","","false","","","","","[683.6000001430511,187.70000004768372]","./assets/img/ocean/memory/30.jpg","[""ArrowDown"",""ArrowRight""]","value training","ocean","30","{""ArrowUp,ArrowLeft"":23,""ArrowUp,ArrowRight"":10,""ArrowDown,ArrowLeft"":8,""ArrowDown,ArrowRight"":30}","true","ArrowDown,ArrowRight","false","original","1","32","","",""
"html-keyboard-response","155","988889","0.0-4.0-2.0-1.16","spark_pilot_norest","8607","3","13","Male","","","","","","","null","<div style=""font-size:60px;"">+</div>","null","fixation","","","","","","","","","33","","",""
"revaluation","156","994896","0.0-4.0-2.0-0.17","spark_pilot_norest","8607","3","13","Male","","false","","","","","[697.6999998092651,291]","./assets/img/ocean/memory/21.jpg","[""ArrowDown"",""ArrowRight""]","value training","ocean","30","{""ArrowUp,ArrowLeft"":23,""ArrowUp,ArrowRight"":10,""ArrowDown,ArrowLeft"":8,""ArrowDown,ArrowRight"":30}","true","ArrowDown,ArrowRight","false","original","1","34","","",""
"html-keyboard-response","157","995398","0.0-4.0-2.0-1.17","spark_pilot_norest","8607","3","13","Male","","","","","","","null","<div style=""font-size:60px;"">+</div>","null","fixation","","","","","","","","","35","","",""
"revaluation","158","1001405","0.0-4.0-2.0-0.18","spark_pilot_norest","8607","3","13","Male","","false","","","","","[750.2000000476837,204.29999995231628]","./assets/img/ocean/memory/38.jpg","[""ArrowDown"",""ArrowRight""]","value training","ocean","30","{""ArrowUp,ArrowLeft"":23,""ArrowUp,ArrowRight"":10,""ArrowDown,ArrowLeft"":8,""ArrowDown,ArrowRight"":30}","true","ArrowDown,ArrowRight","false","original","1","36","","",""
"html-keyboard-response","159","1001907","0.0-4.0-2.0-1.18","spark_pilot_norest","8607","3","13","Male","","","","","","","null","<div style=""font-size:60px;"">+</div>","null","fixation","","","","","","","","","37","","",""
"revaluation","160","1007914","0.0-4.0-2.0-0.19","spark_pilot_norest","8607","3","13","Male","","false","","","","","[506.5,56.90000009536743]","./assets/img/ocean/memory/11.jpg","[""ArrowDown"",""ArrowRight""]","value training","ocean","30","{""ArrowUp,ArrowLeft"":23,""ArrowUp,ArrowRight"":10,""ArrowDown,ArrowLeft"":8,""ArrowDown,ArrowRight"":30}","true","ArrowDown,ArrowRight","false","original","1","38","","",""
"html-keyboard-response","161","1008415","0.0-4.0-2.0-1.19","spark_pilot_norest","8607","3","13","Male","","","","","","","null","<div style=""font-size:60px;"">+</div>","null","fixation","","","","","","","","","39","","",""
"revaluation","162","1014423","0.0-4.0-2.0-0.20","spark_pilot_norest","8607","3","13","Male","","false","","","","","[735.9000000953674,185.29999995231628]","./assets/img/ocean/memory/14.jpg","[""ArrowDown"",""ArrowRight""]","value training","ocean","30","{""ArrowUp,ArrowLeft"":23,""ArrowUp,ArrowRight"":10,""ArrowDown,ArrowLeft"":8,""ArrowDown,ArrowRight"":30}","true","ArrowDown,ArrowRight","false","original","1","40","","",""
"html-keyboard-response","163","1014924","0.0-4.0-2.0-1.20","spark_pilot_norest","8607","3","13","Male","","","","","","","null","<div style=""font-size:60px;"">+</div>","null","fixation","","","","","","","","","41","","",""
"revaluation","164","1018929","0.0-4.0-2.0-0.21","spark_pilot_norest","8607","3","13","Male","","false","","","","","[523]","./assets/img/ocean/catch/3.jpg","[""spaceBar""]","value training","ocean","0","{""ArrowUp,ArrowLeft"":23,""ArrowUp,ArrowRight"":10,""ArrowDown,ArrowLeft"":8,""ArrowDown,ArrowRight"":30}","true","spaceBar","true","original","1","42","","",""
"html-keyboard-response","165","1019431","0.0-4.0-2.0-1.21","spark_pilot_norest","8607","3","13","Male","","","","","","","null","<div style=""font-size:60px;"">+</div>","null","fixation","","","","","","","","","43","","",""
"revaluation","166","1025439","0.0-4.0-2.0-0.22","spark_pilot_norest","8607","3","13","Male","","false","","","","","[439.7000000476837,131.39999985694885]","./assets/img/ocean/memory/2.jpg","[""ArrowDown"",""ArrowRight""]","value training","ocean","30","{""ArrowUp,ArrowLeft"":23,""ArrowUp,ArrowRight"":10,""ArrowDown,ArrowLeft"":8,""ArrowDown,ArrowRight"":30}","true","ArrowDown,ArrowRight","false","original","1","44","","",""
"html-keyboard-response","167","1025941","0.0-4.0-2.0-1.22","spark_pilot_norest","8607","3","13","Male","","","","","","","null","<div style=""font-size:60px;"">+</div>","null","fixation","","","","","","","","","45","","",""
"revaluation","168","1031948","0.0-4.0-2.0-0.23","spark_pilot_norest","8607","3","13","Male","","false","","","","","[640.5999999046326,173]","./assets/img/ocean/memory/17.jpg","[""ArrowDown"",""ArrowRight""]","value training","ocean","30","{""ArrowUp,ArrowLeft"":23,""ArrowUp,ArrowRight"":10,""ArrowDown,ArrowLeft"":8,""ArrowDown,ArrowRight"":30}","true","ArrowDown,ArrowRight","false","original","1","46","","",""
"html-keyboard-response","169","1032450","0.0-4.0-2.0-1.23","spark_pilot_norest","8607","3","13","Male","","","","","","","null","<div style=""font-size:60px;"">+</div>","null","fixation","","","","","","","","","47","","",""
"revaluation","170","1038455","0.0-4.0-2.0-0.24","spark_pilot_norest","8607","3","13","Male","","false","","","","","[789.4000000953674,110.09999990463257]","./assets/img/ocean/memory/23.jpg","[""ArrowDown"",""ArrowRight""]","value training","ocean","30","{""ArrowUp,ArrowLeft"":23,""ArrowUp,ArrowRight"":10,""ArrowDown,ArrowLeft"":8,""ArrowDown,ArrowRight"":30}","true","ArrowDown,ArrowRight","false","original","1","48","","",""
"html-keyboard-response","171","1038957","0.0-4.0-2.0-1.24","spark_pilot_norest","8607","3","13","Male","","","","","","","null","<div style=""font-size:60px;"">+</div>","null","fixation","","","","","","","","","49","","",""
"revaluation","172","1042963","0.0-4.0-2.0-0.25","spark_pilot_norest","8607","3","13","Male","","false","","","","","[581]","./assets/img/ocean/catch/4.jpg","[""spaceBar""]","value training","ocean","0","{""ArrowUp,ArrowLeft"":23,""ArrowUp,ArrowRight"":10,""ArrowDown,ArrowLeft"":8,""ArrowDown,ArrowRight"":30}","true","spaceBar","true","original","1","50","","",""
"html-keyboard-response","173","1043464","0.0-4.0-2.0-1.25","spark_pilot_norest","8607","3","13","Male","","","","","","","null","<div style=""font-size:60px;"">+</div>","null","fixation","","","","","","","","","51","","",""
"revaluation","174","1049471","0.0-4.0-2.0-0.26","spark_pilot_norest","8607","3","13","Male","","false","","","","","[597.6999998092651,166.09999990463257]","./assets/img/ocean/memory/34.jpg","[""ArrowDown"",""ArrowRight""]","value training","ocean","30","{""ArrowUp,ArrowLeft"":23,""ArrowUp,ArrowRight"":10,""ArrowDown,ArrowLeft"":8,""ArrowDown,ArrowRight"":30}","true","ArrowDown,ArrowRight","false","original","1","52","","",""
"html-keyboard-response","175","1049973","0.0-4.0-2.0-1.26","spark_pilot_norest","8607","3","13","Male","","","","","","","null","<div style=""font-size:60px;"">+</div>","null","fixation","","","","","","","","","53","","",""
"revaluation","176","1055979","0.0-4.0-2.0-0.27","spark_pilot_norest","8607","3","13","Male","","false","","","","","[419.7999999523163,8.5]","./assets/img/ocean/memory/9.jpg","[""ArrowDown"",""ArrowRight""]","value training","ocean","30","{""ArrowUp,ArrowLeft"":23,""ArrowUp,ArrowRight"":10,""ArrowDown,ArrowLeft"":8,""ArrowDown,ArrowRight"":30}","true","ArrowDown,ArrowRight","false","original","1","54","","",""
"html-keyboard-response","177","1056481","0.0-4.0-2.0-1.27","spark_pilot_norest","8607","3","13","Male","","","","","","","null","<div style=""font-size:60px;"">+</div>","null","fixation","","","","","","","","","55","","",""
"revaluation","178","1062489","0.0-4.0-2.0-0.28","spark_pilot_norest","8607","3","13","Male","","false","","","","","[518.0999999046326,49.39999985694885]","./assets/img/ocean/memory/41.jpg","[""ArrowDown"",""ArrowRight""]","value training","ocean","30","{""ArrowUp,ArrowLeft"":23,""ArrowUp,ArrowRight"":10,""ArrowDown,ArrowLeft"":8,""ArrowDown,ArrowRight"":30}","true","ArrowDown,ArrowRight","false","original","1","56","","",""
"html-keyboard-response","179","1062991","0.0-4.0-2.0-1.28","spark_pilot_norest","8607","3","13","Male","","","","","","","null","<div style=""font-size:60px;"">+</div>","null","fixation","","","","","","","","","57","","",""
"revaluation","180","1068998","0.0-4.0-2.0-0.29","spark_pilot_norest","8607","3","13","Male","","false","","","","","[625.3999998569489,88.39999985694885]","./assets/img/ocean/memory/21.jpg","[""ArrowDown"",""ArrowRight""]","value training","ocean","30","{""ArrowUp,ArrowLeft"":23,""ArrowUp,ArrowRight"":10,""ArrowDown,ArrowLeft"":8,""ArrowDown,ArrowRight"":30}","true","ArrowDown,ArrowRight","false","original","1","58","","",""
"html-keyboard-response","181","1069499","0.0-4.0-2.0-1.29","spark_pilot_norest","8607","3","13","Male","","","","","","","null","<div style=""font-size:60px;"">+</div>","null","fixation","","","","","","","","","59","","",""
"revaluation","182","1075505","0.0-4.0-2.0-0.30","spark_pilot_norest","8607","3","13","Male","","false","","","","","[474.2999999523163,215.70000004768372]","./assets/img/ocean/memory/34.jpg","[""ArrowDown"",""ArrowRight""]","value training","ocean","30","{""ArrowUp,ArrowLeft"":23,""ArrowUp,ArrowRight"":10,""ArrowDown,ArrowLeft"":8,""ArrowDown,ArrowRight"":30}","true","ArrowDown,ArrowRight","false","original","1","60","","",""
"html-keyboard-response","183","1076006","0.0-4.0-2.0-1.30","spark_pilot_norest","8607","3","13","Male","","","","","","","null","<div style=""font-size:60px;"">+</div>","null","fixation","","","","","","","","","61","","",""
"revaluation","184","1082012","0.0-4.0-2.0-0.31","spark_pilot_norest","8607","3","13","Male","","false","","","","","[356.39999985694885,123.59999990463257]","./assets/img/ocean/memory/2.jpg","[""ArrowDown"",""ArrowRight""]","value training","ocean","30","{""ArrowUp,ArrowLeft"":23,""ArrowUp,ArrowRight"":10,""ArrowDown,ArrowLeft"":8,""ArrowDown,ArrowRight"":30}","true","ArrowDown,ArrowRight","false","original","1","62","","",""
"html-keyboard-response","185","1082515","0.0-4.0-2.0-1.31","spark_pilot_norest","8607","3","13","Male","","","","","","","null","<div style=""font-size:60px;"">+</div>","null","fixation","","","","","","","","","63","","",""
"revaluation","186","1088535","0.0-4.0-2.0-0.32","spark_pilot_norest","8607","3","13","Male","","false","","","","","[466.2999999523163,78.70000004768372]","./assets/img/ocean/memory/26.jpg","[""ArrowDown"",""ArrowRight""]","value training","ocean","30","{""ArrowUp,ArrowLeft"":23,""ArrowUp,ArrowRight"":10,""ArrowDown,ArrowLeft"":8,""ArrowDown,ArrowRight"":30}","true","ArrowDown,ArrowRight","false","original","1","64","","",""
"html-keyboard-response","187","1089036","0.0-4.0-2.0-1.32","spark_pilot_norest","8607","3","13","Male","","","","","","","null","<div style=""font-size:60px;"">+</div>","null","fixation","","","","","","","","","65","","",""
"revaluation","188","1095043","0.0-4.0-2.0-0.33","spark_pilot_norest","8607","3","13","Male","","false","","","","","[641.1000001430511,421.2000000476837]","./assets/img/ocean/memory/14.jpg","[""ArrowDown"",""ArrowRight""]","value training","ocean","30","{""ArrowUp,ArrowLeft"":23,""ArrowUp,ArrowRight"":10,""ArrowDown,ArrowLeft"":8,""ArrowDown,ArrowRight"":30}","true","ArrowDown,ArrowRight","false","original","1","66","","",""
"html-keyboard-response","189","1095547","0.0-4.0-2.0-1.33","spark_pilot_norest","8607","3","13","Male","","","","","","","null","<div style=""font-size:60px;"">+</div>","null","fixation","","","","","","","","","67","","",""
"revaluation","190","1101555","0.0-4.0-2.0-0.34","spark_pilot_norest","8607","3","13","Male","","false","","","","","[841.7999999523163,152.89999985694885]","./assets/img/ocean/memory/4.jpg","[""ArrowDown"",""ArrowRight""]","value training","ocean","30","{""ArrowUp,ArrowLeft"":23,""ArrowUp,ArrowRight"":10,""ArrowDown,ArrowLeft"":8,""ArrowDown,ArrowRight"":30}","true","ArrowDown,ArrowRight","false","original","1","68","","",""
"html-keyboard-response","191","1102057","0.0-4.0-2.0-1.34","spark_pilot_norest","8607","3","13","Male","","","","","","","null","<div style=""font-size:60px;"">+</div>","null","fixation","","","","","","","","","69","","",""
"revaluation","192","1108063","0.0-4.0-2.0-0.35","spark_pilot_norest","8607","3","13","Male","","false","","","","","[542.0999999046326,129.89999985694885]","./assets/img/ocean/memory/31.jpg","[""ArrowDown"",""ArrowRight""]","value training","ocean","30","{""ArrowUp,ArrowLeft"":23,""ArrowUp,ArrowRight"":10,""ArrowDown,ArrowLeft"":8,""ArrowDown,ArrowRight"":30}","true","ArrowDown,ArrowRight","false","original","1","70","","",""
"html-keyboard-response","193","1108564","0.0-4.0-2.0-1.35","spark_pilot_norest","8607","3","13","Male","","","","","","","null","<div style=""font-size:60px;"">+</div>","null","fixation","","","","","","","","","71","","",""
"revaluation","194","1114570","0.0-4.0-2.0-0.36","spark_pilot_norest","8607","3","13","Male","","false","","","","","[517.7999999523163,5.599999904632568]","./assets/img/ocean/memory/29.jpg","[""ArrowDown"",""ArrowRight""]","value training","ocean","30","{""ArrowUp,ArrowLeft"":23,""ArrowUp,ArrowRight"":10,""ArrowDown,ArrowLeft"":8,""ArrowDown,ArrowRight"":30}","true","ArrowDown,ArrowRight","false","original","1","72","","",""
"html-keyboard-response","195","1115072","0.0-4.0-2.0-1.36","spark_pilot_norest","8607","3","13","Male","","","","","","","null","<div style=""font-size:60px;"">+</div>","null","fixation","","","","","","","","","73","","",""
"revaluation","196","1119078","0.0-4.0-2.0-0.37","spark_pilot_norest","8607","3","13","Male","","false","","","","","[497.39999985694885]","./assets/img/ocean/catch/1.jpg","[""spaceBar""]","value training","ocean","0","{""ArrowUp,ArrowLeft"":23,""ArrowUp,ArrowRight"":10,""ArrowDown,ArrowLeft"":8,""ArrowDown,ArrowRight"":30}","true","spaceBar","true","original","1","74","","",""
"html-keyboard-response","197","1119579","0.0-4.0-2.0-1.37","spark_pilot_norest","8607","3","13","Male","","","","","","","null","<div style=""font-size:60px;"">+</div>","null","fixation","","","","","","","","","75","","",""
"revaluation","198","1125585","0.0-4.0-2.0-0.38","spark_pilot_norest","8607","3","13","Male","","false","","","","","[458.2999999523163,93.19999980926514]","./assets/img/ocean/memory/7.jpg","[""ArrowDown"",""ArrowRight""]","value training","ocean","30","{""ArrowUp,ArrowLeft"":23,""ArrowUp,ArrowRight"":10,""ArrowDown,ArrowLeft"":8,""ArrowDown,ArrowRight"":30}","true","ArrowDown,ArrowRight","false","original","1","76","","",""
"html-keyboard-response","199","1126087","0.0-4.0-2.0-1.38","spark_pilot_norest","8607","3","13","Male","","","","","","","null","<div style=""font-size:60px;"">+</div>","null","fixation","","","","","","","","","77","","",""
"revaluation","200","1132094","0.0-4.0-2.0-0.39","spark_pilot_norest","8607","3","13","Male","","false","","","","","[435,92.80000019073486]","./assets/img/ocean/memory/13.jpg","[""ArrowDown"",""ArrowRight""]","value training","ocean","30","{""ArrowUp,ArrowLeft"":23,""ArrowUp,ArrowRight"":10,""ArrowDown,ArrowLeft"":8,""ArrowDown,ArrowRight"":30}","true","ArrowDown,ArrowRight","false","original","1","78","","",""
"html-keyboard-response","201","1132597","0.0-4.0-2.0-1.39","spark_pilot_norest","8607","3","13","Male","","","","","","","null","<div style=""font-size:60px;"">+</div>","null","fixation","","","","","","","","","79","","",""
"revaluation","202","1138603","0.0-4.0-2.0-0.40","spark_pilot_norest","8607","3","13","Male","","false","","","","","[70.19999980926514,292.2000000476837]","./assets/img/ocean/memory/38.jpg","[""ArrowDown"",""ArrowRight""]","value training","ocean","30","{""ArrowUp,ArrowLeft"":23,""ArrowUp,ArrowRight"":10,""ArrowDown,ArrowLeft"":8,""ArrowDown,ArrowRight"":30}","true","ArrowDown,ArrowRight","false","original","1","80","","",""
"html-keyboard-response","203","1139104","0.0-4.0-2.0-1.40","spark_pilot_norest","8607","3","13","Male","","","","","","","null","<div style=""font-size:60px;"">+</div>","null","fixation","","","","","","","","","81","","",""
"revaluation","204","1145112","0.0-4.0-2.0-0.41","spark_pilot_norest","8607","3","13","Male","","false","","","","","[61.200000047683716,420]","./assets/img/ocean/memory/3.jpg","[""ArrowDown"",""ArrowRight""]","value training","ocean","30","{""ArrowUp,ArrowLeft"":23,""ArrowUp,ArrowRight"":10,""ArrowDown,ArrowLeft"":8,""ArrowDown,ArrowRight"":30}","true","ArrowDown,ArrowRight","false","original","1","82","","",""
"html-keyboard-response","205","1145613","0.0-4.0-2.0-1.41","spark_pilot_norest","8607","3","13","Male","","","","","","","null","<div style=""font-size:60px;"">+</div>","null","fixation","","","","","","","","","83","","",""
"revaluation","206","1151619","0.0-4.0-2.0-0.42","spark_pilot_norest","8607","3","13","Male","","false","","","","","[446.59999990463257,229]","./assets/img/ocean/memory/6.jpg","[""ArrowDown"",""ArrowRight""]","value training","ocean","30","{""ArrowUp,ArrowLeft"":23,""ArrowUp,ArrowRight"":10,""ArrowDown,ArrowLeft"":8,""ArrowDown,ArrowRight"":30}","true","ArrowDown,ArrowRight","false","original","1","84","","",""
"html-keyboard-response","207","1152120","0.0-4.0-2.0-1.42","spark_pilot_norest","8607","3","13","Male","","","","","","","null","<div style=""font-size:60px;"">+</div>","null","fixation","","","","","","","","","85","","",""
"revaluation","208","1158126","0.0-4.0-2.0-0.43","spark_pilot_norest","8607","3","13","Male","","false","","","","","[563.9000000953674,305.10000014305115]","./assets/img/ocean/memory/41.jpg","[""ArrowDown"",""ArrowRight""]","value training","ocean","30","{""ArrowUp,ArrowLeft"":23,""ArrowUp,ArrowRight"":10,""ArrowDown,ArrowLeft"":8,""ArrowDown,ArrowRight"":30}","true","ArrowDown,ArrowRight","false","original","1","86","","",""
"html-keyboard-response","209","1158628","0.0-4.0-2.0-1.43","spark_pilot_norest","8607","3","13","Male","","","","","","","null","<div style=""font-size:60px;"">+</div>","null","fixation","","","","","","","","","87","","",""
"revaluation","210","1164634","0.0-4.0-2.0-0.44","spark_pilot_norest","8607","3","13","Male","","false","","","","","[360.7000000476837,513.7999999523163]","./assets/img/ocean/memory/35.jpg","[""ArrowDown"",""ArrowRight""]","value training","ocean","30","{""ArrowUp,ArrowLeft"":23,""ArrowUp,ArrowRight"":10,""ArrowDown,ArrowLeft"":8,""ArrowDown,ArrowRight"":30}","true","ArrowDown,ArrowRight","false","original","1","88","","",""
"html-keyboard-response","211","1165136","0.0-4.0-2.0-1.44","spark_pilot_norest","8607","3","13","Male","","","","","","","null","<div style=""font-size:60px;"">+</div>","null","fixation","","","","","","","","","89","","",""
"revaluation","212","1171142","0.0-4.0-2.0-0.45","spark_pilot_norest","8607","3","13","Male","","false","","","","","[407.2999999523163,244.20000004768372]","./assets/img/ocean/memory/13.jpg","[""ArrowDown"",""ArrowRight""]","value training","ocean","30","{""ArrowUp,ArrowLeft"":23,""ArrowUp,ArrowRight"":10,""ArrowDown,ArrowLeft"":8,""ArrowDown,ArrowRight"":30}","true","ArrowDown,ArrowRight","false","original","1","90","","",""
"html-keyboard-response","213","1171644","0.0-4.0-2.0-1.45","spark_pilot_norest","8607","3","13","Male","","","","","","","null","<div style=""font-size:60px;"">+</div>","null","fixation","","","","","","","","","91","","",""
"revaluation","214","1175649","0.0-4.0-2.0-0.46","spark_pilot_norest","8607","3","13","Male","","false","","","","","[291.89999985694885]","./assets/img/ocean/catch/7.jpg","[""ArrowDown""]","value training","ocean","-10","{""ArrowUp,ArrowLeft"":23,""ArrowUp,ArrowRight"":10,""ArrowDown,ArrowLeft"":8,""ArrowDown,ArrowRight"":30}","false","ArrowDown","true","original","1","92","","",""
"html-keyboard-response","215","1176151","0.0-4.0-2.0-1.46","spark_pilot_norest","8607","3","13","Male","","","","","","","null","<div style=""font-size:60px;"">+</div>","null","fixation","","","","","","","","","93","","",""
"revaluation","216","1182159","0.0-4.0-2.0-0.47","spark_pilot_norest","8607","3","13","Male","","false","","","","","[521.9000000953674,127]","./assets/img/ocean/memory/26.jpg","[""ArrowDown"",""ArrowRight""]","value training","ocean","30","{""ArrowUp,ArrowLeft"":23,""ArrowUp,ArrowRight"":10,""ArrowDown,ArrowLeft"":8,""ArrowDown,ArrowRight"":30}","true","ArrowDown,ArrowRight","false","original","1","94","","",""
"html-keyboard-response","217","1182661","0.0-4.0-2.0-1.47","spark_pilot_norest","8607","3","13","Male","","","","","","","null","<div style=""font-size:60px;"">+</div>","null","fixation","","","","","","","","","95","","",""
"revaluation","218","1188667","0.0-4.0-2.0-0.48","spark_pilot_norest","8607","3","13","Male","","false","","","","","[154,25.5]","./assets/img/ocean/memory/23.jpg","[""ArrowDown"",""ArrowRight""]","value training","ocean","30","{""ArrowUp,ArrowLeft"":23,""ArrowUp,ArrowRight"":10,""ArrowDown,ArrowLeft"":8,""ArrowDown,ArrowRight"":30}","true","ArrowDown,ArrowRight","false","original","1","96","","",""
"html-keyboard-response","219","1189169","0.0-4.0-2.0-1.48","spark_pilot_norest","8607","3","13","Male","","","","","","","null","<div style=""font-size:60px;"">+</div>","null","fixation","","","","","","","","","97","","",""
"revaluation","220","1195176","0.0-4.0-2.0-0.49","spark_pilot_norest","8607","3","13","Male","","false","","","","","[80.69999980926514,120]","./assets/img/ocean/memory/7.jpg","[""ArrowDown"",""ArrowRight""]","value training","ocean","30","{""ArrowUp,ArrowLeft"":23,""ArrowUp,ArrowRight"":10,""ArrowDown,ArrowLeft"":8,""ArrowDown,ArrowRight"":30}","true","ArrowDown,ArrowRight","false","original","1","98","","",""
"html-keyboard-response","221","1195677","0.0-4.0-2.0-1.49","spark_pilot_norest","8607","3","13","Male","","","","","","","null","<div style=""font-size:60px;"">+</div>","null","fixation","","","","","","","","","99","","",""
"learning-instructions","222","1210806","0.0-4.0-3.0-0.0","spark_pilot_norest","8607","3","13","Male","","","","","","","1793.3000001907349","<p> Now, you will travel with a friend who will choose whether you go up or down first. </p>
            <p> On these turns, you will just see the animal that they found. You will still get to choose which chest to search for treasure.</p>","","instructions","","","","","","","","","","","",""
"revaluation","223","1214815","0.0-4.0-4.0-0.0","spark_pilot_norest","8607","3","13","Male","","false","","","","","[1745.8999998569489]","./assets/img/ocean/animals/seahorse.jpg","[""ArrowRight""]","revaluation","ocean","30","{""ArrowUp,ArrowLeft"":23,""ArrowUp,ArrowRight"":10,""ArrowDown,ArrowLeft"":8,""ArrowDown,ArrowRight"":30}","true","ArrowDown,ArrowRight","","original","1","0","","",""
"html-keyboard-response","224","1215327","0.0-4.0-4.0-1.0","spark_pilot_norest","8607","3","13","Male","","","","","","","null","<div style=""font-size:60px;"">+</div>","null","fixation","","","","","","","","","1","","",""
"revaluation","225","1219345","0.0-4.0-4.0-0.1","spark_pilot_norest","8607","3","13","Male","","false","","","","","[529.7999999523163]","./assets/img/ocean/animals/seahorse.jpg","[""ArrowRight""]","revaluation","ocean","30","{""ArrowUp,ArrowLeft"":23,""ArrowUp,ArrowRight"":10,""ArrowDown,ArrowLeft"":8,""ArrowDown,ArrowRight"":30}","true","ArrowDown,ArrowRight","","original","1","2","","",""
"html-keyboard-response","226","1219861","0.0-4.0-4.0-1.1","spark_pilot_norest","8607","3","13","Male","","","","","","","null","<div style=""font-size:60px;"">+</div>","null","fixation","","","","","","","","","3","","",""
"revaluation","227","1223873","0.0-4.0-4.0-0.2","spark_pilot_norest","8607","3","13","Male","","false","","","","","[1053.9000000953674]","./assets/img/ocean/animals/octopus.jpg","[""ArrowRight""]","revaluation","ocean","10","{""ArrowUp,ArrowLeft"":23,""ArrowUp,ArrowRight"":10,""ArrowDown,ArrowLeft"":8,""ArrowDown,ArrowRight"":30}","false","ArrowUp,ArrowRight","","original","1","4","","",""
"html-keyboard-response","228","1224375","0.0-4.0-4.0-1.2","spark_pilot_norest","8607","3","13","Male","","","","","","","null","<div style=""font-size:60px;"">+</div>","null","fixation","","","","","","","","","5","","",""
"revaluation","229","1228386","0.0-4.0-4.0-0.3","spark_pilot_norest","8607","3","13","Male","","false","","","","","[677.5999999046326]","./assets/img/ocean/animals/seahorse.jpg","[""ArrowRight""]","revaluation","ocean","30","{""ArrowUp,ArrowLeft"":23,""ArrowUp,ArrowRight"":10,""ArrowDown,ArrowLeft"":8,""ArrowDown,ArrowRight"":30}","true","ArrowDown,ArrowRight","","original","1","6","","",""
"html-keyboard-response","230","1228905","0.0-4.0-4.0-1.3","spark_pilot_norest","8607","3","13","Male","","","","","","","null","<div style=""font-size:60px;"">+</div>","null","fixation","","","","","","","","","7","","",""
"revaluation","231","1232927","0.0-4.0-4.0-0.4","spark_pilot_norest","8607","3","13","Male","","false","","","","","[654]","./assets/img/ocean/animals/seahorse.jpg","[""ArrowRight""]","revaluation","ocean","30","{""ArrowUp,ArrowLeft"":23,""ArrowUp,ArrowRight"":10,""ArrowDown,ArrowLeft"":8,""ArrowDown,ArrowRight"":30}","true","ArrowDown,ArrowRight","","original","1","8","","",""
"html-keyboard-response","232","1233449","0.0-4.0-4.0-1.4","spark_pilot_norest","8607","3","13","Male","","","","","","","null","<div style=""font-size:60px;"">+</div>","null","fixation","","","","","","","","","9","","",""
"revaluation","233","1237471","0.0-4.0-4.0-0.5","spark_pilot_norest","8607","3","13","Male","","false","","","","","[376.7000000476837]","./assets/img/ocean/animals/octopus.jpg","[""ArrowLeft""]","revaluation","ocean","23","{""ArrowUp,ArrowLeft"":23,""ArrowUp,ArrowRight"":10,""ArrowDown,ArrowLeft"":8,""ArrowDown,ArrowRight"":30}","true","ArrowUp,ArrowLeft","","original","1","10","","",""
"html-keyboard-response","234","1237993","0.0-4.0-4.0-1.5","spark_pilot_norest","8607","3","13","Male","","","","","","","null","<div style=""font-size:60px;"">+</div>","null","fixation","","","","","","","","","11","","",""
"revaluation","235","1242000","0.0-4.0-4.0-0.6","spark_pilot_norest","8607","3","13","Male","","false","","","","","[292.89999985694885]","./assets/img/ocean/animals/seahorse.jpg","[""ArrowRight""]","revaluation","ocean","30","{""ArrowUp,ArrowLeft"":23,""ArrowUp,ArrowRight"":10,""ArrowDown,ArrowLeft"":8,""ArrowDown,ArrowRight"":30}","true","ArrowDown,ArrowRight","","original","1","12","","",""
"html-keyboard-response","236","1242501","0.0-4.0-4.0-1.6","spark_pilot_norest","8607","3","13","Male","","","","","","","null","<div style=""font-size:60px;"">+</div>","null","fixation","","","","","","","","","13","","",""
"revaluation","237","1246508","0.0-4.0-4.0-0.7","spark_pilot_norest","8607","3","13","Male","","false","","","","","[318.90000009536743]","./assets/img/ocean/animals/seahorse.jpg","[""ArrowRight""]","revaluation","ocean","30","{""ArrowUp,ArrowLeft"":23,""ArrowUp,ArrowRight"":10,""ArrowDown,ArrowLeft"":8,""ArrowDown,ArrowRight"":30}","true","ArrowDown,ArrowRight","","original","1","14","","",""
"html-keyboard-response","238","1247010","0.0-4.0-4.0-1.7","spark_pilot_norest","8607","3","13","Male","","","","","","","null","<div style=""font-size:60px;"">+</div>","null","fixation","","","","","","","","","15","","",""
"revaluation","239","1251015","0.0-4.0-4.0-0.8","spark_pilot_norest","8607","3","13","Male","","false","","","","","[534.3999998569489]","./assets/img/ocean/animals/octopus.jpg","[""ArrowLeft""]","revaluation","ocean","23","{""ArrowUp,ArrowLeft"":23,""ArrowUp,ArrowRight"":10,""ArrowDown,ArrowLeft"":8,""ArrowDown,ArrowRight"":30}","true","ArrowUp,ArrowLeft","","original","1","16","","",""
"html-keyboard-response","240","1251517","0.0-4.0-4.0-1.8","spark_pilot_norest","8607","3","13","Male","","","","","","","null","<div style=""font-size:60px;"">+</div>","null","fixation","","","","","","","","","17","","",""
"revaluation","241","1255523","0.0-4.0-4.0-0.9","spark_pilot_norest","8607","3","13","Male","","false","","","","","[366.09999990463257]","./assets/img/ocean/animals/octopus.jpg","[""ArrowRight""]","revaluation","ocean","10","{""ArrowUp,ArrowLeft"":23,""ArrowUp,ArrowRight"":10,""ArrowDown,ArrowLeft"":8,""ArrowDown,ArrowRight"":30}","false","ArrowUp,ArrowRight","","original","1","18","","",""
"html-keyboard-response","242","1256025","0.0-4.0-4.0-1.9","spark_pilot_norest","8607","3","13","Male","","","","","","","null","<div style=""font-size:60px;"">+</div>","null","fixation","","","","","","","","","19","","",""
"revaluation","243","1260031","0.0-4.0-4.0-0.10","spark_pilot_norest","8607","3","13","Male","","false","","","","","[679]","./assets/img/ocean/animals/octopus.jpg","[""ArrowLeft""]","revaluation","ocean","23","{""ArrowUp,ArrowLeft"":23,""ArrowUp,ArrowRight"":10,""ArrowDown,ArrowLeft"":8,""ArrowDown,ArrowRight"":30}","true","ArrowUp,ArrowLeft","","original","1","20","","",""
"html-keyboard-response","244","1260531","0.0-4.0-4.0-1.10","spark_pilot_norest","8607","3","13","Male","","","","","","","null","<div style=""font-size:60px;"">+</div>","null","fixation","","","","","","","","","21","","",""
"revaluation","245","1264537","0.0-4.0-4.0-0.11","spark_pilot_norest","8607","3","13","Male","","false","","","","","[374.59999990463257]","./assets/img/ocean/animals/octopus.jpg","[""ArrowLeft""]","revaluation","ocean","23","{""ArrowUp,ArrowLeft"":23,""ArrowUp,ArrowRight"":10,""ArrowDown,ArrowLeft"":8,""ArrowDown,ArrowRight"":30}","true","ArrowUp,ArrowLeft","","original","1","22","","",""
"html-keyboard-response","246","1265039","0.0-4.0-4.0-1.11","spark_pilot_norest","8607","3","13","Male","","","","","","","null","<div style=""font-size:60px;"">+</div>","null","fixation","","","","","","","","","23","","",""
"revaluation","247","1269044","0.0-4.0-4.0-0.12","spark_pilot_norest","8607","3","13","Male","","false","","","","","[571]","./assets/img/ocean/animals/seahorse.jpg","[""ArrowRight""]","revaluation","ocean","30","{""ArrowUp,ArrowLeft"":23,""ArrowUp,ArrowRight"":10,""ArrowDown,ArrowLeft"":8,""ArrowDown,ArrowRight"":30}","true","ArrowDown,ArrowRight","","original","1","24","","",""
"html-keyboard-response","248","1269545","0.0-4.0-4.0-1.12","spark_pilot_norest","8607","3","13","Male","","","","","","","null","<div style=""font-size:60px;"">+</div>","null","fixation","","","","","","","","","25","","",""
"revaluation","249","1273551","0.0-4.0-4.0-0.13","spark_pilot_norest","8607","3","13","Male","","false","","","","","[466.90000009536743]","./assets/img/ocean/animals/seahorse.jpg","[""ArrowLeft""]","revaluation","ocean","8","{""ArrowUp,ArrowLeft"":23,""ArrowUp,ArrowRight"":10,""ArrowDown,ArrowLeft"":8,""ArrowDown,ArrowRight"":30}","false","ArrowDown,ArrowLeft","","original","1","26","","",""
"html-keyboard-response","250","1274053","0.0-4.0-4.0-1.13","spark_pilot_norest","8607","3","13","Male","","","","","","","null","<div style=""font-size:60px;"">+</div>","null","fixation","","","","","","","","","27","","",""
"revaluation","251","1278059","0.0-4.0-4.0-0.14","spark_pilot_norest","8607","3","13","Male","","false","","","","","[448.59999990463257]","./assets/img/ocean/animals/octopus.jpg","[""ArrowRight""]","revaluation","ocean","10","{""ArrowUp,ArrowLeft"":23,""ArrowUp,ArrowRight"":10,""ArrowDown,ArrowLeft"":8,""ArrowDown,ArrowRight"":30}","false","ArrowUp,ArrowRight","","original","1","28","","",""
"html-keyboard-response","252","1278562","0.0-4.0-4.0-1.14","spark_pilot_norest","8607","3","13","Male","","","","","","","null","<div style=""font-size:60px;"">+</div>","null","fixation","","","","","","","","","29","","",""
"revaluation","253","1282566","0.0-4.0-4.0-0.15","spark_pilot_norest","8607","3","13","Male","","false","","","","","[530.1000001430511]","./assets/img/ocean/animals/octopus.jpg","[""ArrowLeft""]","revaluation","ocean","23","{""ArrowUp,ArrowLeft"":23,""ArrowUp,ArrowRight"":10,""ArrowDown,ArrowLeft"":8,""ArrowDown,ArrowRight"":30}","true","ArrowUp,ArrowLeft","","original","1","30","","",""
"html-keyboard-response","254","1283068","0.0-4.0-4.0-1.15","spark_pilot_norest","8607","3","13","Male","","","","","","","null","<div style=""font-size:60px;"">+</div>","null","fixation","","","","","","","","","31","","",""
"revaluation","255","1287074","0.0-4.0-4.0-0.16","spark_pilot_norest","8607","3","13","Male","","false","","","","","[613.3999998569489]","./assets/img/ocean/animals/seahorse.jpg","[""ArrowRight""]","revaluation","ocean","30","{""ArrowUp,ArrowLeft"":23,""ArrowUp,ArrowRight"":10,""ArrowDown,ArrowLeft"":8,""ArrowDown,ArrowRight"":30}","true","ArrowDown,ArrowRight","","original","1","32","","",""
"html-keyboard-response","256","1287576","0.0-4.0-4.0-1.16","spark_pilot_norest","8607","3","13","Male","","","","","","","null","<div style=""font-size:60px;"">+</div>","null","fixation","","","","","","","","","33","","",""
"revaluation","257","1291581","0.0-4.0-4.0-0.17","spark_pilot_norest","8607","3","13","Male","","false","","","","","[581.3999998569489]","./assets/img/ocean/animals/octopus.jpg","[""ArrowLeft""]","revaluation","ocean","23","{""ArrowUp,ArrowLeft"":23,""ArrowUp,ArrowRight"":10,""ArrowDown,ArrowLeft"":8,""ArrowDown,ArrowRight"":30}","true","ArrowUp,ArrowLeft","","original","1","34","","",""
"html-keyboard-response","258","1292082","0.0-4.0-4.0-1.17","spark_pilot_norest","8607","3","13","Male","","","","","","","null","<div style=""font-size:60px;"">+</div>","null","fixation","","","","","","","","","35","","",""
"learning-instructions","259","1300658","0.0-4.0-5.0-0.0","spark_pilot_norest","8607","3","13","Male","","","","","","","null","<p> You have almost finished this part of the game! </p>
            <p> We are going to ask you to make a few more choices. </p>","","instructions","","","","","","","","","","","",""
"learning-instructions","260","1316644","0.0-4.0-5.0-0.1","spark_pilot_norest","8607","3","13","Male","","","","","","","null","<p> First, you need to decide whether to go up or down. When you see each picture, use the arrow keys to make your choice. </p>
            <p><b>You will not see which animal you found, but try to get to the one that will give you the most treasure.</b></p>","","instructions","","","","","","","","","","","",""
"html-keyboard-response","261","1317647","0.0-4.0-6.0-0.0","spark_pilot_norest","8607","3","13","Male","","","","","","","null","<div style=""font-size:100px;color:red;"">Starting in...</div>","null","","","","","","","","","","","","",""
"html-keyboard-response","262","1318648","0.0-4.0-6.0-1.0","spark_pilot_norest","8607","3","13","Male","","","","","","","null","<div style=""font-size:200px;color:red;"">3</div>","null","","","","","","","","","","","","",""
"html-keyboard-response","263","1319667","0.0-4.0-6.0-2.0","spark_pilot_norest","8607","3","13","Male","","","","","","","null","<div style=""font-size:200px;color:red;"">2</div>","null","","","","","","","","","","","","",""
"html-keyboard-response","264","1320670","0.0-4.0-6.0-3.0","spark_pilot_norest","8607","3","13","Male","","","","","","","null","<div style=""font-size:200px;color:red;"">1</div>","null","","","","","","","","","","","","",""
"revaluation","265","1321061","0.0-4.0-7.0-0.0","spark_pilot_norest","8607","3","13","Male","","false","","","","","[388]","./assets/img/ocean/test/3.jpg","[""ArrowUp""]","first stage test","ocean","0","{""ArrowUp,ArrowLeft"":23,""ArrowUp,ArrowRight"":10,""ArrowDown,ArrowLeft"":8,""ArrowDown,ArrowRight"":30}","false","ArrowUp","false","original","1","","","",""
"html-keyboard-response","266","1321576","0.0-4.0-7.0-1.0","spark_pilot_norest","8607","3","13","Male","","","","","","","null","<div style=""font-size:60px;"">+</div>","null","fixation","","","","","","","","","","","",""
"revaluation","267","1322046","0.0-4.0-7.0-0.1","spark_pilot_norest","8607","3","13","Male","","false","","","","","[466.5]","./assets/img/ocean/test/2.jpg","[""ArrowUp""]","first stage test","ocean","0","{""ArrowUp,ArrowLeft"":23,""ArrowUp,ArrowRight"":10,""ArrowDown,ArrowLeft"":8,""ArrowDown,ArrowRight"":30}","false","ArrowUp","false","original","1","","","",""
"html-keyboard-response","268","1322557","0.0-4.0-7.0-1.1","spark_pilot_norest","8607","3","13","Male","","","","","","","null","<div style=""font-size:60px;"">+</div>","null","fixation","","","","","","","","","","","",""
"revaluation","269","1323247","0.0-4.0-7.0-0.2","spark_pilot_norest","8607","3","13","Male","","false","","","","","[686.7999999523163]","./assets/img/ocean/test/0.jpg","[""ArrowUp""]","first stage test","ocean","0","{""ArrowUp,ArrowLeft"":23,""ArrowUp,ArrowRight"":10,""ArrowDown,ArrowLeft"":8,""ArrowDown,ArrowRight"":30}","false","ArrowUp","false","original","1","","","",""
"html-keyboard-response","270","1323762","0.0-4.0-7.0-1.2","spark_pilot_norest","8607","3","13","Male","","","","","","","null","<div style=""font-size:60px;"">+</div>","null","fixation","","","","","","","","","","","",""
"revaluation","271","1324186","0.0-4.0-7.0-0.3","spark_pilot_norest","8607","3","13","Male","","false","","","","","[420.59999990463257]","./assets/img/ocean/test/1.jpg","[""ArrowDown""]","first stage test","ocean","0","{""ArrowUp,ArrowLeft"":23,""ArrowUp,ArrowRight"":10,""ArrowDown,ArrowLeft"":8,""ArrowDown,ArrowRight"":30}","true","ArrowDown","false","original","1","","","",""
"html-keyboard-response","272","1324701","0.0-4.0-7.0-1.3","spark_pilot_norest","8607","3","13","Male","","","","","","","null","<div style=""font-size:60px;"">+</div>","null","fixation","","","","","","","","","","","",""
"learning-instructions","273","1338066","0.0-4.0-8.0-0.0","spark_pilot_norest","8607","3","13","Male","","","","","","","null","<p> Now you will see the animals again and can search their chests for treasure. </p>
            <p> This time, you will not see how much treasure you earned, but you will earn more bonus money for making better choices. </p>","","instructions","","","","","","","","","","","",""
"html-keyboard-response","274","1339069","0.0-4.0-9.0-0.0","spark_pilot_norest","8607","3","13","Male","","","","","","","null","<div style=""font-size:100px;color:red;"">Starting in...</div>","null","","","","","","","","","","","","",""
"html-keyboard-response","275","1340072","0.0-4.0-9.0-1.0","spark_pilot_norest","8607","3","13","Male","","","","","","","null","<div style=""font-size:200px;color:red;"">3</div>","null","","","","","","","","","","","","",""
"html-keyboard-response","276","1341074","0.0-4.0-9.0-2.0","spark_pilot_norest","8607","3","13","Male","","","","","","","null","<div style=""font-size:200px;color:red;"">2</div>","null","","","","","","","","","","","","",""
"html-keyboard-response","277","1342076","0.0-4.0-9.0-3.0","spark_pilot_norest","8607","3","13","Male","","","","","","","null","<div style=""font-size:200px;color:red;"">1</div>","null","","","","","","","","","","","","",""
"revaluation","278","1342405","0.0-4.0-10.0-0.0","spark_pilot_norest","8607","3","13","Male","","false","","","","","[324.90000009536743]","./assets/img/ocean/animals/octopus.jpg","[""ArrowRight""]","second stage test","ocean","0","{""ArrowUp,ArrowLeft"":23,""ArrowUp,ArrowRight"":10,""ArrowDown,ArrowLeft"":8,""ArrowDown,ArrowRight"":30}","false","ArrowUp,ArrowRight","","original","1","","","",""
"html-keyboard-response","279","1342920","0.0-4.0-10.0-1.0","spark_pilot_norest","8607","3","13","Male","","","","","","","null","<div style=""font-size:60px;"">+</div>","null","fixation","","","","","","","","","","","",""
"revaluation","280","1343216","0.0-4.0-10.0-0.1","spark_pilot_norest","8607","3","13","Male","","false","","","","","[292.7000000476837]","./assets/img/ocean/animals/octopus.jpg","[""ArrowLeft""]","second stage test","ocean","0","{""ArrowUp,ArrowLeft"":23,""ArrowUp,ArrowRight"":10,""ArrowDown,ArrowLeft"":8,""ArrowDown,ArrowRight"":30}","true","ArrowUp,ArrowLeft","","original","1","","","",""
"html-keyboard-response","281","1343720","0.0-4.0-10.0-1.1","spark_pilot_norest","8607","3","13","Male","","","","","","","null","<div style=""font-size:60px;"">+</div>","null","fixation","","","","","","","","","","","",""
"revaluation","282","1343944","0.0-4.0-10.0-0.2","spark_pilot_norest","8607","3","13","Male","","false","","","","","[219.5]","./assets/img/ocean/animals/octopus.jpg","[""ArrowRight""]","second stage test","ocean","0","{""ArrowUp,ArrowLeft"":23,""ArrowUp,ArrowRight"":10,""ArrowDown,ArrowLeft"":8,""ArrowDown,ArrowRight"":30}","false","ArrowUp,ArrowRight","","original","1","","","",""
"html-keyboard-response","283","1344466","0.0-4.0-10.0-1.2","spark_pilot_norest","8607","3","13","Male","","","","","","","null","<div style=""font-size:60px;"">+</div>","null","fixation","","","","","","","","","","","",""
"revaluation","284","1344742","0.0-4.0-10.0-0.3","spark_pilot_norest","8607","3","13","Male","","false","","","","","[271.89999985694885]","./assets/img/ocean/animals/octopus.jpg","[""ArrowLeft""]","second stage test","ocean","0","{""ArrowUp,ArrowLeft"":23,""ArrowUp,ArrowRight"":10,""ArrowDown,ArrowLeft"":8,""ArrowDown,ArrowRight"":30}","true","ArrowUp,ArrowLeft","","original","1","","","",""
"html-keyboard-response","285","1345245","0.0-4.0-10.0-1.3","spark_pilot_norest","8607","3","13","Male","","","","","","","null","<div style=""font-size:60px;"">+</div>","null","fixation","","","","","","","","","","","",""
"revaluation","286","1345480","0.0-4.0-10.0-0.4","spark_pilot_norest","8607","3","13","Male","","false","","","","","[231.79999995231628]","./assets/img/ocean/animals/seahorse.jpg","[""ArrowRight""]","second stage test","ocean","0","{""ArrowUp,ArrowLeft"":23,""ArrowUp,ArrowRight"":10,""ArrowDown,ArrowLeft"":8,""ArrowDown,ArrowRight"":30}","true","ArrowDown,ArrowRight","","original","1","","","",""
"html-keyboard-response","287","1345991","0.0-4.0-10.0-1.4","spark_pilot_norest","8607","3","13","Male","","","","","","","null","<div style=""font-size:60px;"">+</div>","null","fixation","","","","","","","","","","","",""
"revaluation","288","1346214","0.0-4.0-10.0-0.5","spark_pilot_norest","8607","3","13","Male","","false","","","","","[219.10000014305115]","./assets/img/ocean/animals/seahorse.jpg","[""ArrowLeft""]","second stage test","ocean","0","{""ArrowUp,ArrowLeft"":23,""ArrowUp,ArrowRight"":10,""ArrowDown,ArrowLeft"":8,""ArrowDown,ArrowRight"":30}","false","ArrowDown,ArrowLeft","","original","1","","","",""
"html-keyboard-response","289","1346721","0.0-4.0-10.0-1.5","spark_pilot_norest","8607","3","13","Male","","","","","","","null","<div style=""font-size:60px;"">+</div>","null","fixation","","","","","","","","","","","",""
"revaluation","290","1346931","0.0-4.0-10.0-0.6","spark_pilot_norest","8607","3","13","Male","","false","","","","","[205]","./assets/img/ocean/animals/seahorse.jpg","[""ArrowRight""]","second stage test","ocean","0","{""ArrowUp,ArrowLeft"":23,""ArrowUp,ArrowRight"":10,""ArrowDown,ArrowLeft"":8,""ArrowDown,ArrowRight"":30}","true","ArrowDown,ArrowRight","","original","1","","","",""
"html-keyboard-response","291","1347453","0.0-4.0-10.0-1.6","spark_pilot_norest","8607","3","13","Male","","","","","","","null","<div style=""font-size:60px;"">+</div>","null","fixation","","","","","","","","","","","",""
"revaluation","292","1347665","0.0-4.0-10.0-0.7","spark_pilot_norest","8607","3","13","Male","","false","","","","","[208.60000014305115]","./assets/img/ocean/animals/seahorse.jpg","[""ArrowLeft""]","second stage test","ocean","0","{""ArrowUp,ArrowLeft"":23,""ArrowUp,ArrowRight"":10,""ArrowDown,ArrowLeft"":8,""ArrowDown,ArrowRight"":30}","false","ArrowDown,ArrowLeft","","original","1","","","",""
"html-keyboard-response","293","1348167","0.0-4.0-10.0-1.7","spark_pilot_norest","8607","3","13","Male","","","","","","","null","<div style=""font-size:60px;"">+</div>","null","fixation","","","","","","","","","","","",""
"learning-instructions","294","1358239","0.0-4.0-0.1-0.2","spark_pilot_norest","8607","3","13","Male","","","","","","","7286.099999904633","<p> This time you are searching for treasure in the <b>canyon</b>.</p>","","instructions","","","","","","","","","","","",""
"learning-instructions","295","1376214","0.0-4.0-0.1-0.3","spark_pilot_norest","8607","3","13","Male","","","","","","","727.9000000953674","<p><b>New</b> animals with <b>new</b> treasure chests live here. You need to explore to discover where the animal with the best treasure chest is.</p>
                    <p> Like before, once you figure out which animal has the chest with the most treasure, you should try to get to that animal and select that chest! </p>","","instructions","","","","","","","","","","","",""
"learning-instructions","296","1391398","0.0-4.0-1.1-0.1","spark_pilot_norest","8607","3","13","Male","","","","","","","456.39999985694885","<p> Remember, when you see a picture of the place, use the up and down keys to <b>find an animal</b>.</p>
            <p> When you encounter an animal, you should use the left and right keys to <b>select a treasure chest</b>.</p>
            <p> Don't forget to look out for the robber! </p>","","instructions","","","","","","","","","","","",""
"revaluation","297","1397427","0.0-4.0-2.1-0.50","spark_pilot_norest","8607","3","13","Male","","false","","","","","[1322.3999998569489,1269.2999999523163]","./assets/img/canyon/memory/4.jpg","[""ArrowUp"",""ArrowRight""]","value training","canyon","10","{""ArrowUp,ArrowLeft"":26,""ArrowUp,ArrowRight"":10,""ArrowDown,ArrowLeft"":5,""ArrowDown,ArrowRight"":17}","false","ArrowUp,ArrowRight","false","revaluation","2","0","","",""
"html-keyboard-response","298","1397950","0.0-4.0-2.1-1.50","spark_pilot_norest","8607","3","13","Male","","","","","","","null","<div style=""font-size:60px;"">+</div>","null","fixation","","","","","","","","","1","","",""
"revaluation","299","1403965","0.0-4.0-2.1-0.51","spark_pilot_norest","8607","3","13","Male","","false","","","","","[347.7999999523163,252.40000009536743]","./assets/img/canyon/memory/3.jpg","[""ArrowUp"",""ArrowLeft""]","value training","canyon","26","{""ArrowUp,ArrowLeft"":26,""ArrowUp,ArrowRight"":10,""ArrowDown,ArrowLeft"":5,""ArrowDown,ArrowRight"":17}","true","ArrowUp,ArrowLeft","false","revaluation","2","2","","",""
"html-keyboard-response","300","1404482","0.0-4.0-2.1-1.51","spark_pilot_norest","8607","3","13","Male","","","","","","","null","<div style=""font-size:60px;"">+</div>","null","fixation","","","","","","","","","3","","",""
"revaluation","301","1408509","0.0-4.0-2.1-0.52","spark_pilot_norest","8607","3","13","Male","","false","","","","","[642.5999999046326]","./assets/img/canyon/catch/0.jpg","[""spaceBar""]","value training","canyon","0","{""ArrowUp,ArrowLeft"":26,""ArrowUp,ArrowRight"":10,""ArrowDown,ArrowLeft"":5,""ArrowDown,ArrowRight"":17}","true","spaceBar","true","revaluation","2","4","","",""
"html-keyboard-response","302","1409031","0.0-4.0-2.1-1.52","spark_pilot_norest","8607","3","13","Male","","","","","","","null","<div style=""font-size:60px;"">+</div>","null","fixation","","","","","","","","","5","","",""
"revaluation","303","1415059","0.0-4.0-2.1-0.53","spark_pilot_norest","8607","3","13","Male","","false","","","","","[371.90000009536743,475.10000014305115]","./assets/img/canyon/memory/2.jpg","[""ArrowDown"",""ArrowLeft""]","value training","canyon","5","{""ArrowUp,ArrowLeft"":26,""ArrowUp,ArrowRight"":10,""ArrowDown,ArrowLeft"":5,""ArrowDown,ArrowRight"":17}","false","ArrowDown,ArrowLeft","false","revaluation","2","6","","",""
"html-keyboard-response","304","1415570","0.0-4.0-2.1-1.53","spark_pilot_norest","8607","3","13","Male","","","","","","","null","<div style=""font-size:60px;"">+</div>","null","fixation","","","","","","","","","7","","",""
"revaluation","305","1421593","0.0-4.0-2.1-0.54","spark_pilot_norest","8607","3","13","Male","","false","","","","","[445.09999990463257,100.70000004768372]","./assets/img/canyon/memory/38.jpg","[""ArrowDown"",""ArrowRight""]","value training","canyon","17","{""ArrowUp,ArrowLeft"":26,""ArrowUp,ArrowRight"":10,""ArrowDown,ArrowLeft"":5,""ArrowDown,ArrowRight"":17}","false","ArrowDown,ArrowRight","false","revaluation","2","8","","",""
"html-keyboard-response","306","1422095","0.0-4.0-2.1-1.54","spark_pilot_norest","8607","3","13","Male","","","","","","","null","<div style=""font-size:60px;"">+</div>","null","fixation","","","","","","","","","9","","",""
"revaluation","307","1428103","0.0-4.0-2.1-0.55","spark_pilot_norest","8607","3","13","Male","","false","","","","","[389.40000009536743,93.5]","./assets/img/canyon/memory/35.jpg","[""ArrowUp"",""ArrowLeft""]","value training","canyon","26","{""ArrowUp,ArrowLeft"":26,""ArrowUp,ArrowRight"":10,""ArrowDown,ArrowLeft"":5,""ArrowDown,ArrowRight"":17}","true","ArrowUp,ArrowLeft","false","revaluation","2","10","","",""
"html-keyboard-response","308","1428605","0.0-4.0-2.1-1.55","spark_pilot_norest","8607","3","13","Male","","","","","","","null","<div style=""font-size:60px;"">+</div>","null","fixation","","","","","","","","","11","","",""
"revaluation","309","1434612","0.0-4.0-2.1-0.56","spark_pilot_norest","8607","3","13","Male","","false","","","","","[493.40000009536743,334.2000000476837]","./assets/img/canyon/memory/26.jpg","[""ArrowUp"",""ArrowLeft""]","value training","canyon","26","{""ArrowUp,ArrowLeft"":26,""ArrowUp,ArrowRight"":10,""ArrowDown,ArrowLeft"":5,""ArrowDown,ArrowRight"":17}","true","ArrowUp,ArrowLeft","false","revaluation","2","12","","",""
"html-keyboard-response","310","1435114","0.0-4.0-2.1-1.56","spark_pilot_norest","8607","3","13","Male","","","","","","","null","<div style=""font-size:60px;"">+</div>","null","fixation","","","","","","","","","13","","",""
"revaluation","311","1441119","0.0-4.0-2.1-0.57","spark_pilot_norest","8607","3","13","Male","","false","","","","","[319.40000009536743,374.7999999523163]","./assets/img/canyon/memory/6.jpg","[""ArrowUp"",""ArrowLeft""]","value training","canyon","26","{""ArrowUp,ArrowLeft"":26,""ArrowUp,ArrowRight"":10,""ArrowDown,ArrowLeft"":5,""ArrowDown,ArrowRight"":17}","true","ArrowUp,ArrowLeft","false","revaluation","2","14","","",""
"html-keyboard-response","312","1441621","0.0-4.0-2.1-1.57","spark_pilot_norest","8607","3","13","Male","","","","","","","null","<div style=""font-size:60px;"">+</div>","null","fixation","","","","","","","","","15","","",""
"revaluation","313","1447627","0.0-4.0-2.1-0.58","spark_pilot_norest","8607","3","13","Male","","false","","","","","[460.90000009536743,274.7999999523163]","./assets/img/canyon/memory/30.jpg","[""ArrowUp"",""ArrowLeft""]","value training","canyon","26","{""ArrowUp,ArrowLeft"":26,""ArrowUp,ArrowRight"":10,""ArrowDown,ArrowLeft"":5,""ArrowDown,ArrowRight"":17}","true","ArrowUp,ArrowLeft","false","revaluation","2","16","","",""
"html-keyboard-response","314","1448129","0.0-4.0-2.1-1.58","spark_pilot_norest","8607","3","13","Male","","","","","","","null","<div style=""font-size:60px;"">+</div>","null","fixation","","","","","","","","","17","","",""
