"trial_type","trial_index","time_elapsed","internal_node_id","task_version","subject_id","assigned_condition","age","gender","success","timeout","failed_images","failed_audio","failed_video","browser_interaction","value","rt","stimulus","response","task_part","environment","score","rewardMap","correct","fullState","isCatch","condition","order","trial_num","key_press","ground_truth","bonus"
"pavlovia","0","1519","0.0-0.0","spark_pilot_norest","9983","1","15","Female","","","","","","","","","","","","","","","","","","","","","","",""
"preload","1","17079","0.0-1.0","spark_pilot_norest","9983","1","15","Female","true","false","[]","[]","[]","[{""event"":""fullscreenenter"",""trial"":2,""time"":20599}]","","","","","","","","","","","","","","","","",""
"fullscreen","2","21565","0.0-2.0","spark_pilot_norest","9983","1","15","Female","true","","","","","","","","","","","","","","","","","","","","","",""
"call-function","3","23418","0.0-3.0","spark_pilot_norest","9983","1","15","Female","","","","","","","","","","","","","","","","","","","","","","",""
"audio-button-response","4","25147","0.0-4.0-0.0-0.0","spark_pilot_norest","9983","1","15","Female","","","","","","","","1693","./assets/audio/audiotest/turtle.mp3","2","audio_test","","","","","","","","","","","",""
"learning-instructions","5","37552","0.0-4.0-1.0-0.0","spark_pilot_norest","9983","1","15","Female","","","","","","","","5445","<p> Welcome! Please remember to stay in fullscreen mode and don't click away from the experiment. </p>","","instructions","","","","","","","","","","","",""
"learning-instructions","6","47727","0.0-4.0-1.0-0.1","spark_pilot_norest","9983","1","15","Female","","","","","","","","1787.0000000000073","<p> Today you will be playing a game to earn treasure. </p>
            <p> At the end of the experiment, you will earn a bonus based on how much treasure you find. </p>
            <img src='./assets/img/instructions/treasure.jpg' class='instructions-image'>","","instructions","","","","","","","","","","","",""
"learning-instructions","7","57129","0.0-4.0-1.0-0.2","spark_pilot_norest","9983","1","15","Female","","","","","","","","1165","<p> Animals have hidden treasure in treasure chests. </p>
            <p> You need to first find an animal and then choose which of their treasure chests to search. </p>
            <img src='./assets/img/space/animals/cat.jpg' class='instructions-image'>","","instructions","","","","","","","","","","","",""
"learning-instructions","8","71335","0.0-4.0-1.0-0.3","spark_pilot_norest","9983","1","15","Female","","","","","","","","1083","<p> In each round, you will search for treasure in a different place. In the real game, there will be two rounds. </p>
            <p> You will begin with a separate, practice round where you will search for treasure in outer space. </p>
            <img src='./assets/img/space/0.jpg' class='instructions-image'>","","instructions","","","","","","","","","","","",""
"learning-instructions","9","83601","0.0-4.0-1.0-0.4","spark_pilot_norest","9983","1","15","Female","","","","","","","","872","<p> On every turn, you will see a picture of the place that you are in, but the specific image may be different each time. </p>
            <p> For example, both of these images mean you are in outer space. </p>
            <img src='./assets/img/instructions/outerspace.jpg' class='instructions-image'>","","instructions","","","","","","","","","","","",""
"learning-instructions","10","92170","0.0-4.0-1.0-0.5","spark_pilot_norest","9983","1","15","Female","","","","","","","","763","<p> You need to decide which direction to travel in. </p>
            <p> You can choose between going <b>up or down</b> by using the arrow keys. </p>
            <img src='./assets/img/instructions/updown.jpg' class='instructions-image'>","","instructions","","","","","","","","","","","",""
"learning-instructions","11","102080","0.0-4.0-1.0-0.6","spark_pilot_norest","9983","1","15","Female","","","","","","","","1124","<p> You will have <b>2 seconds</b> to make your choice. </p>
            <p> If you do not make a choice within 2 seconds, you will not find an animal or earn treasure. </p>
            <img src='./assets/img/instructions/2seconds.jpg' class='instructions-image'>","","instructions","","","","","","","","","","","",""
"learning-instructions","12","110427","0.0-4.0-1.0-0.7","spark_pilot_norest","9983","1","15","Female","","","","","","","","1332","<p> Let’s try practicing that now! </p>
            <p> When you see a picture of the place you are in, press the <b>up</b> key to travel up. </p>
            <img src='./assets/img/instructions/pressUp.jpg' class='instructions-image'>","","instructions","","","","","","","","","","","",""
"revaluation","13","114444","0.0-4.0-2.0-0.0","spark_pilot_norest","9983","1","15","Female","","false","","","","","","[1296]","./assets/img/space/0.jpg","[""ArrowUp""]","first stage practice","space","0","null","null","ArrowUp","false","","","","","",""
"html-keyboard-response","14","114947","0.0-4.0-2.0-1.0","spark_pilot_norest","9983","1","15","Female","","","","","","","","null","<div style=""font-size:60px;"">+</div>","null","fixation","","","","","","","","","","","",""
"revaluation","15","118954","0.0-4.0-2.0-0.1","spark_pilot_norest","9983","1","15","Female","","false","","","","","","[1027]","./assets/img/space/1.jpg","[""ArrowUp""]","first stage practice","space","0","null","null","ArrowUp","false","","","","","",""
"html-keyboard-response","16","119456","0.0-4.0-2.0-1.1","spark_pilot_norest","9983","1","15","Female","","","","","","","","null","<div style=""font-size:60px;"">+</div>","null","fixation","","","","","","","","","","","",""
"revaluation","17","123463","0.0-4.0-2.0-0.2","spark_pilot_norest","9983","1","15","Female","","false","","","","","","[102]","./assets/img/space/2.jpg","[""ArrowUp""]","first stage practice","space","0","null","null","ArrowUp","false","","","","","",""
"html-keyboard-response","18","123966","0.0-4.0-2.0-1.2","spark_pilot_norest","9983","1","15","Female","","","","","","","","null","<div style=""font-size:60px;"">+</div>","null","fixation","","","","","","","","","","","",""
"learning-instructions","19","130948","0.0-4.0-3.0-0.0","spark_pilot_norest","9983","1","15","Female","","","","","","","","2295.9999999999854","<p> Great job! Now try pressing the <b>down</b> key to travel down. </p>
            <img src='./assets/img/instructions/pressDown.jpg' class='instructions-image'>","","instructions","","","","","","","","","","","",""
"revaluation","20","134954","0.0-4.0-4.0-0.0","spark_pilot_norest","9983","1","15","Female","","false","","","","","","[559.9999999999709]","./assets/img/space/3.jpg","[""ArrowDown""]","first stage practice","space","0","null","null","ArrowDown","false","","","","","",""
"html-keyboard-response","21","135456","0.0-4.0-4.0-1.0","spark_pilot_norest","9983","1","15","Female","","","","","","","","null","<div style=""font-size:60px;"">+</div>","null","fixation","","","","","","","","","","","",""
"revaluation","22","139464","0.0-4.0-4.0-0.1","spark_pilot_norest","9983","1","15","Female","","false","","","","","","[442]","./assets/img/space/4.jpg","[""ArrowDown""]","first stage practice","space","0","null","null","ArrowDown","false","","","","","",""
"html-keyboard-response","23","139966","0.0-4.0-4.0-1.1","spark_pilot_norest","9983","1","15","Female","","","","","","","","null","<div style=""font-size:60px;"">+</div>","null","fixation","","","","","","","","","","","",""
"revaluation","24","143973","0.0-4.0-4.0-0.2","spark_pilot_norest","9983","1","15","Female","","false","","","","","","[439]","./assets/img/space/5.jpg","[""ArrowDown""]","first stage practice","space","0","null","null","ArrowDown","false","","","","","",""
"html-keyboard-response","25","144476","0.0-4.0-4.0-1.2","spark_pilot_norest","9983","1","15","Female","","","","","","","","null","<div style=""font-size:60px;"">+</div>","null","fixation","","","","","","","","","","","",""
"learning-instructions","26","155050","0.0-4.0-5.0-0.0","spark_pilot_norest","9983","1","15","Female","","","","","","","","748","<p> The animals don’t move, so the animal in the upper part of a place will stay in the upper part of a place, and the animal in the lower part of a place will stay in the lower part of a place. </p>","","instructions","","","","","","","","","","","",""
"learning-instructions","27","165385","0.0-4.0-5.0-0.1","spark_pilot_norest","9983","1","15","Female","","","","","","","","1227.000000000029","<p> Each animal has two treasure chests for you to choose from. </p>
            <p> The amount of treasure in each chest can range from <b> 0 to 40 pieces.</b></p>","","instructions","","","","","","","","","","","",""
"learning-instructions","28","177490","0.0-4.0-5.0-0.2","spark_pilot_norest","9983","1","15","Female","","","","","","","","940","<p> You should decide which chest to search for treasure by using the <b>left</b> and <b>right</b> arrow keys. </p>
            <p><b> Pay attention to which animal is on the screen, as the animals have different treasure chests. </b></p>
            <img src='./assets/img/instructions/leftright.jpg' class='instructions-image'>","","instructions","","","","","","","","","","","",""
"learning-instructions","29","184454","0.0-4.0-5.0-0.3","spark_pilot_norest","9983","1","15","Female","","","","","","","","614","<p> Let’s try practicing that now. </p>
            <p> When you see an animal, choose which chest to search for treasure. </p>
            <img src='./assets/img/instructions/chooseChest.jpg' class='instructions-image'>","","instructions","","","","","","","","","","","",""
"revaluation","30","188462","0.0-4.0-6.0-0.0","spark_pilot_norest","9983","1","15","Female","","false","","","","","","[1327]","./assets/img/space/animals/rabbit.jpg","[""ArrowRight""]","second stage practice","space","23","{""ArrowUp,ArrowLeft"":3,""ArrowUp,ArrowRight"":36,""ArrowDown,ArrowLeft"":15,""ArrowDown,ArrowRight"":23}","true","ArrowDown,ArrowRight","","","","","","",""
"html-keyboard-response","31","188964","0.0-4.0-6.0-1.0","spark_pilot_norest","9983","1","15","Female","","","","","","","","null","<div style=""font-size:60px;"">+</div>","null","fixation","","","","","","","","","","","",""
"revaluation","32","192971","0.0-4.0-6.0-0.1","spark_pilot_norest","9983","1","15","Female","","false","","","","","","[1001.0000000000291]","./assets/img/space/animals/cat.jpg","[""ArrowLeft""]","second stage practice","space","3","{""ArrowUp,ArrowLeft"":3,""ArrowUp,ArrowRight"":36,""ArrowDown,ArrowLeft"":15,""ArrowDown,ArrowRight"":23}","false","ArrowUp,ArrowLeft","","","","","","",""
"html-keyboard-response","33","193473","0.0-4.0-6.0-1.1","spark_pilot_norest","9983","1","15","Female","","","","","","","","null","<div style=""font-size:60px;"">+</div>","null","fixation","","","","","","","","","","","",""
"revaluation","34","197480","0.0-4.0-6.0-0.2","spark_pilot_norest","9983","1","15","Female","","false","","","","","","[361.0000000000291]","./assets/img/space/animals/cat.jpg","[""ArrowRight""]","second stage practice","space","36","{""ArrowUp,ArrowLeft"":3,""ArrowUp,ArrowRight"":36,""ArrowDown,ArrowLeft"":15,""ArrowDown,ArrowRight"":23}","true","ArrowUp,ArrowRight","","","","","","",""
"html-keyboard-response","35","197983","0.0-4.0-6.0-1.2","spark_pilot_norest","9983","1","15","Female","","","","","","","","null","<div style=""font-size:60px;"">+</div>","null","fixation","","","","","","","","","","","",""
"revaluation","36","201990","0.0-4.0-6.0-0.3","spark_pilot_norest","9983","1","15","Female","","false","","","","","","[494.9999999999709]","./assets/img/space/animals/rabbit.jpg","[""ArrowRight""]","second stage practice","space","23","{""ArrowUp,ArrowLeft"":3,""ArrowUp,ArrowRight"":36,""ArrowDown,ArrowLeft"":15,""ArrowDown,ArrowRight"":23}","true","ArrowDown,ArrowRight","","","","","","",""
"html-keyboard-response","37","202493","0.0-4.0-6.0-1.3","spark_pilot_norest","9983","1","15","Female","","","","","","","","null","<div style=""font-size:60px;"">+</div>","null","fixation","","","","","","","","","","","",""
"learning-instructions","38","221764","0.0-4.0-7.0-0.0","spark_pilot_norest","9983","1","15","Female","","","","","","","","2489","<p> Great job. Now let’s try putting it together. </p>
            <p> On each turn, you will first see a picture to remind you of the place you are in, and you need to choose whether to go up or down. </p>
            <p> Then you will see an animal and choose which of its chests to search for treasure. </p>","","instructions","","","","","","","","","","","",""
"learning-instructions","39","231054","0.0-4.0-7.0-0.1","spark_pilot_norest","9983","1","15","Female","","","","","","","","1052","<p> When you choose whether to go up or down, try to go to the animal with the chest with the most treasure. </p>
            <p> Try practicing that now! </p>","","instructions","","","","","","","","","","","",""
"revaluation","40","237065","0.0-4.0-8.0-0.0","spark_pilot_norest","9983","1","15","Female","","false","","","","","","[780,1061]","./assets/img/space/6.jpg","[""ArrowDown"",""ArrowRight""]","full practice","space","23","{""ArrowUp,ArrowLeft"":3,""ArrowUp,ArrowRight"":36,""ArrowDown,ArrowLeft"":15,""ArrowDown,ArrowRight"":23}","false","ArrowDown,ArrowRight","false","","","","","",""
"html-keyboard-response","41","237569","0.0-4.0-8.0-1.0","spark_pilot_norest","9983","1","15","Female","","","","","","","","null","<div style=""font-size:60px;"">+</div>","null","fixation","","","","","","","","","","","",""
"revaluation","42","243578","0.0-4.0-8.0-0.1","spark_pilot_norest","9983","1","15","Female","","false","","","","","","[817,691]","./assets/img/space/7.jpg","[""ArrowUp"",""ArrowRight""]","full practice","space","36","{""ArrowUp,ArrowLeft"":3,""ArrowUp,ArrowRight"":36,""ArrowDown,ArrowLeft"":15,""ArrowDown,ArrowRight"":23}","true","ArrowUp,ArrowRight","false","","","","","",""
"html-keyboard-response","43","244081","0.0-4.0-8.0-1.1","spark_pilot_norest","9983","1","15","Female","","","","","","","","null","<div style=""font-size:60px;"">+</div>","null","fixation","","","","","","","","","","","",""
"revaluation","44","250087","0.0-4.0-8.0-0.2","spark_pilot_norest","9983","1","15","Female","","false","","","","","","[620,696]","./assets/img/space/8.jpg","[""ArrowDown"",""ArrowLeft""]","full practice","space","15","{""ArrowUp,ArrowLeft"":3,""ArrowUp,ArrowRight"":36,""ArrowDown,ArrowLeft"":15,""ArrowDown,ArrowRight"":23}","false","ArrowDown,ArrowLeft","false","","","","","",""
"html-keyboard-response","45","250590","0.0-4.0-8.0-1.2","spark_pilot_norest","9983","1","15","Female","","","","","","","","null","<div style=""font-size:60px;"">+</div>","null","fixation","","","","","","","","","","","",""
"revaluation","46","256597","0.0-4.0-8.0-0.3","spark_pilot_norest","9983","1","15","Female","","false","","","","","","[659.9999999999709,202.0000000000291]","./assets/img/space/9.jpg","[""ArrowDown"",""ArrowRight""]","full practice","space","23","{""ArrowUp,ArrowLeft"":3,""ArrowUp,ArrowRight"":36,""ArrowDown,ArrowLeft"":15,""ArrowDown,ArrowRight"":23}","false","ArrowDown,ArrowRight","false","","","","","",""
"html-keyboard-response","47","257099","0.0-4.0-8.0-1.3","spark_pilot_norest","9983","1","15","Female","","","","","","","","null","<div style=""font-size:60px;"">+</div>","null","fixation","","","","","","","","","","","",""
"revaluation","48","263107","0.0-4.0-8.0-0.4","spark_pilot_norest","9983","1","15","Female","","false","","","","","","[726.9999999999709,1040.000000000029]","./assets/img/space/10.jpg","[""ArrowDown"",""ArrowLeft""]","full practice","space","15","{""ArrowUp,ArrowLeft"":3,""ArrowUp,ArrowRight"":36,""ArrowDown,ArrowLeft"":15,""ArrowDown,ArrowRight"":23}","false","ArrowDown,ArrowLeft","false","","","","","",""
"html-keyboard-response","49","263610","0.0-4.0-8.0-1.4","spark_pilot_norest","9983","1","15","Female","","","","","","","","null","<div style=""font-size:60px;"">+</div>","null","fixation","","","","","","","","","","","",""
"learning-instructions","50","274888","0.0-4.0-9.0-0.0","spark_pilot_norest","9983","1","15","Female","","","","","","","","991.0000000000582","<p> One last thing: sometimes, you will see a robber. The robber can be anywhere in the picture. </p>
            <p> If you do not stop them, you will lose treasure. </p>
            <img src='./assets/img/instructions/robber.jpg' class='instructions-image'>","","instructions","","","","","","","","","","","",""
"learning-instructions","51","283027","0.0-4.0-9.0-0.1","spark_pilot_norest","9983","1","15","Female","","","","","","","","984","<p> If you see the robber, you should <b>press the space bar</b> rather than using the arrow keys. </p>
            <p> Try practicing that now! </p>","","instructions","","","","","","","","","","","",""
"revaluation","52","287033","0.0-4.0-10.0-0.0","spark_pilot_norest","9983","1","15","Female","","false","","","","","","[1043.0000000000582]","./assets/img/space/catch/0.jpg","[""ArrowDown""]","catch practice","space","-10","{""ArrowUp,ArrowLeft"":3,""ArrowUp,ArrowRight"":36,""ArrowDown,ArrowLeft"":15,""ArrowDown,ArrowRight"":23}","false","ArrowDown","true","","","","","",""
"html-keyboard-response","53","287535","0.0-4.0-10.0-1.0","spark_pilot_norest","9983","1","15","Female","","","","","","","","null","<div style=""font-size:60px;"">+</div>","null","fixation","","","","","","","","","","","",""
"revaluation","54","291541","0.0-4.0-10.0-0.1","spark_pilot_norest","9983","1","15","Female","","false","","","","","","[1083]","./assets/img/space/catch/1.jpg","[""spaceBar""]","catch practice","space","0","{""ArrowUp,ArrowLeft"":3,""ArrowUp,ArrowRight"":36,""ArrowDown,ArrowLeft"":15,""ArrowDown,ArrowRight"":23}","true","spaceBar","true","","","","","",""
"html-keyboard-response","55","292044","0.0-4.0-10.0-1.1","spark_pilot_norest","9983","1","15","Female","","","","","","","","null","<div style=""font-size:60px;"">+</div>","null","fixation","","","","","","","","","","","",""
"revaluation","56","296051","0.0-4.0-10.0-0.2","spark_pilot_norest","9983","1","15","Female","","false","","","","","","[706]","./assets/img/space/catch/2.jpg","[""spaceBar""]","catch practice","space","0","{""ArrowUp,ArrowLeft"":3,""ArrowUp,ArrowRight"":36,""ArrowDown,ArrowLeft"":15,""ArrowDown,ArrowRight"":23}","true","spaceBar","true","","","","","",""
"html-keyboard-response","57","296553","0.0-4.0-10.0-1.2","spark_pilot_norest","9983","1","15","Female","","","","","","","","null","<div style=""font-size:60px;"">+</div>","null","fixation","","","","","","","","","","","",""
"learning-instructions","58","303297","0.0-4.0-11.0-0.0-0.0","spark_pilot_norest","9983","1","15","Female","","","","","","","","1517","<p> Now, you will practice a shortened version of the game to get a sense of how it all fits together. </p>","","instructions","","","","","","","","","","","",""
"learning-instructions","59","307429","0.0-4.0-11.0-0.0-0.1","spark_pilot_norest","9983","1","15","Female","","","","","","","","958","<p>This time you are searching for treasure in outer space.</p>","","instructions","","","","","","","","","","","",""
"learning-instructions","60","322992","0.0-4.0-11.0-1.0-0.0","spark_pilot_norest","9983","1","15","Female","","","","","","","","822","<p> Remember, when you see a picture of the place, use the up and down keys to <b>find an animal</b>.</p>
            <p> When you encounter an animal, you should use the left and right keys to <b>select a treasure chest</b>.</p>
            <p> Don't forget to look out for the robber! </p>","","instructions","","","","","","","","","","","",""
"revaluation","61","328999","0.0-4.0-11.0-2.0-0.0","spark_pilot_norest","9983","1","15","Female","","false","","","","","","[1671,680]","./assets/img/space/11.jpg","[""ArrowUp"",""ArrowRight""]","practice block","space","36","{""ArrowUp,ArrowLeft"":3,""ArrowUp,ArrowRight"":36,""ArrowDown,ArrowLeft"":15,""ArrowDown,ArrowRight"":23}","true","ArrowUp,ArrowRight","false","","","","","",""
"html-keyboard-response","62","329501","0.0-4.0-11.0-2.0-1.0","spark_pilot_norest","9983","1","15","Female","","","","","","","","null","<div style=""font-size:60px;"">+</div>","null","fixation","","","","","","","","","","","",""
"revaluation","63","335508","0.0-4.0-11.0-2.0-0.1","spark_pilot_norest","9983","1","15","Female","","false","","","","","","[954,969]","./assets/img/space/12.jpg","[""ArrowDown"",""ArrowRight""]","practice block","space","23","{""ArrowUp,ArrowLeft"":3,""ArrowUp,ArrowRight"":36,""ArrowDown,ArrowLeft"":15,""ArrowDown,ArrowRight"":23}","false","ArrowDown,ArrowRight","false","","","","","",""
"html-keyboard-response","64","336010","0.0-4.0-11.0-2.0-1.1","spark_pilot_norest","9983","1","15","Female","","","","","","","","null","<div style=""font-size:60px;"">+</div>","null","fixation","","","","","","","","","","","",""
"revaluation","65","342018","0.0-4.0-11.0-2.0-0.2","spark_pilot_norest","9983","1","15","Female","","false","","","","","","[737.0000000000582,727]","./assets/img/space/13.jpg","[""ArrowDown"",""ArrowRight""]","practice block","space","23","{""ArrowUp,ArrowLeft"":3,""ArrowUp,ArrowRight"":36,""ArrowDown,ArrowLeft"":15,""ArrowDown,ArrowRight"":23}","false","ArrowDown,ArrowRight","false","","","","","",""
"html-keyboard-response","66","342520","0.0-4.0-11.0-2.0-1.2","spark_pilot_norest","9983","1","15","Female","","","","","","","","null","<div style=""font-size:60px;"">+</div>","null","fixation","","","","","","","","","","","",""
"revaluation","67","348528","0.0-4.0-11.0-2.0-0.3","spark_pilot_norest","9983","1","15","Female","","false","","","","","","[343,604.9999999999418]","./assets/img/space/14.jpg","[""ArrowDown"",""ArrowRight""]","practice block","space","23","{""ArrowUp,ArrowLeft"":3,""ArrowUp,ArrowRight"":36,""ArrowDown,ArrowLeft"":15,""ArrowDown,ArrowRight"":23}","false","ArrowDown,ArrowRight","false","","","","","",""
"html-keyboard-response","68","349030","0.0-4.0-11.0-2.0-1.3","spark_pilot_norest","9983","1","15","Female","","","","","","","","null","<div style=""font-size:60px;"">+</div>","null","fixation","","","","","","","","","","","",""
"revaluation","69","355037","0.0-4.0-11.0-2.0-0.4","spark_pilot_norest","9983","1","15","Female","","false","","","","","","[716,760]","./assets/img/space/11.jpg","[""ArrowDown"",""ArrowRight""]","practice block","space","23","{""ArrowUp,ArrowLeft"":3,""ArrowUp,ArrowRight"":36,""ArrowDown,ArrowLeft"":15,""ArrowDown,ArrowRight"":23}","false","ArrowDown,ArrowRight","false","","","","","",""
"html-keyboard-response","70","355539","0.0-4.0-11.0-2.0-1.4","spark_pilot_norest","9983","1","15","Female","","","","","","","","null","<div style=""font-size:60px;"">+</div>","null","fixation","","","","","","","","","","","",""
"revaluation","71","361546","0.0-4.0-11.0-2.0-0.5","spark_pilot_norest","9983","1","15","Female","","false","","","","","","[526,877]","./assets/img/space/12.jpg","[""ArrowDown"",""ArrowLeft""]","practice block","space","15","{""ArrowUp,ArrowLeft"":3,""ArrowUp,ArrowRight"":36,""ArrowDown,ArrowLeft"":15,""ArrowDown,ArrowRight"":23}","false","ArrowDown,ArrowLeft","false","","","","","",""
"html-keyboard-response","72","362048","0.0-4.0-11.0-2.0-1.5","spark_pilot_norest","9983","1","15","Female","","","","","","","","null","<div style=""font-size:60px;"">+</div>","null","fixation","","","","","","","","","","","",""
"revaluation","73","368055","0.0-4.0-11.0-2.0-0.6","spark_pilot_norest","9983","1","15","Female","","false","","","","","","[1383,447]","./assets/img/space/13.jpg","[""ArrowDown"",""ArrowRight""]","practice block","space","23","{""ArrowUp,ArrowLeft"":3,""ArrowUp,ArrowRight"":36,""ArrowDown,ArrowLeft"":15,""ArrowDown,ArrowRight"":23}","false","ArrowDown,ArrowRight","false","","","","","",""
"html-keyboard-response","74","368558","0.0-4.0-11.0-2.0-1.6","spark_pilot_norest","9983","1","15","Female","","","","","","","","null","<div style=""font-size:60px;"">+</div>","null","fixation","","","","","","","","","","","",""
"revaluation","75","374565","0.0-4.0-11.0-2.0-0.7","spark_pilot_norest","9983","1","15","Female","","false","","","","","","[1193,681]","./assets/img/space/14.jpg","[""ArrowDown"",""ArrowRight""]","practice block","space","23","{""ArrowUp,ArrowLeft"":3,""ArrowUp,ArrowRight"":36,""ArrowDown,ArrowLeft"":15,""ArrowDown,ArrowRight"":23}","false","ArrowDown,ArrowRight","false","","","","","",""
"html-keyboard-response","76","375068","0.0-4.0-11.0-2.0-1.7","spark_pilot_norest","9983","1","15","Female","","","","","","","","null","<div style=""font-size:60px;"">+</div>","null","fixation","","","","","","","","","","","",""
"revaluation","77","379074","0.0-4.0-11.0-2.0-0.8","spark_pilot_norest","9983","1","15","Female","","false","","","","","","[838]","./assets/img/space/catch/3.jpg","[""spaceBar""]","practice block","space","0","{""ArrowUp,ArrowLeft"":3,""ArrowUp,ArrowRight"":36,""ArrowDown,ArrowLeft"":15,""ArrowDown,ArrowRight"":23}","true","spaceBar","true","","","","","",""
"html-keyboard-response","78","379576","0.0-4.0-11.0-2.0-1.8","spark_pilot_norest","9983","1","15","Female","","","","","","","","null","<div style=""font-size:60px;"">+</div>","null","fixation","","","","","","","","","","","",""
"learning-instructions","79","394415","0.0-4.0-11.0-3.0-0.0","spark_pilot_norest","9983","1","15","Female","","","","","","","","1948","<p> Now, you will travel with a friend who will choose whether you go up or down first. </p>
            <p> On these turns, you will just see the animal that they found. You will still get to choose which chest to search for treasure.</p>","","instructions","","","","","","","","","","","",""
"revaluation","80","398421","0.0-4.0-11.0-4.0-0.0","spark_pilot_norest","9983","1","15","Female","","false","","","","","","[1070]","./assets/img/space/animals/rabbit.jpg","[""ArrowRight""]","practice block","space","23","{""ArrowUp,ArrowLeft"":3,""ArrowUp,ArrowRight"":36,""ArrowDown,ArrowLeft"":15,""ArrowDown,ArrowRight"":23}","true","ArrowDown,ArrowRight","","","","","","",""
"html-keyboard-response","81","398923","0.0-4.0-11.0-4.0-1.0","spark_pilot_norest","9983","1","15","Female","","","","","","","","null","<div style=""font-size:60px;"">+</div>","null","fixation","","","","","","","","","","","",""
"revaluation","82","402929","0.0-4.0-11.0-4.0-0.1","spark_pilot_norest","9983","1","15","Female","","false","","","","","","[638]","./assets/img/space/animals/cat.jpg","[""ArrowRight""]","practice block","space","36","{""ArrowUp,ArrowLeft"":3,""ArrowUp,ArrowRight"":36,""ArrowDown,ArrowLeft"":15,""ArrowDown,ArrowRight"":23}","true","ArrowUp,ArrowRight","","","","","","",""
"html-keyboard-response","83","403432","0.0-4.0-11.0-4.0-1.1","spark_pilot_norest","9983","1","15","Female","","","","","","","","null","<div style=""font-size:60px;"">+</div>","null","fixation","","","","","","","","","","","",""
"revaluation","84","407438","0.0-4.0-11.0-4.0-0.2","spark_pilot_norest","9983","1","15","Female","","false","","","","","","[351]","./assets/img/space/animals/cat.jpg","[""ArrowRight""]","practice block","space","36","{""ArrowUp,ArrowLeft"":3,""ArrowUp,ArrowRight"":36,""ArrowDown,ArrowLeft"":15,""ArrowDown,ArrowRight"":23}","true","ArrowUp,ArrowRight","","","","","","",""
"html-keyboard-response","85","407941","0.0-4.0-11.0-4.0-1.2","spark_pilot_norest","9983","1","15","Female","","","","","","","","null","<div style=""font-size:60px;"">+</div>","null","fixation","","","","","","","","","","","",""
"revaluation","86","411947","0.0-4.0-11.0-4.0-0.3","spark_pilot_norest","9983","1","15","Female","","false","","","","","","[329]","./assets/img/space/animals/rabbit.jpg","[""ArrowRight""]","practice block","space","23","{""ArrowUp,ArrowLeft"":3,""ArrowUp,ArrowRight"":36,""ArrowDown,ArrowLeft"":15,""ArrowDown,ArrowRight"":23}","true","ArrowDown,ArrowRight","","","","","","",""
"html-keyboard-response","87","412449","0.0-4.0-11.0-4.0-1.3","spark_pilot_norest","9983","1","15","Female","","","","","","","","null","<div style=""font-size:60px;"">+</div>","null","fixation","","","","","","","","","","","",""
"learning-instructions","88","420557","0.0-4.0-11.0-5.0-0.0","spark_pilot_norest","9983","1","15","Female","","","","","","","","null","<p> You have almost finished this part of the game! </p>
            <p> We are going to ask you to make a few more choices. </p>","","instructions","","","","","","","","","","","",""
"learning-instructions","89","436537","0.0-4.0-11.0-5.0-0.1","spark_pilot_norest","9983","1","15","Female","","","","","","","","null","<p> First, you need to decide whether to go up or down. When you see each picture, use the arrow keys to make your choice. </p>
            <p><b>You will not see which animal you found, but try to get to the one that will give you the most treasure.</b></p>","","instructions","","","","","","","","","","","",""
"html-keyboard-response","90","437539","0.0-4.0-11.0-6.0-0.0","spark_pilot_norest","9983","1","15","Female","","","","","","","","null","<div style=""font-size:100px;color:red;"">Starting in...</div>","null","","","","","","","","","","","","",""
"html-keyboard-response","91","438542","0.0-4.0-11.0-6.0-1.0","spark_pilot_norest","9983","1","15","Female","","","","","","","","null","<div style=""font-size:200px;color:red;"">3</div>","null","","","","","","","","","","","","",""
"html-keyboard-response","92","439544","0.0-4.0-11.0-6.0-2.0","spark_pilot_norest","9983","1","15","Female","","","","","","","","null","<div style=""font-size:200px;color:red;"">2</div>","null","","","","","","","","","","","","",""
"html-keyboard-response","93","440547","0.0-4.0-11.0-6.0-3.0","spark_pilot_norest","9983","1","15","Female","","","","","","","","null","<div style=""font-size:200px;color:red;"">1</div>","null","","","","","","","","","","","","",""
"revaluation","94","441983","0.0-4.0-11.0-7.0","spark_pilot_norest","9983","1","15","Female","","false","","","","","","[1433.0000000000582]","./assets/img/space/15.jpg","[""ArrowDown""]","practice block","space","0","{""ArrowUp,ArrowLeft"":3,""ArrowUp,ArrowRight"":36,""ArrowDown,ArrowLeft"":15,""ArrowDown,ArrowRight"":23}","false","ArrowDown","false","","","","","",""
"html-keyboard-response","95","442485","0.0-4.0-11.0-8.0","spark_pilot_norest","9983","1","15","Female","","","","","","","","null","<div style=""font-size:60px;"">+</div>","null","fixation","","","","","","","","","","","",""
"learning-instructions","96","455837","0.0-4.0-11.0-9.0-0.0","spark_pilot_norest","9983","1","15","Female","","","","","","","","null","<p> Now you will see the animals again and can search their chests for treasure. </p>
            <p> This time, you will not see how much treasure you earned, but you will earn more bonus money for making better choices. </p>","","instructions","","","","","","","","","","","",""
"html-keyboard-response","97","456839","0.0-4.0-11.0-10.0-0.0","spark_pilot_norest","9983","1","15","Female","","","","","","","","null","<div style=""font-size:100px;color:red;"">Starting in...</div>","null","","","","","","","","","","","","",""
"html-keyboard-response","98","457842","0.0-4.0-11.0-10.0-1.0","spark_pilot_norest","9983","1","15","Female","","","","","","","","null","<div style=""font-size:200px;color:red;"">3</div>","null","","","","","","","","","","","","",""
"html-keyboard-response","99","458844","0.0-4.0-11.0-10.0-2.0","spark_pilot_norest","9983","1","15","Female","","","","","","","","null","<div style=""font-size:200px;color:red;"">2</div>","null","","","","","","","","","","","","",""
"html-keyboard-response","100","459847","0.0-4.0-11.0-10.0-3.0","spark_pilot_norest","9983","1","15","Female","","","","","","","","null","<div style=""font-size:200px;color:red;"">1</div>","null","","","","","","","","","","","","",""
"revaluation","101","460311","0.0-4.0-11.0-11.0-0.0","spark_pilot_norest","9983","1","15","Female","","false","","","","","","[461]","./assets/img/space/animals/cat.jpg","[""ArrowRight""]","practice block","space","0","{""ArrowUp,ArrowLeft"":3,""ArrowUp,ArrowRight"":36,""ArrowDown,ArrowLeft"":15,""ArrowDown,ArrowRight"":23}","true","ArrowUp,ArrowRight","","","","","","",""
"html-keyboard-response","102","460814","0.0-4.0-11.0-11.0-1.0","spark_pilot_norest","9983","1","15","Female","","","","","","","","null","<div style=""font-size:60px;"">+</div>","null","fixation","","","","","","","","","","","",""
"revaluation","103","461332","0.0-4.0-11.0-11.0-0.1","spark_pilot_norest","9983","1","15","Female","","false","","","","","","[515]","./assets/img/space/animals/rabbit.jpg","[""ArrowRight""]","practice block","space","0","{""ArrowUp,ArrowLeft"":3,""ArrowUp,ArrowRight"":36,""ArrowDown,ArrowLeft"":15,""ArrowDown,ArrowRight"":23}","true","ArrowDown,ArrowRight","","","","","","",""
"html-keyboard-response","104","461834","0.0-4.0-11.0-11.0-1.1","spark_pilot_norest","9983","1","15","Female","","","","","","","","null","<div style=""font-size:60px;"">+</div>","null","fixation","","","","","","","","","","","",""
"learning-instructions","105","467600","0.0-4.0-12.0-0.0","spark_pilot_norest","9983","1","15","Female","","","","","","","","1205.0000000000582","<p> Before you start, we're going to ask you a few questions about how the game works. </p>","","instructions","","","","","","","","","","","",""
"comp-q","106","474771","0.0-4.0-13.0-0.0-0.0","spark_pilot_norest","9983","1","15","Female","","","","","","","","1602.9999999999418","<p> <b> True or False? </b> </p>
            <p> There can be 50 pieces of treasure in a given animal's chest. </p>","0","comp_question","","","","false","","","","","","","",""
"comp-q","107","482599","0.0-4.0-13.0-0.0-1.0","spark_pilot_norest","9983","1","15","Female","","","","","","","","1320","<p> <b>Incorrect.</b> The amount of treasure in each chest can range from 0 to 40 pieces. </p>","0","comp_answer","","","","","","","","","","","",""
"comp-q","108","488881","0.0-4.0-13.0-0.1-0.1","spark_pilot_norest","9983","1","15","Female","","","","","","","","719","<p> <b> True or False? </b> </p>
            <p> There can be 50 pieces of treasure in a given animal's chest. </p>","1","comp_question","","","","true","","","","","","","",""
"comp-q","109","496377","0.0-4.0-13.0-0.1-1.1","spark_pilot_norest","9983","1","15","Female","","","","","","","","858.9999999999418","<p> <b> That's right! </b> The amount of treasure in each chest can range from 0 to 40 pieces. </p>","0","comp_answer","","","","","","","","","","","",""
"comp-q","110","504774","0.0-4.0-13.0-0.2-0.2","spark_pilot_norest","9983","1","15","Female","","","","","","","","1300.0000000000582","<p> <b> True or False? </b> </p><p> In this game, all animals have the same amount of treasure in their left and right chests. </p>","1","comp_question","","","","true","","","","","","","",""
"comp-q","111","511032","0.0-4.0-13.0-0.2-1.2","spark_pilot_norest","9983","1","15","Female","","","","","","","","1043.9999999999418","<p> <b> That's right! </b> Animals have different amounts of treasure in their treasure chests. </p>","0","comp_answer","","","","","","","","","","","",""
"comp-q","112","517370","0.0-4.0-13.0-0.3-0.3","spark_pilot_norest","9983","1","15","Female","","","","","","","","510","<p> <b> True or False? </b> </p><p> The same animal will always be there if you go up in the same place. </p>","1","comp_question","","","","false","","","","","","","",""
"comp-q","113","524514","0.0-4.0-13.0-0.3-1.3","spark_pilot_norest","9983","1","15","Female","","","","","","","","854","<p> <b>Incorrect.</b> One animal lives in the upper part and one lives in the lower part of every place. </p>","0","comp_answer","","","","","","","","","","","",""
"comp-q","114","530941","0.0-4.0-13.0-0.4-0.4","spark_pilot_norest","9983","1","15","Female","","","","","","","","603","<p> <b> True or False? </b> </p><p> The same animal will always be there if you go up in the same place. </p>","0","comp_question","","","","true","","","","","","","",""
"comp-q","115","538566","0.0-4.0-13.0-0.4-1.4","spark_pilot_norest","9983","1","15","Female","","","","","","","","1196","<p> <b> That's right! </b> One animal lives in the upper part and one lives in the lower part of every place. </p>","0","comp_answer","","","","","","","","","","","",""
"comp-q","116","544542","0.0-4.0-13.0-0.5-0.5","spark_pilot_norest","9983","1","15","Female","","","","","","","","468","<p> <b> True or False? </b> </p><p> If you see a different picture, it means you are in a new place. </p>","0","comp_question","","","","false","","","","","","","",""
"comp-q","117","558167","0.0-4.0-13.0-0.5-1.5","spark_pilot_norest","9983","1","15","Female","","","","","","","","2556","<p> <b>Incorrect.</b> Lots of different images may show the same place. For example,  you may see three different images that all remind you that you are in outer space. </p>","0","comp_answer","","","","","","","","","","","",""
"comp-q","118","566743","0.0-4.0-13.0-0.6-0.6","spark_pilot_norest","9983","1","15","Female","","","","","","","","3073","<p> <b> True or False? </b> </p><p> If you see a different picture, it means you are in a new place. </p>","1","comp_question","","","","true","","","","","","","",""
"comp-q","119","578861","0.0-4.0-13.0-0.6-1.6","spark_pilot_norest","9983","1","15","Female","","","","","","","","915","<p> <b> That's right! </b> Lots of different images may show the same place. For example,  you may see three different images that all remind you that you are in outer space. </p>","0","comp_answer","","","","","","","","","","","",""
"learning-instructions","120","589521","0.0-4.0-14.0-0.0","spark_pilot_norest","9983","1","15","Female","","","","","","","","830","<p> Good job. Remember to do your best because the amount of treasure you earn will be converted into bonus money. </p>
            <p> It’s time to start the real game! </p>","","instructions","","","","","","","","","","","",""
"learning-instructions","121","596543","0.0-5.0-0.0-0.0","spark_pilot_norest","9983","1","15","Female","","","","","","","","4321","<p> This time you are searching for treasure in the <b>ocean</b>.</p>","","instructions","","","","","","","","","","","",""
"learning-instructions","122","614738","0.0-5.0-0.0-0.1","spark_pilot_norest","9983","1","15","Female","","","","","","","","929","<p><b>New</b> animals with <b>new</b> treasure chests live here. You need to explore to discover where the animal with the best treasure chest is.</p>
                    <p> Like before, once you figure out which animal has the chest with the most treasure, you should try to get to that animal and select that chest! </p>","","instructions","","","","","","","","","","","",""
"learning-instructions","123","633414","0.0-5.0-1.0-0.0","spark_pilot_norest","9983","1","15","Female","","","","","","","","3944","<p> Remember, when you see a picture of the place, use the up and down keys to <b>find an animal</b>.</p>
            <p> When you encounter an animal, you should use the left and right keys to <b>select a treasure chest</b>.</p>
            <p> Don't forget to look out for the robber! </p>","","instructions","","","","","","","","","","","",""
"revaluation","124","639424","0.0-5.0-2.0-0.0","spark_pilot_norest","9983","1","15","Female","","false","","","","","","[922,981]","./assets/img/ocean/memory/34.jpg","[""ArrowDown"",""ArrowRight""]","value training","ocean","17","{""ArrowUp,ArrowLeft"":26,""ArrowUp,ArrowRight"":10,""ArrowDown,ArrowLeft"":5,""ArrowDown,ArrowRight"":17}","false","ArrowDown,ArrowRight","false","original","1","0","","",""
"html-keyboard-response","125","639928","0.0-5.0-2.0-1.0","spark_pilot_norest","9983","1","15","Female","","","","","","","","null","<div style=""font-size:60px;"">+</div>","null","fixation","","","","","","","","","1","","",""
"revaluation","126","645936","0.0-5.0-2.0-0.1","spark_pilot_norest","9983","1","15","Female","","false","","","","","","[295,783]","./assets/img/ocean/memory/35.jpg","[""ArrowDown"",""ArrowLeft""]","value training","ocean","5","{""ArrowUp,ArrowLeft"":26,""ArrowUp,ArrowRight"":10,""ArrowDown,ArrowLeft"":5,""ArrowDown,ArrowRight"":17}","false","ArrowDown,ArrowLeft","false","original","1","2","","",""
"html-keyboard-response","127","646439","0.0-5.0-2.0-1.1","spark_pilot_norest","9983","1","15","Female","","","","","","","","null","<div style=""font-size:60px;"">+</div>","null","fixation","","","","","","","","","3","","",""
"revaluation","128","650445","0.0-5.0-2.0-0.2","spark_pilot_norest","9983","1","15","Female","","false","","","","","","[328]","./assets/img/ocean/catch/6.jpg","[""ArrowUp""]","value training","ocean","-10","{""ArrowUp,ArrowLeft"":26,""ArrowUp,ArrowRight"":10,""ArrowDown,ArrowLeft"":5,""ArrowDown,ArrowRight"":17}","false","ArrowUp","true","original","1","4","","",""
"html-keyboard-response","129","650948","0.0-5.0-2.0-1.2","spark_pilot_norest","9983","1","15","Female","","","","","","","","null","<div style=""font-size:60px;"">+</div>","null","fixation","","","","","","","","","5","","",""
"revaluation","130","656955","0.0-5.0-2.0-0.3","spark_pilot_norest","9983","1","15","Female","","false","","","","","","[1136.9999999998836,711]","./assets/img/ocean/memory/8.jpg","[""ArrowUp"",""ArrowRight""]","value training","ocean","10","{""ArrowUp,ArrowLeft"":26,""ArrowUp,ArrowRight"":10,""ArrowDown,ArrowLeft"":5,""ArrowDown,ArrowRight"":17}","false","ArrowUp,ArrowRight","false","original","1","6","","",""
"html-keyboard-response","131","657458","0.0-5.0-2.0-1.3","spark_pilot_norest","9983","1","15","Female","","","","","","","","null","<div style=""font-size:60px;"">+</div>","null","fixation","","","","","","","","","7","","",""
"revaluation","132","663466","0.0-5.0-2.0-0.4","spark_pilot_norest","9983","1","15","Female","","false","","","","","","[803,689]","./assets/img/ocean/memory/37.jpg","[""ArrowUp"",""ArrowLeft""]","value training","ocean","26","{""ArrowUp,ArrowLeft"":26,""ArrowUp,ArrowRight"":10,""ArrowDown,ArrowLeft"":5,""ArrowDown,ArrowRight"":17}","true","ArrowUp,ArrowLeft","false","original","1","8","","",""
"html-keyboard-response","133","663969","0.0-5.0-2.0-1.4","spark_pilot_norest","9983","1","15","Female","","","","","","","","null","<div style=""font-size:60px;"">+</div>","null","fixation","","","","","","","","","9","","",""
"revaluation","134","667975","0.0-5.0-2.0-0.5","spark_pilot_norest","9983","1","15","Female","","false","","","","","","[704]","./assets/img/ocean/catch/7.jpg","[""ArrowDown""]","value training","ocean","-10","{""ArrowUp,ArrowLeft"":26,""ArrowUp,ArrowRight"":10,""ArrowDown,ArrowLeft"":5,""ArrowDown,ArrowRight"":17}","false","ArrowDown","true","original","1","10","","",""
"html-keyboard-response","135","668477","0.0-5.0-2.0-1.5","spark_pilot_norest","9983","1","15","Female","","","","","","","","null","<div style=""font-size:60px;"">+</div>","null","fixation","","","","","","","","","11","","",""
"revaluation","136","674484","0.0-5.0-2.0-0.6","spark_pilot_norest","9983","1","15","Female","","false","","","","","","[1289.9999999998836,569.9999999998836]","./assets/img/ocean/memory/9.jpg","[""ArrowDown"",""ArrowRight""]","value training","ocean","17","{""ArrowUp,ArrowLeft"":26,""ArrowUp,ArrowRight"":10,""ArrowDown,ArrowLeft"":5,""ArrowDown,ArrowRight"":17}","false","ArrowDown,ArrowRight","false","original","1","12","","",""
"html-keyboard-response","137","674986","0.0-5.0-2.0-1.6","spark_pilot_norest","9983","1","15","Female","","","","","","","","null","<div style=""font-size:60px;"">+</div>","null","fixation","","","","","","","","","13","","",""
"revaluation","138","680993","0.0-5.0-2.0-0.7","spark_pilot_norest","9983","1","15","Female","","false","","","","","","[745,786]","./assets/img/ocean/memory/40.jpg","[""ArrowUp"",""ArrowLeft""]","value training","ocean","26","{""ArrowUp,ArrowLeft"":26,""ArrowUp,ArrowRight"":10,""ArrowDown,ArrowLeft"":5,""ArrowDown,ArrowRight"":17}","true","ArrowUp,ArrowLeft","false","original","1","14","","",""
"html-keyboard-response","139","681496","0.0-5.0-2.0-1.7","spark_pilot_norest","9983","1","15","Female","","","","","","","","null","<div style=""font-size:60px;"">+</div>","null","fixation","","","","","","","","","15","","",""
"revaluation","140","685501","0.0-5.0-2.0-0.8","spark_pilot_norest","9983","1","15","Female","","false","","","","","","[858]","./assets/img/ocean/catch/3.jpg","[""spaceBar""]","value training","ocean","0","{""ArrowUp,ArrowLeft"":26,""ArrowUp,ArrowRight"":10,""ArrowDown,ArrowLeft"":5,""ArrowDown,ArrowRight"":17}","true","spaceBar","true","original","1","16","","",""
"html-keyboard-response","141","686004","0.0-5.0-2.0-1.8","spark_pilot_norest","9983","1","15","Female","","","","","","","","null","<div style=""font-size:60px;"">+</div>","null","fixation","","","","","","","","","17","","",""
"revaluation","142","692012","0.0-5.0-2.0-0.9","spark_pilot_norest","9983","1","15","Female","","false","","","","","","[665.0000000001164,1444]","./assets/img/ocean/memory/8.jpg","[""ArrowDown"",""ArrowLeft""]","value training","ocean","5","{""ArrowUp,ArrowLeft"":26,""ArrowUp,ArrowRight"":10,""ArrowDown,ArrowLeft"":5,""ArrowDown,ArrowRight"":17}","false","ArrowDown,ArrowLeft","false","original","1","18","","",""
"html-keyboard-response","143","692514","0.0-5.0-2.0-1.9","spark_pilot_norest","9983","1","15","Female","","","","","","","","null","<div style=""font-size:60px;"">+</div>","null","fixation","","","","","","","","","19","","",""
"revaluation","144","698521","0.0-5.0-2.0-0.10","spark_pilot_norest","9983","1","15","Female","","false","","","","","","[858,1149.9999999998836]","./assets/img/ocean/memory/38.jpg","[""ArrowDown"",""ArrowRight""]","value training","ocean","17","{""ArrowUp,ArrowLeft"":26,""ArrowUp,ArrowRight"":10,""ArrowDown,ArrowLeft"":5,""ArrowDown,ArrowRight"":17}","false","ArrowDown,ArrowRight","false","original","1","20","","",""
"html-keyboard-response","145","699023","0.0-5.0-2.0-1.10","spark_pilot_norest","9983","1","15","Female","","","","","","","","null","<div style=""font-size:60px;"">+</div>","null","fixation","","","","","","","","","21","","",""
"revaluation","146","705030","0.0-5.0-2.0-0.11","spark_pilot_norest","9983","1","15","Female","","false","","","","","","[614,1307]","./assets/img/ocean/memory/24.jpg","[""ArrowUp"",""ArrowLeft""]","value training","ocean","26","{""ArrowUp,ArrowLeft"":26,""ArrowUp,ArrowRight"":10,""ArrowDown,ArrowLeft"":5,""ArrowDown,ArrowRight"":17}","true","ArrowUp,ArrowLeft","false","original","1","22","","",""
"html-keyboard-response","147","705533","0.0-5.0-2.0-1.11","spark_pilot_norest","9983","1","15","Female","","","","","","","","null","<div style=""font-size:60px;"">+</div>","null","fixation","","","","","","","","","23","","",""
"revaluation","148","711540","0.0-5.0-2.0-0.12","spark_pilot_norest","9983","1","15","Female","","false","","","","","","[1014,1673]","./assets/img/ocean/memory/12.jpg","[""ArrowUp"",""ArrowLeft""]","value training","ocean","26","{""ArrowUp,ArrowLeft"":26,""ArrowUp,ArrowRight"":10,""ArrowDown,ArrowLeft"":5,""ArrowDown,ArrowRight"":17}","true","ArrowUp,ArrowLeft","false","original","1","24","","",""
"html-keyboard-response","149","712043","0.0-5.0-2.0-1.12","spark_pilot_norest","9983","1","15","Female","","","","","","","","null","<div style=""font-size:60px;"">+</div>","null","fixation","","","","","","","","","25","","",""
"revaluation","150","718051","0.0-5.0-2.0-0.13","spark_pilot_norest","9983","1","15","Female","","true","","","","","","[789]","./assets/img/ocean/memory/39.jpg","[""ArrowDown""]","value training","ocean","-5","{""ArrowUp,ArrowLeft"":26,""ArrowUp,ArrowRight"":10,""ArrowDown,ArrowLeft"":5,""ArrowDown,ArrowRight"":17}","false","ArrowDown","false","original","1","26","","",""
"html-keyboard-response","151","718554","0.0-5.0-2.0-1.13","spark_pilot_norest","9983","1","15","Female","","","","","","","","null","<div style=""font-size:60px;"">+</div>","null","fixation","","","","","","","","","27","","",""
"revaluation","152","724560","0.0-5.0-2.0-0.14","spark_pilot_norest","9983","1","15","Female","","false","","","","","","[891,1959]","./assets/img/ocean/memory/34.jpg","[""ArrowDown"",""ArrowRight""]","value training","ocean","17","{""ArrowUp,ArrowLeft"":26,""ArrowUp,ArrowRight"":10,""ArrowDown,ArrowLeft"":5,""ArrowDown,ArrowRight"":17}","false","ArrowDown,ArrowRight","false","original","1","28","","",""
"html-keyboard-response","153","725062","0.0-5.0-2.0-1.14","spark_pilot_norest","9983","1","15","Female","","","","","","","","null","<div style=""font-size:60px;"">+</div>","null","fixation","","","","","","","","","29","","",""
"revaluation","154","731069","0.0-5.0-2.0-0.15","spark_pilot_norest","9983","1","15","Female","","false","","","","","","[533,928]","./assets/img/ocean/memory/26.jpg","[""ArrowDown"",""ArrowRight""]","value training","ocean","17","{""ArrowUp,ArrowLeft"":26,""ArrowUp,ArrowRight"":10,""ArrowDown,ArrowLeft"":5,""ArrowDown,ArrowRight"":17}","false","ArrowDown,ArrowRight","false","original","1","30","","",""
"html-keyboard-response","155","731572","0.0-5.0-2.0-1.15","spark_pilot_norest","9983","1","15","Female","","","","","","","","null","<div style=""font-size:60px;"">+</div>","null","fixation","","","","","","","","","31","","",""
"revaluation","156","737580","0.0-5.0-2.0-0.16","spark_pilot_norest","9983","1","15","Female","","false","","","","","","[311,931.9999999998836]","./assets/img/ocean/memory/12.jpg","[""ArrowUp"",""ArrowLeft""]","value training","ocean","26","{""ArrowUp,ArrowLeft"":26,""ArrowUp,ArrowRight"":10,""ArrowDown,ArrowLeft"":5,""ArrowDown,ArrowRight"":17}","true","ArrowUp,ArrowLeft","false","original","1","32","","",""
"html-keyboard-response","157","738082","0.0-5.0-2.0-1.16","spark_pilot_norest","9983","1","15","Female","","","","","","","","null","<div style=""font-size:60px;"">+</div>","null","fixation","","","","","","","","","33","","",""
"revaluation","158","744089","0.0-5.0-2.0-0.17","spark_pilot_norest","9983","1","15","Female","","false","","","","","","[1018,888]","./assets/img/ocean/memory/6.jpg","[""ArrowDown"",""ArrowRight""]","value training","ocean","17","{""ArrowUp,ArrowLeft"":26,""ArrowUp,ArrowRight"":10,""ArrowDown,ArrowLeft"":5,""ArrowDown,ArrowRight"":17}","false","ArrowDown,ArrowRight","false","original","1","34","","",""
"html-keyboard-response","159","744592","0.0-5.0-2.0-1.17","spark_pilot_norest","9983","1","15","Female","","","","","","","","null","<div style=""font-size:60px;"">+</div>","null","fixation","","","","","","","","","35","","",""
"revaluation","160","750599","0.0-5.0-2.0-0.18","spark_pilot_norest","9983","1","15","Female","","false","","","","","","[889.9999999998836,1068]","./assets/img/ocean/memory/26.jpg","[""ArrowUp"",""ArrowRight""]","value training","ocean","10","{""ArrowUp,ArrowLeft"":26,""ArrowUp,ArrowRight"":10,""ArrowDown,ArrowLeft"":5,""ArrowDown,ArrowRight"":17}","false","ArrowUp,ArrowRight","false","original","1","36","","",""
"html-keyboard-response","161","751102","0.0-5.0-2.0-1.18","spark_pilot_norest","9983","1","15","Female","","","","","","","","null","<div style=""font-size:60px;"">+</div>","null","fixation","","","","","","","","","37","","",""
"revaluation","162","757109","0.0-5.0-2.0-0.19","spark_pilot_norest","9983","1","15","Female","","true","","","","","","[884]","./assets/img/ocean/memory/13.jpg","[""ArrowDown""]","value training","ocean","-5","{""ArrowUp,ArrowLeft"":26,""ArrowUp,ArrowRight"":10,""ArrowDown,ArrowLeft"":5,""ArrowDown,ArrowRight"":17}","false","ArrowDown","false","original","1","38","","",""
"html-keyboard-response","163","757612","0.0-5.0-2.0-1.19","spark_pilot_norest","9983","1","15","Female","","","","","","","","null","<div style=""font-size:60px;"">+</div>","null","fixation","","","","","","","","","39","","",""
"revaluation","164","763619","0.0-5.0-2.0-0.20","spark_pilot_norest","9983","1","15","Female","","false","","","","","","[1067,962]","./assets/img/ocean/memory/27.jpg","[""ArrowDown"",""ArrowLeft""]","value training","ocean","5","{""ArrowUp,ArrowLeft"":26,""ArrowUp,ArrowRight"":10,""ArrowDown,ArrowLeft"":5,""ArrowDown,ArrowRight"":17}","false","ArrowDown,ArrowLeft","false","original","1","40","","",""
"html-keyboard-response","165","764121","0.0-5.0-2.0-1.20","spark_pilot_norest","9983","1","15","Female","","","","","","","","null","<div style=""font-size:60px;"">+</div>","null","fixation","","","","","","","","","41","","",""
"revaluation","166","770128","0.0-5.0-2.0-0.21","spark_pilot_norest","9983","1","15","Female","","false","","","","","","[579,600.0000000001164]","./assets/img/ocean/memory/32.jpg","[""ArrowDown"",""ArrowRight""]","value training","ocean","17","{""ArrowUp,ArrowLeft"":26,""ArrowUp,ArrowRight"":10,""ArrowDown,ArrowLeft"":5,""ArrowDown,ArrowRight"":17}","false","ArrowDown,ArrowRight","false","original","1","42","","",""
"html-keyboard-response","167","770630","0.0-5.0-2.0-1.21","spark_pilot_norest","9983","1","15","Female","","","","","","","","null","<div style=""font-size:60px;"">+</div>","null","fixation","","","","","","","","","43","","",""
"revaluation","168","776637","0.0-5.0-2.0-0.22","spark_pilot_norest","9983","1","15","Female","","false","","","","","","[699,1355]","./assets/img/ocean/memory/13.jpg","[""ArrowDown"",""ArrowRight""]","value training","ocean","17","{""ArrowUp,ArrowLeft"":26,""ArrowUp,ArrowRight"":10,""ArrowDown,ArrowLeft"":5,""ArrowDown,ArrowRight"":17}","false","ArrowDown,ArrowRight","false","original","1","44","","",""
"html-keyboard-response","169","777139","0.0-5.0-2.0-1.22","spark_pilot_norest","9983","1","15","Female","","","","","","","","null","<div style=""font-size:60px;"">+</div>","null","fixation","","","","","","","","","45","","",""
"revaluation","170","783146","0.0-5.0-2.0-0.23","spark_pilot_norest","9983","1","15","Female","","false","","","","","","[101,859]","./assets/img/ocean/memory/33.jpg","[""ArrowUp"",""ArrowLeft""]","value training","ocean","26","{""ArrowUp,ArrowLeft"":26,""ArrowUp,ArrowRight"":10,""ArrowDown,ArrowLeft"":5,""ArrowDown,ArrowRight"":17}","true","ArrowUp,ArrowLeft","false","original","1","46","","",""
"html-keyboard-response","171","783649","0.0-5.0-2.0-1.23","spark_pilot_norest","9983","1","15","Female","","","","","","","","null","<div style=""font-size:60px;"">+</div>","null","fixation","","","","","","","","","47","","",""
"revaluation","172","789657","0.0-5.0-2.0-0.24","spark_pilot_norest","9983","1","15","Female","","false","","","","","","[410.9999999998836,972]","./assets/img/ocean/memory/29.jpg","[""ArrowDown"",""ArrowRight""]","value training","ocean","17","{""ArrowUp,ArrowLeft"":26,""ArrowUp,ArrowRight"":10,""ArrowDown,ArrowLeft"":5,""ArrowDown,ArrowRight"":17}","false","ArrowDown,ArrowRight","false","original","1","48","","",""
"html-keyboard-response","173","790160","0.0-5.0-2.0-1.24","spark_pilot_norest","9983","1","15","Female","","","","","","","","null","<div style=""font-size:60px;"">+</div>","null","fixation","","","","","","","","","49","","",""
"revaluation","174","796167","0.0-5.0-2.0-0.25","spark_pilot_norest","9983","1","15","Female","","false","","","","","","[553,901.0000000001164]","./assets/img/ocean/memory/32.jpg","[""ArrowDown"",""ArrowRight""]","value training","ocean","17","{""ArrowUp,ArrowLeft"":26,""ArrowUp,ArrowRight"":10,""ArrowDown,ArrowLeft"":5,""ArrowDown,ArrowRight"":17}","false","ArrowDown,ArrowRight","false","original","1","50","","",""
"html-keyboard-response","175","796669","0.0-5.0-2.0-1.25","spark_pilot_norest","9983","1","15","Female","","","","","","","","null","<div style=""font-size:60px;"">+</div>","null","fixation","","","","","","","","","51","","",""
"revaluation","176","802676","0.0-5.0-2.0-0.26","spark_pilot_norest","9983","1","15","Female","","false","","","","","","[503,936]","./assets/img/ocean/memory/24.jpg","[""ArrowDown"",""ArrowRight""]","value training","ocean","17","{""ArrowUp,ArrowLeft"":26,""ArrowUp,ArrowRight"":10,""ArrowDown,ArrowLeft"":5,""ArrowDown,ArrowRight"":17}","false","ArrowDown,ArrowRight","false","original","1","52","","",""
"html-keyboard-response","177","803179","0.0-5.0-2.0-1.26","spark_pilot_norest","9983","1","15","Female","","","","","","","","null","<div style=""font-size:60px;"">+</div>","null","fixation","","","","","","","","","53","","",""
"revaluation","178","809186","0.0-5.0-2.0-0.27","spark_pilot_norest","9983","1","15","Female","","false","","","","","","[421,857]","./assets/img/ocean/memory/27.jpg","[""ArrowUp"",""ArrowLeft""]","value training","ocean","26","{""ArrowUp,ArrowLeft"":26,""ArrowUp,ArrowRight"":10,""ArrowDown,ArrowLeft"":5,""ArrowDown,ArrowRight"":17}","true","ArrowUp,ArrowLeft","false","original","1","54","","",""
"html-keyboard-response","179","809689","0.0-5.0-2.0-1.27","spark_pilot_norest","9983","1","15","Female","","","","","","","","null","<div style=""font-size:60px;"">+</div>","null","fixation","","","","","","","","","55","","",""
"revaluation","180","815696","0.0-5.0-2.0-0.28","spark_pilot_norest","9983","1","15","Female","","false","","","","","","[341,780]","./assets/img/ocean/memory/38.jpg","[""ArrowUp"",""ArrowLeft""]","value training","ocean","26","{""ArrowUp,ArrowLeft"":26,""ArrowUp,ArrowRight"":10,""ArrowDown,ArrowLeft"":5,""ArrowDown,ArrowRight"":17}","true","ArrowUp,ArrowLeft","false","original","1","56","","",""
"html-keyboard-response","181","816199","0.0-5.0-2.0-1.28","spark_pilot_norest","9983","1","15","Female","","","","","","","","null","<div style=""font-size:60px;"">+</div>","null","fixation","","","","","","","","","57","","",""
"revaluation","182","820204","0.0-5.0-2.0-0.29","spark_pilot_norest","9983","1","15","Female","","false","","","","","","[906]","./assets/img/ocean/catch/0.jpg","[""spaceBar""]","value training","ocean","0","{""ArrowUp,ArrowLeft"":26,""ArrowUp,ArrowRight"":10,""ArrowDown,ArrowLeft"":5,""ArrowDown,ArrowRight"":17}","true","spaceBar","true","original","1","58","","",""
"html-keyboard-response","183","820706","0.0-5.0-2.0-1.29","spark_pilot_norest","9983","1","15","Female","","","","","","","","null","<div style=""font-size:60px;"">+</div>","null","fixation","","","","","","","","","59","","",""
"revaluation","184","826712","0.0-5.0-2.0-0.30","spark_pilot_norest","9983","1","15","Female","","false","","","","","","[1071,724]","./assets/img/ocean/memory/41.jpg","[""ArrowUp"",""ArrowLeft""]","value training","ocean","26","{""ArrowUp,ArrowLeft"":26,""ArrowUp,ArrowRight"":10,""ArrowDown,ArrowLeft"":5,""ArrowDown,ArrowRight"":17}","true","ArrowUp,ArrowLeft","false","original","1","60","","",""
"html-keyboard-response","185","827215","0.0-5.0-2.0-1.30","spark_pilot_norest","9983","1","15","Female","","","","","","","","null","<div style=""font-size:60px;"">+</div>","null","fixation","","","","","","","","","61","","",""
"revaluation","186","833222","0.0-5.0-2.0-0.31","spark_pilot_norest","9983","1","15","Female","","false","","","","","","[428,948.9999999998836]","./assets/img/ocean/memory/10.jpg","[""ArrowUp"",""ArrowLeft""]","value training","ocean","26","{""ArrowUp,ArrowLeft"":26,""ArrowUp,ArrowRight"":10,""ArrowDown,ArrowLeft"":5,""ArrowDown,ArrowRight"":17}","true","ArrowUp,ArrowLeft","false","original","1","62","","",""
"html-keyboard-response","187","833725","0.0-5.0-2.0-1.31","spark_pilot_norest","9983","1","15","Female","","","","","","","","null","<div style=""font-size:60px;"">+</div>","null","fixation","","","","","","","","","63","","",""
"revaluation","188","839731","0.0-5.0-2.0-0.32","spark_pilot_norest","9983","1","15","Female","","false","","","","","","[359,866.9999999998836]","./assets/img/ocean/memory/10.jpg","[""ArrowUp"",""ArrowLeft""]","value training","ocean","26","{""ArrowUp,ArrowLeft"":26,""ArrowUp,ArrowRight"":10,""ArrowDown,ArrowLeft"":5,""ArrowDown,ArrowRight"":17}","true","ArrowUp,ArrowLeft","false","original","1","64","","",""
"html-keyboard-response","189","840234","0.0-5.0-2.0-1.32","spark_pilot_norest","9983","1","15","Female","","","","","","","","null","<div style=""font-size:60px;"">+</div>","null","fixation","","","","","","","","","65","","",""
"revaluation","190","846240","0.0-5.0-2.0-0.33","spark_pilot_norest","9983","1","15","Female","","false","","","","","","[380,829.9999999998836]","./assets/img/ocean/memory/39.jpg","[""ArrowUp"",""ArrowLeft""]","value training","ocean","26","{""ArrowUp,ArrowLeft"":26,""ArrowUp,ArrowRight"":10,""ArrowDown,ArrowLeft"":5,""ArrowDown,ArrowRight"":17}","true","ArrowUp,ArrowLeft","false","original","1","66","","",""
"html-keyboard-response","191","846743","0.0-5.0-2.0-1.33","spark_pilot_norest","9983","1","15","Female","","","","","","","","null","<div style=""font-size:60px;"">+</div>","null","fixation","","","","","","","","","67","","",""
"revaluation","192","852750","0.0-5.0-2.0-0.34","spark_pilot_norest","9983","1","15","Female","","false","","","","","","[686,991.0000000001164]","./assets/img/ocean/memory/33.jpg","[""ArrowUp"",""ArrowLeft""]","value training","ocean","26","{""ArrowUp,ArrowLeft"":26,""ArrowUp,ArrowRight"":10,""ArrowDown,ArrowLeft"":5,""ArrowDown,ArrowRight"":17}","true","ArrowUp,ArrowLeft","false","original","1","68","","",""
"html-keyboard-response","193","853253","0.0-5.0-2.0-1.34","spark_pilot_norest","9983","1","15","Female","","","","","","","","null","<div style=""font-size:60px;"">+</div>","null","fixation","","","","","","","","","69","","",""
"revaluation","194","857259","0.0-5.0-2.0-0.35","spark_pilot_norest","9983","1","15","Female","","false","","","","","","[778]","./assets/img/ocean/catch/2.jpg","[""spaceBar""]","value training","ocean","0","{""ArrowUp,ArrowLeft"":26,""ArrowUp,ArrowRight"":10,""ArrowDown,ArrowLeft"":5,""ArrowDown,ArrowRight"":17}","true","spaceBar","true","original","1","70","","",""
"html-keyboard-response","195","857762","0.0-5.0-2.0-1.35","spark_pilot_norest","9983","1","15","Female","","","","","","","","null","<div style=""font-size:60px;"">+</div>","null","fixation","","","","","","","","","71","","",""
"revaluation","196","863769","0.0-5.0-2.0-0.36","spark_pilot_norest","9983","1","15","Female","","false","","","","","","[549,1045]","./assets/img/ocean/memory/31.jpg","[""ArrowUp"",""ArrowLeft""]","value training","ocean","26","{""ArrowUp,ArrowLeft"":26,""ArrowUp,ArrowRight"":10,""ArrowDown,ArrowLeft"":5,""ArrowDown,ArrowRight"":17}","true","ArrowUp,ArrowLeft","false","original","1","72","","",""
"html-keyboard-response","197","864272","0.0-5.0-2.0-1.36","spark_pilot_norest","9983","1","15","Female","","","","","","","","null","<div style=""font-size:60px;"">+</div>","null","fixation","","","","","","","","","73","","",""
"revaluation","198","870279","0.0-5.0-2.0-0.37","spark_pilot_norest","9983","1","15","Female","","false","","","","","","[326,856]","./assets/img/ocean/memory/29.jpg","[""ArrowUp"",""ArrowLeft""]","value training","ocean","26","{""ArrowUp,ArrowLeft"":26,""ArrowUp,ArrowRight"":10,""ArrowDown,ArrowLeft"":5,""ArrowDown,ArrowRight"":17}","true","ArrowUp,ArrowLeft","false","original","1","74","","",""
"html-keyboard-response","199","870782","0.0-5.0-2.0-1.37","spark_pilot_norest","9983","1","15","Female","","","","","","","","null","<div style=""font-size:60px;"">+</div>","null","fixation","","","","","","","","","75","","",""
"revaluation","200","876789","0.0-5.0-2.0-0.38","spark_pilot_norest","9983","1","15","Female","","false","","","","","","[710,837.0000000001164]","./assets/img/ocean/memory/9.jpg","[""ArrowUp"",""ArrowLeft""]","value training","ocean","26","{""ArrowUp,ArrowLeft"":26,""ArrowUp,ArrowRight"":10,""ArrowDown,ArrowLeft"":5,""ArrowDown,ArrowRight"":17}","true","ArrowUp,ArrowLeft","false","original","1","76","","",""
"html-keyboard-response","201","877292","0.0-5.0-2.0-1.38","spark_pilot_norest","9983","1","15","Female","","","","","","","","null","<div style=""font-size:60px;"">+</div>","null","fixation","","","","","","","","","77","","",""
"revaluation","202","883300","0.0-5.0-2.0-0.39","spark_pilot_norest","9983","1","15","Female","","false","","","","","","[334,744.0000000001164]","./assets/img/ocean/memory/6.jpg","[""ArrowUp"",""ArrowLeft""]","value training","ocean","26","{""ArrowUp,ArrowLeft"":26,""ArrowUp,ArrowRight"":10,""ArrowDown,ArrowLeft"":5,""ArrowDown,ArrowRight"":17}","true","ArrowUp,ArrowLeft","false","original","1","78","","",""
"html-keyboard-response","203","883802","0.0-5.0-2.0-1.39","spark_pilot_norest","9983","1","15","Female","","","","","","","","null","<div style=""font-size:60px;"">+</div>","null","fixation","","","","","","","","","79","","",""
"revaluation","204","889809","0.0-5.0-2.0-0.40","spark_pilot_norest","9983","1","15","Female","","false","","","","","","[684,593]","./assets/img/ocean/memory/40.jpg","[""ArrowUp"",""ArrowLeft""]","value training","ocean","26","{""ArrowUp,ArrowLeft"":26,""ArrowUp,ArrowRight"":10,""ArrowDown,ArrowLeft"":5,""ArrowDown,ArrowRight"":17}","true","ArrowUp,ArrowLeft","false","original","1","80","","",""
"html-keyboard-response","205","890312","0.0-5.0-2.0-1.40","spark_pilot_norest","9983","1","15","Female","","","","","","","","null","<div style=""font-size:60px;"">+</div>","null","fixation","","","","","","","","","81","","",""
"revaluation","206","894317","0.0-5.0-2.0-0.41","spark_pilot_norest","9983","1","15","Female","","false","","","","","","[301.9999999998836]","./assets/img/ocean/catch/5.jpg","[""ArrowUp""]","value training","ocean","-10","{""ArrowUp,ArrowLeft"":26,""ArrowUp,ArrowRight"":10,""ArrowDown,ArrowLeft"":5,""ArrowDown,ArrowRight"":17}","false","ArrowUp","true","original","1","82","","",""
"html-keyboard-response","207","894819","0.0-5.0-2.0-1.41","spark_pilot_norest","9983","1","15","Female","","","","","","","","null","<div style=""font-size:60px;"">+</div>","null","fixation","","","","","","","","","83","","",""
"revaluation","208","898824","0.0-5.0-2.0-0.42","spark_pilot_norest","9983","1","15","Female","","false","","","","","","[353]","./assets/img/ocean/catch/1.jpg","[""ArrowUp""]","value training","ocean","-10","{""ArrowUp,ArrowLeft"":26,""ArrowUp,ArrowRight"":10,""ArrowDown,ArrowLeft"":5,""ArrowDown,ArrowRight"":17}","false","ArrowUp","true","original","1","84","","",""
"html-keyboard-response","209","899327","0.0-5.0-2.0-1.42","spark_pilot_norest","9983","1","15","Female","","","","","","","","null","<div style=""font-size:60px;"">+</div>","null","fixation","","","","","","","","","85","","",""
"revaluation","210","905334","0.0-5.0-2.0-0.43","spark_pilot_norest","9983","1","15","Female","","false","","","","","","[1199,1044]","./assets/img/ocean/memory/31.jpg","[""ArrowUp"",""ArrowLeft""]","value training","ocean","26","{""ArrowUp,ArrowLeft"":26,""ArrowUp,ArrowRight"":10,""ArrowDown,ArrowLeft"":5,""ArrowDown,ArrowRight"":17}","true","ArrowUp,ArrowLeft","false","original","1","86","","",""
"html-keyboard-response","211","905837","0.0-5.0-2.0-1.43","spark_pilot_norest","9983","1","15","Female","","","","","","","","null","<div style=""font-size:60px;"">+</div>","null","fixation","","","","","","","","","87","","",""
"revaluation","212","911843","0.0-5.0-2.0-0.44","spark_pilot_norest","9983","1","15","Female","","false","","","","","","[990,1154]","./assets/img/ocean/memory/35.jpg","[""ArrowUp"",""ArrowLeft""]","value training","ocean","26","{""ArrowUp,ArrowLeft"":26,""ArrowUp,ArrowRight"":10,""ArrowDown,ArrowLeft"":5,""ArrowDown,ArrowRight"":17}","true","ArrowUp,ArrowLeft","false","original","1","88","","",""
"html-keyboard-response","213","912346","0.0-5.0-2.0-1.44","spark_pilot_norest","9983","1","15","Female","","","","","","","","null","<div style=""font-size:60px;"">+</div>","null","fixation","","","","","","","","","89","","",""
"revaluation","214","918353","0.0-5.0-2.0-0.45","spark_pilot_norest","9983","1","15","Female","","false","","","","","","[642,929]","./assets/img/ocean/memory/41.jpg","[""ArrowUp"",""ArrowLeft""]","value training","ocean","26","{""ArrowUp,ArrowLeft"":26,""ArrowUp,ArrowRight"":10,""ArrowDown,ArrowLeft"":5,""ArrowDown,ArrowRight"":17}","true","ArrowUp,ArrowLeft","false","original","1","90","","",""
"html-keyboard-response","215","918856","0.0-5.0-2.0-1.45","spark_pilot_norest","9983","1","15","Female","","","","","","","","null","<div style=""font-size:60px;"">+</div>","null","fixation","","","","","","","","","91","","",""
"revaluation","216","922862","0.0-5.0-2.0-0.46","spark_pilot_norest","9983","1","15","Female","","false","","","","","","[854]","./assets/img/ocean/catch/4.jpg","[""spaceBar""]","value training","ocean","0","{""ArrowUp,ArrowLeft"":26,""ArrowUp,ArrowRight"":10,""ArrowDown,ArrowLeft"":5,""ArrowDown,ArrowRight"":17}","true","spaceBar","true","original","1","92","","",""
"html-keyboard-response","217","923364","0.0-5.0-2.0-1.46","spark_pilot_norest","9983","1","15","Female","","","","","","","","null","<div style=""font-size:60px;"">+</div>","null","fixation","","","","","","","","","93","","",""
"revaluation","218","929372","0.0-5.0-2.0-0.47","spark_pilot_norest","9983","1","15","Female","","false","","","","","","[594.9999999998836,591]","./assets/img/ocean/memory/28.jpg","[""ArrowUp"",""ArrowLeft""]","value training","ocean","26","{""ArrowUp,ArrowLeft"":26,""ArrowUp,ArrowRight"":10,""ArrowDown,ArrowLeft"":5,""ArrowDown,ArrowRight"":17}","true","ArrowUp,ArrowLeft","false","original","1","94","","",""
"html-keyboard-response","219","929874","0.0-5.0-2.0-1.47","spark_pilot_norest","9983","1","15","Female","","","","","","","","null","<div style=""font-size:60px;"">+</div>","null","fixation","","","","","","","","","95","","",""
"revaluation","220","935880","0.0-5.0-2.0-0.48","spark_pilot_norest","9983","1","15","Female","","false","","","","","","[612.9999999998836,668]","./assets/img/ocean/memory/28.jpg","[""ArrowUp"",""ArrowLeft""]","value training","ocean","26","{""ArrowUp,ArrowLeft"":26,""ArrowUp,ArrowRight"":10,""ArrowDown,ArrowLeft"":5,""ArrowDown,ArrowRight"":17}","true","ArrowUp,ArrowLeft","false","original","1","96","","",""
"html-keyboard-response","221","936382","0.0-5.0-2.0-1.48","spark_pilot_norest","9983","1","15","Female","","","","","","","","null","<div style=""font-size:60px;"">+</div>","null","fixation","","","","","","","","","97","","",""
"revaluation","222","942388","0.0-5.0-2.0-0.49","spark_pilot_norest","9983","1","15","Female","","false","","","","","","[736,702]","./assets/img/ocean/memory/37.jpg","[""ArrowUp"",""ArrowLeft""]","value training","ocean","26","{""ArrowUp,ArrowLeft"":26,""ArrowUp,ArrowRight"":10,""ArrowDown,ArrowLeft"":5,""ArrowDown,ArrowRight"":17}","true","ArrowUp,ArrowLeft","false","original","1","98","","",""
"html-keyboard-response","223","942891","0.0-5.0-2.0-1.49","spark_pilot_norest","9983","1","15","Female","","","","","","","","null","<div style=""font-size:60px;"">+</div>","null","fixation","","","","","","","","","99","","",""
"learning-instructions","224","958687","0.0-5.0-3.0-0.0","spark_pilot_norest","9983","1","15","Female","","","","","","","","2912","<p> Now, you will travel with a friend who will choose whether you go up or down first. </p>
            <p> On these turns, you will just see the animal that they found. You will still get to choose which chest to search for treasure.</p>","","instructions","","","","","","","","","","","",""
"revaluation","225","962693","0.0-5.0-4.0-0.0","spark_pilot_norest","9983","1","15","Female","","false","","","","","","[1183.9999999998836]","./assets/img/ocean/animals/octopus.jpg","[""ArrowRight""]","revaluation","ocean","17","{""ArrowUp,ArrowLeft"":26,""ArrowUp,ArrowRight"":10,""ArrowDown,ArrowLeft"":5,""ArrowDown,ArrowRight"":17}","true","ArrowDown,ArrowRight","","original","1","0","","",""
"html-keyboard-response","226","963196","0.0-5.0-4.0-1.0","spark_pilot_norest","9983","1","15","Female","","","","","","","","null","<div style=""font-size:60px;"">+</div>","null","fixation","","","","","","","","","1","","",""
"revaluation","227","967202","0.0-5.0-4.0-0.1","spark_pilot_norest","9983","1","15","Female","","false","","","","","","[942]","./assets/img/ocean/animals/seahorse.jpg","[""ArrowLeft""]","revaluation","ocean","26","{""ArrowUp,ArrowLeft"":26,""ArrowUp,ArrowRight"":10,""ArrowDown,ArrowLeft"":5,""ArrowDown,ArrowRight"":17}","true","ArrowUp,ArrowLeft","","original","1","2","","",""
"html-keyboard-response","228","967705","0.0-5.0-4.0-1.1","spark_pilot_norest","9983","1","15","Female","","","","","","","","null","<div style=""font-size:60px;"">+</div>","null","fixation","","","","","","","","","3","","",""
"revaluation","229","971711","0.0-5.0-4.0-0.2","spark_pilot_norest","9983","1","15","Female","","false","","","","","","[619]","./assets/img/ocean/animals/seahorse.jpg","[""ArrowRight""]","revaluation","ocean","10","{""ArrowUp,ArrowLeft"":26,""ArrowUp,ArrowRight"":10,""ArrowDown,ArrowLeft"":5,""ArrowDown,ArrowRight"":17}","false","ArrowUp,ArrowRight","","original","1","4","","",""
"html-keyboard-response","230","972214","0.0-5.0-4.0-1.2","spark_pilot_norest","9983","1","15","Female","","","","","","","","null","<div style=""font-size:60px;"">+</div>","null","fixation","","","","","","","","","5","","",""
"revaluation","231","976220","0.0-5.0-4.0-0.3","spark_pilot_norest","9983","1","15","Female","","false","","","","","","[630]","./assets/img/ocean/animals/seahorse.jpg","[""ArrowLeft""]","revaluation","ocean","26","{""ArrowUp,ArrowLeft"":26,""ArrowUp,ArrowRight"":10,""ArrowDown,ArrowLeft"":5,""ArrowDown,ArrowRight"":17}","true","ArrowUp,ArrowLeft","","original","1","6","","",""
"html-keyboard-response","232","976723","0.0-5.0-4.0-1.3","spark_pilot_norest","9983","1","15","Female","","","","","","","","null","<div style=""font-size:60px;"">+</div>","null","fixation","","","","","","","","","7","","",""
"revaluation","233","980729","0.0-5.0-4.0-0.4","spark_pilot_norest","9983","1","15","Female","","false","","","","","","[549]","./assets/img/ocean/animals/octopus.jpg","[""ArrowLeft""]","revaluation","ocean","5","{""ArrowUp,ArrowLeft"":26,""ArrowUp,ArrowRight"":10,""ArrowDown,ArrowLeft"":5,""ArrowDown,ArrowRight"":17}","false","ArrowDown,ArrowLeft","","original","1","8","","",""
"html-keyboard-response","234","981232","0.0-5.0-4.0-1.4","spark_pilot_norest","9983","1","15","Female","","","","","","","","null","<div style=""font-size:60px;"">+</div>","null","fixation","","","","","","","","","9","","",""
"revaluation","235","985238","0.0-5.0-4.0-0.5","spark_pilot_norest","9983","1","15","Female","","false","","","","","","[858.0000000001164]","./assets/img/ocean/animals/seahorse.jpg","[""ArrowLeft""]","revaluation","ocean","26","{""ArrowUp,ArrowLeft"":26,""ArrowUp,ArrowRight"":10,""ArrowDown,ArrowLeft"":5,""ArrowDown,ArrowRight"":17}","true","ArrowUp,ArrowLeft","","original","1","10","","",""
"html-keyboard-response","236","985741","0.0-5.0-4.0-1.5","spark_pilot_norest","9983","1","15","Female","","","","","","","","null","<div style=""font-size:60px;"">+</div>","null","fixation","","","","","","","","","11","","",""
"revaluation","237","989747","0.0-5.0-4.0-0.6","spark_pilot_norest","9983","1","15","Female","","false","","","","","","[630]","./assets/img/ocean/animals/seahorse.jpg","[""ArrowLeft""]","revaluation","ocean","26","{""ArrowUp,ArrowLeft"":26,""ArrowUp,ArrowRight"":10,""ArrowDown,ArrowLeft"":5,""ArrowDown,ArrowRight"":17}","true","ArrowUp,ArrowLeft","","original","1","12","","",""
"html-keyboard-response","238","990249","0.0-5.0-4.0-1.6","spark_pilot_norest","9983","1","15","Female","","","","","","","","null","<div style=""font-size:60px;"">+</div>","null","fixation","","","","","","","","","13","","",""
"revaluation","239","994255","0.0-5.0-4.0-0.7","spark_pilot_norest","9983","1","15","Female","","false","","","","","","[543]","./assets/img/ocean/animals/octopus.jpg","[""ArrowRight""]","revaluation","ocean","17","{""ArrowUp,ArrowLeft"":26,""ArrowUp,ArrowRight"":10,""ArrowDown,ArrowLeft"":5,""ArrowDown,ArrowRight"":17}","true","ArrowDown,ArrowRight","","original","1","14","","",""
"html-keyboard-response","240","994758","0.0-5.0-4.0-1.7","spark_pilot_norest","9983","1","15","Female","","","","","","","","null","<div style=""font-size:60px;"">+</div>","null","fixation","","","","","","","","","15","","",""
"revaluation","241","998763","0.0-5.0-4.0-0.8","spark_pilot_norest","9983","1","15","Female","","false","","","","","","[617.9999999998836]","./assets/img/ocean/animals/octopus.jpg","[""ArrowRight""]","revaluation","ocean","17","{""ArrowUp,ArrowLeft"":26,""ArrowUp,ArrowRight"":10,""ArrowDown,ArrowLeft"":5,""ArrowDown,ArrowRight"":17}","true","ArrowDown,ArrowRight","","original","1","16","","",""
"html-keyboard-response","242","999266","0.0-5.0-4.0-1.8","spark_pilot_norest","9983","1","15","Female","","","","","","","","null","<div style=""font-size:60px;"">+</div>","null","fixation","","","","","","","","","17","","",""
"revaluation","243","1003272","0.0-5.0-4.0-0.9","spark_pilot_norest","9983","1","15","Female","","false","","","","","","[607]","./assets/img/ocean/animals/seahorse.jpg","[""ArrowLeft""]","revaluation","ocean","26","{""ArrowUp,ArrowLeft"":26,""ArrowUp,ArrowRight"":10,""ArrowDown,ArrowLeft"":5,""ArrowDown,ArrowRight"":17}","true","ArrowUp,ArrowLeft","","original","1","18","","",""
"html-keyboard-response","244","1003775","0.0-5.0-4.0-1.9","spark_pilot_norest","9983","1","15","Female","","","","","","","","null","<div style=""font-size:60px;"">+</div>","null","fixation","","","","","","","","","19","","",""
"revaluation","245","1007780","0.0-5.0-4.0-0.10","spark_pilot_norest","9983","1","15","Female","","false","","","","","","[592]","./assets/img/ocean/animals/seahorse.jpg","[""ArrowLeft""]","revaluation","ocean","26","{""ArrowUp,ArrowLeft"":26,""ArrowUp,ArrowRight"":10,""ArrowDown,ArrowLeft"":5,""ArrowDown,ArrowRight"":17}","true","ArrowUp,ArrowLeft","","original","1","20","","",""
"html-keyboard-response","246","1008283","0.0-5.0-4.0-1.10","spark_pilot_norest","9983","1","15","Female","","","","","","","","null","<div style=""font-size:60px;"">+</div>","null","fixation","","","","","","","","","21","","",""
"revaluation","247","1012289","0.0-5.0-4.0-0.11","spark_pilot_norest","9983","1","15","Female","","false","","","","","","[565]","./assets/img/ocean/animals/octopus.jpg","[""ArrowRight""]","revaluation","ocean","17","{""ArrowUp,ArrowLeft"":26,""ArrowUp,ArrowRight"":10,""ArrowDown,ArrowLeft"":5,""ArrowDown,ArrowRight"":17}","true","ArrowDown,ArrowRight","","original","1","22","","",""
"html-keyboard-response","248","1012792","0.0-5.0-4.0-1.11","spark_pilot_norest","9983","1","15","Female","","","","","","","","null","<div style=""font-size:60px;"">+</div>","null","fixation","","","","","","","","","23","","",""
"revaluation","249","1016798","0.0-5.0-4.0-0.12","spark_pilot_norest","9983","1","15","Female","","false","","","","","","[605]","./assets/img/ocean/animals/seahorse.jpg","[""ArrowLeft""]","revaluation","ocean","26","{""ArrowUp,ArrowLeft"":26,""ArrowUp,ArrowRight"":10,""ArrowDown,ArrowLeft"":5,""ArrowDown,ArrowRight"":17}","true","ArrowUp,ArrowLeft","","original","1","24","","",""
"html-keyboard-response","250","1017300","0.0-5.0-4.0-1.12","spark_pilot_norest","9983","1","15","Female","","","","","","","","null","<div style=""font-size:60px;"">+</div>","null","fixation","","","","","","","","","25","","",""
"revaluation","251","1021306","0.0-5.0-4.0-0.13","spark_pilot_norest","9983","1","15","Female","","false","","","","","","[625]","./assets/img/ocean/animals/octopus.jpg","[""ArrowRight""]","revaluation","ocean","17","{""ArrowUp,ArrowLeft"":26,""ArrowUp,ArrowRight"":10,""ArrowDown,ArrowLeft"":5,""ArrowDown,ArrowRight"":17}","true","ArrowDown,ArrowRight","","original","1","26","","",""
"html-keyboard-response","252","1021809","0.0-5.0-4.0-1.13","spark_pilot_norest","9983","1","15","Female","","","","","","","","null","<div style=""font-size:60px;"">+</div>","null","fixation","","","","","","","","","27","","",""
"revaluation","253","1025814","0.0-5.0-4.0-0.14","spark_pilot_norest","9983","1","15","Female","","false","","","","","","[500]","./assets/img/ocean/animals/octopus.jpg","[""ArrowLeft""]","revaluation","ocean","5","{""ArrowUp,ArrowLeft"":26,""ArrowUp,ArrowRight"":10,""ArrowDown,ArrowLeft"":5,""ArrowDown,ArrowRight"":17}","false","ArrowDown,ArrowLeft","","original","1","28","","",""
"html-keyboard-response","254","1026317","0.0-5.0-4.0-1.14","spark_pilot_norest","9983","1","15","Female","","","","","","","","null","<div style=""font-size:60px;"">+</div>","null","fixation","","","","","","","","","29","","",""
"revaluation","255","1030321","0.0-5.0-4.0-0.15","spark_pilot_norest","9983","1","15","Female","","false","","","","","","[1340.9999999998836]","./assets/img/ocean/animals/octopus.jpg","[""ArrowRight""]","revaluation","ocean","17","{""ArrowUp,ArrowLeft"":26,""ArrowUp,ArrowRight"":10,""ArrowDown,ArrowLeft"":5,""ArrowDown,ArrowRight"":17}","true","ArrowDown,ArrowRight","","original","1","30","","",""
"html-keyboard-response","256","1030824","0.0-5.0-4.0-1.15","spark_pilot_norest","9983","1","15","Female","","","","","","","","null","<div style=""font-size:60px;"">+</div>","null","fixation","","","","","","","","","31","","",""
"revaluation","257","1034830","0.0-5.0-4.0-0.16","spark_pilot_norest","9983","1","15","Female","","false","","","","","","[415]","./assets/img/ocean/animals/octopus.jpg","[""ArrowRight""]","revaluation","ocean","17","{""ArrowUp,ArrowLeft"":26,""ArrowUp,ArrowRight"":10,""ArrowDown,ArrowLeft"":5,""ArrowDown,ArrowRight"":17}","true","ArrowDown,ArrowRight","","original","1","32","","",""
"html-keyboard-response","258","1035333","0.0-5.0-4.0-1.16","spark_pilot_norest","9983","1","15","Female","","","","","","","","null","<div style=""font-size:60px;"">+</div>","null","fixation","","","","","","","","","33","","",""
"revaluation","259","1039338","0.0-5.0-4.0-0.17","spark_pilot_norest","9983","1","15","Female","","false","","","","","","[632.0000000001164]","./assets/img/ocean/animals/seahorse.jpg","[""ArrowLeft""]","revaluation","ocean","26","{""ArrowUp,ArrowLeft"":26,""ArrowUp,ArrowRight"":10,""ArrowDown,ArrowLeft"":5,""ArrowDown,ArrowRight"":17}","true","ArrowUp,ArrowLeft","","original","1","34","","",""
"html-keyboard-response","260","1039841","0.0-5.0-4.0-1.17","spark_pilot_norest","9983","1","15","Female","","","","","","","","null","<div style=""font-size:60px;"">+</div>","null","fixation","","","","","","","","","35","","",""
"learning-instructions","261","1047945","0.0-5.0-5.0-0.0","spark_pilot_norest","9983","1","15","Female","","","","","","","","null","<p> You have almost finished this part of the game! </p>
            <p> We are going to ask you to make a few more choices. </p>","","instructions","","","","","","","","","","","",""
"learning-instructions","262","1063918","0.0-5.0-5.0-0.1","spark_pilot_norest","9983","1","15","Female","","","","","","","","null","<p> First, you need to decide whether to go up or down. When you see each picture, use the arrow keys to make your choice. </p>
            <p><b>You will not see which animal you found, but try to get to the one that will give you the most treasure.</b></p>","","instructions","","","","","","","","","","","",""
"html-keyboard-response","263","1064921","0.0-5.0-6.0-0.0","spark_pilot_norest","9983","1","15","Female","","","","","","","","null","<div style=""font-size:100px;color:red;"">Starting in...</div>","null","","","","","","","","","","","","",""
"html-keyboard-response","264","1065923","0.0-5.0-6.0-1.0","spark_pilot_norest","9983","1","15","Female","","","","","","","","null","<div style=""font-size:200px;color:red;"">3</div>","null","","","","","","","","","","","","",""
"html-keyboard-response","265","1066926","0.0-5.0-6.0-2.0","spark_pilot_norest","9983","1","15","Female","","","","","","","","null","<div style=""font-size:200px;color:red;"">2</div>","null","","","","","","","","","","","","",""
"html-keyboard-response","266","1067928","0.0-5.0-6.0-3.0","spark_pilot_norest","9983","1","15","Female","","","","","","","","null","<div style=""font-size:200px;color:red;"">1</div>","null","","","","","","","","","","","","",""
"revaluation","267","1068525","0.0-5.0-7.0-0.0","spark_pilot_norest","9983","1","15","Female","","false","","","","","","[591.9999999997672]","./assets/img/ocean/test/0.jpg","[""ArrowUp""]","first stage test","ocean","0","{""ArrowUp,ArrowLeft"":26,""ArrowUp,ArrowRight"":10,""ArrowDown,ArrowLeft"":5,""ArrowDown,ArrowRight"":17}","true","ArrowUp","false","original","1","","","",""
"html-keyboard-response","268","1069028","0.0-5.0-7.0-1.0","spark_pilot_norest","9983","1","15","Female","","","","","","","","null","<div style=""font-size:60px;"">+</div>","null","fixation","","","","","","","","","","","",""
"revaluation","269","1069868","0.0-5.0-7.0-0.1","spark_pilot_norest","9983","1","15","Female","","false","","","","","","[837]","./assets/img/ocean/test/1.jpg","[""ArrowUp""]","first stage test","ocean","0","{""ArrowUp,ArrowLeft"":26,""ArrowUp,ArrowRight"":10,""ArrowDown,ArrowLeft"":5,""ArrowDown,ArrowRight"":17}","true","ArrowUp","false","original","1","","","",""
"html-keyboard-response","270","1070371","0.0-5.0-7.0-1.1","spark_pilot_norest","9983","1","15","Female","","","","","","","","null","<div style=""font-size:60px;"">+</div>","null","fixation","","","","","","","","","","","",""
"revaluation","271","1070918","0.0-5.0-7.0-0.2","spark_pilot_norest","9983","1","15","Female","","false","","","","","","[543.9999999997672]","./assets/img/ocean/test/3.jpg","[""ArrowUp""]","first stage test","ocean","0","{""ArrowUp,ArrowLeft"":26,""ArrowUp,ArrowRight"":10,""ArrowDown,ArrowLeft"":5,""ArrowDown,ArrowRight"":17}","true","ArrowUp","false","original","1","","","",""
"html-keyboard-response","272","1071421","0.0-5.0-7.0-1.2","spark_pilot_norest","9983","1","15","Female","","","","","","","","null","<div style=""font-size:60px;"">+</div>","null","fixation","","","","","","","","","","","",""
"revaluation","273","1071994","0.0-5.0-7.0-0.3","spark_pilot_norest","9983","1","15","Female","","false","","","","","","[569]","./assets/img/ocean/test/2.jpg","[""ArrowUp""]","first stage test","ocean","0","{""ArrowUp,ArrowLeft"":26,""ArrowUp,ArrowRight"":10,""ArrowDown,ArrowLeft"":5,""ArrowDown,ArrowRight"":17}","true","ArrowUp","false","original","1","","","",""
"html-keyboard-response","274","1072497","0.0-5.0-7.0-1.3","spark_pilot_norest","9983","1","15","Female","","","","","","","","null","<div style=""font-size:60px;"">+</div>","null","fixation","","","","","","","","","","","",""
"learning-instructions","275","1085840","0.0-5.0-8.0-0.0","spark_pilot_norest","9983","1","15","Female","","","","","","","","null","<p> Now you will see the animals again and can search their chests for treasure. </p>
            <p> This time, you will not see how much treasure you earned, but you will earn more bonus money for making better choices. </p>","","instructions","","","","","","","","","","","",""
"html-keyboard-response","276","1086843","0.0-5.0-9.0-0.0","spark_pilot_norest","9983","1","15","Female","","","","","","","","null","<div style=""font-size:100px;color:red;"">Starting in...</div>","null","","","","","","","","","","","","",""
"html-keyboard-response","277","1087846","0.0-5.0-9.0-1.0","spark_pilot_norest","9983","1","15","Female","","","","","","","","null","<div style=""font-size:200px;color:red;"">3</div>","null","","","","","","","","","","","","",""
"html-keyboard-response","278","1088848","0.0-5.0-9.0-2.0","spark_pilot_norest","9983","1","15","Female","","","","","","","","null","<div style=""font-size:200px;color:red;"">2</div>","null","","","","","","","","","","","","",""
"html-keyboard-response","279","1089850","0.0-5.0-9.0-3.0","spark_pilot_norest","9983","1","15","Female","","","","","","","","null","<div style=""font-size:200px;color:red;"">1</div>","null","","","","","","","","","","","","",""
"revaluation","280","1090902","0.0-5.0-10.0-0.0","spark_pilot_norest","9983","1","15","Female","","false","","","","","","[1049]","./assets/img/ocean/animals/seahorse.jpg","[""ArrowLeft""]","second stage test","ocean","0","{""ArrowUp,ArrowLeft"":26,""ArrowUp,ArrowRight"":10,""ArrowDown,ArrowLeft"":5,""ArrowDown,ArrowRight"":17}","true","ArrowUp,ArrowLeft","","original","1","","","",""
"html-keyboard-response","281","1091405","0.0-5.0-10.0-1.0","spark_pilot_norest","9983","1","15","Female","","","","","","","","null","<div style=""font-size:60px;"">+</div>","null","fixation","","","","","","","","","","","",""
"revaluation","282","1091889","0.0-5.0-10.0-0.1","spark_pilot_norest","9983","1","15","Female","","false","","","","","","[480]","./assets/img/ocean/animals/seahorse.jpg","[""ArrowLeft""]","second stage test","ocean","0","{""ArrowUp,ArrowLeft"":26,""ArrowUp,ArrowRight"":10,""ArrowDown,ArrowLeft"":5,""ArrowDown,ArrowRight"":17}","true","ArrowUp,ArrowLeft","","original","1","","","",""
"html-keyboard-response","283","1092392","0.0-5.0-10.0-1.1","spark_pilot_norest","9983","1","15","Female","","","","","","","","null","<div style=""font-size:60px;"">+</div>","null","fixation","","","","","","","","","","","",""
"revaluation","284","1092818","0.0-5.0-10.0-0.2","spark_pilot_norest","9983","1","15","Female","","false","","","","","","[423]","./assets/img/ocean/animals/seahorse.jpg","[""ArrowLeft""]","second stage test","ocean","0","{""ArrowUp,ArrowLeft"":26,""ArrowUp,ArrowRight"":10,""ArrowDown,ArrowLeft"":5,""ArrowDown,ArrowRight"":17}","true","ArrowUp,ArrowLeft","","original","1","","","",""
"html-keyboard-response","285","1093321","0.0-5.0-10.0-1.2","spark_pilot_norest","9983","1","15","Female","","","","","","","","null","<div style=""font-size:60px;"">+</div>","null","fixation","","","","","","","","","","","",""
"revaluation","286","1093720","0.0-5.0-10.0-0.3","spark_pilot_norest","9983","1","15","Female","","false","","","","","","[396.00000000023283]","./assets/img/ocean/animals/seahorse.jpg","[""ArrowLeft""]","second stage test","ocean","0","{""ArrowUp,ArrowLeft"":26,""ArrowUp,ArrowRight"":10,""ArrowDown,ArrowLeft"":5,""ArrowDown,ArrowRight"":17}","true","ArrowUp,ArrowLeft","","original","1","","","",""
"html-keyboard-response","287","1094223","0.0-5.0-10.0-1.3","spark_pilot_norest","9983","1","15","Female","","","","","","","","null","<div style=""font-size:60px;"">+</div>","null","fixation","","","","","","","","","","","",""
"revaluation","288","1095175","0.0-5.0-10.0-0.4","spark_pilot_norest","9983","1","15","Female","","false","","","","","","[948]","./assets/img/ocean/animals/octopus.jpg","[""ArrowRight""]","second stage test","ocean","0","{""ArrowUp,ArrowLeft"":26,""ArrowUp,ArrowRight"":10,""ArrowDown,ArrowLeft"":5,""ArrowDown,ArrowRight"":17}","true","ArrowDown,ArrowRight","","original","1","","","",""
"html-keyboard-response","289","1095678","0.0-5.0-10.0-1.4","spark_pilot_norest","9983","1","15","Female","","","","","","","","null","<div style=""font-size:60px;"">+</div>","null","fixation","","","","","","","","","","","",""
"revaluation","290","1096255","0.0-5.0-10.0-0.5","spark_pilot_norest","9983","1","15","Female","","false","","","","","","[574]","./assets/img/ocean/animals/octopus.jpg","[""ArrowRight""]","second stage test","ocean","0","{""ArrowUp,ArrowLeft"":26,""ArrowUp,ArrowRight"":10,""ArrowDown,ArrowLeft"":5,""ArrowDown,ArrowRight"":17}","true","ArrowDown,ArrowRight","","original","1","","","",""
"html-keyboard-response","291","1096758","0.0-5.0-10.0-1.5","spark_pilot_norest","9983","1","15","Female","","","","","","","","null","<div style=""font-size:60px;"">+</div>","null","fixation","","","","","","","","","","","",""
"revaluation","292","1097471","0.0-5.0-10.0-0.6","spark_pilot_norest","9983","1","15","Female","","false","","","","","","[710]","./assets/img/ocean/animals/octopus.jpg","[""ArrowRight""]","second stage test","ocean","0","{""ArrowUp,ArrowLeft"":26,""ArrowUp,ArrowRight"":10,""ArrowDown,ArrowLeft"":5,""ArrowDown,ArrowRight"":17}","true","ArrowDown,ArrowRight","","original","1","","","",""
"html-keyboard-response","293","1097973","0.0-5.0-10.0-1.6","spark_pilot_norest","9983","1","15","Female","","","","","","","","null","<div style=""font-size:60px;"">+</div>","null","fixation","","","","","","","","","","","",""
"revaluation","294","1098579","0.0-5.0-10.0-0.7","spark_pilot_norest","9983","1","15","Female","","false","","","","","","[602]","./assets/img/ocean/animals/octopus.jpg","[""ArrowRight""]","second stage test","ocean","0","{""ArrowUp,ArrowLeft"":26,""ArrowUp,ArrowRight"":10,""ArrowDown,ArrowLeft"":5,""ArrowDown,ArrowRight"":17}","true","ArrowDown,ArrowRight","","original","1","","","",""
"html-keyboard-response","295","1099082","0.0-5.0-10.0-1.7","spark_pilot_norest","9983","1","15","Female","","","","","","","","null","<div style=""font-size:60px;"">+</div>","null","fixation","","","","","","","","","","","",""
"learning-instructions","296","1103915","0.0-5.0-0.1-0.2","spark_pilot_norest","9983","1","15","Female","","","","","","","","2078","<p> This time you are searching for treasure in the <b>canyon</b>.</p>","","instructions","","","","","","","","","","","",""
"learning-instructions","297","1122581","0.0-5.0-0.1-0.3","spark_pilot_norest","9983","1","15","Female","","","","","","","","1413","<p><b>New</b> animals with <b>new</b> treasure chests live here. You need to explore to discover where the animal with the best treasure chest is.</p>
                    <p> Like before, once you figure out which animal has the chest with the most treasure, you should try to get to that animal and select that chest! </p>","","instructions","","","","","","","","","","","",""
"learning-instructions","298","1138047","0.0-5.0-1.1-0.1","spark_pilot_norest","9983","1","15","Female","","","","","","","","733","<p> Remember, when you see a picture of the place, use the up and down keys to <b>find an animal</b>.</p>
            <p> When you encounter an animal, you should use the left and right keys to <b>select a treasure chest</b>.</p>
            <p> Don't forget to look out for the robber! </p>","","instructions","","","","","","","","","","","",""
"revaluation","299","1144053","0.0-5.0-2.1-0.50","spark_pilot_norest","9983","1","15","Female","","false","","","","","","[660,806]","./assets/img/canyon/memory/29.jpg","[""ArrowUp"",""ArrowLeft""]","value training","canyon","23","{""ArrowUp,ArrowLeft"":23,""ArrowUp,ArrowRight"":10,""ArrowDown,ArrowLeft"":8,""ArrowDown,ArrowRight"":30}","false","ArrowUp,ArrowLeft","false","revaluation","2","0","","",""
"html-keyboard-response","300","1144556","0.0-5.0-2.1-1.50","spark_pilot_norest","9983","1","15","Female","","","","","","","","null","<div style=""font-size:60px;"">+</div>","null","fixation","","","","","","","","","1","","",""
"revaluation","301","1150562","0.0-5.0-2.1-0.51","spark_pilot_norest","9983","1","15","Female","","false","","","","","","[461,530]","./assets/img/canyon/memory/24.jpg","[""ArrowUp"",""ArrowRight""]","value training","canyon","10","{""ArrowUp,ArrowLeft"":23,""ArrowUp,ArrowRight"":10,""ArrowDown,ArrowLeft"":8,""ArrowDown,ArrowRight"":30}","false","ArrowUp,ArrowRight","false","revaluation","2","2","","",""
"html-keyboard-response","302","1151064","0.0-5.0-2.1-1.51","spark_pilot_norest","9983","1","15","Female","","","","","","","","null","<div style=""font-size:60px;"">+</div>","null","fixation","","","","","","","","","3","","",""
"revaluation","303","1155069","0.0-5.0-2.1-0.52","spark_pilot_norest","9983","1","15","Female","","false","","","","","","[349]","./assets/img/canyon/catch/6.jpg","[""ArrowDown""]","value training","canyon","-10","{""ArrowUp,ArrowLeft"":23,""ArrowUp,ArrowRight"":10,""ArrowDown,ArrowLeft"":8,""ArrowDown,ArrowRight"":30}","false","ArrowDown","true","revaluation","2","4","","",""
"html-keyboard-response","304","1155572","0.0-5.0-2.1-1.52","spark_pilot_norest","9983","1","15","Female","","","","","","","","null","<div style=""font-size:60px;"">+</div>","null","fixation","","","","","","","","","5","","",""
"revaluation","305","1161578","0.0-5.0-2.1-0.53","spark_pilot_norest","9983","1","15","Female","","false","","","","","","[910,1194.9999999997672]","./assets/img/canyon/memory/37.jpg","[""ArrowDown"",""ArrowLeft""]","value training","canyon","8","{""ArrowUp,ArrowLeft"":23,""ArrowUp,ArrowRight"":10,""ArrowDown,ArrowLeft"":8,""ArrowDown,ArrowRight"":30}","false","ArrowDown,ArrowLeft","false","revaluation","2","6","","",""
"html-keyboard-response","306","1162081","0.0-5.0-2.1-1.53","spark_pilot_norest","9983","1","15","Female","","","","","","","","null","<div style=""font-size:60px;"">+</div>","null","fixation","","","","","","","","","7","","",""
"revaluation","307","1168088","0.0-5.0-2.1-0.54","spark_pilot_norest","9983","1","15","Female","","false","","","","","","[729,679]","./assets/img/canyon/memory/32.jpg","[""ArrowDown"",""ArrowRight""]","value training","canyon","30","{""ArrowUp,ArrowLeft"":23,""ArrowUp,ArrowRight"":10,""ArrowDown,ArrowLeft"":8,""ArrowDown,ArrowRight"":30}","true","ArrowDown,ArrowRight","false","revaluation","2","8","","",""
"html-keyboard-response","308","1168591","0.0-5.0-2.1-1.54","spark_pilot_norest","9983","1","15","Female","","","","","","","","null","<div style=""font-size:60px;"">+</div>","null","fixation","","","","","","","","","9","","",""
"revaluation","309","1174598","0.0-5.0-2.1-0.55","spark_pilot_norest","9983","1","15","Female","","false","","","","","","[569.9999999997672,626]","./assets/img/canyon/memory/6.jpg","[""ArrowDown"",""ArrowRight""]","value training","canyon","30","{""ArrowUp,ArrowLeft"":23,""ArrowUp,ArrowRight"":10,""ArrowDown,ArrowLeft"":8,""ArrowDown,ArrowRight"":30}","true","ArrowDown,ArrowRight","false","revaluation","2","10","","",""
"html-keyboard-response","310","1175101","0.0-5.0-2.1-1.55","spark_pilot_norest","9983","1","15","Female","","","","","","","","null","<div style=""font-size:60px;"">+</div>","null","fixation","","","","","","","","","11","","",""
"revaluation","311","1181107","0.0-5.0-2.1-0.56","spark_pilot_norest","9983","1","15","Female","","false","","","","","","[440,686.9999999997672]","./assets/img/canyon/memory/31.jpg","[""ArrowDown"",""ArrowRight""]","value training","canyon","30","{""ArrowUp,ArrowLeft"":23,""ArrowUp,ArrowRight"":10,""ArrowDown,ArrowLeft"":8,""ArrowDown,ArrowRight"":30}","true","ArrowDown,ArrowRight","false","revaluation","2","12","","",""
"html-keyboard-response","312","1181610","0.0-5.0-2.1-1.56","spark_pilot_norest","9983","1","15","Female","","","","","","","","null","<div style=""font-size:60px;"">+</div>","null","fixation","","","","","","","","","13","","",""
"revaluation","313","1187617","0.0-5.0-2.1-0.57","spark_pilot_norest","9983","1","15","Female","","false","","","","","","[662,558]","./assets/img/canyon/memory/40.jpg","[""ArrowDown"",""ArrowRight""]","value training","canyon","30","{""ArrowUp,ArrowLeft"":23,""ArrowUp,ArrowRight"":10,""ArrowDown,ArrowLeft"":8,""ArrowDown,ArrowRight"":30}","true","ArrowDown,ArrowRight","false","revaluation","2","14","","",""
"html-keyboard-response","314","1188119","0.0-5.0-2.1-1.57","spark_pilot_norest","9983","1","15","Female","","","","","","","","null","<div style=""font-size:60px;"">+</div>","null","fixation","","","","","","","","","15","","",""
"revaluation","315","1194127","0.0-5.0-2.1-0.58","spark_pilot_norest","9983","1","15","Female","","false","","","","","","[618,334]","./assets/img/canyon/memory/34.jpg","[""ArrowDown"",""ArrowRight""]","value training","canyon","30","{""ArrowUp,ArrowLeft"":23,""ArrowUp,ArrowRight"":10,""ArrowDown,ArrowLeft"":8,""ArrowDown,ArrowRight"":30}","true","ArrowDown,ArrowRight","false","revaluation","2","16","","",""
