"trial_type","trial_index","time_elapsed","internal_node_id","task_version","subject_id","assigned_condition","age","gender","success","timeout","failed_images","failed_audio","failed_video","browser_interaction","rt","stimulus","response","task_part","environment","score","rewardMap","correct","fullState","isCatch","condition","order","trial_num","key_press","ground_truth","bonus"
"pavlovia","0","889","0.0-0.0","spark_pilot_norest","12605","5","17","Male","","","","","","","","","","","","","","","","","","","","","",""
"preload","1","14166","0.0-1.0","spark_pilot_norest","12605","5","17","Male","true","false","[]","[]","[]","[{""event"":""fullscreenenter"",""trial"":2,""time"":16562}]","","","","","","","","","","","","","","","",""
"fullscreen","2","17549","0.0-2.0","spark_pilot_norest","12605","5","17","Male","true","","","","","","","","","","","","","","","","","","","","",""
"audio-button-response","3","19176","0.0-3.0-0.0-0.0","spark_pilot_norest","12605","5","17","Male","","","","","","","1520","./assets/audio/audiotest/turtle.mp3","2","audio_test","","","","","","","","","","","",""
"learning-instructions","4","28654","0.0-3.0-1.0-0.0","spark_pilot_norest","12605","5","17","Male","","","","","","","1837.5","<p> Welcome! Please remember to stay in fullscreen mode and don't click away from the experiment. </p>","","instructions","","","","","","","","","","","",""
"learning-instructions","5","40967","0.0-3.0-1.0-0.1","spark_pilot_norest","12605","5","17","Male","","","","","","","3080.800000011921","<p> Today you will be playing a game to earn treasure. </p>
            <p> At the end of the experiment, you will earn a bonus based on how much treasure you find. </p>
            <img src='./assets/img/instructions/treasure.jpg' class='instructions-image'>","","instructions","","","","","","","","","","","",""
"learning-instructions","6","50926","0.0-3.0-1.0-0.2","spark_pilot_norest","12605","5","17","Male","","","","","","","1040.2999999821186","<p> Animals have hidden treasure in treasure chests. </p>
            <p> You need to first find an animal and then choose which of their treasure chests to search. </p>
            <img src='./assets/img/space/animals/cat.jpg' class='instructions-image'>","","instructions","","","","","","","","","","","",""
"learning-instructions","7","66069","0.0-3.0-1.0-0.3","spark_pilot_norest","12605","5","17","Male","","","","","","","943.3000000119209","<p> In each round, you will search for treasure in a different place. In the real game, there will be two rounds. </p>
            <p> You will begin with a separate, practice round where you will search for treasure in outer space. </p>
            <img src='./assets/img/space/0.jpg' class='instructions-image'>","","instructions","","","","","","","","","","","",""
"learning-instructions","8","79290","0.0-3.0-1.0-0.4","spark_pilot_norest","12605","5","17","Male","","","","","","","564.4000000059605","<p> On every turn, you will see a picture of the place that you are in, but the specific image may be different each time. </p>
            <p> For example, both of these images mean you are in outer space. </p>
            <img src='./assets/img/instructions/outerspace.jpg' class='instructions-image'>","","instructions","","","","","","","","","","","",""
"learning-instructions","9","89115","0.0-3.0-1.0-0.5","spark_pilot_norest","12605","5","17","Male","","","","","","","1148.4000000059605","<p> You need to decide which direction to travel in. </p>
            <p> You can choose between going <b>up or down</b> by using the arrow keys. </p>
            <img src='./assets/img/instructions/updown.jpg' class='instructions-image'>","","instructions","","","","","","","","","","","",""
"learning-instructions","10","102257","0.0-3.0-1.0-0.6","spark_pilot_norest","12605","5","17","Male","","","","","","","3370.5999999940395","<p> You will have <b>2 seconds</b> to make your choice. </p>
            <p> If you do not make a choice within 2 seconds, you will not find an animal or earn treasure. </p>
            <img src='./assets/img/instructions/2seconds.jpg' class='instructions-image'>","","instructions","","","","","","","","","","","",""
"learning-instructions","11","110964","0.0-3.0-1.0-0.7","spark_pilot_norest","12605","5","17","Male","","","","","","","927.5999999940395","<p> Let’s try practicing that now! </p>
            <p> When you see a picture of the place you are in, press the <b>up</b> key to travel up. </p>
            <img src='./assets/img/instructions/pressUp.jpg' class='instructions-image'>","","instructions","","","","","","","","","","","",""
"revaluation","12","114987","0.0-3.0-2.0-0.0","spark_pilot_norest","12605","5","17","Male","","false","","","","","[546.2000000178814]","./assets/img/space/0.jpg","[""ArrowUp""]","first stage practice","space","0","null","null","ArrowUp","false","","","","","",""
"html-keyboard-response","13","115501","0.0-3.0-2.0-1.0","spark_pilot_norest","12605","5","17","Male","","","","","","","null","<div style=""font-size:60px;"">+</div>","null","fixation","","","","","","","","","","","",""
"revaluation","14","119515","0.0-3.0-2.0-0.1","spark_pilot_norest","12605","5","17","Male","","false","","","","","[415.2000000178814]","./assets/img/space/1.jpg","[""ArrowUp""]","first stage practice","space","0","null","null","ArrowUp","false","","","","","",""
"html-keyboard-response","15","120030","0.0-3.0-2.0-1.1","spark_pilot_norest","12605","5","17","Male","","","","","","","null","<div style=""font-size:60px;"">+</div>","null","fixation","","","","","","","","","","","",""
"revaluation","16","124044","0.0-3.0-2.0-0.2","spark_pilot_norest","12605","5","17","Male","","false","","","","","[320.59999999403954]","./assets/img/space/2.jpg","[""ArrowUp""]","first stage practice","space","0","null","null","ArrowUp","false","","","","","",""
"html-keyboard-response","17","124545","0.0-3.0-2.0-1.2","spark_pilot_norest","12605","5","17","Male","","","","","","","null","<div style=""font-size:60px;"">+</div>","null","fixation","","","","","","","","","","","",""
"learning-instructions","18","131130","0.0-3.0-3.0-0.0","spark_pilot_norest","12605","5","17","Male","","","","","","","1084.0999999940395","<p> Great job! Now try pressing the <b>down</b> key to travel down. </p>
            <img src='./assets/img/instructions/pressDown.jpg' class='instructions-image'>","","instructions","","","","","","","","","","","",""
"revaluation","19","135153","0.0-3.0-4.0-0.0","spark_pilot_norest","12605","5","17","Male","","false","","","","","[389.5]","./assets/img/space/3.jpg","[""ArrowDown""]","first stage practice","space","0","null","null","ArrowDown","false","","","","","",""
"html-keyboard-response","20","135669","0.0-3.0-4.0-1.0","spark_pilot_norest","12605","5","17","Male","","","","","","","null","<div style=""font-size:60px;"">+</div>","null","fixation","","","","","","","","","","","",""
"revaluation","21","139687","0.0-3.0-4.0-0.1","spark_pilot_norest","12605","5","17","Male","","false","","","","","[493.30000001192093]","./assets/img/space/4.jpg","[""ArrowDown""]","first stage practice","space","0","null","null","ArrowDown","false","","","","","",""
"html-keyboard-response","22","140192","0.0-3.0-4.0-1.1","spark_pilot_norest","12605","5","17","Male","","","","","","","null","<div style=""font-size:60px;"">+</div>","null","fixation","","","","","","","","","","","",""
"revaluation","23","144218","0.0-3.0-4.0-0.2","spark_pilot_norest","12605","5","17","Male","","false","","","","","[1277.2999999821186]","./assets/img/space/5.jpg","[""ArrowDown""]","first stage practice","space","0","null","null","ArrowDown","false","","","","","",""
"html-keyboard-response","24","144733","0.0-3.0-4.0-1.2","spark_pilot_norest","12605","5","17","Male","","","","","","","null","<div style=""font-size:60px;"">+</div>","null","fixation","","","","","","","","","","","",""
"learning-instructions","25","155501","0.0-3.0-5.0-0.0","spark_pilot_norest","12605","5","17","Male","","","","","","","925.6999999880791","<p> The animals don’t move, so the animal in the upper part of a place will stay in the upper part of a place, and the animal in the lower part of a place will stay in the lower part of a place. </p>","","instructions","","","","","","","","","","","",""
"learning-instructions","26","165271","0.0-3.0-5.0-0.1","spark_pilot_norest","12605","5","17","Male","","","","","","","665.8000000119209","<p> Each animal has two treasure chests for you to choose from. </p>
            <p> The amount of treasure in each chest can range from <b> 0 to 40 pieces.</b></p>","","instructions","","","","","","","","","","","",""
"learning-instructions","27","178058","0.0-3.0-5.0-0.2","spark_pilot_norest","12605","5","17","Male","","","","","","","1613.199999988079","<p> You should decide which chest to search for treasure by using the <b>left</b> and <b>right</b> arrow keys. </p>
            <p><b> Pay attention to which animal is on the screen, as the animals have different treasure chests. </b></p>
            <img src='./assets/img/instructions/leftright.jpg' class='instructions-image'>","","instructions","","","","","","","","","","","",""
"learning-instructions","28","186322","0.0-3.0-5.0-0.3","spark_pilot_norest","12605","5","17","Male","","","","","","","1046","<p> Let’s try practicing that now. </p>
            <p> When you see an animal, choose which chest to search for treasure. </p>
            <img src='./assets/img/instructions/chooseChest.jpg' class='instructions-image'>","","instructions","","","","","","","","","","","",""
"revaluation","29","190342","0.0-3.0-6.0-0.0","spark_pilot_norest","12605","5","17","Male","","false","","","","","[700.4000000059605]","./assets/img/space/animals/rabbit.jpg","[""ArrowRight""]","second stage practice","space","23","{""ArrowUp,ArrowLeft"":3,""ArrowUp,ArrowRight"":36,""ArrowDown,ArrowLeft"":15,""ArrowDown,ArrowRight"":23}","true","ArrowDown,ArrowRight","","","","","","",""
"html-keyboard-response","30","190847","0.0-3.0-6.0-1.0","spark_pilot_norest","12605","5","17","Male","","","","","","","null","<div style=""font-size:60px;"">+</div>","null","fixation","","","","","","","","","","","",""
"revaluation","31","194859","0.0-3.0-6.0-0.1","spark_pilot_norest","12605","5","17","Male","","false","","","","","[395]","./assets/img/space/animals/rabbit.jpg","[""ArrowRight""]","second stage practice","space","23","{""ArrowUp,ArrowLeft"":3,""ArrowUp,ArrowRight"":36,""ArrowDown,ArrowLeft"":15,""ArrowDown,ArrowRight"":23}","true","ArrowDown,ArrowRight","","","","","","",""
"html-keyboard-response","32","195370","0.0-3.0-6.0-1.1","spark_pilot_norest","12605","5","17","Male","","","","","","","null","<div style=""font-size:60px;"">+</div>","null","fixation","","","","","","","","","","","",""
"revaluation","33","199390","0.0-3.0-6.0-0.2","spark_pilot_norest","12605","5","17","Male","","false","","","","","[474.80000001192093]","./assets/img/space/animals/cat.jpg","[""ArrowLeft""]","second stage practice","space","3","{""ArrowUp,ArrowLeft"":3,""ArrowUp,ArrowRight"":36,""ArrowDown,ArrowLeft"":15,""ArrowDown,ArrowRight"":23}","false","ArrowUp,ArrowLeft","","","","","","",""
"html-keyboard-response","34","199894","0.0-3.0-6.0-1.2","spark_pilot_norest","12605","5","17","Male","","","","","","","null","<div style=""font-size:60px;"">+</div>","null","fixation","","","","","","","","","","","",""
"revaluation","35","203916","0.0-3.0-6.0-0.3","spark_pilot_norest","12605","5","17","Male","","false","","","","","[283.40000000596046]","./assets/img/space/animals/cat.jpg","[""ArrowLeft""]","second stage practice","space","3","{""ArrowUp,ArrowLeft"":3,""ArrowUp,ArrowRight"":36,""ArrowDown,ArrowLeft"":15,""ArrowDown,ArrowRight"":23}","false","ArrowUp,ArrowLeft","","","","","","",""
"html-keyboard-response","36","204432","0.0-3.0-6.0-1.3","spark_pilot_norest","12605","5","17","Male","","","","","","","null","<div style=""font-size:60px;"">+</div>","null","fixation","","","","","","","","","","","",""
"learning-instructions","37","225839","0.0-3.0-7.0-0.0","spark_pilot_norest","12605","5","17","Male","","","","","","","2842.800000011921","<p> Great job. Now let’s try putting it together. </p>
            <p> On each turn, you will first see a picture to remind you of the place you are in, and you need to choose whether to go up or down. </p>
            <p> Then you will see an animal and choose which of its chests to search for treasure. </p>","","instructions","","","","","","","","","","","",""
"learning-instructions","38","235882","0.0-3.0-7.0-0.1","spark_pilot_norest","12605","5","17","Male","","","","","","","845.8000000119209","<p> When you choose whether to go up or down, try to go to the animal with the chest with the most treasure. </p>
            <p> Try practicing that now! </p>","","instructions","","","","","","","","","","","",""
"revaluation","39","241897","0.0-3.0-8.0-0.0","spark_pilot_norest","12605","5","17","Male","","false","","","","","[824.3000000119209,588.5]","./assets/img/space/6.jpg","[""ArrowDown"",""ArrowRight""]","full practice","space","23","{""ArrowUp,ArrowLeft"":3,""ArrowUp,ArrowRight"":36,""ArrowDown,ArrowLeft"":15,""ArrowDown,ArrowRight"":23}","false","ArrowDown,ArrowRight","false","","","","","",""
"html-keyboard-response","40","242410","0.0-3.0-8.0-1.0","spark_pilot_norest","12605","5","17","Male","","","","","","","null","<div style=""font-size:60px;"">+</div>","null","fixation","","","","","","","","","","","",""
"revaluation","41","248442","0.0-3.0-8.0-0.1","spark_pilot_norest","12605","5","17","Male","","false","","","","","[762.5999999940395,342]","./assets/img/space/7.jpg","[""ArrowDown"",""ArrowRight""]","full practice","space","23","{""ArrowUp,ArrowLeft"":3,""ArrowUp,ArrowRight"":36,""ArrowDown,ArrowLeft"":15,""ArrowDown,ArrowRight"":23}","false","ArrowDown,ArrowRight","false","","","","","",""
"html-keyboard-response","42","248957","0.0-3.0-8.0-1.1","spark_pilot_norest","12605","5","17","Male","","","","","","","null","<div style=""font-size:60px;"">+</div>","null","fixation","","","","","","","","","","","",""
"revaluation","43","254980","0.0-3.0-8.0-0.2","spark_pilot_norest","12605","5","17","Male","","false","","","","","[242.59999999403954,373.10000002384186]","./assets/img/space/8.jpg","[""ArrowDown"",""ArrowRight""]","full practice","space","23","{""ArrowUp,ArrowLeft"":3,""ArrowUp,ArrowRight"":36,""ArrowDown,ArrowLeft"":15,""ArrowDown,ArrowRight"":23}","false","ArrowDown,ArrowRight","false","","","","","",""
"html-keyboard-response","44","255495","0.0-3.0-8.0-1.2","spark_pilot_norest","12605","5","17","Male","","","","","","","null","<div style=""font-size:60px;"">+</div>","null","fixation","","","","","","","","","","","",""
"revaluation","45","261522","0.0-3.0-8.0-0.3","spark_pilot_norest","12605","5","17","Male","","false","","","","","[285.30000001192093,290.69999998807907]","./assets/img/space/9.jpg","[""ArrowDown"",""ArrowRight""]","full practice","space","23","{""ArrowUp,ArrowLeft"":3,""ArrowUp,ArrowRight"":36,""ArrowDown,ArrowLeft"":15,""ArrowDown,ArrowRight"":23}","false","ArrowDown,ArrowRight","false","","","","","",""
"html-keyboard-response","46","262029","0.0-3.0-8.0-1.3","spark_pilot_norest","12605","5","17","Male","","","","","","","null","<div style=""font-size:60px;"">+</div>","null","fixation","","","","","","","","","","","",""
"revaluation","47","268053","0.0-3.0-8.0-0.4","spark_pilot_norest","12605","5","17","Male","","false","","","","","[297.80000001192093,252.2000000178814]","./assets/img/space/10.jpg","[""ArrowDown"",""ArrowRight""]","full practice","space","23","{""ArrowUp,ArrowLeft"":3,""ArrowUp,ArrowRight"":36,""ArrowDown,ArrowLeft"":15,""ArrowDown,ArrowRight"":23}","false","ArrowDown,ArrowRight","false","","","","","",""
"html-keyboard-response","48","268554","0.0-3.0-8.0-1.4","spark_pilot_norest","12605","5","17","Male","","","","","","","null","<div style=""font-size:60px;"">+</div>","null","fixation","","","","","","","","","","","",""
"learning-instructions","49","280975","0.0-3.0-9.0-0.0","spark_pilot_norest","12605","5","17","Male","","","","","","","728.7000000178814","<p> One last thing: sometimes, you will see a robber. The robber can be anywhere in the picture. </p>
            <p> If you do not stop them, you will lose treasure. </p>
            <img src='./assets/img/instructions/robber.jpg' class='instructions-image'>","","instructions","","","","","","","","","","","",""
"learning-instructions","50","289781","0.0-3.0-9.0-0.1","spark_pilot_norest","12605","5","17","Male","","","","","","","784.4000000059605","<p> If you see the robber, you should <b>press the space bar</b> rather than using the arrow keys. </p>
            <p> Try practicing that now! </p>","","instructions","","","","","","","","","","","",""
"revaluation","51","293809","0.0-3.0-10.0-0.0","spark_pilot_norest","12605","5","17","Male","","false","","","","","[1048.5]","./assets/img/space/catch/0.jpg","[""spaceBar""]","catch practice","space","0","{""ArrowUp,ArrowLeft"":3,""ArrowUp,ArrowRight"":36,""ArrowDown,ArrowLeft"":15,""ArrowDown,ArrowRight"":23}","true","spaceBar","true","","","","","",""
"html-keyboard-response","52","294311","0.0-3.0-10.0-1.0","spark_pilot_norest","12605","5","17","Male","","","","","","","null","<div style=""font-size:60px;"">+</div>","null","fixation","","","","","","","","","","","",""
"revaluation","53","298335","0.0-3.0-10.0-0.1","spark_pilot_norest","12605","5","17","Male","","false","","","","","[438.10000002384186]","./assets/img/space/catch/1.jpg","[""spaceBar""]","catch practice","space","0","{""ArrowUp,ArrowLeft"":3,""ArrowUp,ArrowRight"":36,""ArrowDown,ArrowLeft"":15,""ArrowDown,ArrowRight"":23}","true","spaceBar","true","","","","","",""
"html-keyboard-response","54","298848","0.0-3.0-10.0-1.1","spark_pilot_norest","12605","5","17","Male","","","","","","","null","<div style=""font-size:60px;"">+</div>","null","fixation","","","","","","","","","","","",""
"revaluation","55","302877","0.0-3.0-10.0-0.2","spark_pilot_norest","12605","5","17","Male","","false","","","","","[782.9000000059605]","./assets/img/space/catch/2.jpg","[""spaceBar""]","catch practice","space","0","{""ArrowUp,ArrowLeft"":3,""ArrowUp,ArrowRight"":36,""ArrowDown,ArrowLeft"":15,""ArrowDown,ArrowRight"":23}","true","spaceBar","true","","","","","",""
"html-keyboard-response","56","303391","0.0-3.0-10.0-1.2","spark_pilot_norest","12605","5","17","Male","","","","","","","null","<div style=""font-size:60px;"">+</div>","null","fixation","","","","","","","","","","","",""
"learning-instructions","57","312395","0.0-3.0-11.0-0.0-0.0","spark_pilot_norest","12605","5","17","Male","","","","","","","3039.2000000178814","<p> Now, you will practice a shortened version of the game to get a sense of how it all fits together. </p>","","instructions","","","","","","","","","","","",""
"learning-instructions","58","317217","0.0-3.0-11.0-0.0-0.1","spark_pilot_norest","12605","5","17","Male","","","","","","","870.9000000059605","<p>This time you are searching for treasure in outer space.</p>","","instructions","","","","","","","","","","","",""
"learning-instructions","59","332741","0.0-3.0-11.0-1.0-0.0","spark_pilot_norest","12605","5","17","Male","","","","","","","775.2999999821186","<p> Remember, when you see a picture of the place, use the up and down keys to <b>find an animal</b>.</p>
            <p> When you encounter an animal, you should use the left and right keys to <b>select a treasure chest</b>.</p>
            <p> Don't forget to look out for the robber! </p>","","instructions","","","","","","","","","","","",""
"revaluation","60","338765","0.0-3.0-11.0-2.0-0.0","spark_pilot_norest","12605","5","17","Male","","false","","","","","[539,287]","./assets/img/space/11.jpg","[""ArrowDown"",""ArrowRight""]","practice block","space","23","{""ArrowUp,ArrowLeft"":3,""ArrowUp,ArrowRight"":36,""ArrowDown,ArrowLeft"":15,""ArrowDown,ArrowRight"":23}","false","ArrowDown,ArrowRight","false","","","","","",""
"html-keyboard-response","61","339280","0.0-3.0-11.0-2.0-1.0","spark_pilot_norest","12605","5","17","Male","","","","","","","null","<div style=""font-size:60px;"">+</div>","null","fixation","","","","","","","","","","","",""
"revaluation","62","345314","0.0-3.0-11.0-2.0-0.1","spark_pilot_norest","12605","5","17","Male","","false","","","","","[403.59999999403954,285.90000000596046]","./assets/img/space/12.jpg","[""ArrowDown"",""ArrowRight""]","practice block","space","23","{""ArrowUp,ArrowLeft"":3,""ArrowUp,ArrowRight"":36,""ArrowDown,ArrowLeft"":15,""ArrowDown,ArrowRight"":23}","false","ArrowDown,ArrowRight","false","","","","","",""
"html-keyboard-response","63","345817","0.0-3.0-11.0-2.0-1.1","spark_pilot_norest","12605","5","17","Male","","","","","","","null","<div style=""font-size:60px;"">+</div>","null","fixation","","","","","","","","","","","",""
"revaluation","64","351843","0.0-3.0-11.0-2.0-0.2","spark_pilot_norest","12605","5","17","Male","","false","","","","","[257.19999998807907,320.09999999403954]","./assets/img/space/13.jpg","[""ArrowUp"",""ArrowRight""]","practice block","space","36","{""ArrowUp,ArrowLeft"":3,""ArrowUp,ArrowRight"":36,""ArrowDown,ArrowLeft"":15,""ArrowDown,ArrowRight"":23}","true","ArrowUp,ArrowRight","false","","","","","",""
"html-keyboard-response","65","352357","0.0-3.0-11.0-2.0-1.2","spark_pilot_norest","12605","5","17","Male","","","","","","","null","<div style=""font-size:60px;"">+</div>","null","fixation","","","","","","","","","","","",""
"revaluation","66","358398","0.0-3.0-11.0-2.0-0.3","spark_pilot_norest","12605","5","17","Male","","false","","","","","[521.0999999940395,425.10000002384186]","./assets/img/space/14.jpg","[""ArrowDown"",""ArrowLeft""]","practice block","space","15","{""ArrowUp,ArrowLeft"":3,""ArrowUp,ArrowRight"":36,""ArrowDown,ArrowLeft"":15,""ArrowDown,ArrowRight"":23}","false","ArrowDown,ArrowLeft","false","","","","","",""
"html-keyboard-response","67","358900","0.0-3.0-11.0-2.0-1.3","spark_pilot_norest","12605","5","17","Male","","","","","","","null","<div style=""font-size:60px;"">+</div>","null","fixation","","","","","","","","","","","",""
"revaluation","68","364921","0.0-3.0-11.0-2.0-0.4","spark_pilot_norest","12605","5","17","Male","","false","","","","","[289.60000002384186,247.10000002384186]","./assets/img/space/11.jpg","[""ArrowUp"",""ArrowRight""]","practice block","space","36","{""ArrowUp,ArrowLeft"":3,""ArrowUp,ArrowRight"":36,""ArrowDown,ArrowLeft"":15,""ArrowDown,ArrowRight"":23}","true","ArrowUp,ArrowRight","false","","","","","",""
"html-keyboard-response","69","365423","0.0-3.0-11.0-2.0-1.4","spark_pilot_norest","12605","5","17","Male","","","","","","","null","<div style=""font-size:60px;"">+</div>","null","fixation","","","","","","","","","","","",""
"revaluation","70","371461","0.0-3.0-11.0-2.0-0.5","spark_pilot_norest","12605","5","17","Male","","false","","","","","[790.8000000119209,423.40000000596046]","./assets/img/space/12.jpg","[""ArrowUp"",""ArrowRight""]","practice block","space","36","{""ArrowUp,ArrowLeft"":3,""ArrowUp,ArrowRight"":36,""ArrowDown,ArrowLeft"":15,""ArrowDown,ArrowRight"":23}","true","ArrowUp,ArrowRight","false","","","","","",""
"html-keyboard-response","71","371962","0.0-3.0-11.0-2.0-1.5","spark_pilot_norest","12605","5","17","Male","","","","","","","null","<div style=""font-size:60px;"">+</div>","null","fixation","","","","","","","","","","","",""
"revaluation","72","377969","0.0-3.0-11.0-2.0-0.6","spark_pilot_norest","12605","5","17","Male","","false","","","","","[294.80000001192093,260.30000001192093]","./assets/img/space/13.jpg","[""ArrowUp"",""ArrowRight""]","practice block","space","36","{""ArrowUp,ArrowLeft"":3,""ArrowUp,ArrowRight"":36,""ArrowDown,ArrowLeft"":15,""ArrowDown,ArrowRight"":23}","true","ArrowUp,ArrowRight","false","","","","","",""
"html-keyboard-response","73","378472","0.0-3.0-11.0-2.0-1.6","spark_pilot_norest","12605","5","17","Male","","","","","","","null","<div style=""font-size:60px;"">+</div>","null","fixation","","","","","","","","","","","",""
"revaluation","74","384477","0.0-3.0-11.0-2.0-0.7","spark_pilot_norest","12605","5","17","Male","","false","","","","","[796.0999999940395,227.90000000596046]","./assets/img/space/14.jpg","[""ArrowUp"",""ArrowRight""]","practice block","space","36","{""ArrowUp,ArrowLeft"":3,""ArrowUp,ArrowRight"":36,""ArrowDown,ArrowLeft"":15,""ArrowDown,ArrowRight"":23}","true","ArrowUp,ArrowRight","false","","","","","",""
"html-keyboard-response","75","384979","0.0-3.0-11.0-2.0-1.7","spark_pilot_norest","12605","5","17","Male","","","","","","","null","<div style=""font-size:60px;"">+</div>","null","fixation","","","","","","","","","","","",""
"revaluation","76","388985","0.0-3.0-11.0-2.0-0.8","spark_pilot_norest","12605","5","17","Male","","false","","","","","[269]","./assets/img/space/catch/3.jpg","[""ArrowUp""]","practice block","space","-10","{""ArrowUp,ArrowLeft"":3,""ArrowUp,ArrowRight"":36,""ArrowDown,ArrowLeft"":15,""ArrowDown,ArrowRight"":23}","false","ArrowUp","true","","","","","",""
"html-keyboard-response","77","389487","0.0-3.0-11.0-2.0-1.8","spark_pilot_norest","12605","5","17","Male","","","","","","","null","<div style=""font-size:60px;"">+</div>","null","fixation","","","","","","","","","","","",""
"learning-instructions","78","404430","0.0-3.0-11.0-3.0-0.0","spark_pilot_norest","12605","5","17","Male","","","","","","","745.0999999940395","<p> Now, you will travel with a friend who will choose whether you go up or down first. </p>
            <p> On these turns, you will just see the animal that they found. You will still get to choose which chest to search for treasure.</p>","","instructions","","","","","","","","","","","",""
"revaluation","79","408439","0.0-3.0-11.0-4.0-0.0","spark_pilot_norest","12605","5","17","Male","","false","","","","","[1649.4000000059605]","./assets/img/space/animals/rabbit.jpg","[""ArrowRight""]","practice block","space","23","{""ArrowUp,ArrowLeft"":3,""ArrowUp,ArrowRight"":36,""ArrowDown,ArrowLeft"":15,""ArrowDown,ArrowRight"":23}","true","ArrowDown,ArrowRight","","","","","","",""
"html-keyboard-response","80","408951","0.0-3.0-11.0-4.0-1.0","spark_pilot_norest","12605","5","17","Male","","","","","","","null","<div style=""font-size:60px;"">+</div>","null","fixation","","","","","","","","","","","",""
"revaluation","81","412973","0.0-3.0-11.0-4.0-0.1","spark_pilot_norest","12605","5","17","Male","","false","","","","","[231.30000001192093]","./assets/img/space/animals/cat.jpg","[""ArrowRight""]","practice block","space","36","{""ArrowUp,ArrowLeft"":3,""ArrowUp,ArrowRight"":36,""ArrowDown,ArrowLeft"":15,""ArrowDown,ArrowRight"":23}","true","ArrowUp,ArrowRight","","","","","","",""
"html-keyboard-response","82","413486","0.0-3.0-11.0-4.0-1.1","spark_pilot_norest","12605","5","17","Male","","","","","","","null","<div style=""font-size:60px;"">+</div>","null","fixation","","","","","","","","","","","",""
"revaluation","83","417502","0.0-3.0-11.0-4.0-0.2","spark_pilot_norest","12605","5","17","Male","","false","","","","","[220.5]","./assets/img/space/animals/rabbit.jpg","[""ArrowRight""]","practice block","space","23","{""ArrowUp,ArrowLeft"":3,""ArrowUp,ArrowRight"":36,""ArrowDown,ArrowLeft"":15,""ArrowDown,ArrowRight"":23}","true","ArrowDown,ArrowRight","","","","","","",""
"html-keyboard-response","84","418005","0.0-3.0-11.0-4.0-1.2","spark_pilot_norest","12605","5","17","Male","","","","","","","null","<div style=""font-size:60px;"">+</div>","null","fixation","","","","","","","","","","","",""
"revaluation","85","422014","0.0-3.0-11.0-4.0-0.3","spark_pilot_norest","12605","5","17","Male","","false","","","","","[11.600000023841858]","./assets/img/space/animals/cat.jpg","[""ArrowRight""]","practice block","space","36","{""ArrowUp,ArrowLeft"":3,""ArrowUp,ArrowRight"":36,""ArrowDown,ArrowLeft"":15,""ArrowDown,ArrowRight"":23}","true","ArrowUp,ArrowRight","","","","","","",""
"html-keyboard-response","86","422522","0.0-3.0-11.0-4.0-1.3","spark_pilot_norest","12605","5","17","Male","","","","","","","null","<div style=""font-size:60px;"">+</div>","null","fixation","","","","","","","","","","","",""
"learning-instructions","87","431485","0.0-3.0-11.0-5.0-0.0","spark_pilot_norest","12605","5","17","Male","","","","","","","null","<p> You have almost finished this part of the game! </p>
            <p> We are going to ask you to make a few more choices. </p>","","instructions","","","","","","","","","","","",""
"learning-instructions","88","448836","0.0-3.0-11.0-5.0-0.1","spark_pilot_norest","12605","5","17","Male","","","","","","","null","<p> First, you need to decide whether to go up or down. When you see each picture, use the arrow keys to make your choice. </p>
            <p><b>You will not see which animal you found, but try to get to the one that will give you the most treasure.</b></p>","","instructions","","","","","","","","","","","",""
"html-keyboard-response","89","449849","0.0-3.0-11.0-6.0-0.0","spark_pilot_norest","12605","5","17","Male","","","","","","","null","<div style=""font-size:100px;color:red;"">Starting in...</div>","null","","","","","","","","","","","","",""
"html-keyboard-response","90","450862","0.0-3.0-11.0-6.0-1.0","spark_pilot_norest","12605","5","17","Male","","","","","","","null","<div style=""font-size:200px;color:red;"">3</div>","null","","","","","","","","","","","","",""
"html-keyboard-response","91","451866","0.0-3.0-11.0-6.0-2.0","spark_pilot_norest","12605","5","17","Male","","","","","","","null","<div style=""font-size:200px;color:red;"">2</div>","null","","","","","","","","","","","","",""
"html-keyboard-response","92","452870","0.0-3.0-11.0-6.0-3.0","spark_pilot_norest","12605","5","17","Male","","","","","","","null","<div style=""font-size:200px;color:red;"">1</div>","null","","","","","","","","","","","","",""
"revaluation","93","453491","0.0-3.0-11.0-7.0","spark_pilot_norest","12605","5","17","Male","","false","","","","","[617.5]","./assets/img/space/15.jpg","[""ArrowDown""]","practice block","space","0","{""ArrowUp,ArrowLeft"":3,""ArrowUp,ArrowRight"":36,""ArrowDown,ArrowLeft"":15,""ArrowDown,ArrowRight"":23}","false","ArrowDown","false","","","","","",""
"html-keyboard-response","94","453996","0.0-3.0-11.0-8.0","spark_pilot_norest","12605","5","17","Male","","","","","","","null","<div style=""font-size:60px;"">+</div>","null","fixation","","","","","","","","","","","",""
"learning-instructions","95","468479","0.0-3.0-11.0-9.0-0.0","spark_pilot_norest","12605","5","17","Male","","","","","","","null","<p> Now you will see the animals again and can search their chests for treasure. </p>
            <p> This time, you will not see how much treasure you earned, but you will earn more bonus money for making better choices. </p>","","instructions","","","","","","","","","","","",""
"html-keyboard-response","96","469481","0.0-3.0-11.0-10.0-0.0","spark_pilot_norest","12605","5","17","Male","","","","","","","null","<div style=""font-size:100px;color:red;"">Starting in...</div>","null","","","","","","","","","","","","",""
"html-keyboard-response","97","470482","0.0-3.0-11.0-10.0-1.0","spark_pilot_norest","12605","5","17","Male","","","","","","","null","<div style=""font-size:200px;color:red;"">3</div>","null","","","","","","","","","","","","",""
"html-keyboard-response","98","471494","0.0-3.0-11.0-10.0-2.0","spark_pilot_norest","12605","5","17","Male","","","","","","","null","<div style=""font-size:200px;color:red;"">2</div>","null","","","","","","","","","","","","",""
"html-keyboard-response","99","472498","0.0-3.0-11.0-10.0-3.0","spark_pilot_norest","12605","5","17","Male","","","","","","","null","<div style=""font-size:200px;color:red;"">1</div>","null","","","","","","","","","","","","",""
"revaluation","100","473190","0.0-3.0-11.0-11.0-0.0","spark_pilot_norest","12605","5","17","Male","","false","","","","","[687.7000000178814]","./assets/img/space/animals/cat.jpg","[""ArrowRight""]","practice block","space","0","{""ArrowUp,ArrowLeft"":3,""ArrowUp,ArrowRight"":36,""ArrowDown,ArrowLeft"":15,""ArrowDown,ArrowRight"":23}","true","ArrowUp,ArrowRight","","","","","","",""
"html-keyboard-response","101","473701","0.0-3.0-11.0-11.0-1.0","spark_pilot_norest","12605","5","17","Male","","","","","","","null","<div style=""font-size:60px;"">+</div>","null","fixation","","","","","","","","","","","",""
"revaluation","102","474403","0.0-3.0-11.0-11.0-0.1","spark_pilot_norest","12605","5","17","Male","","false","","","","","[699.2000000178814]","./assets/img/space/animals/rabbit.jpg","[""ArrowRight""]","practice block","space","0","{""ArrowUp,ArrowLeft"":3,""ArrowUp,ArrowRight"":36,""ArrowDown,ArrowLeft"":15,""ArrowDown,ArrowRight"":23}","true","ArrowDown,ArrowRight","","","","","","",""
"html-keyboard-response","103","474917","0.0-3.0-11.0-11.0-1.1","spark_pilot_norest","12605","5","17","Male","","","","","","","null","<div style=""font-size:60px;"">+</div>","null","fixation","","","","","","","","","","","",""
"learning-instructions","104","481479","0.0-3.0-12.0-0.0","spark_pilot_norest","12605","5","17","Male","","","","","","","1352.8999999761581","<p> Before you start, we're going to ask you a few questions about how the game works. </p>","","instructions","","","","","","","","","","","",""
"comp-q","105","488681","0.0-3.0-13.0-0.0-0.0","spark_pilot_norest","12605","5","17","Male","","","","","","","893.5","<p> <b> True or False? </b> </p>
            <p> There can be 50 pieces of treasure in a given animal's chest. </p>","1","comp_question","","","","true","","","","","","","",""
"comp-q","106","497531","0.0-3.0-13.0-0.0-1.0","spark_pilot_norest","12605","5","17","Male","","","","","","","1055","<p> <b> That's right! </b> The amount of treasure in each chest can range from 0 to 40 pieces. </p>","0","comp_answer","","","","","","","","","","","",""
"comp-q","107","506375","0.0-3.0-13.0-0.1-0.1","spark_pilot_norest","12605","5","17","Male","","","","","","","849.1999999880791","<p> <b> True or False? </b> </p><p> In this game, all animals have the same amount of treasure in their left and right chests. </p>","1","comp_question","","","","true","","","","","","","",""
"comp-q","108","513178","0.0-3.0-13.0-0.1-1.1","spark_pilot_norest","12605","5","17","Male","","","","","","","901.9000000059605","<p> <b> That's right! </b> Animals have different amounts of treasure in their treasure chests. </p>","0","comp_answer","","","","","","","","","","","",""
"comp-q","109","520968","0.0-3.0-13.0-0.2-0.2","spark_pilot_norest","12605","5","17","Male","","","","","","","1201","<p> <b> True or False? </b> </p><p> The same animal will always be there if you go up in the same place. </p>","0","comp_question","","","","true","","","","","","","",""
"comp-q","110","529641","0.0-3.0-13.0-0.2-1.2","spark_pilot_norest","12605","5","17","Male","","","","","","","1274.699999988079","<p> <b> That's right! </b> One animal lives in the upper part and one lives in the lower part of every place. </p>","0","comp_answer","","","","","","","","","","","",""
"comp-q","111","537574","0.0-3.0-13.0-0.3-0.3","spark_pilot_norest","12605","5","17","Male","","","","","","","1577.800000011921","<p> <b> True or False? </b> </p><p> If you see a different picture, it means you are in a new place. </p>","0","comp_question","","","","false","","","","","","","",""
"comp-q","112","550428","0.0-3.0-13.0-0.3-1.3","spark_pilot_norest","12605","5","17","Male","","","","","","","752.0999999940395","<p> <b>Incorrect.</b> Lots of different images may show the same place. For example,  you may see three different images that all remind you that you are in outer space. </p>","0","comp_answer","","","","","","","","","","","",""
"comp-q","113","556506","0.0-3.0-13.0-0.4-0.4","spark_pilot_norest","12605","5","17","Male","","","","","","","580.2000000178814","<p> <b> True or False? </b> </p><p> If you see a different picture, it means you are in a new place. </p>","1","comp_question","","","","true","","","","","","","",""
"comp-q","114","571278","0.0-3.0-13.0-0.4-1.4","spark_pilot_norest","12605","5","17","Male","","","","","","","2643.100000023842","<p> <b> That's right! </b> Lots of different images may show the same place. For example,  you may see three different images that all remind you that you are in outer space. </p>","0","comp_answer","","","","","","","","","","","",""
"learning-instructions","115","584465","0.0-3.0-14.0-0.0","spark_pilot_norest","12605","5","17","Male","","","","","","","2079.0999999940395","<p> Good job. Remember to do your best because the amount of treasure you earn will be converted into bonus money. </p>
            <p> It’s time to start the real game! </p>","","instructions","","","","","","","","","","","",""
"learning-instructions","116","588863","0.0-4.0-0.0-0.0","spark_pilot_norest","12605","5","17","Male","","","","","","","877.3000000119209","<p> This time you are searching for treasure in the <b>canyon</b>.</p>","","instructions","","","","","","","","","","","",""
"learning-instructions","117","608969","0.0-4.0-0.0-0.1","spark_pilot_norest","12605","5","17","Male","","","","","","","1183.2000000178814","<p><b>New</b> animals with <b>new</b> treasure chests live here. You need to explore to discover where the animal with the best treasure chest is.</p>
                    <p> Like before, once you figure out which animal has the chest with the most treasure, you should try to get to that animal and select that chest! </p>","","instructions","","","","","","","","","","","",""
"learning-instructions","118","625415","0.0-4.0-1.0-0.0","spark_pilot_norest","12605","5","17","Male","","","","","","","1709.5","<p> Remember, when you see a picture of the place, use the up and down keys to <b>find an animal</b>.</p>
            <p> When you encounter an animal, you should use the left and right keys to <b>select a treasure chest</b>.</p>
            <p> Don't forget to look out for the robber! </p>","","instructions","","","","","","","","","","","",""
"revaluation","119","631445","0.0-4.0-2.0-0.0","spark_pilot_norest","12605","5","17","Male","","false","","","","","[967,389.90000000596046]","./assets/img/canyon/memory/10.jpg","[""ArrowDown"",""ArrowRight""]","value training","canyon","17","{""ArrowUp,ArrowLeft"":26,""ArrowUp,ArrowRight"":10,""ArrowDown,ArrowLeft"":5,""ArrowDown,ArrowRight"":17}","false","ArrowDown,ArrowRight","false","original","1","0","","",""
"html-keyboard-response","120","631960","0.0-4.0-2.0-1.0","spark_pilot_norest","12605","5","17","Male","","","","","","","null","<div style=""font-size:60px;"">+</div>","null","fixation","","","","","","","","","1","","",""
"revaluation","121","638000","0.0-4.0-2.0-0.1","spark_pilot_norest","12605","5","17","Male","","false","","","","","[1164.7000000178814,365.30000001192093]","./assets/img/canyon/memory/36.jpg","[""ArrowDown"",""ArrowLeft""]","value training","canyon","5","{""ArrowUp,ArrowLeft"":26,""ArrowUp,ArrowRight"":10,""ArrowDown,ArrowLeft"":5,""ArrowDown,ArrowRight"":17}","false","ArrowDown,ArrowLeft","false","original","1","2","","",""
"html-keyboard-response","122","638514","0.0-4.0-2.0-1.1","spark_pilot_norest","12605","5","17","Male","","","","","","","null","<div style=""font-size:60px;"">+</div>","null","fixation","","","","","","","","","3","","",""
"revaluation","123","644539","0.0-4.0-2.0-0.2","spark_pilot_norest","12605","5","17","Male","","false","","","","","[314.30000001192093,316.59999999403954]","./assets/img/canyon/memory/32.jpg","[""ArrowUp"",""ArrowRight""]","value training","canyon","10","{""ArrowUp,ArrowLeft"":26,""ArrowUp,ArrowRight"":10,""ArrowDown,ArrowLeft"":5,""ArrowDown,ArrowRight"":17}","false","ArrowUp,ArrowRight","false","original","1","4","","",""
"html-keyboard-response","124","645052","0.0-4.0-2.0-1.2","spark_pilot_norest","12605","5","17","Male","","","","","","","null","<div style=""font-size:60px;"">+</div>","null","fixation","","","","","","","","","5","","",""
"revaluation","125","651091","0.0-4.0-2.0-0.3","spark_pilot_norest","12605","5","17","Male","","false","","","","","[313.2000000178814,336.40000000596046]","./assets/img/canyon/memory/26.jpg","[""ArrowUp"",""ArrowLeft""]","value training","canyon","26","{""ArrowUp,ArrowLeft"":26,""ArrowUp,ArrowRight"":10,""ArrowDown,ArrowLeft"":5,""ArrowDown,ArrowRight"":17}","true","ArrowUp,ArrowLeft","false","original","1","6","","",""
"html-keyboard-response","126","651593","0.0-4.0-2.0-1.3","spark_pilot_norest","12605","5","17","Male","","","","","","","null","<div style=""font-size:60px;"">+</div>","null","fixation","","","","","","","","","7","","",""
"revaluation","127","657611","0.0-4.0-2.0-0.4","spark_pilot_norest","12605","5","17","Male","","false","","","","","[350.5,383.2000000178814]","./assets/img/canyon/memory/9.jpg","[""ArrowUp"",""ArrowLeft""]","value training","canyon","26","{""ArrowUp,ArrowLeft"":26,""ArrowUp,ArrowRight"":10,""ArrowDown,ArrowLeft"":5,""ArrowDown,ArrowRight"":17}","true","ArrowUp,ArrowLeft","false","original","1","8","","",""
"html-keyboard-response","128","658113","0.0-4.0-2.0-1.4","spark_pilot_norest","12605","5","17","Male","","","","","","","null","<div style=""font-size:60px;"">+</div>","null","fixation","","","","","","","","","9","","",""
"revaluation","129","662131","0.0-4.0-2.0-0.5","spark_pilot_norest","12605","5","17","Male","","false","","","","","[276.5]","./assets/img/canyon/catch/3.jpg","[""ArrowUp""]","value training","canyon","-10","{""ArrowUp,ArrowLeft"":26,""ArrowUp,ArrowRight"":10,""ArrowDown,ArrowLeft"":5,""ArrowDown,ArrowRight"":17}","false","ArrowUp","true","original","1","10","","",""
"html-keyboard-response","130","662632","0.0-4.0-2.0-1.5","spark_pilot_norest","12605","5","17","Male","","","","","","","null","<div style=""font-size:60px;"">+</div>","null","fixation","","","","","","","","","11","","",""
"revaluation","131","668638","0.0-4.0-2.0-0.6","spark_pilot_norest","12605","5","17","Male","","false","","","","","[379.09999999403954,285.09999999403954]","./assets/img/canyon/memory/16.jpg","[""ArrowUp"",""ArrowLeft""]","value training","canyon","26","{""ArrowUp,ArrowLeft"":26,""ArrowUp,ArrowRight"":10,""ArrowDown,ArrowLeft"":5,""ArrowDown,ArrowRight"":17}","true","ArrowUp,ArrowLeft","false","original","1","12","","",""
"html-keyboard-response","132","669139","0.0-4.0-2.0-1.6","spark_pilot_norest","12605","5","17","Male","","","","","","","null","<div style=""font-size:60px;"">+</div>","null","fixation","","","","","","","","","13","","",""
"revaluation","133","675149","0.0-4.0-2.0-0.7","spark_pilot_norest","12605","5","17","Male","","false","","","","","[373.40000000596046,318]","./assets/img/canyon/memory/8.jpg","[""ArrowUp"",""ArrowLeft""]","value training","canyon","26","{""ArrowUp,ArrowLeft"":26,""ArrowUp,ArrowRight"":10,""ArrowDown,ArrowLeft"":5,""ArrowDown,ArrowRight"":17}","true","ArrowUp,ArrowLeft","false","original","1","14","","",""
"html-keyboard-response","134","675650","0.0-4.0-2.0-1.7","spark_pilot_norest","12605","5","17","Male","","","","","","","null","<div style=""font-size:60px;"">+</div>","null","fixation","","","","","","","","","15","","",""
"revaluation","135","681663","0.0-4.0-2.0-0.8","spark_pilot_norest","12605","5","17","Male","","false","","","","","[344,336.09999999403954]","./assets/img/canyon/memory/12.jpg","[""ArrowUp"",""ArrowLeft""]","value training","canyon","26","{""ArrowUp,ArrowLeft"":26,""ArrowUp,ArrowRight"":10,""ArrowDown,ArrowLeft"":5,""ArrowDown,ArrowRight"":17}","true","ArrowUp,ArrowLeft","false","original","1","16","","",""
"html-keyboard-response","136","682164","0.0-4.0-2.0-1.8","spark_pilot_norest","12605","5","17","Male","","","","","","","null","<div style=""font-size:60px;"">+</div>","null","fixation","","","","","","","","","17","","",""
"revaluation","137","688176","0.0-4.0-2.0-0.9","spark_pilot_norest","12605","5","17","Male","","false","","","","","[291.80000001192093,267.09999999403954]","./assets/img/canyon/memory/3.jpg","[""ArrowUp"",""ArrowLeft""]","value training","canyon","26","{""ArrowUp,ArrowLeft"":26,""ArrowUp,ArrowRight"":10,""ArrowDown,ArrowLeft"":5,""ArrowDown,ArrowRight"":17}","true","ArrowUp,ArrowLeft","false","original","1","18","","",""
"html-keyboard-response","138","688678","0.0-4.0-2.0-1.9","spark_pilot_norest","12605","5","17","Male","","","","","","","null","<div style=""font-size:60px;"">+</div>","null","fixation","","","","","","","","","19","","",""
"revaluation","139","694699","0.0-4.0-2.0-0.10","spark_pilot_norest","12605","5","17","Male","","false","","","","","[475.10000002384186,300.7000000178814]","./assets/img/canyon/memory/22.jpg","[""ArrowUp"",""ArrowLeft""]","value training","canyon","26","{""ArrowUp,ArrowLeft"":26,""ArrowUp,ArrowRight"":10,""ArrowDown,ArrowLeft"":5,""ArrowDown,ArrowRight"":17}","true","ArrowUp,ArrowLeft","false","original","1","20","","",""
"html-keyboard-response","140","695201","0.0-4.0-2.0-1.10","spark_pilot_norest","12605","5","17","Male","","","","","","","null","<div style=""font-size:60px;"">+</div>","null","fixation","","","","","","","","","21","","",""
"revaluation","141","701213","0.0-4.0-2.0-0.11","spark_pilot_norest","12605","5","17","Male","","false","","","","","[571,172.19999998807907]","./assets/img/canyon/memory/7.jpg","[""ArrowUp"",""ArrowLeft""]","value training","canyon","26","{""ArrowUp,ArrowLeft"":26,""ArrowUp,ArrowRight"":10,""ArrowDown,ArrowLeft"":5,""ArrowDown,ArrowRight"":17}","true","ArrowUp,ArrowLeft","false","original","1","22","","",""
"html-keyboard-response","142","701713","0.0-4.0-2.0-1.11","spark_pilot_norest","12605","5","17","Male","","","","","","","null","<div style=""font-size:60px;"">+</div>","null","fixation","","","","","","","","","23","","",""
"revaluation","143","707720","0.0-4.0-2.0-0.12","spark_pilot_norest","12605","5","17","Male","","false","","","","","[561.3000000119209,280.5]","./assets/img/canyon/memory/17.jpg","[""ArrowUp"",""ArrowLeft""]","value training","canyon","26","{""ArrowUp,ArrowLeft"":26,""ArrowUp,ArrowRight"":10,""ArrowDown,ArrowLeft"":5,""ArrowDown,ArrowRight"":17}","true","ArrowUp,ArrowLeft","false","original","1","24","","",""
"html-keyboard-response","144","708222","0.0-4.0-2.0-1.12","spark_pilot_norest","12605","5","17","Male","","","","","","","null","<div style=""font-size:60px;"">+</div>","null","fixation","","","","","","","","","25","","",""
"revaluation","145","714229","0.0-4.0-2.0-0.13","spark_pilot_norest","12605","5","17","Male","","false","","","","","[409.2000000178814,217.90000000596046]","./assets/img/canyon/memory/24.jpg","[""ArrowUp"",""ArrowLeft""]","value training","canyon","26","{""ArrowUp,ArrowLeft"":26,""ArrowUp,ArrowRight"":10,""ArrowDown,ArrowLeft"":5,""ArrowDown,ArrowRight"":17}","true","ArrowUp,ArrowLeft","false","original","1","26","","",""
"html-keyboard-response","146","714730","0.0-4.0-2.0-1.13","spark_pilot_norest","12605","5","17","Male","","","","","","","null","<div style=""font-size:60px;"">+</div>","null","fixation","","","","","","","","","27","","",""
"revaluation","147","720737","0.0-4.0-2.0-0.14","spark_pilot_norest","12605","5","17","Male","","false","","","","","[738.6999999880791,277.2999999821186]","./assets/img/canyon/memory/21.jpg","[""ArrowUp"",""ArrowLeft""]","value training","canyon","26","{""ArrowUp,ArrowLeft"":26,""ArrowUp,ArrowRight"":10,""ArrowDown,ArrowLeft"":5,""ArrowDown,ArrowRight"":17}","true","ArrowUp,ArrowLeft","false","original","1","28","","",""
"html-keyboard-response","148","721239","0.0-4.0-2.0-1.14","spark_pilot_norest","12605","5","17","Male","","","","","","","null","<div style=""font-size:60px;"">+</div>","null","fixation","","","","","","","","","29","","",""
"revaluation","149","727258","0.0-4.0-2.0-0.15","spark_pilot_norest","12605","5","17","Male","","false","","","","","[866.4000000059605,273.09999999403954]","./assets/img/canyon/memory/17.jpg","[""ArrowUp"",""ArrowLeft""]","value training","canyon","26","{""ArrowUp,ArrowLeft"":26,""ArrowUp,ArrowRight"":10,""ArrowDown,ArrowLeft"":5,""ArrowDown,ArrowRight"":17}","true","ArrowUp,ArrowLeft","false","original","1","30","","",""
"html-keyboard-response","150","727760","0.0-4.0-2.0-1.15","spark_pilot_norest","12605","5","17","Male","","","","","","","null","<div style=""font-size:60px;"">+</div>","null","fixation","","","","","","","","","31","","",""
"revaluation","151","733766","0.0-4.0-2.0-0.16","spark_pilot_norest","12605","5","17","Male","","false","","","","","[768.8000000119209,278.09999999403954]","./assets/img/canyon/memory/12.jpg","[""ArrowUp"",""ArrowLeft""]","value training","canyon","26","{""ArrowUp,ArrowLeft"":26,""ArrowUp,ArrowRight"":10,""ArrowDown,ArrowLeft"":5,""ArrowDown,ArrowRight"":17}","true","ArrowUp,ArrowLeft","false","original","1","32","","",""
"html-keyboard-response","152","734267","0.0-4.0-2.0-1.16","spark_pilot_norest","12605","5","17","Male","","","","","","","null","<div style=""font-size:60px;"">+</div>","null","fixation","","","","","","","","","33","","",""
"revaluation","153","740272","0.0-4.0-2.0-0.17","spark_pilot_norest","12605","5","17","Male","","false","","","","","[506.69999998807907,318.39999997615814]","./assets/img/canyon/memory/26.jpg","[""ArrowUp"",""ArrowLeft""]","value training","canyon","26","{""ArrowUp,ArrowLeft"":26,""ArrowUp,ArrowRight"":10,""ArrowDown,ArrowLeft"":5,""ArrowDown,ArrowRight"":17}","true","ArrowUp,ArrowLeft","false","original","1","34","","",""
"html-keyboard-response","154","740773","0.0-4.0-2.0-1.17","spark_pilot_norest","12605","5","17","Male","","","","","","","null","<div style=""font-size:60px;"">+</div>","null","fixation","","","","","","","","","35","","",""
"revaluation","155","744793","0.0-4.0-2.0-0.18","spark_pilot_norest","12605","5","17","Male","","false","","","","","[444.69999998807907]","./assets/img/canyon/catch/2.jpg","[""spaceBar""]","value training","canyon","0","{""ArrowUp,ArrowLeft"":26,""ArrowUp,ArrowRight"":10,""ArrowDown,ArrowLeft"":5,""ArrowDown,ArrowRight"":17}","true","spaceBar","true","original","1","36","","",""
"html-keyboard-response","156","745296","0.0-4.0-2.0-1.18","spark_pilot_norest","12605","5","17","Male","","","","","","","null","<div style=""font-size:60px;"">+</div>","null","fixation","","","","","","","","","37","","",""
"revaluation","157","751301","0.0-4.0-2.0-0.19","spark_pilot_norest","12605","5","17","Male","","false","","","","","[957.4000000059605,339.30000001192093]","./assets/img/canyon/memory/10.jpg","[""ArrowUp"",""ArrowLeft""]","value training","canyon","26","{""ArrowUp,ArrowLeft"":26,""ArrowUp,ArrowRight"":10,""ArrowDown,ArrowLeft"":5,""ArrowDown,ArrowRight"":17}","true","ArrowUp,ArrowLeft","false","original","1","38","","",""
"html-keyboard-response","158","751803","0.0-4.0-2.0-1.19","spark_pilot_norest","12605","5","17","Male","","","","","","","null","<div style=""font-size:60px;"">+</div>","null","fixation","","","","","","","","","39","","",""
"revaluation","159","757812","0.0-4.0-2.0-0.20","spark_pilot_norest","12605","5","17","Male","","false","","","","","[638,228.60000002384186]","./assets/img/canyon/memory/22.jpg","[""ArrowUp"",""ArrowLeft""]","value training","canyon","26","{""ArrowUp,ArrowLeft"":26,""ArrowUp,ArrowRight"":10,""ArrowDown,ArrowLeft"":5,""ArrowDown,ArrowRight"":17}","true","ArrowUp,ArrowLeft","false","original","1","40","","",""
"html-keyboard-response","160","758314","0.0-4.0-2.0-1.20","spark_pilot_norest","12605","5","17","Male","","","","","","","null","<div style=""font-size:60px;"">+</div>","null","fixation","","","","","","","","","41","","",""
"revaluation","161","764321","0.0-4.0-2.0-0.21","spark_pilot_norest","12605","5","17","Male","","false","","","","","[740.1999999880791,304.30000001192093]","./assets/img/canyon/memory/9.jpg","[""ArrowUp"",""ArrowLeft""]","value training","canyon","26","{""ArrowUp,ArrowLeft"":26,""ArrowUp,ArrowRight"":10,""ArrowDown,ArrowLeft"":5,""ArrowDown,ArrowRight"":17}","true","ArrowUp,ArrowLeft","false","original","1","42","","",""
"html-keyboard-response","162","764822","0.0-4.0-2.0-1.21","spark_pilot_norest","12605","5","17","Male","","","","","","","null","<div style=""font-size:60px;"">+</div>","null","fixation","","","","","","","","","43","","",""
"revaluation","163","770834","0.0-4.0-2.0-0.22","spark_pilot_norest","12605","5","17","Male","","false","","","","","[751.5,291.90000000596046]","./assets/img/canyon/memory/38.jpg","[""ArrowUp"",""ArrowLeft""]","value training","canyon","26","{""ArrowUp,ArrowLeft"":26,""ArrowUp,ArrowRight"":10,""ArrowDown,ArrowLeft"":5,""ArrowDown,ArrowRight"":17}","true","ArrowUp,ArrowLeft","false","original","1","44","","",""
"html-keyboard-response","164","771336","0.0-4.0-2.0-1.22","spark_pilot_norest","12605","5","17","Male","","","","","","","null","<div style=""font-size:60px;"">+</div>","null","fixation","","","","","","","","","45","","",""
"revaluation","165","777355","0.0-4.0-2.0-0.23","spark_pilot_norest","12605","5","17","Male","","false","","","","","[343.60000002384186,276.10000002384186]","./assets/img/canyon/memory/5.jpg","[""ArrowUp"",""ArrowLeft""]","value training","canyon","26","{""ArrowUp,ArrowLeft"":26,""ArrowUp,ArrowRight"":10,""ArrowDown,ArrowLeft"":5,""ArrowDown,ArrowRight"":17}","true","ArrowUp,ArrowLeft","false","original","1","46","","",""
"html-keyboard-response","166","777857","0.0-4.0-2.0-1.23","spark_pilot_norest","12605","5","17","Male","","","","","","","null","<div style=""font-size:60px;"">+</div>","null","fixation","","","","","","","","","47","","",""
"revaluation","167","783868","0.0-4.0-2.0-0.24","spark_pilot_norest","12605","5","17","Male","","false","","","","","[613.4000000059605,296.80000001192093]","./assets/img/canyon/memory/25.jpg","[""ArrowUp"",""ArrowLeft""]","value training","canyon","26","{""ArrowUp,ArrowLeft"":26,""ArrowUp,ArrowRight"":10,""ArrowDown,ArrowLeft"":5,""ArrowDown,ArrowRight"":17}","true","ArrowUp,ArrowLeft","false","original","1","48","","",""
"html-keyboard-response","168","784370","0.0-4.0-2.0-1.24","spark_pilot_norest","12605","5","17","Male","","","","","","","null","<div style=""font-size:60px;"">+</div>","null","fixation","","","","","","","","","49","","",""
"revaluation","169","788387","0.0-4.0-2.0-0.25","spark_pilot_norest","12605","5","17","Male","","false","","","","","[397.2000000178814]","./assets/img/canyon/catch/1.jpg","[""ArrowUp""]","value training","canyon","-10","{""ArrowUp,ArrowLeft"":26,""ArrowUp,ArrowRight"":10,""ArrowDown,ArrowLeft"":5,""ArrowDown,ArrowRight"":17}","false","ArrowUp","true","original","1","50","","",""
"html-keyboard-response","170","788888","0.0-4.0-2.0-1.25","spark_pilot_norest","12605","5","17","Male","","","","","","","null","<div style=""font-size:60px;"">+</div>","null","fixation","","","","","","","","","51","","",""
"revaluation","171","794898","0.0-4.0-2.0-0.26","spark_pilot_norest","12605","5","17","Male","","false","","","","","[331,273.30000001192093]","./assets/img/canyon/memory/19.jpg","[""ArrowUp"",""ArrowLeft""]","value training","canyon","26","{""ArrowUp,ArrowLeft"":26,""ArrowUp,ArrowRight"":10,""ArrowDown,ArrowLeft"":5,""ArrowDown,ArrowRight"":17}","true","ArrowUp,ArrowLeft","false","original","1","52","","",""
"html-keyboard-response","172","795400","0.0-4.0-2.0-1.26","spark_pilot_norest","12605","5","17","Male","","","","","","","null","<div style=""font-size:60px;"">+</div>","null","fixation","","","","","","","","","53","","",""
"revaluation","173","801434","0.0-4.0-2.0-0.27","spark_pilot_norest","12605","5","17","Male","","false","","","","","[404.5,310.30000001192093]","./assets/img/canyon/memory/1.jpg","[""ArrowUp"",""ArrowLeft""]","value training","canyon","26","{""ArrowUp,ArrowLeft"":26,""ArrowUp,ArrowRight"":10,""ArrowDown,ArrowLeft"":5,""ArrowDown,ArrowRight"":17}","true","ArrowUp,ArrowLeft","false","original","1","54","","",""
"html-keyboard-response","174","801935","0.0-4.0-2.0-1.27","spark_pilot_norest","12605","5","17","Male","","","","","","","null","<div style=""font-size:60px;"">+</div>","null","fixation","","","","","","","","","55","","",""
"revaluation","175","807941","0.0-4.0-2.0-0.28","spark_pilot_norest","12605","5","17","Male","","false","","","","","[1290.199999988079,381.2000000178814]","./assets/img/canyon/memory/8.jpg","[""ArrowUp"",""ArrowLeft""]","value training","canyon","26","{""ArrowUp,ArrowLeft"":26,""ArrowUp,ArrowRight"":10,""ArrowDown,ArrowLeft"":5,""ArrowDown,ArrowRight"":17}","true","ArrowUp,ArrowLeft","false","original","1","56","","",""
"html-keyboard-response","176","808442","0.0-4.0-2.0-1.28","spark_pilot_norest","12605","5","17","Male","","","","","","","null","<div style=""font-size:60px;"">+</div>","null","fixation","","","","","","","","","57","","",""
"revaluation","177","812448","0.0-4.0-2.0-0.29","spark_pilot_norest","12605","5","17","Male","","false","","","","","[640.0999999940395]","./assets/img/canyon/catch/0.jpg","[""spaceBar""]","value training","canyon","0","{""ArrowUp,ArrowLeft"":26,""ArrowUp,ArrowRight"":10,""ArrowDown,ArrowLeft"":5,""ArrowDown,ArrowRight"":17}","true","spaceBar","true","original","1","58","","",""
"html-keyboard-response","178","812949","0.0-4.0-2.0-1.29","spark_pilot_norest","12605","5","17","Male","","","","","","","null","<div style=""font-size:60px;"">+</div>","null","fixation","","","","","","","","","59","","",""
"revaluation","179","818964","0.0-4.0-2.0-0.30","spark_pilot_norest","12605","5","17","Male","","false","","","","","[840.9000000059605,318.5]","./assets/img/canyon/memory/31.jpg","[""ArrowUp"",""ArrowLeft""]","value training","canyon","26","{""ArrowUp,ArrowLeft"":26,""ArrowUp,ArrowRight"":10,""ArrowDown,ArrowLeft"":5,""ArrowDown,ArrowRight"":17}","true","ArrowUp,ArrowLeft","false","original","1","60","","",""
"html-keyboard-response","180","819466","0.0-4.0-2.0-1.30","spark_pilot_norest","12605","5","17","Male","","","","","","","null","<div style=""font-size:60px;"">+</div>","null","fixation","","","","","","","","","61","","",""
"revaluation","181","823471","0.0-4.0-2.0-0.31","spark_pilot_norest","12605","5","17","Male","","false","","","","","[649.5999999940395]","./assets/img/canyon/catch/7.jpg","[""spaceBar""]","value training","canyon","0","{""ArrowUp,ArrowLeft"":26,""ArrowUp,ArrowRight"":10,""ArrowDown,ArrowLeft"":5,""ArrowDown,ArrowRight"":17}","true","spaceBar","true","original","1","62","","",""
"html-keyboard-response","182","823974","0.0-4.0-2.0-1.31","spark_pilot_norest","12605","5","17","Male","","","","","","","null","<div style=""font-size:60px;"">+</div>","null","fixation","","","","","","","","","63","","",""
"revaluation","183","827979","0.0-4.0-2.0-0.32","spark_pilot_norest","12605","5","17","Male","","false","","","","","[539.7999999821186]","./assets/img/canyon/catch/4.jpg","[""spaceBar""]","value training","canyon","0","{""ArrowUp,ArrowLeft"":26,""ArrowUp,ArrowRight"":10,""ArrowDown,ArrowLeft"":5,""ArrowDown,ArrowRight"":17}","true","spaceBar","true","original","1","64","","",""
"html-keyboard-response","184","828481","0.0-4.0-2.0-1.32","spark_pilot_norest","12605","5","17","Male","","","","","","","null","<div style=""font-size:60px;"">+</div>","null","fixation","","","","","","","","","65","","",""
"revaluation","185","834506","0.0-4.0-2.0-0.33","spark_pilot_norest","12605","5","17","Male","","false","","","","","[1167.5999999940395,424.40000000596046]","./assets/img/canyon/memory/36.jpg","[""ArrowUp"",""ArrowLeft""]","value training","canyon","26","{""ArrowUp,ArrowLeft"":26,""ArrowUp,ArrowRight"":10,""ArrowDown,ArrowLeft"":5,""ArrowDown,ArrowRight"":17}","true","ArrowUp,ArrowLeft","false","original","1","66","","",""
"html-keyboard-response","186","835008","0.0-4.0-2.0-1.33","spark_pilot_norest","12605","5","17","Male","","","","","","","null","<div style=""font-size:60px;"">+</div>","null","fixation","","","","","","","","","67","","",""
"revaluation","187","841020","0.0-4.0-2.0-0.34","spark_pilot_norest","12605","5","17","Male","","false","","","","","[783,428]","./assets/img/canyon/memory/38.jpg","[""ArrowUp"",""ArrowLeft""]","value training","canyon","26","{""ArrowUp,ArrowLeft"":26,""ArrowUp,ArrowRight"":10,""ArrowDown,ArrowLeft"":5,""ArrowDown,ArrowRight"":17}","true","ArrowUp,ArrowLeft","false","original","1","68","","",""
"html-keyboard-response","188","841521","0.0-4.0-2.0-1.34","spark_pilot_norest","12605","5","17","Male","","","","","","","null","<div style=""font-size:60px;"">+</div>","null","fixation","","","","","","","","","69","","",""
"revaluation","189","847526","0.0-4.0-2.0-0.35","spark_pilot_norest","12605","5","17","Male","","false","","","","","[427.30000001192093,1207.199999988079]","./assets/img/canyon/memory/16.jpg","[""ArrowUp"",""ArrowLeft""]","value training","canyon","26","{""ArrowUp,ArrowLeft"":26,""ArrowUp,ArrowRight"":10,""ArrowDown,ArrowLeft"":5,""ArrowDown,ArrowRight"":17}","true","ArrowUp,ArrowLeft","false","original","1","70","","",""
"html-keyboard-response","190","848029","0.0-4.0-2.0-1.35","spark_pilot_norest","12605","5","17","Male","","","","","","","null","<div style=""font-size:60px;"">+</div>","null","fixation","","","","","","","","","71","","",""
"revaluation","191","854051","0.0-4.0-2.0-0.36","spark_pilot_norest","12605","5","17","Male","","false","","","","","[764.7000000178814,296.19999998807907]","./assets/img/canyon/memory/32.jpg","[""ArrowUp"",""ArrowLeft""]","value training","canyon","26","{""ArrowUp,ArrowLeft"":26,""ArrowUp,ArrowRight"":10,""ArrowDown,ArrowLeft"":5,""ArrowDown,ArrowRight"":17}","true","ArrowUp,ArrowLeft","false","original","1","72","","",""
"html-keyboard-response","192","854553","0.0-4.0-2.0-1.36","spark_pilot_norest","12605","5","17","Male","","","","","","","null","<div style=""font-size:60px;"">+</div>","null","fixation","","","","","","","","","73","","",""
"revaluation","193","860559","0.0-4.0-2.0-0.37","spark_pilot_norest","12605","5","17","Male","","false","","","","","[365.89999997615814,356.90000000596046]","./assets/img/canyon/memory/3.jpg","[""ArrowUp"",""ArrowLeft""]","value training","canyon","26","{""ArrowUp,ArrowLeft"":26,""ArrowUp,ArrowRight"":10,""ArrowDown,ArrowLeft"":5,""ArrowDown,ArrowRight"":17}","true","ArrowUp,ArrowLeft","false","original","1","74","","",""
"html-keyboard-response","194","861063","0.0-4.0-2.0-1.37","spark_pilot_norest","12605","5","17","Male","","","","","","","null","<div style=""font-size:60px;"">+</div>","null","fixation","","","","","","","","","75","","",""
"revaluation","195","867072","0.0-4.0-2.0-0.38","spark_pilot_norest","12605","5","17","Male","","false","","","","","[391.59999999403954,242.09999999403954]","./assets/img/canyon/memory/1.jpg","[""ArrowUp"",""ArrowLeft""]","value training","canyon","26","{""ArrowUp,ArrowLeft"":26,""ArrowUp,ArrowRight"":10,""ArrowDown,ArrowLeft"":5,""ArrowDown,ArrowRight"":17}","true","ArrowUp,ArrowLeft","false","original","1","76","","",""
"html-keyboard-response","196","867574","0.0-4.0-2.0-1.38","spark_pilot_norest","12605","5","17","Male","","","","","","","null","<div style=""font-size:60px;"">+</div>","null","fixation","","","","","","","","","77","","",""
"revaluation","197","873580","0.0-4.0-2.0-0.39","spark_pilot_norest","12605","5","17","Male","","false","","","","","[539,279.2000000178814]","./assets/img/canyon/memory/7.jpg","[""ArrowUp"",""ArrowLeft""]","value training","canyon","26","{""ArrowUp,ArrowLeft"":26,""ArrowUp,ArrowRight"":10,""ArrowDown,ArrowLeft"":5,""ArrowDown,ArrowRight"":17}","true","ArrowUp,ArrowLeft","false","original","1","78","","",""
"html-keyboard-response","198","874082","0.0-4.0-2.0-1.39","spark_pilot_norest","12605","5","17","Male","","","","","","","null","<div style=""font-size:60px;"">+</div>","null","fixation","","","","","","","","","79","","",""
"revaluation","199","880101","0.0-4.0-2.0-0.40","spark_pilot_norest","12605","5","17","Male","","false","","","","","[397.40000000596046,345.90000000596046]","./assets/img/canyon/memory/5.jpg","[""ArrowUp"",""ArrowLeft""]","value training","canyon","26","{""ArrowUp,ArrowLeft"":26,""ArrowUp,ArrowRight"":10,""ArrowDown,ArrowLeft"":5,""ArrowDown,ArrowRight"":17}","true","ArrowUp,ArrowLeft","false","original","1","80","","",""
"html-keyboard-response","200","880603","0.0-4.0-2.0-1.40","spark_pilot_norest","12605","5","17","Male","","","","","","","null","<div style=""font-size:60px;"">+</div>","null","fixation","","","","","","","","","81","","",""
"revaluation","201","886619","0.0-4.0-2.0-0.41","spark_pilot_norest","12605","5","17","Male","","false","","","","","[870.7000000178814,402.5]","./assets/img/canyon/memory/19.jpg","[""ArrowUp"",""ArrowLeft""]","value training","canyon","26","{""ArrowUp,ArrowLeft"":26,""ArrowUp,ArrowRight"":10,""ArrowDown,ArrowLeft"":5,""ArrowDown,ArrowRight"":17}","true","ArrowUp,ArrowLeft","false","original","1","82","","",""
"html-keyboard-response","202","887134","0.0-4.0-2.0-1.41","spark_pilot_norest","12605","5","17","Male","","","","","","","null","<div style=""font-size:60px;"">+</div>","null","fixation","","","","","","","","","83","","",""
"revaluation","203","891158","0.0-4.0-2.0-0.42","spark_pilot_norest","12605","5","17","Male","","false","","","","","[524.7999999821186]","./assets/img/canyon/catch/5.jpg","[""spaceBar""]","value training","canyon","0","{""ArrowUp,ArrowLeft"":26,""ArrowUp,ArrowRight"":10,""ArrowDown,ArrowLeft"":5,""ArrowDown,ArrowRight"":17}","true","spaceBar","true","original","1","84","","",""
"html-keyboard-response","204","891661","0.0-4.0-2.0-1.42","spark_pilot_norest","12605","5","17","Male","","","","","","","null","<div style=""font-size:60px;"">+</div>","null","fixation","","","","","","","","","85","","",""
"revaluation","205","897669","0.0-4.0-2.0-0.43","spark_pilot_norest","12605","5","17","Male","","false","","","","","[597.8000000119209,282.19999998807907]","./assets/img/canyon/memory/24.jpg","[""ArrowUp"",""ArrowLeft""]","value training","canyon","26","{""ArrowUp,ArrowLeft"":26,""ArrowUp,ArrowRight"":10,""ArrowDown,ArrowLeft"":5,""ArrowDown,ArrowRight"":17}","true","ArrowUp,ArrowLeft","false","original","1","86","","",""
"html-keyboard-response","206","898170","0.0-4.0-2.0-1.43","spark_pilot_norest","12605","5","17","Male","","","","","","","null","<div style=""font-size:60px;"">+</div>","null","fixation","","","","","","","","","87","","",""
"revaluation","207","902176","0.0-4.0-2.0-0.44","spark_pilot_norest","12605","5","17","Male","","false","","","","","[498]","./assets/img/canyon/catch/6.jpg","[""spaceBar""]","value training","canyon","0","{""ArrowUp,ArrowLeft"":26,""ArrowUp,ArrowRight"":10,""ArrowDown,ArrowLeft"":5,""ArrowDown,ArrowRight"":17}","true","spaceBar","true","original","1","88","","",""
"html-keyboard-response","208","902678","0.0-4.0-2.0-1.44","spark_pilot_norest","12605","5","17","Male","","","","","","","null","<div style=""font-size:60px;"">+</div>","null","fixation","","","","","","","","","89","","",""
"revaluation","209","908684","0.0-4.0-2.0-0.45","spark_pilot_norest","12605","5","17","Male","","false","","","","","[539.5,264.69999998807907]","./assets/img/canyon/memory/39.jpg","[""ArrowUp"",""ArrowLeft""]","value training","canyon","26","{""ArrowUp,ArrowLeft"":26,""ArrowUp,ArrowRight"":10,""ArrowDown,ArrowLeft"":5,""ArrowDown,ArrowRight"":17}","true","ArrowUp,ArrowLeft","false","original","1","90","","",""
"html-keyboard-response","210","909186","0.0-4.0-2.0-1.45","spark_pilot_norest","12605","5","17","Male","","","","","","","null","<div style=""font-size:60px;"">+</div>","null","fixation","","","","","","","","","91","","",""
"revaluation","211","915192","0.0-4.0-2.0-0.46","spark_pilot_norest","12605","5","17","Male","","false","","","","","[245.80000001192093,250.59999999403954]","./assets/img/canyon/memory/21.jpg","[""ArrowUp"",""ArrowLeft""]","value training","canyon","26","{""ArrowUp,ArrowLeft"":26,""ArrowUp,ArrowRight"":10,""ArrowDown,ArrowLeft"":5,""ArrowDown,ArrowRight"":17}","true","ArrowUp,ArrowLeft","false","original","1","92","","",""
"html-keyboard-response","212","915693","0.0-4.0-2.0-1.46","spark_pilot_norest","12605","5","17","Male","","","","","","","null","<div style=""font-size:60px;"">+</div>","null","fixation","","","","","","","","","93","","",""
"revaluation","213","921698","0.0-4.0-2.0-0.47","spark_pilot_norest","12605","5","17","Male","","false","","","","","[200.7000000178814,294.60000002384186]","./assets/img/canyon/memory/39.jpg","[""ArrowUp"",""ArrowLeft""]","value training","canyon","26","{""ArrowUp,ArrowLeft"":26,""ArrowUp,ArrowRight"":10,""ArrowDown,ArrowLeft"":5,""ArrowDown,ArrowRight"":17}","true","ArrowUp,ArrowLeft","false","original","1","94","","",""
"html-keyboard-response","214","922205","0.0-4.0-2.0-1.47","spark_pilot_norest","12605","5","17","Male","","","","","","","null","<div style=""font-size:60px;"">+</div>","null","fixation","","","","","","","","","95","","",""
"revaluation","215","928229","0.0-4.0-2.0-0.48","spark_pilot_norest","12605","5","17","Male","","false","","","","","[398.60000002384186,112.09999999403954]","./assets/img/canyon/memory/31.jpg","[""ArrowUp"",""ArrowLeft""]","value training","canyon","26","{""ArrowUp,ArrowLeft"":26,""ArrowUp,ArrowRight"":10,""ArrowDown,ArrowLeft"":5,""ArrowDown,ArrowRight"":17}","true","ArrowUp,ArrowLeft","false","original","1","96","","",""
"html-keyboard-response","216","928739","0.0-4.0-2.0-1.48","spark_pilot_norest","12605","5","17","Male","","","","","","","null","<div style=""font-size:60px;"">+</div>","null","fixation","","","","","","","","","97","","",""
"revaluation","217","934746","0.0-4.0-2.0-0.49","spark_pilot_norest","12605","5","17","Male","","false","","","","","[218.2000000178814,315.2999999821186]","./assets/img/canyon/memory/25.jpg","[""ArrowUp"",""ArrowLeft""]","value training","canyon","26","{""ArrowUp,ArrowLeft"":26,""ArrowUp,ArrowRight"":10,""ArrowDown,ArrowLeft"":5,""ArrowDown,ArrowRight"":17}","true","ArrowUp,ArrowLeft","false","original","1","98","","",""
"html-keyboard-response","218","935248","0.0-4.0-2.0-1.49","spark_pilot_norest","12605","5","17","Male","","","","","","","null","<div style=""font-size:60px;"">+</div>","null","fixation","","","","","","","","","99","","",""
"learning-instructions","219","949041","0.0-4.0-3.0-0.0","spark_pilot_norest","12605","5","17","Male","","","","","","","895","<p> Now, you will travel with a friend who will choose whether you go up or down first. </p>
            <p> On these turns, you will just see the animal that they found. You will still get to choose which chest to search for treasure.</p>","","instructions","","","","","","","","","","","",""
"revaluation","220","953058","0.0-4.0-4.0-0.0","spark_pilot_norest","12605","5","17","Male","","false","","","","","[858.6999999880791]","./assets/img/canyon/animals/giraffe.jpg","[""ArrowRight""]","revaluation","canyon","17","{""ArrowUp,ArrowLeft"":26,""ArrowUp,ArrowRight"":10,""ArrowDown,ArrowLeft"":5,""ArrowDown,ArrowRight"":17}","true","ArrowDown,ArrowRight","","original","1","0","","",""
"html-keyboard-response","221","953576","0.0-4.0-4.0-1.0","spark_pilot_norest","12605","5","17","Male","","","","","","","null","<div style=""font-size:60px;"">+</div>","null","fixation","","","","","","","","","1","","",""
"revaluation","222","957591","0.0-4.0-4.0-0.1","spark_pilot_norest","12605","5","17","Male","","false","","","","","[599.1999999880791]","./assets/img/canyon/animals/giraffe.jpg","[""ArrowRight""]","revaluation","canyon","17","{""ArrowUp,ArrowLeft"":26,""ArrowUp,ArrowRight"":10,""ArrowDown,ArrowLeft"":5,""ArrowDown,ArrowRight"":17}","true","ArrowDown,ArrowRight","","original","1","2","","",""
"html-keyboard-response","223","958101","0.0-4.0-4.0-1.1","spark_pilot_norest","12605","5","17","Male","","","","","","","null","<div style=""font-size:60px;"">+</div>","null","fixation","","","","","","","","","3","","",""
"revaluation","224","962117","0.0-4.0-4.0-0.2","spark_pilot_norest","12605","5","17","Male","","false","","","","","[402.89999997615814]","./assets/img/canyon/animals/lion.jpg","[""ArrowLeft""]","revaluation","canyon","26","{""ArrowUp,ArrowLeft"":26,""ArrowUp,ArrowRight"":10,""ArrowDown,ArrowLeft"":5,""ArrowDown,ArrowRight"":17}","true","ArrowUp,ArrowLeft","","original","1","4","","",""
"html-keyboard-response","225","962633","0.0-4.0-4.0-1.2","spark_pilot_norest","12605","5","17","Male","","","","","","","null","<div style=""font-size:60px;"">+</div>","null","fixation","","","","","","","","","5","","",""
"revaluation","226","966650","0.0-4.0-4.0-0.3","spark_pilot_norest","12605","5","17","Male","","false","","","","","[816.3000000119209]","./assets/img/canyon/animals/lion.jpg","[""ArrowLeft""]","revaluation","canyon","26","{""ArrowUp,ArrowLeft"":26,""ArrowUp,ArrowRight"":10,""ArrowDown,ArrowLeft"":5,""ArrowDown,ArrowRight"":17}","true","ArrowUp,ArrowLeft","","original","1","6","","",""
"html-keyboard-response","227","967161","0.0-4.0-4.0-1.3","spark_pilot_norest","12605","5","17","Male","","","","","","","null","<div style=""font-size:60px;"">+</div>","null","fixation","","","","","","","","","7","","",""
"revaluation","228","971191","0.0-4.0-4.0-0.4","spark_pilot_norest","12605","5","17","Male","","false","","","","","[422.69999998807907]","./assets/img/canyon/animals/lion.jpg","[""ArrowLeft""]","revaluation","canyon","26","{""ArrowUp,ArrowLeft"":26,""ArrowUp,ArrowRight"":10,""ArrowDown,ArrowLeft"":5,""ArrowDown,ArrowRight"":17}","true","ArrowUp,ArrowLeft","","original","1","8","","",""
"html-keyboard-response","229","971706","0.0-4.0-4.0-1.4","spark_pilot_norest","12605","5","17","Male","","","","","","","null","<div style=""font-size:60px;"">+</div>","null","fixation","","","","","","","","","9","","",""
"revaluation","230","975722","0.0-4.0-4.0-0.5","spark_pilot_norest","12605","5","17","Male","","false","","","","","[547.4000000059605]","./assets/img/canyon/animals/giraffe.jpg","[""ArrowRight""]","revaluation","canyon","17","{""ArrowUp,ArrowLeft"":26,""ArrowUp,ArrowRight"":10,""ArrowDown,ArrowLeft"":5,""ArrowDown,ArrowRight"":17}","true","ArrowDown,ArrowRight","","original","1","10","","",""
"html-keyboard-response","231","976223","0.0-4.0-4.0-1.5","spark_pilot_norest","12605","5","17","Male","","","","","","","null","<div style=""font-size:60px;"">+</div>","null","fixation","","","","","","","","","11","","",""
"revaluation","232","980230","0.0-4.0-4.0-0.6","spark_pilot_norest","12605","5","17","Male","","false","","","","","[787.0999999940395]","./assets/img/canyon/animals/giraffe.jpg","[""ArrowRight""]","revaluation","canyon","17","{""ArrowUp,ArrowLeft"":26,""ArrowUp,ArrowRight"":10,""ArrowDown,ArrowLeft"":5,""ArrowDown,ArrowRight"":17}","true","ArrowDown,ArrowRight","","original","1","12","","",""
"html-keyboard-response","233","980731","0.0-4.0-4.0-1.6","spark_pilot_norest","12605","5","17","Male","","","","","","","null","<div style=""font-size:60px;"">+</div>","null","fixation","","","","","","","","","13","","",""
"revaluation","234","984736","0.0-4.0-4.0-0.7","spark_pilot_norest","12605","5","17","Male","","false","","","","","[1048.5999999940395]","./assets/img/canyon/animals/giraffe.jpg","[""ArrowRight""]","revaluation","canyon","17","{""ArrowUp,ArrowLeft"":26,""ArrowUp,ArrowRight"":10,""ArrowDown,ArrowLeft"":5,""ArrowDown,ArrowRight"":17}","true","ArrowDown,ArrowRight","","original","1","14","","",""
"html-keyboard-response","235","985238","0.0-4.0-4.0-1.7","spark_pilot_norest","12605","5","17","Male","","","","","","","null","<div style=""font-size:60px;"">+</div>","null","fixation","","","","","","","","","15","","",""
"revaluation","236","989244","0.0-4.0-4.0-0.8","spark_pilot_norest","12605","5","17","Male","","false","","","","","[849.5999999940395]","./assets/img/canyon/animals/giraffe.jpg","[""ArrowRight""]","revaluation","canyon","17","{""ArrowUp,ArrowLeft"":26,""ArrowUp,ArrowRight"":10,""ArrowDown,ArrowLeft"":5,""ArrowDown,ArrowRight"":17}","true","ArrowDown,ArrowRight","","original","1","16","","",""
"html-keyboard-response","237","989745","0.0-4.0-4.0-1.8","spark_pilot_norest","12605","5","17","Male","","","","","","","null","<div style=""font-size:60px;"">+</div>","null","fixation","","","","","","","","","17","","",""
"revaluation","238","993750","0.0-4.0-4.0-0.9","spark_pilot_norest","12605","5","17","Male","","false","","","","","[533.6999999880791]","./assets/img/canyon/animals/lion.jpg","[""ArrowLeft""]","revaluation","canyon","26","{""ArrowUp,ArrowLeft"":26,""ArrowUp,ArrowRight"":10,""ArrowDown,ArrowLeft"":5,""ArrowDown,ArrowRight"":17}","true","ArrowUp,ArrowLeft","","original","1","18","","",""
"html-keyboard-response","239","994252","0.0-4.0-4.0-1.9","spark_pilot_norest","12605","5","17","Male","","","","","","","null","<div style=""font-size:60px;"">+</div>","null","fixation","","","","","","","","","19","","",""
"revaluation","240","998270","0.0-4.0-4.0-0.10","spark_pilot_norest","12605","5","17","Male","","false","","","","","[524.0999999940395]","./assets/img/canyon/animals/lion.jpg","[""ArrowLeft""]","revaluation","canyon","26","{""ArrowUp,ArrowLeft"":26,""ArrowUp,ArrowRight"":10,""ArrowDown,ArrowLeft"":5,""ArrowDown,ArrowRight"":17}","true","ArrowUp,ArrowLeft","","original","1","20","","",""
"html-keyboard-response","241","998772","0.0-4.0-4.0-1.10","spark_pilot_norest","12605","5","17","Male","","","","","","","null","<div style=""font-size:60px;"">+</div>","null","fixation","","","","","","","","","21","","",""
"revaluation","242","1002777","0.0-4.0-4.0-0.11","spark_pilot_norest","12605","5","17","Male","","false","","","","","[407.30000001192093]","./assets/img/canyon/animals/lion.jpg","[""ArrowLeft""]","revaluation","canyon","26","{""ArrowUp,ArrowLeft"":26,""ArrowUp,ArrowRight"":10,""ArrowDown,ArrowLeft"":5,""ArrowDown,ArrowRight"":17}","true","ArrowUp,ArrowLeft","","original","1","22","","",""
"html-keyboard-response","243","1003279","0.0-4.0-4.0-1.11","spark_pilot_norest","12605","5","17","Male","","","","","","","null","<div style=""font-size:60px;"">+</div>","null","fixation","","","","","","","","","23","","",""
"revaluation","244","1007287","0.0-4.0-4.0-0.12","spark_pilot_norest","12605","5","17","Male","","false","","","","","[742.9000000059605]","./assets/img/canyon/animals/giraffe.jpg","[""ArrowRight""]","revaluation","canyon","17","{""ArrowUp,ArrowLeft"":26,""ArrowUp,ArrowRight"":10,""ArrowDown,ArrowLeft"":5,""ArrowDown,ArrowRight"":17}","true","ArrowDown,ArrowRight","","original","1","24","","",""
"html-keyboard-response","245","1007789","0.0-4.0-4.0-1.12","spark_pilot_norest","12605","5","17","Male","","","","","","","null","<div style=""font-size:60px;"">+</div>","null","fixation","","","","","","","","","25","","",""
"revaluation","246","1011793","0.0-4.0-4.0-0.13","spark_pilot_norest","12605","5","17","Male","","false","","","","","[747.9000000059605]","./assets/img/canyon/animals/lion.jpg","[""ArrowLeft""]","revaluation","canyon","26","{""ArrowUp,ArrowLeft"":26,""ArrowUp,ArrowRight"":10,""ArrowDown,ArrowLeft"":5,""ArrowDown,ArrowRight"":17}","true","ArrowUp,ArrowLeft","","original","1","26","","",""
"html-keyboard-response","247","1012301","0.0-4.0-4.0-1.13","spark_pilot_norest","12605","5","17","Male","","","","","","","null","<div style=""font-size:60px;"">+</div>","null","fixation","","","","","","","","","27","","",""
"revaluation","248","1016334","0.0-4.0-4.0-0.14","spark_pilot_norest","12605","5","17","Male","","false","","","","","[388]","./assets/img/canyon/animals/lion.jpg","[""ArrowLeft""]","revaluation","canyon","26","{""ArrowUp,ArrowLeft"":26,""ArrowUp,ArrowRight"":10,""ArrowDown,ArrowLeft"":5,""ArrowDown,ArrowRight"":17}","true","ArrowUp,ArrowLeft","","original","1","28","","",""
"html-keyboard-response","249","1016835","0.0-4.0-4.0-1.14","spark_pilot_norest","12605","5","17","Male","","","","","","","null","<div style=""font-size:60px;"">+</div>","null","fixation","","","","","","","","","29","","",""
"revaluation","250","1020841","0.0-4.0-4.0-0.15","spark_pilot_norest","12605","5","17","Male","","false","","","","","[464.5]","./assets/img/canyon/animals/giraffe.jpg","[""ArrowRight""]","revaluation","canyon","17","{""ArrowUp,ArrowLeft"":26,""ArrowUp,ArrowRight"":10,""ArrowDown,ArrowLeft"":5,""ArrowDown,ArrowRight"":17}","true","ArrowDown,ArrowRight","","original","1","30","","",""
"html-keyboard-response","251","1021343","0.0-4.0-4.0-1.15","spark_pilot_norest","12605","5","17","Male","","","","","","","null","<div style=""font-size:60px;"">+</div>","null","fixation","","","","","","","","","31","","",""
"revaluation","252","1025356","0.0-4.0-4.0-0.16","spark_pilot_norest","12605","5","17","Male","","false","","","","","[915.9000000059605]","./assets/img/canyon/animals/giraffe.jpg","[""ArrowRight""]","revaluation","canyon","17","{""ArrowUp,ArrowLeft"":26,""ArrowUp,ArrowRight"":10,""ArrowDown,ArrowLeft"":5,""ArrowDown,ArrowRight"":17}","true","ArrowDown,ArrowRight","","original","1","32","","",""
"html-keyboard-response","253","1025858","0.0-4.0-4.0-1.16","spark_pilot_norest","12605","5","17","Male","","","","","","","null","<div style=""font-size:60px;"">+</div>","null","fixation","","","","","","","","","33","","",""
"revaluation","254","1029862","0.0-4.0-4.0-0.17","spark_pilot_norest","12605","5","17","Male","","false","","","","","[621.9000000059605]","./assets/img/canyon/animals/lion.jpg","[""ArrowLeft""]","revaluation","canyon","26","{""ArrowUp,ArrowLeft"":26,""ArrowUp,ArrowRight"":10,""ArrowDown,ArrowLeft"":5,""ArrowDown,ArrowRight"":17}","true","ArrowUp,ArrowLeft","","original","1","34","","",""
"html-keyboard-response","255","1030363","0.0-4.0-4.0-1.17","spark_pilot_norest","12605","5","17","Male","","","","","","","null","<div style=""font-size:60px;"">+</div>","null","fixation","","","","","","","","","35","","",""
"learning-instructions","256","1038491","0.0-4.0-5.0-0.0","spark_pilot_norest","12605","5","17","Male","","","","","","","null","<p> You have almost finished this part of the game! </p>
            <p> We are going to ask you to make a few more choices. </p>","","instructions","","","","","","","","","","","",""
"learning-instructions","257","1054461","0.0-4.0-5.0-0.1","spark_pilot_norest","12605","5","17","Male","","","","","","","null","<p> First, you need to decide whether to go up or down. When you see each picture, use the arrow keys to make your choice. </p>
            <p><b>You will not see which animal you found, but try to get to the one that will give you the most treasure.</b></p>","","instructions","","","","","","","","","","","",""
"html-keyboard-response","258","1055476","0.0-4.0-6.0-0.0","spark_pilot_norest","12605","5","17","Male","","","","","","","null","<div style=""font-size:100px;color:red;"">Starting in...</div>","null","","","","","","","","","","","","",""
"html-keyboard-response","259","1056478","0.0-4.0-6.0-1.0","spark_pilot_norest","12605","5","17","Male","","","","","","","null","<div style=""font-size:200px;color:red;"">3</div>","null","","","","","","","","","","","","",""
"html-keyboard-response","260","1057494","0.0-4.0-6.0-2.0","spark_pilot_norest","12605","5","17","Male","","","","","","","null","<div style=""font-size:200px;color:red;"">2</div>","null","","","","","","","","","","","","",""
"html-keyboard-response","261","1058510","0.0-4.0-6.0-3.0","spark_pilot_norest","12605","5","17","Male","","","","","","","null","<div style=""font-size:200px;color:red;"">1</div>","null","","","","","","","","","","","","",""
"revaluation","262","1058967","0.0-4.0-7.0-0.0","spark_pilot_norest","12605","5","17","Male","","false","","","","","[454.30000001192093]","./assets/img/canyon/test/0.jpg","[""ArrowUp""]","first stage test","canyon","0","{""ArrowUp,ArrowLeft"":26,""ArrowUp,ArrowRight"":10,""ArrowDown,ArrowLeft"":5,""ArrowDown,ArrowRight"":17}","true","ArrowUp","false","original","1","","","",""
"html-keyboard-response","263","1059478","0.0-4.0-7.0-1.0","spark_pilot_norest","12605","5","17","Male","","","","","","","null","<div style=""font-size:60px;"">+</div>","null","fixation","","","","","","","","","","","",""
"revaluation","264","1060024","0.0-4.0-7.0-0.1","spark_pilot_norest","12605","5","17","Male","","false","","","","","[542.8000000119209]","./assets/img/canyon/test/2.jpg","[""ArrowUp""]","first stage test","canyon","0","{""ArrowUp,ArrowLeft"":26,""ArrowUp,ArrowRight"":10,""ArrowDown,ArrowLeft"":5,""ArrowDown,ArrowRight"":17}","true","ArrowUp","false","original","1","","","",""
"html-keyboard-response","265","1060527","0.0-4.0-7.0-1.1","spark_pilot_norest","12605","5","17","Male","","","","","","","null","<div style=""font-size:60px;"">+</div>","null","fixation","","","","","","","","","","","",""
"revaluation","266","1060768","0.0-4.0-7.0-0.2","spark_pilot_norest","12605","5","17","Male","","false","","","","","[237]","./assets/img/canyon/test/3.jpg","[""ArrowUp""]","first stage test","canyon","0","{""ArrowUp,ArrowLeft"":26,""ArrowUp,ArrowRight"":10,""ArrowDown,ArrowLeft"":5,""ArrowDown,ArrowRight"":17}","true","ArrowUp","false","original","1","","","",""
"html-keyboard-response","267","1061278","0.0-4.0-7.0-1.2","spark_pilot_norest","12605","5","17","Male","","","","","","","null","<div style=""font-size:60px;"">+</div>","null","fixation","","","","","","","","","","","",""
"revaluation","268","1061505","0.0-4.0-7.0-0.3","spark_pilot_norest","12605","5","17","Male","","false","","","","","[223]","./assets/img/canyon/test/1.jpg","[""ArrowUp""]","first stage test","canyon","0","{""ArrowUp,ArrowLeft"":26,""ArrowUp,ArrowRight"":10,""ArrowDown,ArrowLeft"":5,""ArrowDown,ArrowRight"":17}","true","ArrowUp","false","original","1","","","",""
"html-keyboard-response","269","1062018","0.0-4.0-7.0-1.3","spark_pilot_norest","12605","5","17","Male","","","","","","","null","<div style=""font-size:60px;"">+</div>","null","fixation","","","","","","","","","","","",""
"learning-instructions","270","1075370","0.0-4.0-8.0-0.0","spark_pilot_norest","12605","5","17","Male","","","","","","","null","<p> Now you will see the animals again and can search their chests for treasure. </p>
            <p> This time, you will not see how much treasure you earned, but you will earn more bonus money for making better choices. </p>","","instructions","","","","","","","","","","","",""
"html-keyboard-response","271","1076373","0.0-4.0-9.0-0.0","spark_pilot_norest","12605","5","17","Male","","","","","","","null","<div style=""font-size:100px;color:red;"">Starting in...</div>","null","","","","","","","","","","","","",""
"html-keyboard-response","272","1077374","0.0-4.0-9.0-1.0","spark_pilot_norest","12605","5","17","Male","","","","","","","null","<div style=""font-size:200px;color:red;"">3</div>","null","","","","","","","","","","","","",""
"html-keyboard-response","273","1078377","0.0-4.0-9.0-2.0","spark_pilot_norest","12605","5","17","Male","","","","","","","null","<div style=""font-size:200px;color:red;"">2</div>","null","","","","","","","","","","","","",""
"html-keyboard-response","274","1079385","0.0-4.0-9.0-3.0","spark_pilot_norest","12605","5","17","Male","","","","","","","null","<div style=""font-size:200px;color:red;"">1</div>","null","","","","","","","","","","","","",""
"revaluation","275","1080014","0.0-4.0-10.0-0.0","spark_pilot_norest","12605","5","17","Male","","false","","","","","[625.9000000059605]","./assets/img/canyon/animals/lion.jpg","[""ArrowLeft""]","second stage test","canyon","0","{""ArrowUp,ArrowLeft"":26,""ArrowUp,ArrowRight"":10,""ArrowDown,ArrowLeft"":5,""ArrowDown,ArrowRight"":17}","true","ArrowUp,ArrowLeft","","original","1","","","",""
"html-keyboard-response","276","1080530","0.0-4.0-10.0-1.0","spark_pilot_norest","12605","5","17","Male","","","","","","","null","<div style=""font-size:60px;"">+</div>","null","fixation","","","","","","","","","","","",""
"revaluation","277","1080921","0.0-4.0-10.0-0.1","spark_pilot_norest","12605","5","17","Male","","false","","","","","[387.90000000596046]","./assets/img/canyon/animals/lion.jpg","[""ArrowLeft""]","second stage test","canyon","0","{""ArrowUp,ArrowLeft"":26,""ArrowUp,ArrowRight"":10,""ArrowDown,ArrowLeft"":5,""ArrowDown,ArrowRight"":17}","true","ArrowUp,ArrowLeft","","original","1","","","",""
"html-keyboard-response","278","1081431","0.0-4.0-10.0-1.1","spark_pilot_norest","12605","5","17","Male","","","","","","","null","<div style=""font-size:60px;"">+</div>","null","fixation","","","","","","","","","","","",""
"revaluation","279","1081789","0.0-4.0-10.0-0.2","spark_pilot_norest","12605","5","17","Male","","false","","","","","[355.09999999403954]","./assets/img/canyon/animals/lion.jpg","[""ArrowLeft""]","second stage test","canyon","0","{""ArrowUp,ArrowLeft"":26,""ArrowUp,ArrowRight"":10,""ArrowDown,ArrowLeft"":5,""ArrowDown,ArrowRight"":17}","true","ArrowUp,ArrowLeft","","original","1","","","",""
"html-keyboard-response","280","1082305","0.0-4.0-10.0-1.2","spark_pilot_norest","12605","5","17","Male","","","","","","","null","<div style=""font-size:60px;"">+</div>","null","fixation","","","","","","","","","","","",""
"revaluation","281","1082590","0.0-4.0-10.0-0.3","spark_pilot_norest","12605","5","17","Male","","false","","","","","[283.2999999821186]","./assets/img/canyon/animals/lion.jpg","[""ArrowLeft""]","second stage test","canyon","0","{""ArrowUp,ArrowLeft"":26,""ArrowUp,ArrowRight"":10,""ArrowDown,ArrowLeft"":5,""ArrowDown,ArrowRight"":17}","true","ArrowUp,ArrowLeft","","original","1","","","",""
"html-keyboard-response","282","1083091","0.0-4.0-10.0-1.3","spark_pilot_norest","12605","5","17","Male","","","","","","","null","<div style=""font-size:60px;"">+</div>","null","fixation","","","","","","","","","","","",""
"revaluation","283","1083597","0.0-4.0-10.0-0.4","spark_pilot_norest","12605","5","17","Male","","false","","","","","[502.69999998807907]","./assets/img/canyon/animals/giraffe.jpg","[""ArrowRight""]","second stage test","canyon","0","{""ArrowUp,ArrowLeft"":26,""ArrowUp,ArrowRight"":10,""ArrowDown,ArrowLeft"":5,""ArrowDown,ArrowRight"":17}","true","ArrowDown,ArrowRight","","original","1","","","",""
"html-keyboard-response","284","1084110","0.0-4.0-10.0-1.4","spark_pilot_norest","12605","5","17","Male","","","","","","","null","<div style=""font-size:60px;"">+</div>","null","fixation","","","","","","","","","","","",""
"revaluation","285","1084486","0.0-4.0-10.0-0.5","spark_pilot_norest","12605","5","17","Male","","false","","","","","[372.09999999403954]","./assets/img/canyon/animals/giraffe.jpg","[""ArrowRight""]","second stage test","canyon","0","{""ArrowUp,ArrowLeft"":26,""ArrowUp,ArrowRight"":10,""ArrowDown,ArrowLeft"":5,""ArrowDown,ArrowRight"":17}","true","ArrowDown,ArrowRight","","original","1","","","",""
"html-keyboard-response","286","1084996","0.0-4.0-10.0-1.5","spark_pilot_norest","12605","5","17","Male","","","","","","","null","<div style=""font-size:60px;"">+</div>","null","fixation","","","","","","","","","","","",""
"revaluation","287","1085373","0.0-4.0-10.0-0.6","spark_pilot_norest","12605","5","17","Male","","false","","","","","[373.09999999403954]","./assets/img/canyon/animals/giraffe.jpg","[""ArrowRight""]","second stage test","canyon","0","{""ArrowUp,ArrowLeft"":26,""ArrowUp,ArrowRight"":10,""ArrowDown,ArrowLeft"":5,""ArrowDown,ArrowRight"":17}","true","ArrowDown,ArrowRight","","original","1","","","",""
"html-keyboard-response","288","1085878","0.0-4.0-10.0-1.6","spark_pilot_norest","12605","5","17","Male","","","","","","","null","<div style=""font-size:60px;"">+</div>","null","fixation","","","","","","","","","","","",""
"revaluation","289","1086281","0.0-4.0-10.0-0.7","spark_pilot_norest","12605","5","17","Male","","false","","","","","[399.89999997615814]","./assets/img/canyon/animals/giraffe.jpg","[""ArrowRight""]","second stage test","canyon","0","{""ArrowUp,ArrowLeft"":26,""ArrowUp,ArrowRight"":10,""ArrowDown,ArrowLeft"":5,""ArrowDown,ArrowRight"":17}","true","ArrowDown,ArrowRight","","original","1","","","",""
"html-keyboard-response","290","1086788","0.0-4.0-10.0-1.7","spark_pilot_norest","12605","5","17","Male","","","","","","","null","<div style=""font-size:60px;"">+</div>","null","fixation","","","","","","","","","","","",""
"learning-instructions","291","1091927","0.0-4.0-0.1-0.2","spark_pilot_norest","12605","5","17","Male","","","","","","","1490.7000000178814","<p> This time you are searching for treasure in the <b>ocean</b>.</p>","","instructions","","","","","","","","","","","",""
"learning-instructions","292","1110068","0.0-4.0-0.1-0.3","spark_pilot_norest","12605","5","17","Male","","","","","","","890.8000000119209","<p><b>New</b> animals with <b>new</b> treasure chests live here. You need to explore to discover where the animal with the best treasure chest is.</p>
                    <p> Like before, once you figure out which animal has the chest with the most treasure, you should try to get to that animal and select that chest! </p>","","instructions","","","","","","","","","","","",""
"learning-instructions","293","1125816","0.0-4.0-1.1-0.1","spark_pilot_norest","12605","5","17","Male","","","","","","","1019.4000000059605","<p> Remember, when you see a picture of the place, use the up and down keys to <b>find an animal</b>.</p>
            <p> When you encounter an animal, you should use the left and right keys to <b>select a treasure chest</b>.</p>
            <p> Don't forget to look out for the robber! </p>","","instructions","","","","","","","","","","","",""
"revaluation","294","1129829","0.0-4.0-2.1-0.50","spark_pilot_norest","12605","5","17","Male","","false","","","","","[1124.199999988079]","./assets/img/ocean/catch/1.jpg","[""spaceBar""]","value training","ocean","0","{""ArrowUp,ArrowLeft"":23,""ArrowUp,ArrowRight"":10,""ArrowDown,ArrowLeft"":8,""ArrowDown,ArrowRight"":30}","true","spaceBar","true","revaluation","2","0","","",""
"html-keyboard-response","295","1130334","0.0-4.0-2.1-1.50","spark_pilot_norest","12605","5","17","Male","","","","","","","null","<div style=""font-size:60px;"">+</div>","null","fixation","","","","","","","","","1","","",""
"revaluation","296","1136353","0.0-4.0-2.1-0.51","spark_pilot_norest","12605","5","17","Male","","false","","","","","[958.4000000059605,650.8000000119209]","./assets/img/ocean/memory/21.jpg","[""ArrowUp"",""ArrowLeft""]","value training","ocean","23","{""ArrowUp,ArrowLeft"":23,""ArrowUp,ArrowRight"":10,""ArrowDown,ArrowLeft"":8,""ArrowDown,ArrowRight"":30}","false","ArrowUp,ArrowLeft","false","revaluation","2","2","","",""
"html-keyboard-response","297","1136864","0.0-4.0-2.1-1.51","spark_pilot_norest","12605","5","17","Male","","","","","","","null","<div style=""font-size:60px;"">+</div>","null","fixation","","","","","","","","","3","","",""
"revaluation","298","1142881","0.0-4.0-2.1-0.52","spark_pilot_norest","12605","5","17","Male","","false","","","","","[408.60000002384186,288.5]","./assets/img/ocean/memory/5.jpg","[""ArrowUp"",""ArrowRight""]","value training","ocean","10","{""ArrowUp,ArrowLeft"":23,""ArrowUp,ArrowRight"":10,""ArrowDown,ArrowLeft"":8,""ArrowDown,ArrowRight"":30}","false","ArrowUp,ArrowRight","false","revaluation","2","4","","",""
"html-keyboard-response","299","1143388","0.0-4.0-2.1-1.52","spark_pilot_norest","12605","5","17","Male","","","","","","","null","<div style=""font-size:60px;"">+</div>","null","fixation","","","","","","","","","5","","",""
"revaluation","300","1149421","0.0-4.0-2.1-0.53","spark_pilot_norest","12605","5","17","Male","","false","","","","","[734.6999999880791,401.5]","./assets/img/ocean/memory/24.jpg","[""ArrowDown"",""ArrowLeft""]","value training","ocean","8","{""ArrowUp,ArrowLeft"":23,""ArrowUp,ArrowRight"":10,""ArrowDown,ArrowLeft"":8,""ArrowDown,ArrowRight"":30}","false","ArrowDown,ArrowLeft","false","revaluation","2","6","","",""
"html-keyboard-response","301","1149923","0.0-4.0-2.1-1.53","spark_pilot_norest","12605","5","17","Male","","","","","","","null","<div style=""font-size:60px;"">+</div>","null","fixation","","","","","","","","","7","","",""
"revaluation","302","1153951","0.0-4.0-2.1-0.54","spark_pilot_norest","12605","5","17","Male","","false","","","","","[615.6999999880791]","./assets/img/ocean/catch/3.jpg","[""spaceBar""]","value training","ocean","0","{""ArrowUp,ArrowLeft"":23,""ArrowUp,ArrowRight"":10,""ArrowDown,ArrowLeft"":8,""ArrowDown,ArrowRight"":30}","true","spaceBar","true","revaluation","2","8","","",""
"html-keyboard-response","303","1154454","0.0-4.0-2.1-1.54","spark_pilot_norest","12605","5","17","Male","","","","","","","null","<div style=""font-size:60px;"">+</div>","null","fixation","","","","","","","","","9","","",""
"revaluation","304","1160467","0.0-4.0-2.1-0.55","spark_pilot_norest","12605","5","17","Male","","false","","","","","[471.39999997615814,320]","./assets/img/ocean/memory/5.jpg","[""ArrowDown"",""ArrowRight""]","value training","ocean","30","{""ArrowUp,ArrowLeft"":23,""ArrowUp,ArrowRight"":10,""ArrowDown,ArrowLeft"":8,""ArrowDown,ArrowRight"":30}","true","ArrowDown,ArrowRight","false","revaluation","2","10","","",""
"html-keyboard-response","305","1160970","0.0-4.0-2.1-1.55","spark_pilot_norest","12605","5","17","Male","","","","","","","null","<div style=""font-size:60px;"">+</div>","null","fixation","","","","","","","","","11","","",""
"revaluation","306","1164975","0.0-4.0-2.1-0.56","spark_pilot_norest","12605","5","17","Male","","false","","","","","[611]","./assets/img/ocean/catch/4.jpg","[""spaceBar""]","value training","ocean","0","{""ArrowUp,ArrowLeft"":23,""ArrowUp,ArrowRight"":10,""ArrowDown,ArrowLeft"":8,""ArrowDown,ArrowRight"":30}","true","spaceBar","true","revaluation","2","12","","",""
"html-keyboard-response","307","1165476","0.0-4.0-2.1-1.56","spark_pilot_norest","12605","5","17","Male","","","","","","","null","<div style=""font-size:60px;"">+</div>","null","fixation","","","","","","","","","13","","",""
"revaluation","308","1171489","0.0-4.0-2.1-0.57","spark_pilot_norest","12605","5","17","Male","","false","","","","","[1194.8999999761581,529.9000000059605]","./assets/img/ocean/memory/12.jpg","[""ArrowDown"",""ArrowRight""]","value training","ocean","30","{""ArrowUp,ArrowLeft"":23,""ArrowUp,ArrowRight"":10,""ArrowDown,ArrowLeft"":8,""ArrowDown,ArrowRight"":30}","true","ArrowDown,ArrowRight","false","revaluation","2","14","","",""
"html-keyboard-response","309","1171991","0.0-4.0-2.1-1.57","spark_pilot_norest","12605","5","17","Male","","","","","","","null","<div style=""font-size:60px;"">+</div>","null","fixation","","","","","","","","","15","","",""
"revaluation","310","1177995","0.0-4.0-2.1-0.58","spark_pilot_norest","12605","5","17","Male","","false","","","","","[540.7000000178814,464.7999999821186]","./assets/img/ocean/memory/1.jpg","[""ArrowDown"",""ArrowRight""]","value training","ocean","30","{""ArrowUp,ArrowLeft"":23,""ArrowUp,ArrowRight"":10,""ArrowDown,ArrowLeft"":8,""ArrowDown,ArrowRight"":30}","true","ArrowDown,ArrowRight","false","revaluation","2","16","","",""
"html-keyboard-response","311","1178497","0.0-4.0-2.1-1.58","spark_pilot_norest","12605","5","17","Male","","","","","","","null","<div style=""font-size:60px;"">+</div>","null","fixation","","","","","","","","","17","","",""
"revaluation","312","1184517","0.0-4.0-2.1-0.59","spark_pilot_norest","12605","5","17","Male","","false","","","","","[479.60000002384186,444.59999999403954]","./assets/img/ocean/memory/16.jpg","[""ArrowDown"",""ArrowRight""]","value training","ocean","30","{""ArrowUp,ArrowLeft"":23,""ArrowUp,ArrowRight"":10,""ArrowDown,ArrowLeft"":8,""ArrowDown,ArrowRight"":30}","true","ArrowDown,ArrowRight","false","revaluation","2","18","","",""
