"trial_type","trial_index","time_elapsed","internal_node_id","task_version","subject_id","assigned_condition","age","gender","success","timeout","failed_images","failed_audio","failed_video","browser_interaction","rt","stimulus","response","task_part","environment","score","rewardMap","correct","fullState","isCatch","condition","order","trial_num","key_press","ground_truth","bonus"
"pavlovia","0","1045","0.0-0.0","spark_pilot_norest","9994","4","15","Male","","","","","","","","","","","","","","","","","","","","","",""
"preload","1","17182","0.0-1.0","spark_pilot_norest","9994","4","15","Male","true","false","[]","[]","[]","[{""event"":""fullscreenenter"",""trial"":2,""time"":29728},{""event"":""fullscreenexit"",""trial"":4,""time"":37666},{""event"":""blur"",""trial"":6,""time"":58559},{""event"":""focus"",""trial"":6,""time"":61847},{""event"":""blur"",""trial"":25,""time"":152786},{""event"":""focus"",""trial"":25,""time"":176563},{""event"":""blur"",""trial"":26,""time"":179375},{""event"":""focus"",""trial"":26,""time"":181752},{""event"":""blur"",""trial"":59,""time"":343759},{""event"":""focus"",""trial"":59,""time"":347887},{""event"":""blur"",""trial"":396,""time"":1479814},{""event"":""focus"",""trial"":396,""time"":1496026},{""event"":""blur"",""trial"":396,""time"":1497031},{""event"":""focus"",""trial"":396,""time"":1536870}]","","","","","","","","","","","","","","","",""
"fullscreen","2","30708","0.0-2.0","spark_pilot_norest","9994","4","15","Male","true","","","","","","","","","","","","","","","","","","","","",""
"audio-button-response","3","32789","0.0-3.0-0.0-0.0","spark_pilot_norest","9994","4","15","Male","","","","","","[{""event"":""fullscreenenter"",""trial"":2,""time"":29728},{""event"":""fullscreenexit"",""trial"":4,""time"":37666},{""event"":""blur"",""trial"":6,""time"":58559},{""event"":""focus"",""trial"":6,""time"":61847},{""event"":""blur"",""trial"":25,""time"":152786},{""event"":""focus"",""trial"":25,""time"":176563},{""event"":""blur"",""trial"":26,""time"":179375},{""event"":""focus"",""trial"":26,""time"":181752},{""event"":""blur"",""trial"":59,""time"":343759},{""event"":""focus"",""trial"":59,""time"":347887},{""event"":""blur"",""trial"":396,""time"":1479814},{""event"":""focus"",""trial"":396,""time"":1496026},{""event"":""blur"",""trial"":396,""time"":1497031},{""event"":""focus"",""trial"":396,""time"":1536870}]","2080","./assets/audio/audiotest/turtle.mp3","2","audio_test","","","","","","","","","","","",""
"learning-instructions","4","41627","0.0-3.0-1.0-0.0","spark_pilot_norest","9994","4","15","Male","","","","","","","1856.9000000059605","<p> Welcome! Please remember to stay in fullscreen mode and don't click away from the experiment. </p>","","instructions","","","","","","","","","","","",""
"learning-instructions","5","51303","0.0-3.0-1.0-0.1","spark_pilot_norest","9994","4","15","Male","","","","","","[{""event"":""fullscreenenter"",""trial"":2,""time"":29728},{""event"":""fullscreenexit"",""trial"":4,""time"":37666},{""event"":""blur"",""trial"":6,""time"":58559},{""event"":""focus"",""trial"":6,""time"":61847},{""event"":""blur"",""trial"":25,""time"":152786},{""event"":""focus"",""trial"":25,""time"":176563},{""event"":""blur"",""trial"":26,""time"":179375},{""event"":""focus"",""trial"":26,""time"":181752},{""event"":""blur"",""trial"":59,""time"":343759},{""event"":""focus"",""trial"":59,""time"":347887},{""event"":""blur"",""trial"":396,""time"":1479814},{""event"":""focus"",""trial"":396,""time"":1496026},{""event"":""blur"",""trial"":396,""time"":1497031},{""event"":""focus"",""trial"":396,""time"":1536870}]","1262.7000000029802","<p> Today you will be playing a game to earn treasure. </p>
            <p> At the end of the experiment, you will earn a bonus based on how much treasure you find. </p>
            <img src='./assets/img/instructions/treasure.jpg' class='instructions-image'>","","instructions","","","","","","","","","","","",""
"learning-instructions","6","63374","0.0-3.0-1.0-0.2","spark_pilot_norest","9994","4","15","Male","","","","","","","3815.1000000089407","<p> Animals have hidden treasure in treasure chests. </p>
            <p> You need to first find an animal and then choose which of their treasure chests to search. </p>
            <img src='./assets/img/space/animals/cat.jpg' class='instructions-image'>","","instructions","","","","","","","","","","","",""
"learning-instructions","7","77884","0.0-3.0-1.0-0.3","spark_pilot_norest","9994","4","15","Male","","","","","","","1354.5999999940395","<p> In each round, you will search for treasure in a different place. In the real game, there will be two rounds. </p>
            <p> You will begin with a separate, practice round where you will search for treasure in outer space. </p>
            <img src='./assets/img/space/0.jpg' class='instructions-image'>","","instructions","","","","","","","","","","","",""
"learning-instructions","8","91160","0.0-3.0-1.0-0.4","spark_pilot_norest","9994","4","15","Male","","","","","","","1850","<p> On every turn, you will see a picture of the place that you are in, but the specific image may be different each time. </p>
            <p> For example, both of these images mean you are in outer space. </p>
            <img src='./assets/img/instructions/outerspace.jpg' class='instructions-image'>","","instructions","","","","","","","","","","","",""
"learning-instructions","9","99994","0.0-3.0-1.0-0.5","spark_pilot_norest","9994","4","15","Male","","","","","","","1004.7999999970198","<p> You need to decide which direction to travel in. </p>
            <p> You can choose between going <b>up or down</b> by using the arrow keys. </p>
            <img src='./assets/img/instructions/updown.jpg' class='instructions-image'>","","instructions","","","","","","","","","","","",""
"learning-instructions","10","109944","0.0-3.0-1.0-0.6","spark_pilot_norest","9994","4","15","Male","","","","","","","1144.6000000089407","<p> You will have <b>2 seconds</b> to make your choice. </p>
            <p> If you do not make a choice within 2 seconds, you will not find an animal or earn treasure. </p>
            <img src='./assets/img/instructions/2seconds.jpg' class='instructions-image'>","","instructions","","","","","","","","","","","",""
"learning-instructions","11","118031","0.0-3.0-1.0-0.7","spark_pilot_norest","9994","4","15","Male","","","","","","","1042.6000000089407","<p> Let’s try practicing that now! </p>
            <p> When you see a picture of the place you are in, press the <b>up</b> key to travel up. </p>
            <img src='./assets/img/instructions/pressUp.jpg' class='instructions-image'>","","instructions","","","","","","","","","","","",""
"revaluation","12","122074","0.0-3.0-2.0-0.0","spark_pilot_norest","9994","4","15","Male","","false","","","","","[531.7999999970198]","./assets/img/space/0.jpg","[""ArrowUp""]","first stage practice","space","0","null","null","ArrowUp","false","","","","","",""
"html-keyboard-response","13","122575","0.0-3.0-2.0-1.0","spark_pilot_norest","9994","4","15","Male","","","","","","","null","<div style=""font-size:60px;"">+</div>","null","fixation","","","","","","","","","","","",""
"revaluation","14","126593","0.0-3.0-2.0-0.1","spark_pilot_norest","9994","4","15","Male","","false","","","","","[846.6000000089407]","./assets/img/space/1.jpg","[""ArrowUp""]","first stage practice","space","0","null","null","ArrowUp","false","","","","","",""
"html-keyboard-response","15","127096","0.0-3.0-2.0-1.1","spark_pilot_norest","9994","4","15","Male","","","","","","","null","<div style=""font-size:60px;"">+</div>","null","fixation","","","","","","","","","","","",""
"revaluation","16","131122","0.0-3.0-2.0-0.2","spark_pilot_norest","9994","4","15","Male","","false","","","","","[1635.0999999940395]","./assets/img/space/2.jpg","[""ArrowUp""]","first stage practice","space","0","null","null","ArrowUp","false","","","","","",""
"html-keyboard-response","17","131627","0.0-3.0-2.0-1.2","spark_pilot_norest","9994","4","15","Male","","","","","","","null","<div style=""font-size:60px;"">+</div>","null","fixation","","","","","","","","","","","",""
"learning-instructions","18","137232","0.0-3.0-3.0-0.0","spark_pilot_norest","9994","4","15","Male","","","","","","","903.2000000029802","<p> Great job! Now try pressing the <b>down</b> key to travel down. </p>
            <img src='./assets/img/instructions/pressDown.jpg' class='instructions-image'>","","instructions","","","","","","","","","","","",""
"revaluation","19","141250","0.0-3.0-4.0-0.0","spark_pilot_norest","9994","4","15","Male","","false","","","","","[469.3999999910593]","./assets/img/space/3.jpg","[""ArrowDown""]","first stage practice","space","0","null","null","ArrowDown","false","","","","","",""
"html-keyboard-response","20","141758","0.0-3.0-4.0-1.0","spark_pilot_norest","9994","4","15","Male","","","","","","","null","<div style=""font-size:60px;"">+</div>","null","fixation","","","","","","","","","","","",""
"revaluation","21","145772","0.0-3.0-4.0-0.1","spark_pilot_norest","9994","4","15","Male","","false","","","","","[281.30000001192093]","./assets/img/space/4.jpg","[""ArrowDown""]","first stage practice","space","0","null","null","ArrowDown","false","","","","","",""
"html-keyboard-response","22","146288","0.0-3.0-4.0-1.1","spark_pilot_norest","9994","4","15","Male","","","","","","","null","<div style=""font-size:60px;"">+</div>","null","fixation","","","","","","","","","","","",""
"revaluation","23","150309","0.0-3.0-4.0-0.2","spark_pilot_norest","9994","4","15","Male","","false","","","","","[373.40000000596046]","./assets/img/space/5.jpg","[""ArrowDown""]","first stage practice","space","0","null","null","ArrowDown","false","","","","","",""
"html-keyboard-response","24","150822","0.0-3.0-4.0-1.2","spark_pilot_norest","9994","4","15","Male","","","","","","[{""event"":""fullscreenenter"",""trial"":2,""time"":29728},{""event"":""fullscreenexit"",""trial"":4,""time"":37666},{""event"":""blur"",""trial"":6,""time"":58559},{""event"":""focus"",""trial"":6,""time"":61847},{""event"":""blur"",""trial"":25,""time"":152786},{""event"":""focus"",""trial"":25,""time"":176563},{""event"":""blur"",""trial"":26,""time"":179375},{""event"":""focus"",""trial"":26,""time"":181752},{""event"":""blur"",""trial"":59,""time"":343759},{""event"":""focus"",""trial"":59,""time"":347887},{""event"":""blur"",""trial"":396,""time"":1479814},{""event"":""focus"",""trial"":396,""time"":1496026},{""event"":""blur"",""trial"":396,""time"":1497031},{""event"":""focus"",""trial"":396,""time"":1536870}]","null","<div style=""font-size:60px;"">+</div>","null","fixation","","","","","","","","","","","",""
"learning-instructions","25","178697","0.0-3.0-5.0-0.0","spark_pilot_norest","9994","4","15","Male","","","","","","[{""event"":""fullscreenenter"",""trial"":2,""time"":29728},{""event"":""fullscreenexit"",""trial"":4,""time"":37666},{""event"":""blur"",""trial"":6,""time"":58559},{""event"":""focus"",""trial"":6,""time"":61847},{""event"":""blur"",""trial"":25,""time"":152786},{""event"":""focus"",""trial"":25,""time"":176563},{""event"":""blur"",""trial"":26,""time"":179375},{""event"":""focus"",""trial"":26,""time"":181752},{""event"":""blur"",""trial"":59,""time"":343759},{""event"":""focus"",""trial"":59,""time"":347887},{""event"":""blur"",""trial"":396,""time"":1479814},{""event"":""focus"",""trial"":396,""time"":1496026},{""event"":""blur"",""trial"":396,""time"":1497031},{""event"":""focus"",""trial"":396,""time"":1536870}]","18018.69999998808","<p> The animals don’t move, so the animal in the upper part of a place will stay in the upper part of a place, and the animal in the lower part of a place will stay in the lower part of a place. </p>","","instructions","","","","","","","","","","","",""
"learning-instructions","26","189449","0.0-3.0-5.0-0.1","spark_pilot_norest","9994","4","15","Male","","","","","","","1621.5","<p> Each animal has two treasure chests for you to choose from. </p>
            <p> The amount of treasure in each chest can range from <b> 0 to 40 pieces.</b></p>","","instructions","","","","","","","","","","","",""
"learning-instructions","27","201459","0.0-3.0-5.0-0.2","spark_pilot_norest","9994","4","15","Male","","","","","","","821.2999999970198","<p> You should decide which chest to search for treasure by using the <b>left</b> and <b>right</b> arrow keys. </p>
            <p><b> Pay attention to which animal is on the screen, as the animals have different treasure chests. </b></p>
            <img src='./assets/img/instructions/leftright.jpg' class='instructions-image'>","","instructions","","","","","","","","","","","",""
"learning-instructions","28","209216","0.0-3.0-5.0-0.3","spark_pilot_norest","9994","4","15","Male","","","","","","","1388.2000000029802","<p> Let’s try practicing that now. </p>
            <p> When you see an animal, choose which chest to search for treasure. </p>
            <img src='./assets/img/instructions/chooseChest.jpg' class='instructions-image'>","","instructions","","","","","","","","","","","",""
"revaluation","29","213238","0.0-3.0-6.0-0.0","spark_pilot_norest","9994","4","15","Male","","false","","","","","[645.5]","./assets/img/space/animals/cat.jpg","[""ArrowLeft""]","second stage practice","space","3","{""ArrowUp,ArrowLeft"":3,""ArrowUp,ArrowRight"":36,""ArrowDown,ArrowLeft"":15,""ArrowDown,ArrowRight"":23}","false","ArrowUp,ArrowLeft","","","","","","",""
"html-keyboard-response","30","213741","0.0-3.0-6.0-1.0","spark_pilot_norest","9994","4","15","Male","","","","","","","null","<div style=""font-size:60px;"">+</div>","null","fixation","","","","","","","","","","","",""
"revaluation","31","217753","0.0-3.0-6.0-0.1","spark_pilot_norest","9994","4","15","Male","","false","","","","","[592.0999999940395]","./assets/img/space/animals/rabbit.jpg","[""ArrowRight""]","second stage practice","space","23","{""ArrowUp,ArrowLeft"":3,""ArrowUp,ArrowRight"":36,""ArrowDown,ArrowLeft"":15,""ArrowDown,ArrowRight"":23}","true","ArrowDown,ArrowRight","","","","","","",""
"html-keyboard-response","32","218265","0.0-3.0-6.0-1.1","spark_pilot_norest","9994","4","15","Male","","","","","","","null","<div style=""font-size:60px;"">+</div>","null","fixation","","","","","","","","","","","",""
"revaluation","33","222286","0.0-3.0-6.0-0.2","spark_pilot_norest","9994","4","15","Male","","false","","","","","[262.70000000298023]","./assets/img/space/animals/cat.jpg","[""ArrowLeft""]","second stage practice","space","3","{""ArrowUp,ArrowLeft"":3,""ArrowUp,ArrowRight"":36,""ArrowDown,ArrowLeft"":15,""ArrowDown,ArrowRight"":23}","false","ArrowUp,ArrowLeft","","","","","","",""
"html-keyboard-response","34","222788","0.0-3.0-6.0-1.2","spark_pilot_norest","9994","4","15","Male","","","","","","","null","<div style=""font-size:60px;"">+</div>","null","fixation","","","","","","","","","","","",""
"revaluation","35","226798","0.0-3.0-6.0-0.3","spark_pilot_norest","9994","4","15","Male","","false","","","","","[457.6000000089407]","./assets/img/space/animals/rabbit.jpg","[""ArrowRight""]","second stage practice","space","23","{""ArrowUp,ArrowLeft"":3,""ArrowUp,ArrowRight"":36,""ArrowDown,ArrowLeft"":15,""ArrowDown,ArrowRight"":23}","true","ArrowDown,ArrowRight","","","","","","",""
"html-keyboard-response","36","227304","0.0-3.0-6.0-1.3","spark_pilot_norest","9994","4","15","Male","","","","","","","null","<div style=""font-size:60px;"">+</div>","null","fixation","","","","","","","","","","","",""
"learning-instructions","37","245456","0.0-3.0-7.0-0.0","spark_pilot_norest","9994","4","15","Male","","","","","","","1349.9000000059605","<p> Great job. Now let’s try putting it together. </p>
            <p> On each turn, you will first see a picture to remind you of the place you are in, and you need to choose whether to go up or down. </p>
            <p> Then you will see an animal and choose which of its chests to search for treasure. </p>","","instructions","","","","","","","","","","","",""
"learning-instructions","38","256651","0.0-3.0-7.0-0.1","spark_pilot_norest","9994","4","15","Male","","","","","","","2934.6000000089407","<p> When you choose whether to go up or down, try to go to the animal with the chest with the most treasure. </p>
            <p> Try practicing that now! </p>","","instructions","","","","","","","","","","","",""
"revaluation","39","262682","0.0-3.0-8.0-0.0","spark_pilot_norest","9994","4","15","Male","","false","","","","","[673,317.29999999701977]","./assets/img/space/6.jpg","[""ArrowUp"",""ArrowRight""]","full practice","space","36","{""ArrowUp,ArrowLeft"":3,""ArrowUp,ArrowRight"":36,""ArrowDown,ArrowLeft"":15,""ArrowDown,ArrowRight"":23}","true","ArrowUp,ArrowRight","false","","","","","",""
"html-keyboard-response","40","263191","0.0-3.0-8.0-1.0","spark_pilot_norest","9994","4","15","Male","","","","","","","null","<div style=""font-size:60px;"">+</div>","null","fixation","","","","","","","","","","","",""
"revaluation","41","269211","0.0-3.0-8.0-0.1","spark_pilot_norest","9994","4","15","Male","","false","","","","","[467.20000000298023,455.20000000298023]","./assets/img/space/7.jpg","[""ArrowDown"",""ArrowLeft""]","full practice","space","15","{""ArrowUp,ArrowLeft"":3,""ArrowUp,ArrowRight"":36,""ArrowDown,ArrowLeft"":15,""ArrowDown,ArrowRight"":23}","false","ArrowDown,ArrowLeft","false","","","","","",""
"html-keyboard-response","42","269720","0.0-3.0-8.0-1.1","spark_pilot_norest","9994","4","15","Male","","","","","","","null","<div style=""font-size:60px;"">+</div>","null","fixation","","","","","","","","","","","",""
"revaluation","43","275740","0.0-3.0-8.0-0.2","spark_pilot_norest","9994","4","15","Male","","false","","","","","[714.6000000089407,342.3999999910593]","./assets/img/space/8.jpg","[""ArrowUp"",""ArrowRight""]","full practice","space","36","{""ArrowUp,ArrowLeft"":3,""ArrowUp,ArrowRight"":36,""ArrowDown,ArrowLeft"":15,""ArrowDown,ArrowRight"":23}","true","ArrowUp,ArrowRight","false","","","","","",""
"html-keyboard-response","44","276247","0.0-3.0-8.0-1.2","spark_pilot_norest","9994","4","15","Male","","","","","","","null","<div style=""font-size:60px;"">+</div>","null","fixation","","","","","","","","","","","",""
"revaluation","45","282264","0.0-3.0-8.0-0.3","spark_pilot_norest","9994","4","15","Male","","false","","","","","[464.79999999701977,877.5]","./assets/img/space/9.jpg","[""ArrowDown"",""ArrowLeft""]","full practice","space","15","{""ArrowUp,ArrowLeft"":3,""ArrowUp,ArrowRight"":36,""ArrowDown,ArrowLeft"":15,""ArrowDown,ArrowRight"":23}","false","ArrowDown,ArrowLeft","false","","","","","",""
"html-keyboard-response","46","282781","0.0-3.0-8.0-1.3","spark_pilot_norest","9994","4","15","Male","","","","","","","null","<div style=""font-size:60px;"">+</div>","null","fixation","","","","","","","","","","","",""
"revaluation","47","288806","0.0-3.0-8.0-0.4","spark_pilot_norest","9994","4","15","Male","","false","","","","","[382.8999999910593,430.69999998807907]","./assets/img/space/10.jpg","[""ArrowUp"",""ArrowRight""]","full practice","space","36","{""ArrowUp,ArrowLeft"":3,""ArrowUp,ArrowRight"":36,""ArrowDown,ArrowLeft"":15,""ArrowDown,ArrowRight"":23}","true","ArrowUp,ArrowRight","false","","","","","",""
"html-keyboard-response","48","289310","0.0-3.0-8.0-1.4","spark_pilot_norest","9994","4","15","Male","","","","","","","null","<div style=""font-size:60px;"">+</div>","null","fixation","","","","","","","","","","","",""
"learning-instructions","49","301264","0.0-3.0-9.0-0.0","spark_pilot_norest","9994","4","15","Male","","","","","","","1567.5","<p> One last thing: sometimes, you will see a robber. The robber can be anywhere in the picture. </p>
            <p> If you do not stop them, you will lose treasure. </p>
            <img src='./assets/img/instructions/robber.jpg' class='instructions-image'>","","instructions","","","","","","","","","","","",""
"learning-instructions","50","309956","0.0-3.0-9.0-0.1","spark_pilot_norest","9994","4","15","Male","","","","","","","1516.7000000029802","<p> If you see the robber, you should <b>press the space bar</b> rather than using the arrow keys. </p>
            <p> Try practicing that now! </p>","","instructions","","","","","","","","","","","",""
"revaluation","51","313982","0.0-3.0-10.0-0.0","spark_pilot_norest","9994","4","15","Male","","false","","","","","[813.9000000059605]","./assets/img/space/catch/0.jpg","[""spaceBar""]","catch practice","space","0","{""ArrowUp,ArrowLeft"":3,""ArrowUp,ArrowRight"":36,""ArrowDown,ArrowLeft"":15,""ArrowDown,ArrowRight"":23}","true","spaceBar","true","","","","","",""
"html-keyboard-response","52","314490","0.0-3.0-10.0-1.0","spark_pilot_norest","9994","4","15","Male","","","","","","","null","<div style=""font-size:60px;"">+</div>","null","fixation","","","","","","","","","","","",""
"revaluation","53","318507","0.0-3.0-10.0-0.1","spark_pilot_norest","9994","4","15","Male","","false","","","","","[1009.9000000059605]","./assets/img/space/catch/1.jpg","[""spaceBar""]","catch practice","space","0","{""ArrowUp,ArrowLeft"":3,""ArrowUp,ArrowRight"":36,""ArrowDown,ArrowLeft"":15,""ArrowDown,ArrowRight"":23}","true","spaceBar","true","","","","","",""
"html-keyboard-response","54","319011","0.0-3.0-10.0-1.1","spark_pilot_norest","9994","4","15","Male","","","","","","","null","<div style=""font-size:60px;"">+</div>","null","fixation","","","","","","","","","","","",""
"revaluation","55","323032","0.0-3.0-10.0-0.2","spark_pilot_norest","9994","4","15","Male","","false","","","","","[729.7999999970198]","./assets/img/space/catch/2.jpg","[""spaceBar""]","catch practice","space","0","{""ArrowUp,ArrowLeft"":3,""ArrowUp,ArrowRight"":36,""ArrowDown,ArrowLeft"":15,""ArrowDown,ArrowRight"":23}","true","spaceBar","true","","","","","",""
"html-keyboard-response","56","323535","0.0-3.0-10.0-1.2","spark_pilot_norest","9994","4","15","Male","","","","","","","null","<div style=""font-size:60px;"">+</div>","null","fixation","","","","","","","","","","","",""
"learning-instructions","57","330519","0.0-3.0-11.0-0.0-0.0","spark_pilot_norest","9994","4","15","Male","","","","","","","1720.7000000029802","<p> Now, you will practice a shortened version of the game to get a sense of how it all fits together. </p>","","instructions","","","","","","","","","","","",""
"learning-instructions","58","336012","0.0-3.0-11.0-0.0-0.1","spark_pilot_norest","9994","4","15","Male","","","","","","[{""event"":""fullscreenenter"",""trial"":2,""time"":29728},{""event"":""fullscreenexit"",""trial"":4,""time"":37666},{""event"":""blur"",""trial"":6,""time"":58559},{""event"":""focus"",""trial"":6,""time"":61847},{""event"":""blur"",""trial"":25,""time"":152786},{""event"":""focus"",""trial"":25,""time"":176563},{""event"":""blur"",""trial"":26,""time"":179375},{""event"":""focus"",""trial"":26,""time"":181752},{""event"":""blur"",""trial"":59,""time"":343759},{""event"":""focus"",""trial"":59,""time"":347887},{""event"":""blur"",""trial"":396,""time"":1479814},{""event"":""focus"",""trial"":396,""time"":1496026},{""event"":""blur"",""trial"":396,""time"":1497031},{""event"":""focus"",""trial"":396,""time"":1536870}]","2267.6000000089407","<p>This time you are searching for treasure in outer space.</p>","","instructions","","","","","","","","","","","",""
"learning-instructions","59","354984","0.0-3.0-11.0-1.0-0.0","spark_pilot_norest","9994","4","15","Male","","","","","","","4147.4000000059605","<p> Remember, when you see a picture of the place, use the up and down keys to <b>find an animal</b>.</p>
            <p> When you encounter an animal, you should use the left and right keys to <b>select a treasure chest</b>.</p>
            <p> Don't forget to look out for the robber! </p>","","instructions","","","","","","","","","","","",""
"revaluation","60","361028","0.0-3.0-11.0-2.0-0.0","spark_pilot_norest","9994","4","15","Male","","false","","","","","[1026.7000000029802,427.6000000089407]","./assets/img/space/11.jpg","[""ArrowUp"",""ArrowRight""]","practice block","space","36","{""ArrowUp,ArrowLeft"":3,""ArrowUp,ArrowRight"":36,""ArrowDown,ArrowLeft"":15,""ArrowDown,ArrowRight"":23}","true","ArrowUp,ArrowRight","false","","","","","",""
"html-keyboard-response","61","361546","0.0-3.0-11.0-2.0-1.0","spark_pilot_norest","9994","4","15","Male","","","","","","","null","<div style=""font-size:60px;"">+</div>","null","fixation","","","","","","","","","","","",""
"revaluation","62","367567","0.0-3.0-11.0-2.0-0.1","spark_pilot_norest","9994","4","15","Male","","false","","","","","[443.6000000089407,731.7999999970198]","./assets/img/space/12.jpg","[""ArrowDown"",""ArrowLeft""]","practice block","space","15","{""ArrowUp,ArrowLeft"":3,""ArrowUp,ArrowRight"":36,""ArrowDown,ArrowLeft"":15,""ArrowDown,ArrowRight"":23}","false","ArrowDown,ArrowLeft","false","","","","","",""
"html-keyboard-response","63","368081","0.0-3.0-11.0-2.0-1.1","spark_pilot_norest","9994","4","15","Male","","","","","","","null","<div style=""font-size:60px;"">+</div>","null","fixation","","","","","","","","","","","",""
"revaluation","64","374123","0.0-3.0-11.0-2.0-0.2","spark_pilot_norest","9994","4","15","Male","","false","","","","","[1006.9000000059605,661.9000000059605]","./assets/img/space/13.jpg","[""ArrowUp"",""ArrowRight""]","practice block","space","36","{""ArrowUp,ArrowLeft"":3,""ArrowUp,ArrowRight"":36,""ArrowDown,ArrowLeft"":15,""ArrowDown,ArrowRight"":23}","true","ArrowUp,ArrowRight","false","","","","","",""
"html-keyboard-response","65","374638","0.0-3.0-11.0-2.0-1.2","spark_pilot_norest","9994","4","15","Male","","","","","","","null","<div style=""font-size:60px;"">+</div>","null","fixation","","","","","","","","","","","",""
"revaluation","66","380669","0.0-3.0-11.0-2.0-0.3","spark_pilot_norest","9994","4","15","Male","","false","","","","","[545.8999999910593,736.7999999970198]","./assets/img/space/14.jpg","[""ArrowDown"",""ArrowLeft""]","practice block","space","15","{""ArrowUp,ArrowLeft"":3,""ArrowUp,ArrowRight"":36,""ArrowDown,ArrowLeft"":15,""ArrowDown,ArrowRight"":23}","false","ArrowDown,ArrowLeft","false","","","","","",""
"html-keyboard-response","67","381182","0.0-3.0-11.0-2.0-1.3","spark_pilot_norest","9994","4","15","Male","","","","","","","null","<div style=""font-size:60px;"">+</div>","null","fixation","","","","","","","","","","","",""
"revaluation","68","387219","0.0-3.0-11.0-2.0-0.4","spark_pilot_norest","9994","4","15","Male","","false","","","","","[1424.699999988079,314.79999999701977]","./assets/img/space/11.jpg","[""ArrowUp"",""ArrowRight""]","practice block","space","36","{""ArrowUp,ArrowLeft"":3,""ArrowUp,ArrowRight"":36,""ArrowDown,ArrowLeft"":15,""ArrowDown,ArrowRight"":23}","true","ArrowUp,ArrowRight","false","","","","","",""
"html-keyboard-response","69","387730","0.0-3.0-11.0-2.0-1.4","spark_pilot_norest","9994","4","15","Male","","","","","","","null","<div style=""font-size:60px;"">+</div>","null","fixation","","","","","","","","","","","",""
"revaluation","70","393751","0.0-3.0-11.0-2.0-0.5","spark_pilot_norest","9994","4","15","Male","","false","","","","","[612.5,358.29999999701977]","./assets/img/space/12.jpg","[""ArrowDown"",""ArrowLeft""]","practice block","space","15","{""ArrowUp,ArrowLeft"":3,""ArrowUp,ArrowRight"":36,""ArrowDown,ArrowLeft"":15,""ArrowDown,ArrowRight"":23}","false","ArrowDown,ArrowLeft","false","","","","","",""
"html-keyboard-response","71","394256","0.0-3.0-11.0-2.0-1.5","spark_pilot_norest","9994","4","15","Male","","","","","","","null","<div style=""font-size:60px;"">+</div>","null","fixation","","","","","","","","","","","",""
"revaluation","72","400275","0.0-3.0-11.0-2.0-0.6","spark_pilot_norest","9994","4","15","Male","","false","","","","","[605,292.20000000298023]","./assets/img/space/13.jpg","[""ArrowUp"",""ArrowRight""]","practice block","space","36","{""ArrowUp,ArrowLeft"":3,""ArrowUp,ArrowRight"":36,""ArrowDown,ArrowLeft"":15,""ArrowDown,ArrowRight"":23}","true","ArrowUp,ArrowRight","false","","","","","",""
"html-keyboard-response","73","400787","0.0-3.0-11.0-2.0-1.6","spark_pilot_norest","9994","4","15","Male","","","","","","","null","<div style=""font-size:60px;"">+</div>","null","fixation","","","","","","","","","","","",""
"revaluation","74","406808","0.0-3.0-11.0-2.0-0.7","spark_pilot_norest","9994","4","15","Male","","false","","","","","[487.20000000298023,564.9000000059605]","./assets/img/space/14.jpg","[""ArrowDown"",""ArrowLeft""]","practice block","space","15","{""ArrowUp,ArrowLeft"":3,""ArrowUp,ArrowRight"":36,""ArrowDown,ArrowLeft"":15,""ArrowDown,ArrowRight"":23}","false","ArrowDown,ArrowLeft","false","","","","","",""
"html-keyboard-response","75","407321","0.0-3.0-11.0-2.0-1.7","spark_pilot_norest","9994","4","15","Male","","","","","","","null","<div style=""font-size:60px;"">+</div>","null","fixation","","","","","","","","","","","",""
"revaluation","76","411339","0.0-3.0-11.0-2.0-0.8","spark_pilot_norest","9994","4","15","Male","","false","","","","","[1383.8999999910593]","./assets/img/space/catch/3.jpg","[""spaceBar""]","practice block","space","0","{""ArrowUp,ArrowLeft"":3,""ArrowUp,ArrowRight"":36,""ArrowDown,ArrowLeft"":15,""ArrowDown,ArrowRight"":23}","true","spaceBar","true","","","","","",""
"html-keyboard-response","77","411857","0.0-3.0-11.0-2.0-1.8","spark_pilot_norest","9994","4","15","Male","","","","","","","null","<div style=""font-size:60px;"">+</div>","null","fixation","","","","","","","","","","","",""
"learning-instructions","78","426756","0.0-3.0-11.0-3.0-0.0","spark_pilot_norest","9994","4","15","Male","","","","","","","1791.0999999940395","<p> Now, you will travel with a friend who will choose whether you go up or down first. </p>
            <p> On these turns, you will just see the animal that they found. You will still get to choose which chest to search for treasure.</p>","","instructions","","","","","","","","","","","",""
"revaluation","79","430775","0.0-3.0-11.0-4.0-0.0","spark_pilot_norest","9994","4","15","Male","","false","","","","","[1617.1000000089407]","./assets/img/space/animals/cat.jpg","[""ArrowRight""]","practice block","space","36","{""ArrowUp,ArrowLeft"":3,""ArrowUp,ArrowRight"":36,""ArrowDown,ArrowLeft"":15,""ArrowDown,ArrowRight"":23}","true","ArrowUp,ArrowRight","","","","","","",""
"html-keyboard-response","80","431287","0.0-3.0-11.0-4.0-1.0","spark_pilot_norest","9994","4","15","Male","","","","","","","null","<div style=""font-size:60px;"">+</div>","null","fixation","","","","","","","","","","","",""
"revaluation","81","435297","0.0-3.0-11.0-4.0-0.1","spark_pilot_norest","9994","4","15","Male","","false","","","","","[660.2000000029802]","./assets/img/space/animals/cat.jpg","[""ArrowRight""]","practice block","space","36","{""ArrowUp,ArrowLeft"":3,""ArrowUp,ArrowRight"":36,""ArrowDown,ArrowLeft"":15,""ArrowDown,ArrowRight"":23}","true","ArrowUp,ArrowRight","","","","","","",""
"html-keyboard-response","82","435814","0.0-3.0-11.0-4.0-1.1","spark_pilot_norest","9994","4","15","Male","","","","","","","null","<div style=""font-size:60px;"">+</div>","null","fixation","","","","","","","","","","","",""
"revaluation","83","439836","0.0-3.0-11.0-4.0-0.2","spark_pilot_norest","9994","4","15","Male","","false","","","","","[462.20000000298023]","./assets/img/space/animals/rabbit.jpg","[""ArrowLeft""]","practice block","space","15","{""ArrowUp,ArrowLeft"":3,""ArrowUp,ArrowRight"":36,""ArrowDown,ArrowLeft"":15,""ArrowDown,ArrowRight"":23}","false","ArrowDown,ArrowLeft","","","","","","",""
"html-keyboard-response","84","440355","0.0-3.0-11.0-4.0-1.2","spark_pilot_norest","9994","4","15","Male","","","","","","","null","<div style=""font-size:60px;"">+</div>","null","fixation","","","","","","","","","","","",""
"revaluation","85","444378","0.0-3.0-11.0-4.0-0.3","spark_pilot_norest","9994","4","15","Male","","false","","","","","[485.79999999701977]","./assets/img/space/animals/rabbit.jpg","[""ArrowLeft""]","practice block","space","15","{""ArrowUp,ArrowLeft"":3,""ArrowUp,ArrowRight"":36,""ArrowDown,ArrowLeft"":15,""ArrowDown,ArrowRight"":23}","false","ArrowDown,ArrowLeft","","","","","","",""
"html-keyboard-response","86","444897","0.0-3.0-11.0-4.0-1.3","spark_pilot_norest","9994","4","15","Male","","","","","","","null","<div style=""font-size:60px;"">+</div>","null","fixation","","","","","","","","","","","",""
"learning-instructions","87","453064","0.0-3.0-11.0-5.0-0.0","spark_pilot_norest","9994","4","15","Male","","","","","","","null","<p> You have almost finished this part of the game! </p>
            <p> We are going to ask you to make a few more choices. </p>","","instructions","","","","","","","","","","","",""
"learning-instructions","88","469097","0.0-3.0-11.0-5.0-0.1","spark_pilot_norest","9994","4","15","Male","","","","","","","null","<p> First, you need to decide whether to go up or down. When you see each picture, use the arrow keys to make your choice. </p>
            <p><b>You will not see which animal you found, but try to get to the one that will give you the most treasure.</b></p>","","instructions","","","","","","","","","","","",""
"html-keyboard-response","89","470102","0.0-3.0-11.0-6.0-0.0","spark_pilot_norest","9994","4","15","Male","","","","","","","null","<div style=""font-size:100px;color:red;"">Starting in...</div>","null","","","","","","","","","","","","",""
"html-keyboard-response","90","471110","0.0-3.0-11.0-6.0-1.0","spark_pilot_norest","9994","4","15","Male","","","","","","","null","<div style=""font-size:200px;color:red;"">3</div>","null","","","","","","","","","","","","",""
"html-keyboard-response","91","472118","0.0-3.0-11.0-6.0-2.0","spark_pilot_norest","9994","4","15","Male","","","","","","","null","<div style=""font-size:200px;color:red;"">2</div>","null","","","","","","","","","","","","",""
"html-keyboard-response","92","473126","0.0-3.0-11.0-6.0-3.0","spark_pilot_norest","9994","4","15","Male","","","","","","","null","<div style=""font-size:200px;color:red;"">1</div>","null","","","","","","","","","","","","",""
"revaluation","93","473754","0.0-3.0-11.0-7.0","spark_pilot_norest","9994","4","15","Male","","false","","","","","[613.2999999970198]","./assets/img/space/15.jpg","[""ArrowDown""]","practice block","space","0","{""ArrowUp,ArrowLeft"":3,""ArrowUp,ArrowRight"":36,""ArrowDown,ArrowLeft"":15,""ArrowDown,ArrowRight"":23}","false","ArrowDown","false","","","","","",""
"html-keyboard-response","94","474263","0.0-3.0-11.0-8.0","spark_pilot_norest","9994","4","15","Male","","","","","","","null","<div style=""font-size:60px;"">+</div>","null","fixation","","","","","","","","","","","",""
"learning-instructions","95","487653","0.0-3.0-11.0-9.0-0.0","spark_pilot_norest","9994","4","15","Male","","","","","","","null","<p> Now you will see the animals again and can search their chests for treasure. </p>
            <p> This time, you will not see how much treasure you earned, but you will earn more bonus money for making better choices. </p>","","instructions","","","","","","","","","","","",""
"html-keyboard-response","96","488663","0.0-3.0-11.0-10.0-0.0","spark_pilot_norest","9994","4","15","Male","","","","","","","null","<div style=""font-size:100px;color:red;"">Starting in...</div>","null","","","","","","","","","","","","",""
"html-keyboard-response","97","489664","0.0-3.0-11.0-10.0-1.0","spark_pilot_norest","9994","4","15","Male","","","","","","","null","<div style=""font-size:200px;color:red;"">3</div>","null","","","","","","","","","","","","",""
"html-keyboard-response","98","490671","0.0-3.0-11.0-10.0-2.0","spark_pilot_norest","9994","4","15","Male","","","","","","","null","<div style=""font-size:200px;color:red;"">2</div>","null","","","","","","","","","","","","",""
"html-keyboard-response","99","491688","0.0-3.0-11.0-10.0-3.0","spark_pilot_norest","9994","4","15","Male","","","","","","","null","<div style=""font-size:200px;color:red;"">1</div>","null","","","","","","","","","","","","",""
"revaluation","100","491930","0.0-3.0-11.0-11.0-0.0","spark_pilot_norest","9994","4","15","Male","","false","","","","","[235.6000000089407]","./assets/img/space/animals/cat.jpg","[""ArrowRight""]","practice block","space","0","{""ArrowUp,ArrowLeft"":3,""ArrowUp,ArrowRight"":36,""ArrowDown,ArrowLeft"":15,""ArrowDown,ArrowRight"":23}","true","ArrowUp,ArrowRight","","","","","","",""
"html-keyboard-response","101","492432","0.0-3.0-11.0-11.0-1.0","spark_pilot_norest","9994","4","15","Male","","","","","","","null","<div style=""font-size:60px;"">+</div>","null","fixation","","","","","","","","","","","",""
"revaluation","102","493143","0.0-3.0-11.0-11.0-0.1","spark_pilot_norest","9994","4","15","Male","","false","","","","","[703]","./assets/img/space/animals/rabbit.jpg","[""ArrowLeft""]","practice block","space","0","{""ArrowUp,ArrowLeft"":3,""ArrowUp,ArrowRight"":36,""ArrowDown,ArrowLeft"":15,""ArrowDown,ArrowRight"":23}","false","ArrowDown,ArrowLeft","","","","","","",""
"html-keyboard-response","103","493644","0.0-3.0-11.0-11.0-1.1","spark_pilot_norest","9994","4","15","Male","","","","","","","null","<div style=""font-size:60px;"">+</div>","null","fixation","","","","","","","","","","","",""
"learning-instructions","104","500225","0.0-3.0-12.0-0.0","spark_pilot_norest","9994","4","15","Male","","","","","","","2005.9000000059605","<p> Before you start, we're going to ask you a few questions about how the game works. </p>","","instructions","","","","","","","","","","","",""
"comp-q","105","507494","0.0-3.0-13.0-0.0-0.0","spark_pilot_norest","9994","4","15","Male","","","","","","","1662.5","<p> <b> True or False? </b> </p>
            <p> There can be 50 pieces of treasure in a given animal's chest. </p>","0","comp_question","","","","false","","","","","","","",""
"comp-q","106","515210","0.0-3.0-13.0-0.0-1.0","spark_pilot_norest","9994","4","15","Male","","","","","","","1190.3999999910593","<p> <b>Incorrect.</b> The amount of treasure in each chest can range from 0 to 40 pieces. </p>","0","comp_answer","","","","","","","","","","","",""
"comp-q","107","521823","0.0-3.0-13.0-0.1-0.1","spark_pilot_norest","9994","4","15","Male","","","","","","","1053.199999988079","<p> <b> True or False? </b> </p>
            <p> There can be 50 pieces of treasure in a given animal's chest. </p>","1","comp_question","","","","true","","","","","","","",""
"comp-q","108","530122","0.0-3.0-13.0-0.1-1.1","spark_pilot_norest","9994","4","15","Male","","","","","","","1632.6000000089407","<p> <b> That's right! </b> The amount of treasure in each chest can range from 0 to 40 pieces. </p>","0","comp_answer","","","","","","","","","","","",""
"comp-q","109","538303","0.0-3.0-13.0-0.2-0.2","spark_pilot_norest","9994","4","15","Male","","","","","","","1039.4000000059605","<p> <b> True or False? </b> </p><p> In this game, all animals have the same amount of treasure in their left and right chests. </p>","0","comp_question","","","","false","","","","","","","",""
"comp-q","110","544569","0.0-3.0-13.0-0.2-1.2","spark_pilot_norest","9994","4","15","Male","","","","","","","1149.1000000089407","<p> <b>Incorrect.</b> Animals have different amounts of treasure in their treasure chests. </p>","0","comp_answer","","","","","","","","","","","",""
"comp-q","111","552563","0.0-3.0-13.0-0.3-0.3","spark_pilot_norest","9994","4","15","Male","","","","","","","907","<p> <b> True or False? </b> </p><p> In this game, all animals have the same amount of treasure in their left and right chests. </p>","1","comp_question","","","","true","","","","","","","",""
"comp-q","112","558935","0.0-3.0-13.0-0.3-1.3","spark_pilot_norest","9994","4","15","Male","","","","","","","1121.7000000029802","<p> <b> That's right! </b> Animals have different amounts of treasure in their treasure chests. </p>","0","comp_answer","","","","","","","","","","","",""
"comp-q","113","565608","0.0-3.0-13.0-0.4-0.4","spark_pilot_norest","9994","4","15","Male","","","","","","","821.9000000059605","<p> <b> True or False? </b> </p><p> The same animal will always be there if you go up in the same place. </p>","0","comp_question","","","","true","","","","","","","",""
"comp-q","114","573471","0.0-3.0-13.0-0.4-1.4","spark_pilot_norest","9994","4","15","Male","","","","","","","1407.2999999970198","<p> <b> That's right! </b> One animal lives in the upper part and one lives in the lower part of every place. </p>","0","comp_answer","","","","","","","","","","","",""
"comp-q","115","581170","0.0-3.0-13.0-0.5-0.5","spark_pilot_norest","9994","4","15","Male","","","","","","","2154.0999999940395","<p> <b> True or False? </b> </p><p> If you see a different picture, it means you are in a new place. </p>","1","comp_question","","","","true","","","","","","","",""
"comp-q","116","593780","0.0-3.0-13.0-0.5-1.5","spark_pilot_norest","9994","4","15","Male","","","","","","","1357.7999999970198","<p> <b> That's right! </b> Lots of different images may show the same place. For example,  you may see three different images that all remind you that you are in outer space. </p>","0","comp_answer","","","","","","","","","","","",""
"learning-instructions","117","606386","0.0-3.0-14.0-0.0","spark_pilot_norest","9994","4","15","Male","","","","","","","2723.3999999910593","<p> Good job. Remember to do your best because the amount of treasure you earn will be converted into bonus money. </p>
            <p> It’s time to start the real game! </p>","","instructions","","","","","","","","","","","",""
"learning-instructions","118","611783","0.0-4.0-0.0-0.0","spark_pilot_norest","9994","4","15","Male","","","","","","","2668.2999999970198","<p> This time you are searching for treasure in the <b>ocean</b>.</p>","","instructions","","","","","","","","","","","",""
"learning-instructions","119","631139","0.0-4.0-0.0-0.1","spark_pilot_norest","9994","4","15","Male","","","","","","","2044.5","<p><b>New</b> animals with <b>new</b> treasure chests live here. You need to explore to discover where the animal with the best treasure chest is.</p>
                    <p> Like before, once you figure out which animal has the chest with the most treasure, you should try to get to that animal and select that chest! </p>","","instructions","","","","","","","","","","","",""
"learning-instructions","120","647356","0.0-4.0-1.0-0.0","spark_pilot_norest","9994","4","15","Male","","","","","","","1488.7999999970198","<p> Remember, when you see a picture of the place, use the up and down keys to <b>find an animal</b>.</p>
            <p> When you encounter an animal, you should use the left and right keys to <b>select a treasure chest</b>.</p>
            <p> Don't forget to look out for the robber! </p>","","instructions","","","","","","","","","","","",""
"revaluation","121","653386","0.0-4.0-2.0-0.0","spark_pilot_norest","9994","4","15","Male","","false","","","","","[957.3000000119209,598.2999999970198]","./assets/img/ocean/memory/26.jpg","[""ArrowUp"",""ArrowRight""]","value training","ocean","10","{""ArrowUp,ArrowLeft"":26,""ArrowUp,ArrowRight"":10,""ArrowDown,ArrowLeft"":5,""ArrowDown,ArrowRight"":17}","false","ArrowUp,ArrowRight","false","revaluation","1","0","","",""
"html-keyboard-response","122","653892","0.0-4.0-2.0-1.0","spark_pilot_norest","9994","4","15","Male","","","","","","","null","<div style=""font-size:60px;"">+</div>","null","fixation","","","","","","","","","1","","",""
"revaluation","123","657919","0.0-4.0-2.0-0.1","spark_pilot_norest","9994","4","15","Male","","false","","","","","[309.19999998807907]","./assets/img/ocean/catch/4.jpg","[""ArrowDown""]","value training","ocean","-10","{""ArrowUp,ArrowLeft"":26,""ArrowUp,ArrowRight"":10,""ArrowDown,ArrowLeft"":5,""ArrowDown,ArrowRight"":17}","false","ArrowDown","true","revaluation","1","2","","",""
"html-keyboard-response","124","658433","0.0-4.0-2.0-1.1","spark_pilot_norest","9994","4","15","Male","","","","","","","null","<div style=""font-size:60px;"">+</div>","null","fixation","","","","","","","","","3","","",""
"revaluation","125","664472","0.0-4.0-2.0-0.2","spark_pilot_norest","9994","4","15","Male","","false","","","","","[900.5999999940395,524.0999999940395]","./assets/img/ocean/memory/0.jpg","[""ArrowUp"",""ArrowRight""]","value training","ocean","10","{""ArrowUp,ArrowLeft"":26,""ArrowUp,ArrowRight"":10,""ArrowDown,ArrowLeft"":5,""ArrowDown,ArrowRight"":17}","false","ArrowUp,ArrowRight","false","revaluation","1","4","","",""
"html-keyboard-response","126","664975","0.0-4.0-2.0-1.2","spark_pilot_norest","9994","4","15","Male","","","","","","","null","<div style=""font-size:60px;"">+</div>","null","fixation","","","","","","","","","5","","",""
"revaluation","127","671007","0.0-4.0-2.0-0.3","spark_pilot_norest","9994","4","15","Male","","false","","","","","[353.70000000298023,353.40000000596046]","./assets/img/ocean/memory/39.jpg","[""ArrowDown"",""ArrowLeft""]","value training","ocean","5","{""ArrowUp,ArrowLeft"":26,""ArrowUp,ArrowRight"":10,""ArrowDown,ArrowLeft"":5,""ArrowDown,ArrowRight"":17}","false","ArrowDown,ArrowLeft","false","revaluation","1","6","","",""
"html-keyboard-response","128","671522","0.0-4.0-2.0-1.3","spark_pilot_norest","9994","4","15","Male","","","","","","","null","<div style=""font-size:60px;"">+</div>","null","fixation","","","","","","","","","7","","",""
"revaluation","129","677546","0.0-4.0-2.0-0.4","spark_pilot_norest","9994","4","15","Male","","false","","","","","[230.90000000596046,483.90000000596046]","./assets/img/ocean/memory/32.jpg","[""ArrowUp"",""ArrowLeft""]","value training","ocean","26","{""ArrowUp,ArrowLeft"":26,""ArrowUp,ArrowRight"":10,""ArrowDown,ArrowLeft"":5,""ArrowDown,ArrowRight"":17}","true","ArrowUp,ArrowLeft","false","revaluation","1","8","","",""
"html-keyboard-response","130","678054","0.0-4.0-2.0-1.4","spark_pilot_norest","9994","4","15","Male","","","","","","","null","<div style=""font-size:60px;"">+</div>","null","fixation","","","","","","","","","9","","",""
"revaluation","131","684067","0.0-4.0-2.0-0.5","spark_pilot_norest","9994","4","15","Male","","false","","","","","[323.20000000298023,426]","./assets/img/ocean/memory/1.jpg","[""ArrowDown"",""ArrowRight""]","value training","ocean","17","{""ArrowUp,ArrowLeft"":26,""ArrowUp,ArrowRight"":10,""ArrowDown,ArrowLeft"":5,""ArrowDown,ArrowRight"":17}","false","ArrowDown,ArrowRight","false","revaluation","1","10","","",""
"html-keyboard-response","132","684580","0.0-4.0-2.0-1.5","spark_pilot_norest","9994","4","15","Male","","","","","","","null","<div style=""font-size:60px;"">+</div>","null","fixation","","","","","","","","","11","","",""
"revaluation","133","690606","0.0-4.0-2.0-0.6","spark_pilot_norest","9994","4","15","Male","","false","","","","","[1041.9000000059605,1393.800000011921]","./assets/img/ocean/memory/10.jpg","[""ArrowUp"",""ArrowRight""]","value training","ocean","10","{""ArrowUp,ArrowLeft"":26,""ArrowUp,ArrowRight"":10,""ArrowDown,ArrowLeft"":5,""ArrowDown,ArrowRight"":17}","false","ArrowUp,ArrowRight","false","revaluation","1","12","","",""
"html-keyboard-response","134","691123","0.0-4.0-2.0-1.6","spark_pilot_norest","9994","4","15","Male","","","","","","","null","<div style=""font-size:60px;"">+</div>","null","fixation","","","","","","","","","13","","",""
"revaluation","135","697138","0.0-4.0-2.0-0.7","spark_pilot_norest","9994","4","15","Male","","false","","","","","[777.1999999880791,1062.199999988079]","./assets/img/ocean/memory/4.jpg","[""ArrowDown"",""ArrowRight""]","value training","ocean","17","{""ArrowUp,ArrowLeft"":26,""ArrowUp,ArrowRight"":10,""ArrowDown,ArrowLeft"":5,""ArrowDown,ArrowRight"":17}","false","ArrowDown,ArrowRight","false","revaluation","1","14","","",""
"html-keyboard-response","136","697647","0.0-4.0-2.0-1.7","spark_pilot_norest","9994","4","15","Male","","","","","","","null","<div style=""font-size:60px;"">+</div>","null","fixation","","","","","","","","","15","","",""
"revaluation","137","701669","0.0-4.0-2.0-0.8","spark_pilot_norest","9994","4","15","Male","","false","","","","","[843.5]","./assets/img/ocean/catch/1.jpg","[""spaceBar""]","value training","ocean","0","{""ArrowUp,ArrowLeft"":26,""ArrowUp,ArrowRight"":10,""ArrowDown,ArrowLeft"":5,""ArrowDown,ArrowRight"":17}","true","spaceBar","true","revaluation","1","16","","",""
"html-keyboard-response","138","702172","0.0-4.0-2.0-1.8","spark_pilot_norest","9994","4","15","Male","","","","","","","null","<div style=""font-size:60px;"">+</div>","null","fixation","","","","","","","","","17","","",""
"revaluation","139","706190","0.0-4.0-2.0-0.9","spark_pilot_norest","9994","4","15","Male","","false","","","","","[1051.6000000089407]","./assets/img/ocean/catch/5.jpg","[""ArrowUp""]","value training","ocean","-10","{""ArrowUp,ArrowLeft"":26,""ArrowUp,ArrowRight"":10,""ArrowDown,ArrowLeft"":5,""ArrowDown,ArrowRight"":17}","false","ArrowUp","true","revaluation","1","18","","",""
"html-keyboard-response","140","706691","0.0-4.0-2.0-1.9","spark_pilot_norest","9994","4","15","Male","","","","","","","null","<div style=""font-size:60px;"">+</div>","null","fixation","","","","","","","","","19","","",""
"revaluation","141","712706","0.0-4.0-2.0-0.10","spark_pilot_norest","9994","4","15","Male","","false","","","","","[495.1000000089407,981.5999999940395]","./assets/img/ocean/memory/5.jpg","[""ArrowUp"",""ArrowRight""]","value training","ocean","10","{""ArrowUp,ArrowLeft"":26,""ArrowUp,ArrowRight"":10,""ArrowDown,ArrowLeft"":5,""ArrowDown,ArrowRight"":17}","false","ArrowUp,ArrowRight","false","revaluation","1","20","","",""
"html-keyboard-response","142","713211","0.0-4.0-2.0-1.10","spark_pilot_norest","9994","4","15","Male","","","","","","","null","<div style=""font-size:60px;"">+</div>","null","fixation","","","","","","","","","21","","",""
"revaluation","143","719230","0.0-4.0-2.0-0.11","spark_pilot_norest","9994","4","15","Male","","false","","","","","[110.70000000298023,319.90000000596046]","./assets/img/ocean/memory/39.jpg","[""ArrowUp"",""ArrowLeft""]","value training","ocean","26","{""ArrowUp,ArrowLeft"":26,""ArrowUp,ArrowRight"":10,""ArrowDown,ArrowLeft"":5,""ArrowDown,ArrowRight"":17}","true","ArrowUp,ArrowLeft","false","revaluation","1","22","","",""
"html-keyboard-response","144","719731","0.0-4.0-2.0-1.11","spark_pilot_norest","9994","4","15","Male","","","","","","","null","<div style=""font-size:60px;"">+</div>","null","fixation","","","","","","","","","23","","",""
"revaluation","145","725745","0.0-4.0-2.0-0.12","spark_pilot_norest","9994","4","15","Male","","false","","","","","[646.4000000059605,575.5]","./assets/img/ocean/memory/1.jpg","[""ArrowDown"",""ArrowRight""]","value training","ocean","17","{""ArrowUp,ArrowLeft"":26,""ArrowUp,ArrowRight"":10,""ArrowDown,ArrowLeft"":5,""ArrowDown,ArrowRight"":17}","false","ArrowDown,ArrowRight","false","revaluation","1","24","","",""
"html-keyboard-response","146","726254","0.0-4.0-2.0-1.12","spark_pilot_norest","9994","4","15","Male","","","","","","","null","<div style=""font-size:60px;"">+</div>","null","fixation","","","","","","","","","25","","",""
"revaluation","147","732281","0.0-4.0-2.0-0.13","spark_pilot_norest","9994","4","15","Male","","false","","","","","[1114.0999999940395,1287.7999999970198]","./assets/img/ocean/memory/15.jpg","[""ArrowUp"",""ArrowRight""]","value training","ocean","10","{""ArrowUp,ArrowLeft"":26,""ArrowUp,ArrowRight"":10,""ArrowDown,ArrowLeft"":5,""ArrowDown,ArrowRight"":17}","false","ArrowUp,ArrowRight","false","revaluation","1","26","","",""
"html-keyboard-response","148","732789","0.0-4.0-2.0-1.13","spark_pilot_norest","9994","4","15","Male","","","","","","","null","<div style=""font-size:60px;"">+</div>","null","fixation","","","","","","","","","27","","",""
"revaluation","149","738811","0.0-4.0-2.0-0.14","spark_pilot_norest","9994","4","15","Male","","false","","","","","[664.3000000119209,317.29999999701977]","./assets/img/ocean/memory/27.jpg","[""ArrowDown"",""ArrowRight""]","value training","ocean","17","{""ArrowUp,ArrowLeft"":26,""ArrowUp,ArrowRight"":10,""ArrowDown,ArrowLeft"":5,""ArrowDown,ArrowRight"":17}","false","ArrowDown,ArrowRight","false","revaluation","1","28","","",""
"html-keyboard-response","150","739324","0.0-4.0-2.0-1.14","spark_pilot_norest","9994","4","15","Male","","","","","","","null","<div style=""font-size:60px;"">+</div>","null","fixation","","","","","","","","","29","","",""
"revaluation","151","745362","0.0-4.0-2.0-0.15","spark_pilot_norest","9994","4","15","Male","","false","","","","","[910.4000000059605,336.29999999701977]","./assets/img/ocean/memory/0.jpg","[""ArrowUp"",""ArrowLeft""]","value training","ocean","26","{""ArrowUp,ArrowLeft"":26,""ArrowUp,ArrowRight"":10,""ArrowDown,ArrowLeft"":5,""ArrowDown,ArrowRight"":17}","true","ArrowUp,ArrowLeft","false","revaluation","1","30","","",""
"html-keyboard-response","152","745869","0.0-4.0-2.0-1.15","spark_pilot_norest","9994","4","15","Male","","","","","","","null","<div style=""font-size:60px;"">+</div>","null","fixation","","","","","","","","","31","","",""
"revaluation","153","751897","0.0-4.0-2.0-0.16","spark_pilot_norest","9994","4","15","Male","","false","","","","","[935.5,281.19999998807907]","./assets/img/ocean/memory/18.jpg","[""ArrowUp"",""ArrowLeft""]","value training","ocean","26","{""ArrowUp,ArrowLeft"":26,""ArrowUp,ArrowRight"":10,""ArrowDown,ArrowLeft"":5,""ArrowDown,ArrowRight"":17}","true","ArrowUp,ArrowLeft","false","revaluation","1","32","","",""
"html-keyboard-response","154","752408","0.0-4.0-2.0-1.16","spark_pilot_norest","9994","4","15","Male","","","","","","","null","<div style=""font-size:60px;"">+</div>","null","fixation","","","","","","","","","33","","",""
"revaluation","155","758435","0.0-4.0-2.0-0.17","spark_pilot_norest","9994","4","15","Male","","false","","","","","[655.7000000029802,311.40000000596046]","./assets/img/ocean/memory/30.jpg","[""ArrowUp"",""ArrowLeft""]","value training","ocean","26","{""ArrowUp,ArrowLeft"":26,""ArrowUp,ArrowRight"":10,""ArrowDown,ArrowLeft"":5,""ArrowDown,ArrowRight"":17}","true","ArrowUp,ArrowLeft","false","revaluation","1","34","","",""
"html-keyboard-response","156","758948","0.0-4.0-2.0-1.17","spark_pilot_norest","9994","4","15","Male","","","","","","","null","<div style=""font-size:60px;"">+</div>","null","fixation","","","","","","","","","35","","",""
"revaluation","157","764976","0.0-4.0-2.0-0.18","spark_pilot_norest","9994","4","15","Male","","false","","","","","[844.0999999940395,311.09999999403954]","./assets/img/ocean/memory/41.jpg","[""ArrowDown"",""ArrowRight""]","value training","ocean","17","{""ArrowUp,ArrowLeft"":26,""ArrowUp,ArrowRight"":10,""ArrowDown,ArrowLeft"":5,""ArrowDown,ArrowRight"":17}","false","ArrowDown,ArrowRight","false","revaluation","1","36","","",""
"html-keyboard-response","158","765505","0.0-4.0-2.0-1.18","spark_pilot_norest","9994","4","15","Male","","","","","","","null","<div style=""font-size:60px;"">+</div>","null","fixation","","","","","","","","","37","","",""
"revaluation","159","771525","0.0-4.0-2.0-0.19","spark_pilot_norest","9994","4","15","Male","","false","","","","","[595.3000000119209,373.1000000089407]","./assets/img/ocean/memory/15.jpg","[""ArrowUp"",""ArrowLeft""]","value training","ocean","26","{""ArrowUp,ArrowLeft"":26,""ArrowUp,ArrowRight"":10,""ArrowDown,ArrowLeft"":5,""ArrowDown,ArrowRight"":17}","true","ArrowUp,ArrowLeft","false","revaluation","1","38","","",""
"html-keyboard-response","160","772042","0.0-4.0-2.0-1.19","spark_pilot_norest","9994","4","15","Male","","","","","","","null","<div style=""font-size:60px;"">+</div>","null","fixation","","","","","","","","","39","","",""
"revaluation","161","778062","0.0-4.0-2.0-0.20","spark_pilot_norest","9994","4","15","Male","","false","","","","","[805.2999999970198,294.70000000298023]","./assets/img/ocean/memory/12.jpg","[""ArrowUp"",""ArrowLeft""]","value training","ocean","26","{""ArrowUp,ArrowLeft"":26,""ArrowUp,ArrowRight"":10,""ArrowDown,ArrowLeft"":5,""ArrowDown,ArrowRight"":17}","true","ArrowUp,ArrowLeft","false","revaluation","1","40","","",""
"html-keyboard-response","162","778576","0.0-4.0-2.0-1.20","spark_pilot_norest","9994","4","15","Male","","","","","","","null","<div style=""font-size:60px;"">+</div>","null","fixation","","","","","","","","","41","","",""
"revaluation","163","784600","0.0-4.0-2.0-0.21","spark_pilot_norest","9994","4","15","Male","","false","","","","","[658.0999999940395,493.1000000089407]","./assets/img/ocean/memory/33.jpg","[""ArrowDown"",""ArrowRight""]","value training","ocean","17","{""ArrowUp,ArrowLeft"":26,""ArrowUp,ArrowRight"":10,""ArrowDown,ArrowLeft"":5,""ArrowDown,ArrowRight"":17}","false","ArrowDown,ArrowRight","false","revaluation","1","42","","",""
"html-keyboard-response","164","785101","0.0-4.0-2.0-1.21","spark_pilot_norest","9994","4","15","Male","","","","","","","null","<div style=""font-size:60px;"">+</div>","null","fixation","","","","","","","","","43","","",""
"revaluation","165","791110","0.0-4.0-2.0-0.22","spark_pilot_norest","9994","4","15","Male","","false","","","","","[866,1265.5999999940395]","./assets/img/ocean/memory/32.jpg","[""ArrowDown"",""ArrowRight""]","value training","ocean","17","{""ArrowUp,ArrowLeft"":26,""ArrowUp,ArrowRight"":10,""ArrowDown,ArrowLeft"":5,""ArrowDown,ArrowRight"":17}","false","ArrowDown,ArrowRight","false","revaluation","1","44","","",""
"html-keyboard-response","166","791623","0.0-4.0-2.0-1.22","spark_pilot_norest","9994","4","15","Male","","","","","","","null","<div style=""font-size:60px;"">+</div>","null","fixation","","","","","","","","","45","","",""
"revaluation","167","797645","0.0-4.0-2.0-0.23","spark_pilot_norest","9994","4","15","Male","","false","","","","","[1465.2000000029802,1834.2000000029802]","./assets/img/ocean/memory/30.jpg","[""ArrowUp"",""ArrowLeft""]","value training","ocean","26","{""ArrowUp,ArrowLeft"":26,""ArrowUp,ArrowRight"":10,""ArrowDown,ArrowLeft"":5,""ArrowDown,ArrowRight"":17}","true","ArrowUp,ArrowLeft","false","revaluation","1","46","","",""
"html-keyboard-response","168","798155","0.0-4.0-2.0-1.23","spark_pilot_norest","9994","4","15","Male","","","","","","","null","<div style=""font-size:60px;"">+</div>","null","fixation","","","","","","","","","47","","",""
"revaluation","169","804160","0.0-4.0-2.0-0.24","spark_pilot_norest","9994","4","15","Male","","false","","","","","[1195.4000000059605,1045.9000000059605]","./assets/img/ocean/memory/5.jpg","[""ArrowDown"",""ArrowRight""]","value training","ocean","17","{""ArrowUp,ArrowLeft"":26,""ArrowUp,ArrowRight"":10,""ArrowDown,ArrowLeft"":5,""ArrowDown,ArrowRight"":17}","false","ArrowDown,ArrowRight","false","revaluation","1","48","","",""
"html-keyboard-response","170","804662","0.0-4.0-2.0-1.24","spark_pilot_norest","9994","4","15","Male","","","","","","","null","<div style=""font-size:60px;"">+</div>","null","fixation","","","","","","","","","49","","",""
"revaluation","171","810667","0.0-4.0-2.0-0.25","spark_pilot_norest","9994","4","15","Male","","false","","","","","[1066.2999999970198,1074.5999999940395]","./assets/img/ocean/memory/10.jpg","[""ArrowUp"",""ArrowLeft""]","value training","ocean","26","{""ArrowUp,ArrowLeft"":26,""ArrowUp,ArrowRight"":10,""ArrowDown,ArrowLeft"":5,""ArrowDown,ArrowRight"":17}","true","ArrowUp,ArrowLeft","false","revaluation","1","50","","",""
"html-keyboard-response","172","811170","0.0-4.0-2.0-1.25","spark_pilot_norest","9994","4","15","Male","","","","","","","null","<div style=""font-size:60px;"">+</div>","null","fixation","","","","","","","","","51","","",""
"revaluation","173","817181","0.0-4.0-2.0-0.26","spark_pilot_norest","9994","4","15","Male","","false","","","","","[799.7000000029802,474.3999999910593]","./assets/img/ocean/memory/8.jpg","[""ArrowUp"",""ArrowLeft""]","value training","ocean","26","{""ArrowUp,ArrowLeft"":26,""ArrowUp,ArrowRight"":10,""ArrowDown,ArrowLeft"":5,""ArrowDown,ArrowRight"":17}","true","ArrowUp,ArrowLeft","false","revaluation","1","52","","",""
"html-keyboard-response","174","817690","0.0-4.0-2.0-1.26","spark_pilot_norest","9994","4","15","Male","","","","","","","null","<div style=""font-size:60px;"">+</div>","null","fixation","","","","","","","","","53","","",""
"revaluation","175","821693","0.0-4.0-2.0-0.27","spark_pilot_norest","9994","4","15","Male","","false","","","","","[570.6999999880791]","./assets/img/ocean/catch/3.jpg","[""spaceBar""]","value training","ocean","0","{""ArrowUp,ArrowLeft"":26,""ArrowUp,ArrowRight"":10,""ArrowDown,ArrowLeft"":5,""ArrowDown,ArrowRight"":17}","true","spaceBar","true","revaluation","1","54","","",""
"html-keyboard-response","176","822198","0.0-4.0-2.0-1.27","spark_pilot_norest","9994","4","15","Male","","","","","","","null","<div style=""font-size:60px;"">+</div>","null","fixation","","","","","","","","","55","","",""
"revaluation","177","828208","0.0-4.0-2.0-0.28","spark_pilot_norest","9994","4","15","Male","","false","","","","","[891,599.5]","./assets/img/ocean/memory/36.jpg","[""ArrowUp"",""ArrowLeft""]","value training","ocean","26","{""ArrowUp,ArrowLeft"":26,""ArrowUp,ArrowRight"":10,""ArrowDown,ArrowLeft"":5,""ArrowDown,ArrowRight"":17}","true","ArrowUp,ArrowLeft","false","revaluation","1","56","","",""
"html-keyboard-response","178","828710","0.0-4.0-2.0-1.28","spark_pilot_norest","9994","4","15","Male","","","","","","","null","<div style=""font-size:60px;"">+</div>","null","fixation","","","","","","","","","57","","",""
"revaluation","179","834722","0.0-4.0-2.0-0.29","spark_pilot_norest","9994","4","15","Male","","false","","","","","[1015.4000000059605,650.0999999940395]","./assets/img/ocean/memory/31.jpg","[""ArrowDown"",""ArrowRight""]","value training","ocean","17","{""ArrowUp,ArrowLeft"":26,""ArrowUp,ArrowRight"":10,""ArrowDown,ArrowLeft"":5,""ArrowDown,ArrowRight"":17}","false","ArrowDown,ArrowRight","false","revaluation","1","58","","",""
"html-keyboard-response","180","835231","0.0-4.0-2.0-1.29","spark_pilot_norest","9994","4","15","Male","","","","","","","null","<div style=""font-size:60px;"">+</div>","null","fixation","","","","","","","","","59","","",""
"revaluation","181","841242","0.0-4.0-2.0-0.30","spark_pilot_norest","9994","4","15","Male","","false","","","","","[577.8000000119209,619.1999999880791]","./assets/img/ocean/memory/27.jpg","[""ArrowUp"",""ArrowRight""]","value training","ocean","10","{""ArrowUp,ArrowLeft"":26,""ArrowUp,ArrowRight"":10,""ArrowDown,ArrowLeft"":5,""ArrowDown,ArrowRight"":17}","false","ArrowUp,ArrowRight","false","revaluation","1","60","","",""
"html-keyboard-response","182","841748","0.0-4.0-2.0-1.30","spark_pilot_norest","9994","4","15","Male","","","","","","","null","<div style=""font-size:60px;"">+</div>","null","fixation","","","","","","","","","61","","",""
"revaluation","183","847759","0.0-4.0-2.0-0.31","spark_pilot_norest","9994","4","15","Male","","false","","","","","[643.5,365]","./assets/img/ocean/memory/26.jpg","[""ArrowUp"",""ArrowLeft""]","value training","ocean","26","{""ArrowUp,ArrowLeft"":26,""ArrowUp,ArrowRight"":10,""ArrowDown,ArrowLeft"":5,""ArrowDown,ArrowRight"":17}","true","ArrowUp,ArrowLeft","false","revaluation","1","62","","",""
"html-keyboard-response","184","848267","0.0-4.0-2.0-1.31","spark_pilot_norest","9994","4","15","Male","","","","","","","null","<div style=""font-size:60px;"">+</div>","null","fixation","","","","","","","","","63","","",""
"revaluation","185","854279","0.0-4.0-2.0-0.32","spark_pilot_norest","9994","4","15","Male","","false","","","","","[939.0999999940395,292.3999999910593]","./assets/img/ocean/memory/25.jpg","[""ArrowDown"",""ArrowRight""]","value training","ocean","17","{""ArrowUp,ArrowLeft"":26,""ArrowUp,ArrowRight"":10,""ArrowDown,ArrowLeft"":5,""ArrowDown,ArrowRight"":17}","false","ArrowDown,ArrowRight","false","revaluation","1","64","","",""
"html-keyboard-response","186","854787","0.0-4.0-2.0-1.32","spark_pilot_norest","9994","4","15","Male","","","","","","","null","<div style=""font-size:60px;"">+</div>","null","fixation","","","","","","","","","65","","",""
"revaluation","187","860791","0.0-4.0-2.0-0.33","spark_pilot_norest","9994","4","15","Male","","false","","","","","[475.8999999910593,890.7999999970198]","./assets/img/ocean/memory/8.jpg","[""ArrowUp"",""ArrowLeft""]","value training","ocean","26","{""ArrowUp,ArrowLeft"":26,""ArrowUp,ArrowRight"":10,""ArrowDown,ArrowLeft"":5,""ArrowDown,ArrowRight"":17}","true","ArrowUp,ArrowLeft","false","revaluation","1","66","","",""
"html-keyboard-response","188","861293","0.0-4.0-2.0-1.33","spark_pilot_norest","9994","4","15","Male","","","","","","","null","<div style=""font-size:60px;"">+</div>","null","fixation","","","","","","","","","67","","",""
"revaluation","189","867309","0.0-4.0-2.0-0.34","spark_pilot_norest","9994","4","15","Male","","false","","","","","[1058.2999999970198,801.7000000029802]","./assets/img/ocean/memory/9.jpg","[""ArrowDown"",""ArrowRight""]","value training","ocean","17","{""ArrowUp,ArrowLeft"":26,""ArrowUp,ArrowRight"":10,""ArrowDown,ArrowLeft"":5,""ArrowDown,ArrowRight"":17}","false","ArrowDown,ArrowRight","false","revaluation","1","68","","",""
"html-keyboard-response","190","867817","0.0-4.0-2.0-1.34","spark_pilot_norest","9994","4","15","Male","","","","","","","null","<div style=""font-size:60px;"">+</div>","null","fixation","","","","","","","","","69","","",""
"revaluation","191","873823","0.0-4.0-2.0-0.35","spark_pilot_norest","9994","4","15","Male","","false","","","","","[827.4000000059605,863.2999999970198]","./assets/img/ocean/memory/36.jpg","[""ArrowUp"",""ArrowRight""]","value training","ocean","10","{""ArrowUp,ArrowLeft"":26,""ArrowUp,ArrowRight"":10,""ArrowDown,ArrowLeft"":5,""ArrowDown,ArrowRight"":17}","false","ArrowUp,ArrowRight","false","revaluation","1","70","","",""
"html-keyboard-response","192","874338","0.0-4.0-2.0-1.35","spark_pilot_norest","9994","4","15","Male","","","","","","","null","<div style=""font-size:60px;"">+</div>","null","fixation","","","","","","","","","71","","",""
"revaluation","193","880349","0.0-4.0-2.0-0.36","spark_pilot_norest","9994","4","15","Male","","false","","","","","[513.8999999910593,242.5]","./assets/img/ocean/memory/4.jpg","[""ArrowUp"",""ArrowLeft""]","value training","ocean","26","{""ArrowUp,ArrowLeft"":26,""ArrowUp,ArrowRight"":10,""ArrowDown,ArrowLeft"":5,""ArrowDown,ArrowRight"":17}","true","ArrowUp,ArrowLeft","false","revaluation","1","72","","",""
"html-keyboard-response","194","880856","0.0-4.0-2.0-1.36","spark_pilot_norest","9994","4","15","Male","","","","","","","null","<div style=""font-size:60px;"">+</div>","null","fixation","","","","","","","","","73","","",""
"revaluation","195","886863","0.0-4.0-2.0-0.37","spark_pilot_norest","9994","4","15","Male","","false","","","","","[642.1999999880791,710.5999999940395]","./assets/img/ocean/memory/11.jpg","[""ArrowDown"",""ArrowRight""]","value training","ocean","17","{""ArrowUp,ArrowLeft"":26,""ArrowUp,ArrowRight"":10,""ArrowDown,ArrowLeft"":5,""ArrowDown,ArrowRight"":17}","false","ArrowDown,ArrowRight","false","revaluation","1","74","","",""
"html-keyboard-response","196","887373","0.0-4.0-2.0-1.37","spark_pilot_norest","9994","4","15","Male","","","","","","","null","<div style=""font-size:60px;"">+</div>","null","fixation","","","","","","","","","75","","",""
"revaluation","197","893386","0.0-4.0-2.0-0.38","spark_pilot_norest","9994","4","15","Male","","false","","","","","[416.5,295.8999999910593]","./assets/img/ocean/memory/31.jpg","[""ArrowUp"",""ArrowLeft""]","value training","ocean","26","{""ArrowUp,ArrowLeft"":26,""ArrowUp,ArrowRight"":10,""ArrowDown,ArrowLeft"":5,""ArrowDown,ArrowRight"":17}","true","ArrowUp,ArrowLeft","false","revaluation","1","76","","",""
"html-keyboard-response","198","893896","0.0-4.0-2.0-1.38","spark_pilot_norest","9994","4","15","Male","","","","","","","null","<div style=""font-size:60px;"">+</div>","null","fixation","","","","","","","","","77","","",""
"revaluation","199","897907","0.0-4.0-2.0-0.39","spark_pilot_norest","9994","4","15","Male","","false","","","","","[672.0999999940395]","./assets/img/ocean/catch/6.jpg","[""spaceBar""]","value training","ocean","0","{""ArrowUp,ArrowLeft"":26,""ArrowUp,ArrowRight"":10,""ArrowDown,ArrowLeft"":5,""ArrowDown,ArrowRight"":17}","true","spaceBar","true","revaluation","1","78","","",""
"html-keyboard-response","200","898408","0.0-4.0-2.0-1.39","spark_pilot_norest","9994","4","15","Male","","","","","","","null","<div style=""font-size:60px;"">+</div>","null","fixation","","","","","","","","","79","","",""
"revaluation","201","904413","0.0-4.0-2.0-0.40","spark_pilot_norest","9994","4","15","Male","","false","","","","","[605.1999999880791,372.70000000298023]","./assets/img/ocean/memory/41.jpg","[""ArrowUp"",""ArrowLeft""]","value training","ocean","26","{""ArrowUp,ArrowLeft"":26,""ArrowUp,ArrowRight"":10,""ArrowDown,ArrowLeft"":5,""ArrowDown,ArrowRight"":17}","true","ArrowUp,ArrowLeft","false","revaluation","1","80","","",""
"html-keyboard-response","202","904922","0.0-4.0-2.0-1.40","spark_pilot_norest","9994","4","15","Male","","","","","","","null","<div style=""font-size:60px;"">+</div>","null","fixation","","","","","","","","","81","","",""
"revaluation","203","910927","0.0-4.0-2.0-0.41","spark_pilot_norest","9994","4","15","Male","","false","","","","","[576.4000000059605,307.80000001192093]","./assets/img/ocean/memory/33.jpg","[""ArrowDown"",""ArrowRight""]","value training","ocean","17","{""ArrowUp,ArrowLeft"":26,""ArrowUp,ArrowRight"":10,""ArrowDown,ArrowLeft"":5,""ArrowDown,ArrowRight"":17}","false","ArrowDown,ArrowRight","false","revaluation","1","82","","",""
"html-keyboard-response","204","911434","0.0-4.0-2.0-1.41","spark_pilot_norest","9994","4","15","Male","","","","","","","null","<div style=""font-size:60px;"">+</div>","null","fixation","","","","","","","","","83","","",""
"revaluation","205","915460","0.0-4.0-2.0-0.42","spark_pilot_norest","9994","4","15","Male","","false","","","","","[808.6000000089407]","./assets/img/ocean/catch/7.jpg","[""spaceBar""]","value training","ocean","0","{""ArrowUp,ArrowLeft"":26,""ArrowUp,ArrowRight"":10,""ArrowDown,ArrowLeft"":5,""ArrowDown,ArrowRight"":17}","true","spaceBar","true","revaluation","1","84","","",""
"html-keyboard-response","206","915969","0.0-4.0-2.0-1.42","spark_pilot_norest","9994","4","15","Male","","","","","","","null","<div style=""font-size:60px;"">+</div>","null","fixation","","","","","","","","","85","","",""
"revaluation","207","921975","0.0-4.0-2.0-0.43","spark_pilot_norest","9994","4","15","Male","","false","","","","","[545.4000000059605,390.40000000596046]","./assets/img/ocean/memory/12.jpg","[""ArrowUp"",""ArrowLeft""]","value training","ocean","26","{""ArrowUp,ArrowLeft"":26,""ArrowUp,ArrowRight"":10,""ArrowDown,ArrowLeft"":5,""ArrowDown,ArrowRight"":17}","true","ArrowUp,ArrowLeft","false","revaluation","1","86","","",""
"html-keyboard-response","208","922479","0.0-4.0-2.0-1.43","spark_pilot_norest","9994","4","15","Male","","","","","","","null","<div style=""font-size:60px;"">+</div>","null","fixation","","","","","","","","","87","","",""
"revaluation","209","928486","0.0-4.0-2.0-0.44","spark_pilot_norest","9994","4","15","Male","","false","","","","","[855.9000000059605,1153.4000000059605]","./assets/img/ocean/memory/25.jpg","[""ArrowUp"",""ArrowLeft""]","value training","ocean","26","{""ArrowUp,ArrowLeft"":26,""ArrowUp,ArrowRight"":10,""ArrowDown,ArrowLeft"":5,""ArrowDown,ArrowRight"":17}","true","ArrowUp,ArrowLeft","false","revaluation","1","88","","",""
"html-keyboard-response","210","928995","0.0-4.0-2.0-1.44","spark_pilot_norest","9994","4","15","Male","","","","","","","null","<div style=""font-size:60px;"">+</div>","null","fixation","","","","","","","","","89","","",""
"revaluation","211","935008","0.0-4.0-2.0-0.45","spark_pilot_norest","9994","4","15","Male","","false","","","","","[608.5,450.3999999910593]","./assets/img/ocean/memory/18.jpg","[""ArrowUp"",""ArrowLeft""]","value training","ocean","26","{""ArrowUp,ArrowLeft"":26,""ArrowUp,ArrowRight"":10,""ArrowDown,ArrowLeft"":5,""ArrowDown,ArrowRight"":17}","true","ArrowUp,ArrowLeft","false","revaluation","1","90","","",""
"html-keyboard-response","212","935516","0.0-4.0-2.0-1.45","spark_pilot_norest","9994","4","15","Male","","","","","","","null","<div style=""font-size:60px;"">+</div>","null","fixation","","","","","","","","","91","","",""
"revaluation","213","941524","0.0-4.0-2.0-0.46","spark_pilot_norest","9994","4","15","Male","","false","","","","","[1465.7999999970198,1091]","./assets/img/ocean/memory/9.jpg","[""ArrowUp"",""ArrowLeft""]","value training","ocean","26","{""ArrowUp,ArrowLeft"":26,""ArrowUp,ArrowRight"":10,""ArrowDown,ArrowLeft"":5,""ArrowDown,ArrowRight"":17}","true","ArrowUp,ArrowLeft","false","revaluation","1","92","","",""
"html-keyboard-response","214","942032","0.0-4.0-2.0-1.46","spark_pilot_norest","9994","4","15","Male","","","","","","","null","<div style=""font-size:60px;"">+</div>","null","fixation","","","","","","","","","93","","",""
"revaluation","215","946036","0.0-4.0-2.0-0.47","spark_pilot_norest","9994","4","15","Male","","false","","","","","[712.4000000059605]","./assets/img/ocean/catch/0.jpg","[""spaceBar""]","value training","ocean","0","{""ArrowUp,ArrowLeft"":26,""ArrowUp,ArrowRight"":10,""ArrowDown,ArrowLeft"":5,""ArrowDown,ArrowRight"":17}","true","spaceBar","true","revaluation","1","94","","",""
"html-keyboard-response","216","946537","0.0-4.0-2.0-1.47","spark_pilot_norest","9994","4","15","Male","","","","","","","null","<div style=""font-size:60px;"">+</div>","null","fixation","","","","","","","","","95","","",""
"revaluation","217","952542","0.0-4.0-2.0-0.48","spark_pilot_norest","9994","4","15","Male","","false","","","","","[610.2000000029802,733.5]","./assets/img/ocean/memory/11.jpg","[""ArrowUp"",""ArrowLeft""]","value training","ocean","26","{""ArrowUp,ArrowLeft"":26,""ArrowUp,ArrowRight"":10,""ArrowDown,ArrowLeft"":5,""ArrowDown,ArrowRight"":17}","true","ArrowUp,ArrowLeft","false","revaluation","1","96","","",""
"html-keyboard-response","218","953044","0.0-4.0-2.0-1.48","spark_pilot_norest","9994","4","15","Male","","","","","","","null","<div style=""font-size:60px;"">+</div>","null","fixation","","","","","","","","","97","","",""
"revaluation","219","957052","0.0-4.0-2.0-0.49","spark_pilot_norest","9994","4","15","Male","","false","","","","","[1054.5999999940395]","./assets/img/ocean/catch/2.jpg","[""spaceBar""]","value training","ocean","0","{""ArrowUp,ArrowLeft"":26,""ArrowUp,ArrowRight"":10,""ArrowDown,ArrowLeft"":5,""ArrowDown,ArrowRight"":17}","true","spaceBar","true","revaluation","1","98","","",""
"html-keyboard-response","220","957554","0.0-4.0-2.0-1.49","spark_pilot_norest","9994","4","15","Male","","","","","","","null","<div style=""font-size:60px;"">+</div>","null","fixation","","","","","","","","","99","","",""
"learning-instructions","221","972191","0.0-4.0-3.0-0.0","spark_pilot_norest","9994","4","15","Male","","","","","","","1547.9000000059605","<p> Now, you will travel with a friend who will choose whether you go up or down first. </p>
            <p> On these turns, you will just see the animal that they found. You will still get to choose which chest to search for treasure.</p>","","instructions","","","","","","","","","","","",""
"revaluation","222","976217","0.0-4.0-4.0-0.0","spark_pilot_norest","9994","4","15","Male","","false","","","","","[735.5]","./assets/img/ocean/animals/octopus.jpg","[""ArrowRight""]","revaluation","ocean","27","{""ArrowUp,ArrowLeft"":2,""ArrowUp,ArrowRight"":11,""ArrowDown,ArrowLeft"":8,""ArrowDown,ArrowRight"":27}","true","ArrowDown,ArrowRight","","revaluation","1","0","","",""
"html-keyboard-response","223","976733","0.0-4.0-4.0-1.0","spark_pilot_norest","9994","4","15","Male","","","","","","","null","<div style=""font-size:60px;"">+</div>","null","fixation","","","","","","","","","1","","",""
"revaluation","224","980759","0.0-4.0-4.0-0.1","spark_pilot_norest","9994","4","15","Male","","false","","","","","[455.59999999403954]","./assets/img/ocean/animals/octopus.jpg","[""ArrowRight""]","revaluation","ocean","27","{""ArrowUp,ArrowLeft"":2,""ArrowUp,ArrowRight"":11,""ArrowDown,ArrowLeft"":8,""ArrowDown,ArrowRight"":27}","true","ArrowDown,ArrowRight","","revaluation","1","2","","",""
"html-keyboard-response","225","981269","0.0-4.0-4.0-1.1","spark_pilot_norest","9994","4","15","Male","","","","","","","null","<div style=""font-size:60px;"">+</div>","null","fixation","","","","","","","","","3","","",""
"revaluation","226","985290","0.0-4.0-4.0-0.2","spark_pilot_norest","9994","4","15","Male","","false","","","","","[378.90000000596046]","./assets/img/ocean/animals/seahorse.jpg","[""ArrowLeft""]","revaluation","ocean","2","{""ArrowUp,ArrowLeft"":2,""ArrowUp,ArrowRight"":11,""ArrowDown,ArrowLeft"":8,""ArrowDown,ArrowRight"":27}","false","ArrowUp,ArrowLeft","","revaluation","1","4","","",""
"html-keyboard-response","227","985806","0.0-4.0-4.0-1.2","spark_pilot_norest","9994","4","15","Male","","","","","","","null","<div style=""font-size:60px;"">+</div>","null","fixation","","","","","","","","","5","","",""
"revaluation","228","989813","0.0-4.0-4.0-0.3","spark_pilot_norest","9994","4","15","Male","","false","","","","","[415.19999998807907]","./assets/img/ocean/animals/seahorse.jpg","[""ArrowRight""]","revaluation","ocean","11","{""ArrowUp,ArrowLeft"":2,""ArrowUp,ArrowRight"":11,""ArrowDown,ArrowLeft"":8,""ArrowDown,ArrowRight"":27}","true","ArrowUp,ArrowRight","","revaluation","1","6","","",""
"html-keyboard-response","229","990322","0.0-4.0-4.0-1.3","spark_pilot_norest","9994","4","15","Male","","","","","","","null","<div style=""font-size:60px;"">+</div>","null","fixation","","","","","","","","","7","","",""
"revaluation","230","994342","0.0-4.0-4.0-0.4","spark_pilot_norest","9994","4","15","Male","","false","","","","","[307.69999998807907]","./assets/img/ocean/animals/octopus.jpg","[""ArrowRight""]","revaluation","ocean","27","{""ArrowUp,ArrowLeft"":2,""ArrowUp,ArrowRight"":11,""ArrowDown,ArrowLeft"":8,""ArrowDown,ArrowRight"":27}","true","ArrowDown,ArrowRight","","revaluation","1","8","","",""
"html-keyboard-response","231","994854","0.0-4.0-4.0-1.4","spark_pilot_norest","9994","4","15","Male","","","","","","","null","<div style=""font-size:60px;"">+</div>","null","fixation","","","","","","","","","9","","",""
"revaluation","232","998879","0.0-4.0-4.0-0.5","spark_pilot_norest","9994","4","15","Male","","false","","","","","[476.3999999910593]","./assets/img/ocean/animals/seahorse.jpg","[""ArrowRight""]","revaluation","ocean","11","{""ArrowUp,ArrowLeft"":2,""ArrowUp,ArrowRight"":11,""ArrowDown,ArrowLeft"":8,""ArrowDown,ArrowRight"":27}","true","ArrowUp,ArrowRight","","revaluation","1","10","","",""
"html-keyboard-response","233","999390","0.0-4.0-4.0-1.5","spark_pilot_norest","9994","4","15","Male","","","","","","","null","<div style=""font-size:60px;"">+</div>","null","fixation","","","","","","","","","11","","",""
"revaluation","234","1003396","0.0-4.0-4.0-0.6","spark_pilot_norest","9994","4","15","Male","","false","","","","","[442.90000000596046]","./assets/img/ocean/animals/seahorse.jpg","[""ArrowRight""]","revaluation","ocean","11","{""ArrowUp,ArrowLeft"":2,""ArrowUp,ArrowRight"":11,""ArrowDown,ArrowLeft"":8,""ArrowDown,ArrowRight"":27}","true","ArrowUp,ArrowRight","","revaluation","1","12","","",""
"html-keyboard-response","235","1003899","0.0-4.0-4.0-1.6","spark_pilot_norest","9994","4","15","Male","","","","","","","null","<div style=""font-size:60px;"">+</div>","null","fixation","","","","","","","","","13","","",""
"revaluation","236","1007909","0.0-4.0-4.0-0.7","spark_pilot_norest","9994","4","15","Male","","false","","","","","[443.69999998807907]","./assets/img/ocean/animals/seahorse.jpg","[""ArrowRight""]","revaluation","ocean","11","{""ArrowUp,ArrowLeft"":2,""ArrowUp,ArrowRight"":11,""ArrowDown,ArrowLeft"":8,""ArrowDown,ArrowRight"":27}","true","ArrowUp,ArrowRight","","revaluation","1","14","","",""
"html-keyboard-response","237","1008410","0.0-4.0-4.0-1.7","spark_pilot_norest","9994","4","15","Male","","","","","","","null","<div style=""font-size:60px;"">+</div>","null","fixation","","","","","","","","","15","","",""
"revaluation","238","1012419","0.0-4.0-4.0-0.8","spark_pilot_norest","9994","4","15","Male","","false","","","","","[423.20000000298023]","./assets/img/ocean/animals/octopus.jpg","[""ArrowRight""]","revaluation","ocean","27","{""ArrowUp,ArrowLeft"":2,""ArrowUp,ArrowRight"":11,""ArrowDown,ArrowLeft"":8,""ArrowDown,ArrowRight"":27}","true","ArrowDown,ArrowRight","","revaluation","1","16","","",""
"html-keyboard-response","239","1012921","0.0-4.0-4.0-1.8","spark_pilot_norest","9994","4","15","Male","","","","","","","null","<div style=""font-size:60px;"">+</div>","null","fixation","","","","","","","","","17","","",""
"revaluation","240","1016925","0.0-4.0-4.0-0.9","spark_pilot_norest","9994","4","15","Male","","false","","","","","[307.29999999701977]","./assets/img/ocean/animals/octopus.jpg","[""ArrowRight""]","revaluation","ocean","27","{""ArrowUp,ArrowLeft"":2,""ArrowUp,ArrowRight"":11,""ArrowDown,ArrowLeft"":8,""ArrowDown,ArrowRight"":27}","true","ArrowDown,ArrowRight","","revaluation","1","18","","",""
"html-keyboard-response","241","1017428","0.0-4.0-4.0-1.9","spark_pilot_norest","9994","4","15","Male","","","","","","","null","<div style=""font-size:60px;"">+</div>","null","fixation","","","","","","","","","19","","",""
"revaluation","242","1021439","0.0-4.0-4.0-0.10","spark_pilot_norest","9994","4","15","Male","","false","","","","","[493.5]","./assets/img/ocean/animals/seahorse.jpg","[""ArrowRight""]","revaluation","ocean","11","{""ArrowUp,ArrowLeft"":2,""ArrowUp,ArrowRight"":11,""ArrowDown,ArrowLeft"":8,""ArrowDown,ArrowRight"":27}","true","ArrowUp,ArrowRight","","revaluation","1","20","","",""
"html-keyboard-response","243","1021948","0.0-4.0-4.0-1.10","spark_pilot_norest","9994","4","15","Male","","","","","","","null","<div style=""font-size:60px;"">+</div>","null","fixation","","","","","","","","","21","","",""
"revaluation","244","1025959","0.0-4.0-4.0-0.11","spark_pilot_norest","9994","4","15","Male","","false","","","","","[426]","./assets/img/ocean/animals/seahorse.jpg","[""ArrowRight""]","revaluation","ocean","11","{""ArrowUp,ArrowLeft"":2,""ArrowUp,ArrowRight"":11,""ArrowDown,ArrowLeft"":8,""ArrowDown,ArrowRight"":27}","true","ArrowUp,ArrowRight","","revaluation","1","22","","",""
"html-keyboard-response","245","1026467","0.0-4.0-4.0-1.11","spark_pilot_norest","9994","4","15","Male","","","","","","","null","<div style=""font-size:60px;"">+</div>","null","fixation","","","","","","","","","23","","",""
"revaluation","246","1030478","0.0-4.0-4.0-0.12","spark_pilot_norest","9994","4","15","Male","","false","","","","","[443.70000000298023]","./assets/img/ocean/animals/octopus.jpg","[""ArrowRight""]","revaluation","ocean","27","{""ArrowUp,ArrowLeft"":2,""ArrowUp,ArrowRight"":11,""ArrowDown,ArrowLeft"":8,""ArrowDown,ArrowRight"":27}","true","ArrowDown,ArrowRight","","revaluation","1","24","","",""
"html-keyboard-response","247","1030986","0.0-4.0-4.0-1.12","spark_pilot_norest","9994","4","15","Male","","","","","","","null","<div style=""font-size:60px;"">+</div>","null","fixation","","","","","","","","","25","","",""
"revaluation","248","1034996","0.0-4.0-4.0-0.13","spark_pilot_norest","9994","4","15","Male","","false","","","","","[330.09999999403954]","./assets/img/ocean/animals/octopus.jpg","[""ArrowRight""]","revaluation","ocean","27","{""ArrowUp,ArrowLeft"":2,""ArrowUp,ArrowRight"":11,""ArrowDown,ArrowLeft"":8,""ArrowDown,ArrowRight"":27}","true","ArrowDown,ArrowRight","","revaluation","1","26","","",""
"html-keyboard-response","249","1035507","0.0-4.0-4.0-1.13","spark_pilot_norest","9994","4","15","Male","","","","","","","null","<div style=""font-size:60px;"">+</div>","null","fixation","","","","","","","","","27","","",""
"revaluation","250","1039516","0.0-4.0-4.0-0.14","spark_pilot_norest","9994","4","15","Male","","false","","","","","[331.70000000298023]","./assets/img/ocean/animals/seahorse.jpg","[""ArrowRight""]","revaluation","ocean","11","{""ArrowUp,ArrowLeft"":2,""ArrowUp,ArrowRight"":11,""ArrowDown,ArrowLeft"":8,""ArrowDown,ArrowRight"":27}","true","ArrowUp,ArrowRight","","revaluation","1","28","","",""
"html-keyboard-response","251","1040018","0.0-4.0-4.0-1.14","spark_pilot_norest","9994","4","15","Male","","","","","","","null","<div style=""font-size:60px;"">+</div>","null","fixation","","","","","","","","","29","","",""
"revaluation","252","1044031","0.0-4.0-4.0-0.15","spark_pilot_norest","9994","4","15","Male","","false","","","","","[595.7999999970198]","./assets/img/ocean/animals/seahorse.jpg","[""ArrowRight""]","revaluation","ocean","11","{""ArrowUp,ArrowLeft"":2,""ArrowUp,ArrowRight"":11,""ArrowDown,ArrowLeft"":8,""ArrowDown,ArrowRight"":27}","true","ArrowUp,ArrowRight","","revaluation","1","30","","",""
"html-keyboard-response","253","1044532","0.0-4.0-4.0-1.15","spark_pilot_norest","9994","4","15","Male","","","","","","","null","<div style=""font-size:60px;"">+</div>","null","fixation","","","","","","","","","31","","",""
"revaluation","254","1048544","0.0-4.0-4.0-0.16","spark_pilot_norest","9994","4","15","Male","","false","","","","","[219.40000000596046]","./assets/img/ocean/animals/octopus.jpg","[""ArrowRight""]","revaluation","ocean","27","{""ArrowUp,ArrowLeft"":2,""ArrowUp,ArrowRight"":11,""ArrowDown,ArrowLeft"":8,""ArrowDown,ArrowRight"":27}","true","ArrowDown,ArrowRight","","revaluation","1","32","","",""
"html-keyboard-response","255","1049046","0.0-4.0-4.0-1.16","spark_pilot_norest","9994","4","15","Male","","","","","","","null","<div style=""font-size:60px;"">+</div>","null","fixation","","","","","","","","","33","","",""
"revaluation","256","1053050","0.0-4.0-4.0-0.17","spark_pilot_norest","9994","4","15","Male","","false","","","","","[278.30000001192093]","./assets/img/ocean/animals/octopus.jpg","[""ArrowRight""]","revaluation","ocean","27","{""ArrowUp,ArrowLeft"":2,""ArrowUp,ArrowRight"":11,""ArrowDown,ArrowLeft"":8,""ArrowDown,ArrowRight"":27}","true","ArrowDown,ArrowRight","","revaluation","1","34","","",""
"html-keyboard-response","257","1053552","0.0-4.0-4.0-1.17","spark_pilot_norest","9994","4","15","Male","","","","","","","null","<div style=""font-size:60px;"">+</div>","null","fixation","","","","","","","","","35","","",""
"learning-instructions","258","1061750","0.0-4.0-5.0-0.0","spark_pilot_norest","9994","4","15","Male","","","","","","","null","<p> You have almost finished this part of the game! </p>
            <p> We are going to ask you to make a few more choices. </p>","","instructions","","","","","","","","","","","",""
"learning-instructions","259","1077723","0.0-4.0-5.0-0.1","spark_pilot_norest","9994","4","15","Male","","","","","","","null","<p> First, you need to decide whether to go up or down. When you see each picture, use the arrow keys to make your choice. </p>
            <p><b>You will not see which animal you found, but try to get to the one that will give you the most treasure.</b></p>","","instructions","","","","","","","","","","","",""
"html-keyboard-response","260","1078736","0.0-4.0-6.0-0.0","spark_pilot_norest","9994","4","15","Male","","","","","","","null","<div style=""font-size:100px;color:red;"">Starting in...</div>","null","","","","","","","","","","","","",""
"html-keyboard-response","261","1079747","0.0-4.0-6.0-1.0","spark_pilot_norest","9994","4","15","Male","","","","","","","null","<div style=""font-size:200px;color:red;"">3</div>","null","","","","","","","","","","","","",""
"html-keyboard-response","262","1080770","0.0-4.0-6.0-2.0","spark_pilot_norest","9994","4","15","Male","","","","","","","null","<div style=""font-size:200px;color:red;"">2</div>","null","","","","","","","","","","","","",""
"html-keyboard-response","263","1081784","0.0-4.0-6.0-3.0","spark_pilot_norest","9994","4","15","Male","","","","","","","null","<div style=""font-size:200px;color:red;"">1</div>","null","","","","","","","","","","","","",""
"revaluation","264","1082167","0.0-4.0-7.0-0.0","spark_pilot_norest","9994","4","15","Male","","false","","","","","[362.70000000298023]","./assets/img/ocean/test/3.jpg","[""ArrowUp""]","first stage test","ocean","0","{""ArrowUp,ArrowLeft"":2,""ArrowUp,ArrowRight"":11,""ArrowDown,ArrowLeft"":8,""ArrowDown,ArrowRight"":27}","false","ArrowUp","false","revaluation","1","","","",""
"html-keyboard-response","265","1082688","0.0-4.0-7.0-1.0","spark_pilot_norest","9994","4","15","Male","","","","","","","null","<div style=""font-size:60px;"">+</div>","null","fixation","","","","","","","","","","","",""
"revaluation","266","1083373","0.0-4.0-7.0-0.1","spark_pilot_norest","9994","4","15","Male","","false","","","","","[682.6000000089407]","./assets/img/ocean/test/0.jpg","[""ArrowDown""]","first stage test","ocean","0","{""ArrowUp,ArrowLeft"":2,""ArrowUp,ArrowRight"":11,""ArrowDown,ArrowLeft"":8,""ArrowDown,ArrowRight"":27}","true","ArrowDown","false","revaluation","1","","","",""
"html-keyboard-response","267","1083889","0.0-4.0-7.0-1.1","spark_pilot_norest","9994","4","15","Male","","","","","","","null","<div style=""font-size:60px;"">+</div>","null","fixation","","","","","","","","","","","",""
"revaluation","268","1084770","0.0-4.0-7.0-0.2","spark_pilot_norest","9994","4","15","Male","","false","","","","","[868.5999999940395]","./assets/img/ocean/test/1.jpg","[""ArrowDown""]","first stage test","ocean","0","{""ArrowUp,ArrowLeft"":2,""ArrowUp,ArrowRight"":11,""ArrowDown,ArrowLeft"":8,""ArrowDown,ArrowRight"":27}","true","ArrowDown","false","revaluation","1","","","",""
"html-keyboard-response","269","1085286","0.0-4.0-7.0-1.2","spark_pilot_norest","9994","4","15","Male","","","","","","","null","<div style=""font-size:60px;"">+</div>","null","fixation","","","","","","","","","","","",""
"revaluation","270","1085778","0.0-4.0-7.0-0.3","spark_pilot_norest","9994","4","15","Male","","false","","","","","[471.20000000298023]","./assets/img/ocean/test/2.jpg","[""ArrowUp""]","first stage test","ocean","0","{""ArrowUp,ArrowLeft"":2,""ArrowUp,ArrowRight"":11,""ArrowDown,ArrowLeft"":8,""ArrowDown,ArrowRight"":27}","false","ArrowUp","false","revaluation","1","","","",""
"html-keyboard-response","271","1086295","0.0-4.0-7.0-1.3","spark_pilot_norest","9994","4","15","Male","","","","","","","null","<div style=""font-size:60px;"">+</div>","null","fixation","","","","","","","","","","","",""
"learning-instructions","272","1099634","0.0-4.0-8.0-0.0","spark_pilot_norest","9994","4","15","Male","","","","","","","null","<p> Now you will see the animals again and can search their chests for treasure. </p>
            <p> This time, you will not see how much treasure you earned, but you will earn more bonus money for making better choices. </p>","","instructions","","","","","","","","","","","",""
"html-keyboard-response","273","1100647","0.0-4.0-9.0-0.0","spark_pilot_norest","9994","4","15","Male","","","","","","","null","<div style=""font-size:100px;color:red;"">Starting in...</div>","null","","","","","","","","","","","","",""
"html-keyboard-response","274","1101657","0.0-4.0-9.0-1.0","spark_pilot_norest","9994","4","15","Male","","","","","","","null","<div style=""font-size:200px;color:red;"">3</div>","null","","","","","","","","","","","","",""
"html-keyboard-response","275","1102666","0.0-4.0-9.0-2.0","spark_pilot_norest","9994","4","15","Male","","","","","","","null","<div style=""font-size:200px;color:red;"">2</div>","null","","","","","","","","","","","","",""
"html-keyboard-response","276","1103680","0.0-4.0-9.0-3.0","spark_pilot_norest","9994","4","15","Male","","","","","","","null","<div style=""font-size:200px;color:red;"">1</div>","null","","","","","","","","","","","","",""
"revaluation","277","1104085","0.0-4.0-10.0-0.0","spark_pilot_norest","9994","4","15","Male","","false","","","","","[403.40000000596046]","./assets/img/ocean/animals/seahorse.jpg","[""ArrowRight""]","second stage test","ocean","0","{""ArrowUp,ArrowLeft"":2,""ArrowUp,ArrowRight"":11,""ArrowDown,ArrowLeft"":8,""ArrowDown,ArrowRight"":27}","true","ArrowUp,ArrowRight","","revaluation","1","","","",""
"html-keyboard-response","278","1104593","0.0-4.0-10.0-1.0","spark_pilot_norest","9994","4","15","Male","","","","","","","null","<div style=""font-size:60px;"">+</div>","null","fixation","","","","","","","","","","","",""
"revaluation","279","1104982","0.0-4.0-10.0-0.1","spark_pilot_norest","9994","4","15","Male","","false","","","","","[386.80000001192093]","./assets/img/ocean/animals/seahorse.jpg","[""ArrowRight""]","second stage test","ocean","0","{""ArrowUp,ArrowLeft"":2,""ArrowUp,ArrowRight"":11,""ArrowDown,ArrowLeft"":8,""ArrowDown,ArrowRight"":27}","true","ArrowUp,ArrowRight","","revaluation","1","","","",""
"html-keyboard-response","280","1105499","0.0-4.0-10.0-1.1","spark_pilot_norest","9994","4","15","Male","","","","","","","null","<div style=""font-size:60px;"">+</div>","null","fixation","","","","","","","","","","","",""
"revaluation","281","1106188","0.0-4.0-10.0-0.2","spark_pilot_norest","9994","4","15","Male","","false","","","","","[679.5999999940395]","./assets/img/ocean/animals/seahorse.jpg","[""ArrowLeft""]","second stage test","ocean","0","{""ArrowUp,ArrowLeft"":2,""ArrowUp,ArrowRight"":11,""ArrowDown,ArrowLeft"":8,""ArrowDown,ArrowRight"":27}","false","ArrowUp,ArrowLeft","","revaluation","1","","","",""
"html-keyboard-response","282","1106694","0.0-4.0-10.0-1.2","spark_pilot_norest","9994","4","15","Male","","","","","","","null","<div style=""font-size:60px;"">+</div>","null","fixation","","","","","","","","","","","",""
"revaluation","283","1107219","0.0-4.0-10.0-0.3","spark_pilot_norest","9994","4","15","Male","","false","","","","","[517.3999999910593]","./assets/img/ocean/animals/seahorse.jpg","[""ArrowLeft""]","second stage test","ocean","0","{""ArrowUp,ArrowLeft"":2,""ArrowUp,ArrowRight"":11,""ArrowDown,ArrowLeft"":8,""ArrowDown,ArrowRight"":27}","false","ArrowUp,ArrowLeft","","revaluation","1","","","",""
"html-keyboard-response","284","1107727","0.0-4.0-10.0-1.3","spark_pilot_norest","9994","4","15","Male","","","","","","","null","<div style=""font-size:60px;"">+</div>","null","fixation","","","","","","","","","","","",""
"revaluation","285","1108210","0.0-4.0-10.0-0.4","spark_pilot_norest","9994","4","15","Male","","false","","","","","[480.8999999910593]","./assets/img/ocean/animals/octopus.jpg","[""ArrowRight""]","second stage test","ocean","0","{""ArrowUp,ArrowLeft"":2,""ArrowUp,ArrowRight"":11,""ArrowDown,ArrowLeft"":8,""ArrowDown,ArrowRight"":27}","true","ArrowDown,ArrowRight","","revaluation","1","","","",""
"html-keyboard-response","286","1108727","0.0-4.0-10.0-1.4","spark_pilot_norest","9994","4","15","Male","","","","","","","null","<div style=""font-size:60px;"">+</div>","null","fixation","","","","","","","","","","","",""
"revaluation","287","1109050","0.0-4.0-10.0-0.5","spark_pilot_norest","9994","4","15","Male","","false","","","","","[320.79999999701977]","./assets/img/ocean/animals/octopus.jpg","[""ArrowLeft""]","second stage test","ocean","0","{""ArrowUp,ArrowLeft"":2,""ArrowUp,ArrowRight"":11,""ArrowDown,ArrowLeft"":8,""ArrowDown,ArrowRight"":27}","false","ArrowDown,ArrowLeft","","revaluation","1","","","",""
"html-keyboard-response","288","1109567","0.0-4.0-10.0-1.5","spark_pilot_norest","9994","4","15","Male","","","","","","","null","<div style=""font-size:60px;"">+</div>","null","fixation","","","","","","","","","","","",""
"revaluation","289","1109794","0.0-4.0-10.0-0.6","spark_pilot_norest","9994","4","15","Male","","false","","","","","[222.40000000596046]","./assets/img/ocean/animals/octopus.jpg","[""ArrowRight""]","second stage test","ocean","0","{""ArrowUp,ArrowLeft"":2,""ArrowUp,ArrowRight"":11,""ArrowDown,ArrowLeft"":8,""ArrowDown,ArrowRight"":27}","true","ArrowDown,ArrowRight","","revaluation","1","","","",""
"html-keyboard-response","290","1110309","0.0-4.0-10.0-1.6","spark_pilot_norest","9994","4","15","Male","","","","","","","null","<div style=""font-size:60px;"">+</div>","null","fixation","","","","","","","","","","","",""
"revaluation","291","1110604","0.0-4.0-10.0-0.7","spark_pilot_norest","9994","4","15","Male","","false","","","","","[292.80000001192093]","./assets/img/ocean/animals/octopus.jpg","[""ArrowRight""]","second stage test","ocean","0","{""ArrowUp,ArrowLeft"":2,""ArrowUp,ArrowRight"":11,""ArrowDown,ArrowLeft"":8,""ArrowDown,ArrowRight"":27}","true","ArrowDown,ArrowRight","","revaluation","1","","","",""
"html-keyboard-response","292","1111119","0.0-4.0-10.0-1.7","spark_pilot_norest","9994","4","15","Male","","","","","","","null","<div style=""font-size:60px;"">+</div>","null","fixation","","","","","","","","","","","",""
"learning-instructions","293","1116109","0.0-4.0-0.1-0.2","spark_pilot_norest","9994","4","15","Male","","","","","","","2209.5","<p> This time you are searching for treasure in the <b>canyon</b>.</p>","","instructions","","","","","","","","","","","",""
"learning-instructions","294","1135123","0.0-4.0-0.1-0.3","spark_pilot_norest","9994","4","15","Male","","","","","","","1756.7000000029802","<p><b>New</b> animals with <b>new</b> treasure chests live here. You need to explore to discover where the animal with the best treasure chest is.</p>
                    <p> Like before, once you figure out which animal has the chest with the most treasure, you should try to get to that animal and select that chest! </p>","","instructions","","","","","","","","","","","",""
"learning-instructions","295","1152457","0.0-4.0-1.1-0.1","spark_pilot_norest","9994","4","15","Male","","","","","","","2592.199999988079","<p> Remember, when you see a picture of the place, use the up and down keys to <b>find an animal</b>.</p>
            <p> When you encounter an animal, you should use the left and right keys to <b>select a treasure chest</b>.</p>
            <p> Don't forget to look out for the robber! </p>","","instructions","","","","","","","","","","","",""
"revaluation","296","1158489","0.0-4.0-2.1-0.50","spark_pilot_norest","9994","4","15","Male","","false","","","","","[1046.4000000059605,1214.2999999970198]","./assets/img/canyon/memory/11.jpg","[""ArrowUp"",""ArrowRight""]","value training","canyon","10","{""ArrowUp,ArrowLeft"":23,""ArrowUp,ArrowRight"":10,""ArrowDown,ArrowLeft"":8,""ArrowDown,ArrowRight"":30}","false","ArrowUp,ArrowRight","false","original","2","0","","",""
"html-keyboard-response","297","1159006","0.0-4.0-2.1-1.50","spark_pilot_norest","9994","4","15","Male","","","","","","","null","<div style=""font-size:60px;"">+</div>","null","fixation","","","","","","","","","1","","",""
"revaluation","298","1165033","0.0-4.0-2.1-0.51","spark_pilot_norest","9994","4","15","Male","","false","","","","","[750.4000000059605,364.5]","./assets/img/canyon/memory/8.jpg","[""ArrowUp"",""ArrowLeft""]","value training","canyon","23","{""ArrowUp,ArrowLeft"":23,""ArrowUp,ArrowRight"":10,""ArrowDown,ArrowLeft"":8,""ArrowDown,ArrowRight"":30}","false","ArrowUp,ArrowLeft","false","original","2","2","","",""
"html-keyboard-response","299","1165537","0.0-4.0-2.1-1.51","spark_pilot_norest","9994","4","15","Male","","","","","","","null","<div style=""font-size:60px;"">+</div>","null","fixation","","","","","","","","","3","","",""
