"trial_type","trial_index","time_elapsed","internal_node_id","task_version","subject_id","assigned_condition","age","gender","success","timeout","failed_images","failed_audio","failed_video","browser_interaction","rt","stimulus","response","task_part","environment","score","rewardMap","correct","fullState","isCatch","condition","order","trial_num","key_press","ground_truth","bonus"
"pavlovia","0","1568","0.0-0.0","spark_pilot_norest","8582","8","11","Male","","","","","","","","","","","","","","","","","","","","","",""
"preload","1","90372","0.0-1.0","spark_pilot_norest","8582","8","11","Male","true","false","[]","[]","[]","[{""event"":""fullscreenenter"",""trial"":2,""time"":93103}]","","","","","","","","","","","","","","","",""
"fullscreen","2","94093","0.0-2.0","spark_pilot_norest","8582","8","11","Male","true","","","","","","","","","","","","","","","","","","","","",""
"audio-button-response","3","95516","0.0-3.0-0.0-0.0","spark_pilot_norest","8582","8","11","Male","","","","","","","1349","./assets/audio/audiotest/turtle.mp3","2","audio_test","","","","","","","","","","","",""
"learning-instructions","4","106478","0.0-3.0-1.0-0.0","spark_pilot_norest","8582","8","11","Male","","","","","","","3976.9000000059605","<p> Welcome! Please remember to stay in fullscreen mode and don't click away from the experiment. </p>","","instructions","","","","","","","","","","","",""
"learning-instructions","5","122109","0.0-3.0-1.0-0.1","spark_pilot_norest","8582","8","11","Male","","","","","","","7241.19999999553","<p> Today you will be playing a game to earn treasure. </p>
            <p> At the end of the experiment, you will earn a bonus based on how much treasure you find. </p>
            <img src='./assets/img/instructions/treasure.jpg' class='instructions-image'>","","instructions","","","","","","","","","","","",""
"learning-instructions","6","131324","0.0-3.0-1.0-0.2","spark_pilot_norest","8582","8","11","Male","","","","","","","977.2999999970198","<p> Animals have hidden treasure in treasure chests. </p>
            <p> You need to first find an animal and then choose which of their treasure chests to search. </p>
            <img src='./assets/img/space/animals/cat.jpg' class='instructions-image'>","","instructions","","","","","","","","","","","",""
"learning-instructions","7","216549","0.0-3.0-1.0-0.3","spark_pilot_norest","8582","8","11","Male","","","","","","","72081","<p> In each round, you will search for treasure in a different place. In the real game, there will be two rounds. </p>
            <p> You will begin with a separate, practice round where you will search for treasure in outer space. </p>
            <img src='./assets/img/space/0.jpg' class='instructions-image'>","","instructions","","","","","","","","","","","",""
"learning-instructions","8","234437","0.0-3.0-1.0-0.4","spark_pilot_norest","8582","8","11","Male","","","","","","","4125.10000000149","<p> On every turn, you will see a picture of the place that you are in, but the specific image may be different each time. </p>
            <p> For example, both of these images mean you are in outer space. </p>
            <img src='./assets/img/instructions/outerspace.jpg' class='instructions-image'>","","instructions","","","","","","","","","","","",""
"learning-instructions","9","246276","0.0-3.0-1.0-0.5","spark_pilot_norest","8582","8","11","Male","","","","","","","1914.6000000014901","<p> You need to decide which direction to travel in. </p>
            <p> You can choose between going <b>up or down</b> by using the arrow keys. </p>
            <img src='./assets/img/instructions/updown.jpg' class='instructions-image'>","","instructions","","","","","","","","","","","",""
"learning-instructions","10","260157","0.0-3.0-1.0-0.6","spark_pilot_norest","8582","8","11","Male","","","","","","","2724.2999999970198","<p> You will have <b>2 seconds</b> to make your choice. </p>
            <p> If you do not make a choice within 2 seconds, you will not find an animal or earn treasure. </p>
            <img src='./assets/img/instructions/2seconds.jpg' class='instructions-image'>","","instructions","","","","","","","","","","","",""
"learning-instructions","11","272357","0.0-3.0-1.0-0.7","spark_pilot_norest","8582","8","11","Male","","","","","","","3435.1999999955297","<p> Let’s try practicing that now! </p>
            <p> When you see a picture of the place you are in, press the <b>up</b> key to travel up. </p>
            <img src='./assets/img/instructions/pressUp.jpg' class='instructions-image'>","","instructions","","","","","","","","","","","",""
"revaluation","12","276380","0.0-3.0-2.0-0.0","spark_pilot_norest","8582","8","11","Male","","false","","","","","[561.3999999985099]","./assets/img/space/0.jpg","[""ArrowUp""]","first stage practice","space","0","null","null","ArrowUp","false","","","","","",""
"html-keyboard-response","13","276890","0.0-3.0-2.0-1.0","spark_pilot_norest","8582","8","11","Male","","","","","","","null","<div style=""font-size:60px;"">+</div>","null","fixation","","","","","","","","","","","",""
"revaluation","14","280904","0.0-3.0-2.0-0.1","spark_pilot_norest","8582","8","11","Male","","false","","","","","[287]","./assets/img/space/1.jpg","[""ArrowUp""]","first stage practice","space","0","null","null","ArrowUp","false","","","","","",""
"html-keyboard-response","15","281412","0.0-3.0-2.0-1.1","spark_pilot_norest","8582","8","11","Male","","","","","","","null","<div style=""font-size:60px;"">+</div>","null","fixation","","","","","","","","","","","",""
"revaluation","16","285440","0.0-3.0-2.0-0.2","spark_pilot_norest","8582","8","11","Male","","false","","","","","[788.1999999955297]","./assets/img/space/2.jpg","[""ArrowUp""]","first stage practice","space","0","null","null","ArrowUp","false","","","","","",""
"html-keyboard-response","17","285955","0.0-3.0-2.0-1.2","spark_pilot_norest","8582","8","11","Male","","","","","","","null","<div style=""font-size:60px;"">+</div>","null","fixation","","","","","","","","","","","",""
"learning-instructions","18","291084","0.0-3.0-3.0-0.0","spark_pilot_norest","8582","8","11","Male","","","","","","","442.3999999985099","<p> Great job! Now try pressing the <b>down</b> key to travel down. </p>
            <img src='./assets/img/instructions/pressDown.jpg' class='instructions-image'>","","instructions","","","","","","","","","","","",""
"revaluation","19","295101","0.0-3.0-4.0-0.0","spark_pilot_norest","8582","8","11","Male","","false","","","","","[638.7999999970198]","./assets/img/space/3.jpg","[""ArrowDown""]","first stage practice","space","0","null","null","ArrowDown","false","","","","","",""
"html-keyboard-response","20","295605","0.0-3.0-4.0-1.0","spark_pilot_norest","8582","8","11","Male","","","","","","","null","<div style=""font-size:60px;"">+</div>","null","fixation","","","","","","","","","","","",""
"revaluation","21","299621","0.0-3.0-4.0-0.1","spark_pilot_norest","8582","8","11","Male","","false","","","","","[131.90000000596046]","./assets/img/space/4.jpg","[""ArrowDown""]","first stage practice","space","0","null","null","ArrowDown","false","","","","","",""
"html-keyboard-response","22","300138","0.0-3.0-4.0-1.1","spark_pilot_norest","8582","8","11","Male","","","","","","","null","<div style=""font-size:60px;"">+</div>","null","fixation","","","","","","","","","","","",""
"revaluation","23","304155","0.0-3.0-4.0-0.2","spark_pilot_norest","8582","8","11","Male","","false","","","","","[14.600000001490116]","./assets/img/space/5.jpg","[""ArrowDown""]","first stage practice","space","0","null","null","ArrowDown","false","","","","","",""
"html-keyboard-response","24","304665","0.0-3.0-4.0-1.2","spark_pilot_norest","8582","8","11","Male","","","","","","","null","<div style=""font-size:60px;"">+</div>","null","fixation","","","","","","","","","","","",""
"learning-instructions","25","316788","0.0-3.0-5.0-0.0","spark_pilot_norest","8582","8","11","Male","","","","","","","2276.7999999970198","<p> The animals don’t move, so the animal in the upper part of a place will stay in the upper part of a place, and the animal in the lower part of a place will stay in the lower part of a place. </p>","","instructions","","","","","","","","","","","",""
"learning-instructions","26","327492","0.0-3.0-5.0-0.1","spark_pilot_norest","8582","8","11","Male","","","","","","","1580.7999999970198","<p> Each animal has two treasure chests for you to choose from. </p>
            <p> The amount of treasure in each chest can range from <b> 0 to 40 pieces.</b></p>","","instructions","","","","","","","","","","","",""
"learning-instructions","27","340692","0.0-3.0-5.0-0.2","spark_pilot_norest","8582","8","11","Male","","","","","","","2020.1000000014901","<p> You should decide which chest to search for treasure by using the <b>left</b> and <b>right</b> arrow keys. </p>
            <p><b> Pay attention to which animal is on the screen, as the animals have different treasure chests. </b></p>
            <img src='./assets/img/instructions/leftright.jpg' class='instructions-image'>","","instructions","","","","","","","","","","","",""
"learning-instructions","28","348661","0.0-3.0-5.0-0.3","spark_pilot_norest","8582","8","11","Male","","","","","","","1618.2999999970198","<p> Let’s try practicing that now. </p>
            <p> When you see an animal, choose which chest to search for treasure. </p>
            <img src='./assets/img/instructions/chooseChest.jpg' class='instructions-image'>","","instructions","","","","","","","","","","","",""
"revaluation","29","352673","0.0-3.0-6.0-0.0","spark_pilot_norest","8582","8","11","Male","","false","","","","","[998.0999999940395]","./assets/img/space/animals/cat.jpg","[""ArrowRight""]","second stage practice","space","36","{""ArrowUp,ArrowLeft"":3,""ArrowUp,ArrowRight"":36,""ArrowDown,ArrowLeft"":15,""ArrowDown,ArrowRight"":23}","true","ArrowUp,ArrowRight","","","","","","",""
"html-keyboard-response","30","353189","0.0-3.0-6.0-1.0","spark_pilot_norest","8582","8","11","Male","","","","","","","null","<div style=""font-size:60px;"">+</div>","null","fixation","","","","","","","","","","","",""
"revaluation","31","357203","0.0-3.0-6.0-0.1","spark_pilot_norest","8582","8","11","Male","","false","","","","","[436.29999999701977]","./assets/img/space/animals/cat.jpg","[""ArrowRight""]","second stage practice","space","36","{""ArrowUp,ArrowLeft"":3,""ArrowUp,ArrowRight"":36,""ArrowDown,ArrowLeft"":15,""ArrowDown,ArrowRight"":23}","true","ArrowUp,ArrowRight","","","","","","",""
"html-keyboard-response","32","357718","0.0-3.0-6.0-1.1","spark_pilot_norest","8582","8","11","Male","","","","","","","null","<div style=""font-size:60px;"">+</div>","null","fixation","","","","","","","","","","","",""
"revaluation","33","361728","0.0-3.0-6.0-0.2","spark_pilot_norest","8582","8","11","Male","","false","","","","","[340]","./assets/img/space/animals/rabbit.jpg","[""ArrowLeft""]","second stage practice","space","15","{""ArrowUp,ArrowLeft"":3,""ArrowUp,ArrowRight"":36,""ArrowDown,ArrowLeft"":15,""ArrowDown,ArrowRight"":23}","false","ArrowDown,ArrowLeft","","","","","","",""
"html-keyboard-response","34","362245","0.0-3.0-6.0-1.2","spark_pilot_norest","8582","8","11","Male","","","","","","","null","<div style=""font-size:60px;"">+</div>","null","fixation","","","","","","","","","","","",""
"revaluation","35","366273","0.0-3.0-6.0-0.3","spark_pilot_norest","8582","8","11","Male","","false","","","","","[676.5]","./assets/img/space/animals/rabbit.jpg","[""ArrowRight""]","second stage practice","space","23","{""ArrowUp,ArrowLeft"":3,""ArrowUp,ArrowRight"":36,""ArrowDown,ArrowLeft"":15,""ArrowDown,ArrowRight"":23}","true","ArrowDown,ArrowRight","","","","","","",""
"html-keyboard-response","36","366785","0.0-3.0-6.0-1.3","spark_pilot_norest","8582","8","11","Male","","","","","","","null","<div style=""font-size:60px;"">+</div>","null","fixation","","","","","","","","","","","",""
"learning-instructions","37","390492","0.0-3.0-7.0-0.0","spark_pilot_norest","8582","8","11","Male","","","","","","","3490.7999999970198","<p> Great job. Now let’s try putting it together. </p>
            <p> On each turn, you will first see a picture to remind you of the place you are in, and you need to choose whether to go up or down. </p>
            <p> Then you will see an animal and choose which of its chests to search for treasure. </p>","","instructions","","","","","","","","","","","",""
"learning-instructions","38","403348","0.0-3.0-7.0-0.1","spark_pilot_norest","8582","8","11","Male","","","","","","","1746.3999999985099","<p> When you choose whether to go up or down, try to go to the animal with the chest with the most treasure. </p>
            <p> Try practicing that now! </p>","","instructions","","","","","","","","","","","",""
"revaluation","39","409357","0.0-3.0-8.0-0.0","spark_pilot_norest","8582","8","11","Male","","false","","","","","[567.7000000029802,373.20000000298023]","./assets/img/space/6.jpg","[""ArrowUp"",""ArrowLeft""]","full practice","space","3","{""ArrowUp,ArrowLeft"":3,""ArrowUp,ArrowRight"":36,""ArrowDown,ArrowLeft"":15,""ArrowDown,ArrowRight"":23}","false","ArrowUp,ArrowLeft","false","","","","","",""
"html-keyboard-response","40","409866","0.0-3.0-8.0-1.0","spark_pilot_norest","8582","8","11","Male","","","","","","","null","<div style=""font-size:60px;"">+</div>","null","fixation","","","","","","","","","","","",""
"revaluation","41","415906","0.0-3.0-8.0-0.1","spark_pilot_norest","8582","8","11","Male","","false","","","","","[957.8999999985099,596]","./assets/img/space/7.jpg","[""ArrowDown"",""ArrowRight""]","full practice","space","23","{""ArrowUp,ArrowLeft"":3,""ArrowUp,ArrowRight"":36,""ArrowDown,ArrowLeft"":15,""ArrowDown,ArrowRight"":23}","false","ArrowDown,ArrowRight","false","","","","","",""
"html-keyboard-response","42","416416","0.0-3.0-8.0-1.1","spark_pilot_norest","8582","8","11","Male","","","","","","","null","<div style=""font-size:60px;"">+</div>","null","fixation","","","","","","","","","","","",""
"revaluation","43","422450","0.0-3.0-8.0-0.2","spark_pilot_norest","8582","8","11","Male","","false","","","","","[536.1000000014901,328.69999999552965]","./assets/img/space/8.jpg","[""ArrowUp"",""ArrowRight""]","full practice","space","36","{""ArrowUp,ArrowLeft"":3,""ArrowUp,ArrowRight"":36,""ArrowDown,ArrowLeft"":15,""ArrowDown,ArrowRight"":23}","true","ArrowUp,ArrowRight","false","","","","","",""
"html-keyboard-response","44","422959","0.0-3.0-8.0-1.2","spark_pilot_norest","8582","8","11","Male","","","","","","","null","<div style=""font-size:60px;"">+</div>","null","fixation","","","","","","","","","","","",""
"revaluation","45","428983","0.0-3.0-8.0-0.3","spark_pilot_norest","8582","8","11","Male","","false","","","","","[361.8999999985099,371.8999999985099]","./assets/img/space/9.jpg","[""ArrowUp"",""ArrowRight""]","full practice","space","36","{""ArrowUp,ArrowLeft"":3,""ArrowUp,ArrowRight"":36,""ArrowDown,ArrowLeft"":15,""ArrowDown,ArrowRight"":23}","true","ArrowUp,ArrowRight","false","","","","","",""
"html-keyboard-response","46","429494","0.0-3.0-8.0-1.3","spark_pilot_norest","8582","8","11","Male","","","","","","","null","<div style=""font-size:60px;"">+</div>","null","fixation","","","","","","","","","","","",""
"revaluation","47","435501","0.0-3.0-8.0-0.4","spark_pilot_norest","8582","8","11","Male","","false","","","","","[642.2000000029802,399.70000000298023]","./assets/img/space/10.jpg","[""ArrowUp"",""ArrowRight""]","full practice","space","36","{""ArrowUp,ArrowLeft"":3,""ArrowUp,ArrowRight"":36,""ArrowDown,ArrowLeft"":15,""ArrowDown,ArrowRight"":23}","true","ArrowUp,ArrowRight","false","","","","","",""
"html-keyboard-response","48","436003","0.0-3.0-8.0-1.4","spark_pilot_norest","8582","8","11","Male","","","","","","","null","<div style=""font-size:60px;"">+</div>","null","fixation","","","","","","","","","","","",""
"learning-instructions","49","452900","0.0-3.0-9.0-0.0","spark_pilot_norest","8582","8","11","Male","","","","","","","3292.7999999970198","<p> One last thing: sometimes, you will see a robber. The robber can be anywhere in the picture. </p>
            <p> If you do not stop them, you will lose treasure. </p>
            <img src='./assets/img/instructions/robber.jpg' class='instructions-image'>","","instructions","","","","","","","","","","","",""
"learning-instructions","50","463748","0.0-3.0-9.0-0.1","spark_pilot_norest","8582","8","11","Male","","","","","","","1351.1000000014901","<p> If you see the robber, you should <b>press the space bar</b> rather than using the arrow keys. </p>
            <p> Try practicing that now! </p>","","instructions","","","","","","","","","","","",""
"revaluation","51","467771","0.0-3.0-10.0-0.0","spark_pilot_norest","8582","8","11","Male","","false","","","","","[519.2999999970198]","./assets/img/space/catch/0.jpg","[""spaceBar""]","catch practice","space","0","{""ArrowUp,ArrowLeft"":3,""ArrowUp,ArrowRight"":36,""ArrowDown,ArrowLeft"":15,""ArrowDown,ArrowRight"":23}","true","spaceBar","true","","","","","",""
"html-keyboard-response","52","468281","0.0-3.0-10.0-1.0","spark_pilot_norest","8582","8","11","Male","","","","","","","null","<div style=""font-size:60px;"">+</div>","null","fixation","","","","","","","","","","","",""
"revaluation","53","472297","0.0-3.0-10.0-0.1","spark_pilot_norest","8582","8","11","Male","","false","","","","","[512.2999999970198]","./assets/img/space/catch/1.jpg","[""spaceBar""]","catch practice","space","0","{""ArrowUp,ArrowLeft"":3,""ArrowUp,ArrowRight"":36,""ArrowDown,ArrowLeft"":15,""ArrowDown,ArrowRight"":23}","true","spaceBar","true","","","","","",""
"html-keyboard-response","54","472811","0.0-3.0-10.0-1.1","spark_pilot_norest","8582","8","11","Male","","","","","","","null","<div style=""font-size:60px;"">+</div>","null","fixation","","","","","","","","","","","",""
"revaluation","55","476840","0.0-3.0-10.0-0.2","spark_pilot_norest","8582","8","11","Male","","false","","","","","[509.3999999985099]","./assets/img/space/catch/2.jpg","[""spaceBar""]","catch practice","space","0","{""ArrowUp,ArrowLeft"":3,""ArrowUp,ArrowRight"":36,""ArrowDown,ArrowLeft"":15,""ArrowDown,ArrowRight"":23}","true","spaceBar","true","","","","","",""
"html-keyboard-response","56","477354","0.0-3.0-10.0-1.2","spark_pilot_norest","8582","8","11","Male","","","","","","","null","<div style=""font-size:60px;"">+</div>","null","fixation","","","","","","","","","","","",""
"learning-instructions","57","485964","0.0-3.0-11.0-0.0-0.0","spark_pilot_norest","8582","8","11","Male","","","","","","","1447.5999999940395","<p> Now, you will practice a shortened version of the game to get a sense of how it all fits together. </p>","","instructions","","","","","","","","","","","",""
"learning-instructions","58","491660","0.0-3.0-11.0-0.0-0.1","spark_pilot_norest","8582","8","11","Male","","","","","","","1252.2999999970198","<p>This time you are searching for treasure in outer space.</p>","","instructions","","","","","","","","","","","",""
"learning-instructions","59","508468","0.0-3.0-11.0-1.0-0.0","spark_pilot_norest","8582","8","11","Male","","","","","","","2060.89999999851","<p> Remember, when you see a picture of the place, use the up and down keys to <b>find an animal</b>.</p>
            <p> When you encounter an animal, you should use the left and right keys to <b>select a treasure chest</b>.</p>
            <p> Don't forget to look out for the robber! </p>","","instructions","","","","","","","","","","","",""
"revaluation","60","514501","0.0-3.0-11.0-2.0-0.0","spark_pilot_norest","8582","8","11","Male","","false","","","","","[597.7999999970198,826.8999999985099]","./assets/img/space/11.jpg","[""ArrowUp"",""ArrowRight""]","practice block","space","36","{""ArrowUp,ArrowLeft"":3,""ArrowUp,ArrowRight"":36,""ArrowDown,ArrowLeft"":15,""ArrowDown,ArrowRight"":23}","true","ArrowUp,ArrowRight","false","","","","","",""
"html-keyboard-response","61","515013","0.0-3.0-11.0-2.0-1.0","spark_pilot_norest","8582","8","11","Male","","","","","","","null","<div style=""font-size:60px;"">+</div>","null","fixation","","","","","","","","","","","",""
"revaluation","62","521034","0.0-3.0-11.0-2.0-0.1","spark_pilot_norest","8582","8","11","Male","","false","","","","","[899.7999999970198,446.5]","./assets/img/space/12.jpg","[""ArrowUp"",""ArrowRight""]","practice block","space","36","{""ArrowUp,ArrowLeft"":3,""ArrowUp,ArrowRight"":36,""ArrowDown,ArrowLeft"":15,""ArrowDown,ArrowRight"":23}","true","ArrowUp,ArrowRight","false","","","","","",""
"html-keyboard-response","63","521544","0.0-3.0-11.0-2.0-1.1","spark_pilot_norest","8582","8","11","Male","","","","","","","null","<div style=""font-size:60px;"">+</div>","null","fixation","","","","","","","","","","","",""
"revaluation","64","527556","0.0-3.0-11.0-2.0-0.2","spark_pilot_norest","8582","8","11","Male","","false","","","","","[610.6999999955297,415.5]","./assets/img/space/13.jpg","[""ArrowUp"",""ArrowRight""]","practice block","space","36","{""ArrowUp,ArrowLeft"":3,""ArrowUp,ArrowRight"":36,""ArrowDown,ArrowLeft"":15,""ArrowDown,ArrowRight"":23}","true","ArrowUp,ArrowRight","false","","","","","",""
"html-keyboard-response","65","528071","0.0-3.0-11.0-2.0-1.2","spark_pilot_norest","8582","8","11","Male","","","","","","","null","<div style=""font-size:60px;"">+</div>","null","fixation","","","","","","","","","","","",""
"revaluation","66","534107","0.0-3.0-11.0-2.0-0.3","spark_pilot_norest","8582","8","11","Male","","false","","","","","[882.7000000029802,740.2999999970198]","./assets/img/space/14.jpg","[""ArrowUp"",""ArrowRight""]","practice block","space","36","{""ArrowUp,ArrowLeft"":3,""ArrowUp,ArrowRight"":36,""ArrowDown,ArrowLeft"":15,""ArrowDown,ArrowRight"":23}","true","ArrowUp,ArrowRight","false","","","","","",""
"html-keyboard-response","67","534619","0.0-3.0-11.0-2.0-1.3","spark_pilot_norest","8582","8","11","Male","","","","","","","null","<div style=""font-size:60px;"">+</div>","null","fixation","","","","","","","","","","","",""
"revaluation","68","540625","0.0-3.0-11.0-2.0-0.4","spark_pilot_norest","8582","8","11","Male","","false","","","","","[814.1000000014901,430.09999999403954]","./assets/img/space/11.jpg","[""ArrowUp"",""ArrowRight""]","practice block","space","36","{""ArrowUp,ArrowLeft"":3,""ArrowUp,ArrowRight"":36,""ArrowDown,ArrowLeft"":15,""ArrowDown,ArrowRight"":23}","true","ArrowUp,ArrowRight","false","","","","","",""
"html-keyboard-response","69","541127","0.0-3.0-11.0-2.0-1.4","spark_pilot_norest","8582","8","11","Male","","","","","","","null","<div style=""font-size:60px;"">+</div>","null","fixation","","","","","","","","","","","",""
"revaluation","70","547133","0.0-3.0-11.0-2.0-0.5","spark_pilot_norest","8582","8","11","Male","","false","","","","","[929.8000000044703,625.1999999955297]","./assets/img/space/12.jpg","[""ArrowUp"",""ArrowRight""]","practice block","space","36","{""ArrowUp,ArrowLeft"":3,""ArrowUp,ArrowRight"":36,""ArrowDown,ArrowLeft"":15,""ArrowDown,ArrowRight"":23}","true","ArrowUp,ArrowRight","false","","","","","",""
"html-keyboard-response","71","547635","0.0-3.0-11.0-2.0-1.5","spark_pilot_norest","8582","8","11","Male","","","","","","","null","<div style=""font-size:60px;"">+</div>","null","fixation","","","","","","","","","","","",""
"revaluation","72","553640","0.0-3.0-11.0-2.0-0.6","spark_pilot_norest","8582","8","11","Male","","false","","","","","[1062.7999999970198,454]","./assets/img/space/13.jpg","[""ArrowUp"",""ArrowRight""]","practice block","space","36","{""ArrowUp,ArrowLeft"":3,""ArrowUp,ArrowRight"":36,""ArrowDown,ArrowLeft"":15,""ArrowDown,ArrowRight"":23}","true","ArrowUp,ArrowRight","false","","","","","",""
"html-keyboard-response","73","554141","0.0-3.0-11.0-2.0-1.6","spark_pilot_norest","8582","8","11","Male","","","","","","","null","<div style=""font-size:60px;"">+</div>","null","fixation","","","","","","","","","","","",""
"revaluation","74","560149","0.0-3.0-11.0-2.0-0.7","spark_pilot_norest","8582","8","11","Male","","false","","","","","[747.5,314.3999999985099]","./assets/img/space/14.jpg","[""ArrowUp"",""ArrowRight""]","practice block","space","36","{""ArrowUp,ArrowLeft"":3,""ArrowUp,ArrowRight"":36,""ArrowDown,ArrowLeft"":15,""ArrowDown,ArrowRight"":23}","true","ArrowUp,ArrowRight","false","","","","","",""
"html-keyboard-response","75","560651","0.0-3.0-11.0-2.0-1.7","spark_pilot_norest","8582","8","11","Male","","","","","","","null","<div style=""font-size:60px;"">+</div>","null","fixation","","","","","","","","","","","",""
"revaluation","76","564656","0.0-3.0-11.0-2.0-0.8","spark_pilot_norest","8582","8","11","Male","","false","","","","","[638.8999999985099]","./assets/img/space/catch/3.jpg","[""spaceBar""]","practice block","space","0","{""ArrowUp,ArrowLeft"":3,""ArrowUp,ArrowRight"":36,""ArrowDown,ArrowLeft"":15,""ArrowDown,ArrowRight"":23}","true","spaceBar","true","","","","","",""
"html-keyboard-response","77","565158","0.0-3.0-11.0-2.0-1.8","spark_pilot_norest","8582","8","11","Male","","","","","","","null","<div style=""font-size:60px;"">+</div>","null","fixation","","","","","","","","","","","",""
"learning-instructions","78","581740","0.0-3.0-11.0-3.0-0.0","spark_pilot_norest","8582","8","11","Male","","","","","","","1089.1000000014901","<p> Now, you will travel with a friend who will choose whether you go up or down first. </p>
            <p> On these turns, you will just see the animal that they found. You will still get to choose which chest to search for treasure.</p>","","instructions","","","","","","","","","","","",""
"revaluation","79","585751","0.0-3.0-11.0-4.0-0.0","spark_pilot_norest","8582","8","11","Male","","false","","","","","[959]","./assets/img/space/animals/rabbit.jpg","[""ArrowRight""]","practice block","space","23","{""ArrowUp,ArrowLeft"":3,""ArrowUp,ArrowRight"":36,""ArrowDown,ArrowLeft"":15,""ArrowDown,ArrowRight"":23}","true","ArrowDown,ArrowRight","","","","","","",""
"html-keyboard-response","80","586266","0.0-3.0-11.0-4.0-1.0","spark_pilot_norest","8582","8","11","Male","","","","","","","null","<div style=""font-size:60px;"">+</div>","null","fixation","","","","","","","","","","","",""
"revaluation","81","590289","0.0-3.0-11.0-4.0-0.1","spark_pilot_norest","8582","8","11","Male","","false","","","","","[496.1000000014901]","./assets/img/space/animals/cat.jpg","[""ArrowRight""]","practice block","space","36","{""ArrowUp,ArrowLeft"":3,""ArrowUp,ArrowRight"":36,""ArrowDown,ArrowLeft"":15,""ArrowDown,ArrowRight"":23}","true","ArrowUp,ArrowRight","","","","","","",""
"html-keyboard-response","82","590790","0.0-3.0-11.0-4.0-1.1","spark_pilot_norest","8582","8","11","Male","","","","","","","null","<div style=""font-size:60px;"">+</div>","null","fixation","","","","","","","","","","","",""
"revaluation","83","594804","0.0-3.0-11.0-4.0-0.2","spark_pilot_norest","8582","8","11","Male","","false","","","","","[275.19999999552965]","./assets/img/space/animals/rabbit.jpg","[""ArrowRight""]","practice block","space","23","{""ArrowUp,ArrowLeft"":3,""ArrowUp,ArrowRight"":36,""ArrowDown,ArrowLeft"":15,""ArrowDown,ArrowRight"":23}","true","ArrowDown,ArrowRight","","","","","","",""
"html-keyboard-response","84","595318","0.0-3.0-11.0-4.0-1.2","spark_pilot_norest","8582","8","11","Male","","","","","","","null","<div style=""font-size:60px;"">+</div>","null","fixation","","","","","","","","","","","",""
"revaluation","85","599343","0.0-3.0-11.0-4.0-0.3","spark_pilot_norest","8582","8","11","Male","","false","","","","","[355.69999999552965]","./assets/img/space/animals/cat.jpg","[""ArrowRight""]","practice block","space","36","{""ArrowUp,ArrowLeft"":3,""ArrowUp,ArrowRight"":36,""ArrowDown,ArrowLeft"":15,""ArrowDown,ArrowRight"":23}","true","ArrowUp,ArrowRight","","","","","","",""
"html-keyboard-response","86","599854","0.0-3.0-11.0-4.0-1.3","spark_pilot_norest","8582","8","11","Male","","","","","","","null","<div style=""font-size:60px;"">+</div>","null","fixation","","","","","","","","","","","",""
"learning-instructions","87","613393","0.0-3.0-11.0-5.0-0.0","spark_pilot_norest","8582","8","11","Male","","","","","","","null","<p> You have almost finished this part of the game! </p>
            <p> We are going to ask you to make a few more choices. </p>","","instructions","","","","","","","","","","","",""
"learning-instructions","88","633078","0.0-3.0-11.0-5.0-0.1","spark_pilot_norest","8582","8","11","Male","","","","","","","null","<p> First, you need to decide whether to go up or down. When you see each picture, use the arrow keys to make your choice. </p>
            <p><b>You will not see which animal you found, but try to get to the one that will give you the most treasure.</b></p>","","instructions","","","","","","","","","","","",""
"html-keyboard-response","89","634090","0.0-3.0-11.0-6.0-0.0","spark_pilot_norest","8582","8","11","Male","","","","","","","null","<div style=""font-size:100px;color:red;"">Starting in...</div>","null","","","","","","","","","","","","",""
"html-keyboard-response","90","635098","0.0-3.0-11.0-6.0-1.0","spark_pilot_norest","8582","8","11","Male","","","","","","","null","<div style=""font-size:200px;color:red;"">3</div>","null","","","","","","","","","","","","",""
"html-keyboard-response","91","636106","0.0-3.0-11.0-6.0-2.0","spark_pilot_norest","8582","8","11","Male","","","","","","","null","<div style=""font-size:200px;color:red;"">2</div>","null","","","","","","","","","","","","",""
"html-keyboard-response","92","637121","0.0-3.0-11.0-6.0-3.0","spark_pilot_norest","8582","8","11","Male","","","","","","","null","<div style=""font-size:200px;color:red;"">1</div>","null","","","","","","","","","","","","",""
"revaluation","93","637709","0.0-3.0-11.0-7.0","spark_pilot_norest","8582","8","11","Male","","false","","","","","[584.8000000044703]","./assets/img/space/15.jpg","[""ArrowUp""]","practice block","space","0","{""ArrowUp,ArrowLeft"":3,""ArrowUp,ArrowRight"":36,""ArrowDown,ArrowLeft"":15,""ArrowDown,ArrowRight"":23}","true","ArrowUp","false","","","","","",""
"html-keyboard-response","94","638221","0.0-3.0-11.0-8.0","spark_pilot_norest","8582","8","11","Male","","","","","","","null","<div style=""font-size:60px;"">+</div>","null","fixation","","","","","","","","","","","",""
"learning-instructions","95","654589","0.0-3.0-11.0-9.0-0.0","spark_pilot_norest","8582","8","11","Male","","","","","","","null","<p> Now you will see the animals again and can search their chests for treasure. </p>
            <p> This time, you will not see how much treasure you earned, but you will earn more bonus money for making better choices. </p>","","instructions","","","","","","","","","","","",""
"html-keyboard-response","96","655594","0.0-3.0-11.0-10.0-0.0","spark_pilot_norest","8582","8","11","Male","","","","","","","null","<div style=""font-size:100px;color:red;"">Starting in...</div>","null","","","","","","","","","","","","",""
"html-keyboard-response","97","656605","0.0-3.0-11.0-10.0-1.0","spark_pilot_norest","8582","8","11","Male","","","","","","","null","<div style=""font-size:200px;color:red;"">3</div>","null","","","","","","","","","","","","",""
"html-keyboard-response","98","657620","0.0-3.0-11.0-10.0-2.0","spark_pilot_norest","8582","8","11","Male","","","","","","","null","<div style=""font-size:200px;color:red;"">2</div>","null","","","","","","","","","","","","",""
"html-keyboard-response","99","658631","0.0-3.0-11.0-10.0-3.0","spark_pilot_norest","8582","8","11","Male","","","","","","","null","<div style=""font-size:200px;color:red;"">1</div>","null","","","","","","","","","","","","",""
"revaluation","100","659420","0.0-3.0-11.0-11.0-0.0","spark_pilot_norest","8582","8","11","Male","","false","","","","","[786]","./assets/img/space/animals/cat.jpg","[""ArrowRight""]","practice block","space","0","{""ArrowUp,ArrowLeft"":3,""ArrowUp,ArrowRight"":36,""ArrowDown,ArrowLeft"":15,""ArrowDown,ArrowRight"":23}","true","ArrowUp,ArrowRight","","","","","","",""
"html-keyboard-response","101","659930","0.0-3.0-11.0-11.0-1.0","spark_pilot_norest","8582","8","11","Male","","","","","","","null","<div style=""font-size:60px;"">+</div>","null","fixation","","","","","","","","","","","",""
"revaluation","102","660701","0.0-3.0-11.0-11.0-0.1","spark_pilot_norest","8582","8","11","Male","","false","","","","","[767.6000000014901]","./assets/img/space/animals/rabbit.jpg","[""ArrowRight""]","practice block","space","0","{""ArrowUp,ArrowLeft"":3,""ArrowUp,ArrowRight"":36,""ArrowDown,ArrowLeft"":15,""ArrowDown,ArrowRight"":23}","true","ArrowDown,ArrowRight","","","","","","",""
"html-keyboard-response","103","661210","0.0-3.0-11.0-11.0-1.1","spark_pilot_norest","8582","8","11","Male","","","","","","","null","<div style=""font-size:60px;"">+</div>","null","fixation","","","","","","","","","","","",""
"learning-instructions","104","668276","0.0-3.0-12.0-0.0","spark_pilot_norest","8582","8","11","Male","","","","","","","1024.5","<p> Before you start, we're going to ask you a few questions about how the game works. </p>","","instructions","","","","","","","","","","","",""
"comp-q","105","676596","0.0-3.0-13.0-0.0-0.0","spark_pilot_norest","8582","8","11","Male","","","","","","","1341.7000000029802","<p> <b> True or False? </b> </p>
            <p> There can be 50 pieces of treasure in a given animal's chest. </p>","1","comp_question","","","","true","","","","","","","",""
"comp-q","106","687556","0.0-3.0-13.0-0.0-1.0","spark_pilot_norest","8582","8","11","Male","","","","","","","2665.89999999851","<p> <b> That's right! </b> The amount of treasure in each chest can range from 0 to 40 pieces. </p>","0","comp_answer","","","","","","","","","","","",""
"comp-q","107","697020","0.0-3.0-13.0-0.1-0.1","spark_pilot_norest","8582","8","11","Male","","","","","","","689.8000000044703","<p> <b> True or False? </b> </p><p> In this game, all animals have the same amount of treasure in their left and right chests. </p>","1","comp_question","","","","true","","","","","","","",""
"comp-q","108","705148","0.0-3.0-13.0-0.1-1.1","spark_pilot_norest","8582","8","11","Male","","","","","","","1416.6000000014901","<p> <b> That's right! </b> Animals have different amounts of treasure in their treasure chests. </p>","0","comp_answer","","","","","","","","","","","",""
"comp-q","109","718291","0.0-3.0-13.0-0.2-0.2","spark_pilot_norest","8582","8","11","Male","","","","","","","5760.5","<p> <b> True or False? </b> </p><p> The same animal will always be there if you go up in the same place. </p>","0","comp_question","","","","true","","","","","","","",""
"comp-q","110","731139","0.0-3.0-13.0-0.2-1.2","spark_pilot_norest","8582","8","11","Male","","","","","","","4640.10000000149","<p> <b> That's right! </b> One animal lives in the upper part and one lives in the lower part of every place. </p>","0","comp_answer","","","","","","","","","","","",""
"comp-q","111","742036","0.0-3.0-13.0-0.3-0.3","spark_pilot_norest","8582","8","11","Male","","","","","","","3655.5","<p> <b> True or False? </b> </p><p> If you see a different picture, it means you are in a new place. </p>","1","comp_question","","","","true","","","","","","","",""
"comp-q","112","756532","0.0-3.0-13.0-0.3-1.3","spark_pilot_norest","8582","8","11","Male","","","","","","","1001.8000000044703","<p> <b> That's right! </b> Lots of different images may show the same place. For example,  you may see three different images that all remind you that you are in outer space. </p>","0","comp_answer","","","","","","","","","","","",""
"learning-instructions","113","770219","0.0-3.0-14.0-0.0","spark_pilot_norest","8582","8","11","Male","","","","","","","1680.2999999970198","<p> Good job. Remember to do your best because the amount of treasure you earn will be converted into bonus money. </p>
            <p> It’s time to start the real game! </p>","","instructions","","","","","","","","","","","",""
"learning-instructions","114","775587","0.0-4.0-0.0-0.0","spark_pilot_norest","8582","8","11","Male","","","","","","","1497.6999999955297","<p> This time you are searching for treasure in the <b>canyon</b>.</p>","","instructions","","","","","","","","","","","",""
"learning-instructions","115","794564","0.0-4.0-0.0-0.1","spark_pilot_norest","8582","8","11","Male","","","","","","","1703.6000000014901","<p><b>New</b> animals with <b>new</b> treasure chests live here. You need to explore to discover where the animal with the best treasure chest is.</p>
                    <p> Like before, once you figure out which animal has the chest with the most treasure, you should try to get to that animal and select that chest! </p>","","instructions","","","","","","","","","","","",""
"learning-instructions","116","810156","0.0-4.0-1.0-0.0","spark_pilot_norest","8582","8","11","Male","","","","","","","865.2000000029802","<p> Remember, when you see a picture of the place, use the up and down keys to <b>find an animal</b>.</p>
            <p> When you encounter an animal, you should use the left and right keys to <b>select a treasure chest</b>.</p>
            <p> Don't forget to look out for the robber! </p>","","instructions","","","","","","","","","","","",""
"revaluation","117","814169","0.0-4.0-2.0-0.0","spark_pilot_norest","8582","8","11","Male","","false","","","","","[1647.3999999985099]","./assets/img/canyon/catch/7.jpg","[""spaceBar""]","value training","canyon","0","{""ArrowUp,ArrowLeft"":26,""ArrowUp,ArrowRight"":10,""ArrowDown,ArrowLeft"":5,""ArrowDown,ArrowRight"":17}","true","spaceBar","true","revaluation","1","0","","",""
"html-keyboard-response","118","814683","0.0-4.0-2.0-1.0","spark_pilot_norest","8582","8","11","Male","","","","","","","null","<div style=""font-size:60px;"">+</div>","null","fixation","","","","","","","","","1","","",""
"revaluation","119","820716","0.0-4.0-2.0-0.1","spark_pilot_norest","8582","8","11","Male","","false","","","","","[831.5,465.59999999403954]","./assets/img/canyon/memory/29.jpg","[""ArrowUp"",""ArrowRight""]","value training","canyon","10","{""ArrowUp,ArrowLeft"":26,""ArrowUp,ArrowRight"":10,""ArrowDown,ArrowLeft"":5,""ArrowDown,ArrowRight"":17}","false","ArrowUp,ArrowRight","false","revaluation","1","2","","",""
"html-keyboard-response","120","821228","0.0-4.0-2.0-1.1","spark_pilot_norest","8582","8","11","Male","","","","","","","null","<div style=""font-size:60px;"">+</div>","null","fixation","","","","","","","","","3","","",""
"revaluation","121","825238","0.0-4.0-2.0-0.2","spark_pilot_norest","8582","8","11","Male","","false","","","","","[670.8999999985099]","./assets/img/canyon/catch/3.jpg","[""spaceBar""]","value training","canyon","0","{""ArrowUp,ArrowLeft"":26,""ArrowUp,ArrowRight"":10,""ArrowDown,ArrowLeft"":5,""ArrowDown,ArrowRight"":17}","true","spaceBar","true","revaluation","1","4","","",""
"html-keyboard-response","122","825753","0.0-4.0-2.0-1.2","spark_pilot_norest","8582","8","11","Male","","","","","","","null","<div style=""font-size:60px;"">+</div>","null","fixation","","","","","","","","","5","","",""
"revaluation","123","831781","0.0-4.0-2.0-0.3","spark_pilot_norest","8582","8","11","Male","","false","","","","","[1119.7000000029802,351.8999999985099]","./assets/img/canyon/memory/26.jpg","[""ArrowUp"",""ArrowLeft""]","value training","canyon","26","{""ArrowUp,ArrowLeft"":26,""ArrowUp,ArrowRight"":10,""ArrowDown,ArrowLeft"":5,""ArrowDown,ArrowRight"":17}","true","ArrowUp,ArrowLeft","false","revaluation","1","6","","",""
"html-keyboard-response","124","832293","0.0-4.0-2.0-1.3","spark_pilot_norest","8582","8","11","Male","","","","","","","null","<div style=""font-size:60px;"">+</div>","null","fixation","","","","","","","","","7","","",""
"revaluation","125","838311","0.0-4.0-2.0-0.4","spark_pilot_norest","8582","8","11","Male","","false","","","","","[851.7000000029802,371.1000000014901]","./assets/img/canyon/memory/5.jpg","[""ArrowDown"",""ArrowRight""]","value training","canyon","17","{""ArrowUp,ArrowLeft"":26,""ArrowUp,ArrowRight"":10,""ArrowDown,ArrowLeft"":5,""ArrowDown,ArrowRight"":17}","false","ArrowDown,ArrowRight","false","revaluation","1","8","","",""
"html-keyboard-response","126","838824","0.0-4.0-2.0-1.4","spark_pilot_norest","8582","8","11","Male","","","","","","","null","<div style=""font-size:60px;"">+</div>","null","fixation","","","","","","","","","9","","",""
"revaluation","127","844830","0.0-4.0-2.0-0.5","spark_pilot_norest","8582","8","11","Male","","false","","","","","[447.5,527]","./assets/img/canyon/memory/32.jpg","[""ArrowDown"",""ArrowLeft""]","value training","canyon","5","{""ArrowUp,ArrowLeft"":26,""ArrowUp,ArrowRight"":10,""ArrowDown,ArrowLeft"":5,""ArrowDown,ArrowRight"":17}","false","ArrowDown,ArrowLeft","false","revaluation","1","10","","",""
"html-keyboard-response","128","845331","0.0-4.0-2.0-1.5","spark_pilot_norest","8582","8","11","Male","","","","","","","null","<div style=""font-size:60px;"">+</div>","null","fixation","","","","","","","","","11","","",""
"revaluation","129","851338","0.0-4.0-2.0-0.6","spark_pilot_norest","8582","8","11","Male","","false","","","","","[757.5,738.8999999985099]","./assets/img/canyon/memory/8.jpg","[""ArrowUp"",""ArrowLeft""]","value training","canyon","26","{""ArrowUp,ArrowLeft"":26,""ArrowUp,ArrowRight"":10,""ArrowDown,ArrowLeft"":5,""ArrowDown,ArrowRight"":17}","true","ArrowUp,ArrowLeft","false","revaluation","1","12","","",""
"html-keyboard-response","130","851840","0.0-4.0-2.0-1.6","spark_pilot_norest","8582","8","11","Male","","","","","","","null","<div style=""font-size:60px;"">+</div>","null","fixation","","","","","","","","","13","","",""
"revaluation","131","857846","0.0-4.0-2.0-0.7","spark_pilot_norest","8582","8","11","Male","","false","","","","","[1144.1999999955297,359.3999999985099]","./assets/img/canyon/memory/29.jpg","[""ArrowUp"",""ArrowLeft""]","value training","canyon","26","{""ArrowUp,ArrowLeft"":26,""ArrowUp,ArrowRight"":10,""ArrowDown,ArrowLeft"":5,""ArrowDown,ArrowRight"":17}","true","ArrowUp,ArrowLeft","false","revaluation","1","14","","",""
"html-keyboard-response","132","858347","0.0-4.0-2.0-1.7","spark_pilot_norest","8582","8","11","Male","","","","","","","null","<div style=""font-size:60px;"">+</div>","null","fixation","","","","","","","","","15","","",""
"revaluation","133","864355","0.0-4.0-2.0-0.8","spark_pilot_norest","8582","8","11","Male","","false","","","","","[907.3000000044703,489.69999999552965]","./assets/img/canyon/memory/32.jpg","[""ArrowUp"",""ArrowLeft""]","value training","canyon","26","{""ArrowUp,ArrowLeft"":26,""ArrowUp,ArrowRight"":10,""ArrowDown,ArrowLeft"":5,""ArrowDown,ArrowRight"":17}","true","ArrowUp,ArrowLeft","false","revaluation","1","16","","",""
"html-keyboard-response","134","864856","0.0-4.0-2.0-1.8","spark_pilot_norest","8582","8","11","Male","","","","","","","null","<div style=""font-size:60px;"">+</div>","null","fixation","","","","","","","","","17","","",""
"revaluation","135","870864","0.0-4.0-2.0-0.9","spark_pilot_norest","8582","8","11","Male","","false","","","","","[672,895.6000000014901]","./assets/img/canyon/memory/16.jpg","[""ArrowUp"",""ArrowLeft""]","value training","canyon","26","{""ArrowUp,ArrowLeft"":26,""ArrowUp,ArrowRight"":10,""ArrowDown,ArrowLeft"":5,""ArrowDown,ArrowRight"":17}","true","ArrowUp,ArrowLeft","false","revaluation","1","18","","",""
"html-keyboard-response","136","871365","0.0-4.0-2.0-1.9","spark_pilot_norest","8582","8","11","Male","","","","","","","null","<div style=""font-size:60px;"">+</div>","null","fixation","","","","","","","","","19","","",""
"revaluation","137","875372","0.0-4.0-2.0-0.10","spark_pilot_norest","8582","8","11","Male","","false","","","","","[578.3999999985099]","./assets/img/canyon/catch/6.jpg","[""spaceBar""]","value training","canyon","0","{""ArrowUp,ArrowLeft"":26,""ArrowUp,ArrowRight"":10,""ArrowDown,ArrowLeft"":5,""ArrowDown,ArrowRight"":17}","true","spaceBar","true","revaluation","1","20","","",""
"html-keyboard-response","138","875875","0.0-4.0-2.0-1.10","spark_pilot_norest","8582","8","11","Male","","","","","","","null","<div style=""font-size:60px;"">+</div>","null","fixation","","","","","","","","","21","","",""
"revaluation","139","881882","0.0-4.0-2.0-0.11","spark_pilot_norest","8582","8","11","Male","","false","","","","","[772.6999999955297,660.2000000029802]","./assets/img/canyon/memory/7.jpg","[""ArrowUp"",""ArrowLeft""]","value training","canyon","26","{""ArrowUp,ArrowLeft"":26,""ArrowUp,ArrowRight"":10,""ArrowDown,ArrowLeft"":5,""ArrowDown,ArrowRight"":17}","true","ArrowUp,ArrowLeft","false","revaluation","1","22","","",""
"html-keyboard-response","140","882383","0.0-4.0-2.0-1.11","spark_pilot_norest","8582","8","11","Male","","","","","","","null","<div style=""font-size:60px;"">+</div>","null","fixation","","","","","","","","","23","","",""
"revaluation","141","888388","0.0-4.0-2.0-0.12","spark_pilot_norest","8582","8","11","Male","","false","","","","","[953.3000000044703,519.6999999955297]","./assets/img/canyon/memory/41.jpg","[""ArrowUp"",""ArrowLeft""]","value training","canyon","26","{""ArrowUp,ArrowLeft"":26,""ArrowUp,ArrowRight"":10,""ArrowDown,ArrowLeft"":5,""ArrowDown,ArrowRight"":17}","true","ArrowUp,ArrowLeft","false","revaluation","1","24","","",""
"html-keyboard-response","142","888890","0.0-4.0-2.0-1.12","spark_pilot_norest","8582","8","11","Male","","","","","","","null","<div style=""font-size:60px;"">+</div>","null","fixation","","","","","","","","","25","","",""
"revaluation","143","894896","0.0-4.0-2.0-0.13","spark_pilot_norest","8582","8","11","Male","","false","","","","","[781.7999999970198,604.7000000029802]","./assets/img/canyon/memory/8.jpg","[""ArrowUp"",""ArrowLeft""]","value training","canyon","26","{""ArrowUp,ArrowLeft"":26,""ArrowUp,ArrowRight"":10,""ArrowDown,ArrowLeft"":5,""ArrowDown,ArrowRight"":17}","true","ArrowUp,ArrowLeft","false","revaluation","1","26","","",""
"html-keyboard-response","144","895398","0.0-4.0-2.0-1.13","spark_pilot_norest","8582","8","11","Male","","","","","","","null","<div style=""font-size:60px;"">+</div>","null","fixation","","","","","","","","","27","","",""
"revaluation","145","901413","0.0-4.0-2.0-0.14","spark_pilot_norest","8582","8","11","Male","","false","","","","","[835.6999999955297,397.6000000014901]","./assets/img/canyon/memory/9.jpg","[""ArrowUp"",""ArrowLeft""]","value training","canyon","26","{""ArrowUp,ArrowLeft"":26,""ArrowUp,ArrowRight"":10,""ArrowDown,ArrowLeft"":5,""ArrowDown,ArrowRight"":17}","true","ArrowUp,ArrowLeft","false","revaluation","1","28","","",""
"html-keyboard-response","146","901915","0.0-4.0-2.0-1.14","spark_pilot_norest","8582","8","11","Male","","","","","","","null","<div style=""font-size:60px;"">+</div>","null","fixation","","","","","","","","","29","","",""
"revaluation","147","907922","0.0-4.0-2.0-0.15","spark_pilot_norest","8582","8","11","Male","","false","","","","","[860.2999999970198,363.3999999985099]","./assets/img/canyon/memory/3.jpg","[""ArrowUp"",""ArrowLeft""]","value training","canyon","26","{""ArrowUp,ArrowLeft"":26,""ArrowUp,ArrowRight"":10,""ArrowDown,ArrowLeft"":5,""ArrowDown,ArrowRight"":17}","true","ArrowUp,ArrowLeft","false","revaluation","1","30","","",""
"html-keyboard-response","148","908424","0.0-4.0-2.0-1.15","spark_pilot_norest","8582","8","11","Male","","","","","","","null","<div style=""font-size:60px;"">+</div>","null","fixation","","","","","","","","","31","","",""
"revaluation","149","914430","0.0-4.0-2.0-0.16","spark_pilot_norest","8582","8","11","Male","","false","","","","","[833.3000000044703,495.69999999552965]","./assets/img/canyon/memory/0.jpg","[""ArrowUp"",""ArrowLeft""]","value training","canyon","26","{""ArrowUp,ArrowLeft"":26,""ArrowUp,ArrowRight"":10,""ArrowDown,ArrowLeft"":5,""ArrowDown,ArrowRight"":17}","true","ArrowUp,ArrowLeft","false","revaluation","1","32","","",""
"html-keyboard-response","150","914933","0.0-4.0-2.0-1.16","spark_pilot_norest","8582","8","11","Male","","","","","","","null","<div style=""font-size:60px;"">+</div>","null","fixation","","","","","","","","","33","","",""
"revaluation","151","920940","0.0-4.0-2.0-0.17","spark_pilot_norest","8582","8","11","Male","","false","","","","","[945.8999999985099,737.2999999970198]","./assets/img/canyon/memory/3.jpg","[""ArrowUp"",""ArrowLeft""]","value training","canyon","26","{""ArrowUp,ArrowLeft"":26,""ArrowUp,ArrowRight"":10,""ArrowDown,ArrowLeft"":5,""ArrowDown,ArrowRight"":17}","true","ArrowUp,ArrowLeft","false","revaluation","1","34","","",""
"html-keyboard-response","152","921442","0.0-4.0-2.0-1.17","spark_pilot_norest","8582","8","11","Male","","","","","","","null","<div style=""font-size:60px;"">+</div>","null","fixation","","","","","","","","","35","","",""
"revaluation","153","925447","0.0-4.0-2.0-0.18","spark_pilot_norest","8582","8","11","Male","","false","","","","","[663.3999999985099]","./assets/img/canyon/catch/2.jpg","[""spaceBar""]","value training","canyon","0","{""ArrowUp,ArrowLeft"":26,""ArrowUp,ArrowRight"":10,""ArrowDown,ArrowLeft"":5,""ArrowDown,ArrowRight"":17}","true","spaceBar","true","revaluation","1","36","","",""
"html-keyboard-response","154","925950","0.0-4.0-2.0-1.18","spark_pilot_norest","8582","8","11","Male","","","","","","","null","<div style=""font-size:60px;"">+</div>","null","fixation","","","","","","","","","37","","",""
"revaluation","155","929955","0.0-4.0-2.0-0.19","spark_pilot_norest","8582","8","11","Male","","false","","","","","[777.5999999940395]","./assets/img/canyon/catch/1.jpg","[""spaceBar""]","value training","canyon","0","{""ArrowUp,ArrowLeft"":26,""ArrowUp,ArrowRight"":10,""ArrowDown,ArrowLeft"":5,""ArrowDown,ArrowRight"":17}","true","spaceBar","true","revaluation","1","38","","",""
"html-keyboard-response","156","930456","0.0-4.0-2.0-1.19","spark_pilot_norest","8582","8","11","Male","","","","","","","null","<div style=""font-size:60px;"">+</div>","null","fixation","","","","","","","","","39","","",""
"revaluation","157","936463","0.0-4.0-2.0-0.20","spark_pilot_norest","8582","8","11","Male","","false","","","","","[1103.6000000014901,735]","./assets/img/canyon/memory/17.jpg","[""ArrowUp"",""ArrowLeft""]","value training","canyon","26","{""ArrowUp,ArrowLeft"":26,""ArrowUp,ArrowRight"":10,""ArrowDown,ArrowLeft"":5,""ArrowDown,ArrowRight"":17}","true","ArrowUp,ArrowLeft","false","revaluation","1","40","","",""
"html-keyboard-response","158","936965","0.0-4.0-2.0-1.20","spark_pilot_norest","8582","8","11","Male","","","","","","","null","<div style=""font-size:60px;"">+</div>","null","fixation","","","","","","","","","41","","",""
"revaluation","159","942971","0.0-4.0-2.0-0.21","spark_pilot_norest","8582","8","11","Male","","false","","","","","[754.7000000029802,785.8999999985099]","./assets/img/canyon/memory/37.jpg","[""ArrowUp"",""ArrowLeft""]","value training","canyon","26","{""ArrowUp,ArrowLeft"":26,""ArrowUp,ArrowRight"":10,""ArrowDown,ArrowLeft"":5,""ArrowDown,ArrowRight"":17}","true","ArrowUp,ArrowLeft","false","revaluation","1","42","","",""
"html-keyboard-response","160","943473","0.0-4.0-2.0-1.21","spark_pilot_norest","8582","8","11","Male","","","","","","","null","<div style=""font-size:60px;"">+</div>","null","fixation","","","","","","","","","43","","",""
"revaluation","161","949479","0.0-4.0-2.0-0.22","spark_pilot_norest","8582","8","11","Male","","false","","","","","[710.6999999955297,533.1999999955297]","./assets/img/canyon/memory/40.jpg","[""ArrowUp"",""ArrowLeft""]","value training","canyon","26","{""ArrowUp,ArrowLeft"":26,""ArrowUp,ArrowRight"":10,""ArrowDown,ArrowLeft"":5,""ArrowDown,ArrowRight"":17}","true","ArrowUp,ArrowLeft","false","revaluation","1","44","","",""
"html-keyboard-response","162","949981","0.0-4.0-2.0-1.22","spark_pilot_norest","8582","8","11","Male","","","","","","","null","<div style=""font-size:60px;"">+</div>","null","fixation","","","","","","","","","45","","",""
"revaluation","163","955988","0.0-4.0-2.0-0.23","spark_pilot_norest","8582","8","11","Male","","false","","","","","[858.7999999970198,617.8999999985099]","./assets/img/canyon/memory/1.jpg","[""ArrowUp"",""ArrowLeft""]","value training","canyon","26","{""ArrowUp,ArrowLeft"":26,""ArrowUp,ArrowRight"":10,""ArrowDown,ArrowLeft"":5,""ArrowDown,ArrowRight"":17}","true","ArrowUp,ArrowLeft","false","revaluation","1","46","","",""
"html-keyboard-response","164","956490","0.0-4.0-2.0-1.23","spark_pilot_norest","8582","8","11","Male","","","","","","","null","<div style=""font-size:60px;"">+</div>","null","fixation","","","","","","","","","47","","",""
"revaluation","165","962496","0.0-4.0-2.0-0.24","spark_pilot_norest","8582","8","11","Male","","false","","","","","[815.1000000014901,461.09999999403954]","./assets/img/canyon/memory/40.jpg","[""ArrowUp"",""ArrowLeft""]","value training","canyon","26","{""ArrowUp,ArrowLeft"":26,""ArrowUp,ArrowRight"":10,""ArrowDown,ArrowLeft"":5,""ArrowDown,ArrowRight"":17}","true","ArrowUp,ArrowLeft","false","revaluation","1","48","","",""
"html-keyboard-response","166","962999","0.0-4.0-2.0-1.24","spark_pilot_norest","8582","8","11","Male","","","","","","","null","<div style=""font-size:60px;"">+</div>","null","fixation","","","","","","","","","49","","",""
"revaluation","167","969007","0.0-4.0-2.0-0.25","spark_pilot_norest","8582","8","11","Male","","false","","","","","[895.5,526.3999999985099]","./assets/img/canyon/memory/2.jpg","[""ArrowUp"",""ArrowLeft""]","value training","canyon","26","{""ArrowUp,ArrowLeft"":26,""ArrowUp,ArrowRight"":10,""ArrowDown,ArrowLeft"":5,""ArrowDown,ArrowRight"":17}","true","ArrowUp,ArrowLeft","false","revaluation","1","50","","",""
"html-keyboard-response","168","969510","0.0-4.0-2.0-1.25","spark_pilot_norest","8582","8","11","Male","","","","","","","null","<div style=""font-size:60px;"">+</div>","null","fixation","","","","","","","","","51","","",""
"revaluation","169","975515","0.0-4.0-2.0-0.26","spark_pilot_norest","8582","8","11","Male","","false","","","","","[948.3000000044703,722.5]","./assets/img/canyon/memory/7.jpg","[""ArrowUp"",""ArrowLeft""]","value training","canyon","26","{""ArrowUp,ArrowLeft"":26,""ArrowUp,ArrowRight"":10,""ArrowDown,ArrowLeft"":5,""ArrowDown,ArrowRight"":17}","true","ArrowUp,ArrowLeft","false","revaluation","1","52","","",""
"html-keyboard-response","170","976017","0.0-4.0-2.0-1.26","spark_pilot_norest","8582","8","11","Male","","","","","","","null","<div style=""font-size:60px;"">+</div>","null","fixation","","","","","","","","","53","","",""
"revaluation","171","982024","0.0-4.0-2.0-0.27","spark_pilot_norest","8582","8","11","Male","","false","","","","","[919.7999999970198,374.19999999552965]","./assets/img/canyon/memory/2.jpg","[""ArrowUp"",""ArrowLeft""]","value training","canyon","26","{""ArrowUp,ArrowLeft"":26,""ArrowUp,ArrowRight"":10,""ArrowDown,ArrowLeft"":5,""ArrowDown,ArrowRight"":17}","true","ArrowUp,ArrowLeft","false","revaluation","1","54","","",""
"html-keyboard-response","172","982526","0.0-4.0-2.0-1.27","spark_pilot_norest","8582","8","11","Male","","","","","","","null","<div style=""font-size:60px;"">+</div>","null","fixation","","","","","","","","","55","","",""
"revaluation","173","988532","0.0-4.0-2.0-0.28","spark_pilot_norest","8582","8","11","Male","","false","","","","","[826.8999999985099,474.20000000298023]","./assets/img/canyon/memory/35.jpg","[""ArrowUp"",""ArrowLeft""]","value training","canyon","26","{""ArrowUp,ArrowLeft"":26,""ArrowUp,ArrowRight"":10,""ArrowDown,ArrowLeft"":5,""ArrowDown,ArrowRight"":17}","true","ArrowUp,ArrowLeft","false","revaluation","1","56","","",""
"html-keyboard-response","174","989034","0.0-4.0-2.0-1.28","spark_pilot_norest","8582","8","11","Male","","","","","","","null","<div style=""font-size:60px;"">+</div>","null","fixation","","","","","","","","","57","","",""
"revaluation","175","995042","0.0-4.0-2.0-0.29","spark_pilot_norest","8582","8","11","Male","","false","","","","","[1117.3000000044703,732.2999999970198]","./assets/img/canyon/memory/17.jpg","[""ArrowUp"",""ArrowLeft""]","value training","canyon","26","{""ArrowUp,ArrowLeft"":26,""ArrowUp,ArrowRight"":10,""ArrowDown,ArrowLeft"":5,""ArrowDown,ArrowRight"":17}","true","ArrowUp,ArrowLeft","false","revaluation","1","58","","",""
"html-keyboard-response","176","995544","0.0-4.0-2.0-1.29","spark_pilot_norest","8582","8","11","Male","","","","","","","null","<div style=""font-size:60px;"">+</div>","null","fixation","","","","","","","","","59","","",""
"revaluation","177","1001550","0.0-4.0-2.0-0.30","spark_pilot_norest","8582","8","11","Male","","false","","","","","[1009.3000000044703,383.5]","./assets/img/canyon/memory/26.jpg","[""ArrowUp"",""ArrowLeft""]","value training","canyon","26","{""ArrowUp,ArrowLeft"":26,""ArrowUp,ArrowRight"":10,""ArrowDown,ArrowLeft"":5,""ArrowDown,ArrowRight"":17}","true","ArrowUp,ArrowLeft","false","revaluation","1","60","","",""
"html-keyboard-response","178","1002052","0.0-4.0-2.0-1.30","spark_pilot_norest","8582","8","11","Male","","","","","","","null","<div style=""font-size:60px;"">+</div>","null","fixation","","","","","","","","","61","","",""
"revaluation","179","1008059","0.0-4.0-2.0-0.31","spark_pilot_norest","8582","8","11","Male","","false","","","","","[1092.3999999985099,386.6000000014901]","./assets/img/canyon/memory/9.jpg","[""ArrowUp"",""ArrowLeft""]","value training","canyon","26","{""ArrowUp,ArrowLeft"":26,""ArrowUp,ArrowRight"":10,""ArrowDown,ArrowLeft"":5,""ArrowDown,ArrowRight"":17}","true","ArrowUp,ArrowLeft","false","revaluation","1","62","","",""
"html-keyboard-response","180","1008560","0.0-4.0-2.0-1.31","spark_pilot_norest","8582","8","11","Male","","","","","","","null","<div style=""font-size:60px;"">+</div>","null","fixation","","","","","","","","","63","","",""
"revaluation","181","1014566","0.0-4.0-2.0-0.32","spark_pilot_norest","8582","8","11","Male","","false","","","","","[825,486.5]","./assets/img/canyon/memory/5.jpg","[""ArrowUp"",""ArrowLeft""]","value training","canyon","26","{""ArrowUp,ArrowLeft"":26,""ArrowUp,ArrowRight"":10,""ArrowDown,ArrowLeft"":5,""ArrowDown,ArrowRight"":17}","true","ArrowUp,ArrowLeft","false","revaluation","1","64","","",""
"html-keyboard-response","182","1015068","0.0-4.0-2.0-1.32","spark_pilot_norest","8582","8","11","Male","","","","","","","null","<div style=""font-size:60px;"">+</div>","null","fixation","","","","","","","","","65","","",""
"revaluation","183","1021074","0.0-4.0-2.0-0.33","spark_pilot_norest","8582","8","11","Male","","false","","","","","[893.7000000029802,476.09999999403954]","./assets/img/canyon/memory/21.jpg","[""ArrowUp"",""ArrowLeft""]","value training","canyon","26","{""ArrowUp,ArrowLeft"":26,""ArrowUp,ArrowRight"":10,""ArrowDown,ArrowLeft"":5,""ArrowDown,ArrowRight"":17}","true","ArrowUp,ArrowLeft","false","revaluation","1","66","","",""
"html-keyboard-response","184","1021575","0.0-4.0-2.0-1.33","spark_pilot_norest","8582","8","11","Male","","","","","","","null","<div style=""font-size:60px;"">+</div>","null","fixation","","","","","","","","","67","","",""
"revaluation","185","1027581","0.0-4.0-2.0-0.34","spark_pilot_norest","8582","8","11","Male","","false","","","","","[721.3999999985099,432.1000000014901]","./assets/img/canyon/memory/16.jpg","[""ArrowUp"",""ArrowLeft""]","value training","canyon","26","{""ArrowUp,ArrowLeft"":26,""ArrowUp,ArrowRight"":10,""ArrowDown,ArrowLeft"":5,""ArrowDown,ArrowRight"":17}","true","ArrowUp,ArrowLeft","false","revaluation","1","68","","",""
"html-keyboard-response","186","1028083","0.0-4.0-2.0-1.34","spark_pilot_norest","8582","8","11","Male","","","","","","","null","<div style=""font-size:60px;"">+</div>","null","fixation","","","","","","","","","69","","",""
"revaluation","187","1034093","0.0-4.0-2.0-0.35","spark_pilot_norest","8582","8","11","Male","","false","","","","","[806.1999999955297,629.5]","./assets/img/canyon/memory/23.jpg","[""ArrowUp"",""ArrowLeft""]","value training","canyon","26","{""ArrowUp,ArrowLeft"":26,""ArrowUp,ArrowRight"":10,""ArrowDown,ArrowLeft"":5,""ArrowDown,ArrowRight"":17}","true","ArrowUp,ArrowLeft","false","revaluation","1","70","","",""
"html-keyboard-response","188","1034594","0.0-4.0-2.0-1.35","spark_pilot_norest","8582","8","11","Male","","","","","","","null","<div style=""font-size:60px;"">+</div>","null","fixation","","","","","","","","","71","","",""
"revaluation","189","1040600","0.0-4.0-2.0-0.36","spark_pilot_norest","8582","8","11","Male","","false","","","","","[758.7000000029802,645.2000000029802]","./assets/img/canyon/memory/0.jpg","[""ArrowUp"",""ArrowLeft""]","value training","canyon","26","{""ArrowUp,ArrowLeft"":26,""ArrowUp,ArrowRight"":10,""ArrowDown,ArrowLeft"":5,""ArrowDown,ArrowRight"":17}","true","ArrowUp,ArrowLeft","false","revaluation","1","72","","",""
"html-keyboard-response","190","1041102","0.0-4.0-2.0-1.36","spark_pilot_norest","8582","8","11","Male","","","","","","","null","<div style=""font-size:60px;"">+</div>","null","fixation","","","","","","","","","73","","",""
"revaluation","191","1047107","0.0-4.0-2.0-0.37","spark_pilot_norest","8582","8","11","Male","","false","","","","","[745.5,601.5]","./assets/img/canyon/memory/35.jpg","[""ArrowUp"",""ArrowLeft""]","value training","canyon","26","{""ArrowUp,ArrowLeft"":26,""ArrowUp,ArrowRight"":10,""ArrowDown,ArrowLeft"":5,""ArrowDown,ArrowRight"":17}","true","ArrowUp,ArrowLeft","false","revaluation","1","74","","",""
"html-keyboard-response","192","1047609","0.0-4.0-2.0-1.37","spark_pilot_norest","8582","8","11","Male","","","","","","","null","<div style=""font-size:60px;"">+</div>","null","fixation","","","","","","","","","75","","",""
"revaluation","193","1051615","0.0-4.0-2.0-0.38","spark_pilot_norest","8582","8","11","Male","","false","","","","","[735.3999999985099]","./assets/img/canyon/catch/4.jpg","[""spaceBar""]","value training","canyon","0","{""ArrowUp,ArrowLeft"":26,""ArrowUp,ArrowRight"":10,""ArrowDown,ArrowLeft"":5,""ArrowDown,ArrowRight"":17}","true","spaceBar","true","revaluation","1","76","","",""
"html-keyboard-response","194","1052117","0.0-4.0-2.0-1.38","spark_pilot_norest","8582","8","11","Male","","","","","","","null","<div style=""font-size:60px;"">+</div>","null","fixation","","","","","","","","","77","","",""
"revaluation","195","1058124","0.0-4.0-2.0-0.39","spark_pilot_norest","8582","8","11","Male","","false","","","","","[914.8999999985099,578]","./assets/img/canyon/memory/23.jpg","[""ArrowUp"",""ArrowLeft""]","value training","canyon","26","{""ArrowUp,ArrowLeft"":26,""ArrowUp,ArrowRight"":10,""ArrowDown,ArrowLeft"":5,""ArrowDown,ArrowRight"":17}","true","ArrowUp,ArrowLeft","false","revaluation","1","78","","",""
"html-keyboard-response","196","1058625","0.0-4.0-2.0-1.39","spark_pilot_norest","8582","8","11","Male","","","","","","","null","<div style=""font-size:60px;"">+</div>","null","fixation","","","","","","","","","79","","",""
"revaluation","197","1064631","0.0-4.0-2.0-0.40","spark_pilot_norest","8582","8","11","Male","","false","","","","","[1287.1000000014901,582.9000000059605]","./assets/img/canyon/memory/27.jpg","[""ArrowUp"",""ArrowLeft""]","value training","canyon","26","{""ArrowUp,ArrowLeft"":26,""ArrowUp,ArrowRight"":10,""ArrowDown,ArrowLeft"":5,""ArrowDown,ArrowRight"":17}","true","ArrowUp,ArrowLeft","false","revaluation","1","80","","",""
"html-keyboard-response","198","1065132","0.0-4.0-2.0-1.40","spark_pilot_norest","8582","8","11","Male","","","","","","","null","<div style=""font-size:60px;"">+</div>","null","fixation","","","","","","","","","81","","",""
"revaluation","199","1071137","0.0-4.0-2.0-0.41","spark_pilot_norest","8582","8","11","Male","","false","","","","","[813.5,556.3999999985099]","./assets/img/canyon/memory/1.jpg","[""ArrowUp"",""ArrowLeft""]","value training","canyon","26","{""ArrowUp,ArrowLeft"":26,""ArrowUp,ArrowRight"":10,""ArrowDown,ArrowLeft"":5,""ArrowDown,ArrowRight"":17}","true","ArrowUp,ArrowLeft","false","revaluation","1","82","","",""
"html-keyboard-response","200","1071639","0.0-4.0-2.0-1.41","spark_pilot_norest","8582","8","11","Male","","","","","","","null","<div style=""font-size:60px;"">+</div>","null","fixation","","","","","","","","","83","","",""
"revaluation","201","1075643","0.0-4.0-2.0-0.42","spark_pilot_norest","8582","8","11","Male","","false","","","","","[723.3999999985099]","./assets/img/canyon/catch/5.jpg","[""spaceBar""]","value training","canyon","0","{""ArrowUp,ArrowLeft"":26,""ArrowUp,ArrowRight"":10,""ArrowDown,ArrowLeft"":5,""ArrowDown,ArrowRight"":17}","true","spaceBar","true","revaluation","1","84","","",""
"html-keyboard-response","202","1076144","0.0-4.0-2.0-1.42","spark_pilot_norest","8582","8","11","Male","","","","","","","null","<div style=""font-size:60px;"">+</div>","null","fixation","","","","","","","","","85","","",""
"revaluation","203","1082150","0.0-4.0-2.0-0.43","spark_pilot_norest","8582","8","11","Male","","false","","","","","[502.80000000447035,822.6999999955297]","./assets/img/canyon/memory/37.jpg","[""ArrowDown"",""ArrowRight""]","value training","canyon","17","{""ArrowUp,ArrowLeft"":26,""ArrowUp,ArrowRight"":10,""ArrowDown,ArrowLeft"":5,""ArrowDown,ArrowRight"":17}","false","ArrowDown,ArrowRight","false","revaluation","1","86","","",""
"html-keyboard-response","204","1082653","0.0-4.0-2.0-1.43","spark_pilot_norest","8582","8","11","Male","","","","","","","null","<div style=""font-size:60px;"">+</div>","null","fixation","","","","","","","","","87","","",""
"revaluation","205","1088659","0.0-4.0-2.0-0.44","spark_pilot_norest","8582","8","11","Male","","false","","","","","[459.5,522.6999999955297]","./assets/img/canyon/memory/41.jpg","[""ArrowUp"",""ArrowLeft""]","value training","canyon","26","{""ArrowUp,ArrowLeft"":26,""ArrowUp,ArrowRight"":10,""ArrowDown,ArrowLeft"":5,""ArrowDown,ArrowRight"":17}","true","ArrowUp,ArrowLeft","false","revaluation","1","88","","",""
"html-keyboard-response","206","1089160","0.0-4.0-2.0-1.44","spark_pilot_norest","8582","8","11","Male","","","","","","","null","<div style=""font-size:60px;"">+</div>","null","fixation","","","","","","","","","89","","",""
"revaluation","207","1095173","0.0-4.0-2.0-0.45","spark_pilot_norest","8582","8","11","Male","","false","","","","","[1057.7000000029802,424.3999999985099]","./assets/img/canyon/memory/21.jpg","[""ArrowUp"",""ArrowLeft""]","value training","canyon","26","{""ArrowUp,ArrowLeft"":26,""ArrowUp,ArrowRight"":10,""ArrowDown,ArrowLeft"":5,""ArrowDown,ArrowRight"":17}","true","ArrowUp,ArrowLeft","false","revaluation","1","90","","",""
"html-keyboard-response","208","1095675","0.0-4.0-2.0-1.45","spark_pilot_norest","8582","8","11","Male","","","","","","","null","<div style=""font-size:60px;"">+</div>","null","fixation","","","","","","","","","91","","",""
"revaluation","209","1101680","0.0-4.0-2.0-0.46","spark_pilot_norest","8582","8","11","Male","","false","","","","","[941.8999999985099,284.29999999701977]","./assets/img/canyon/memory/11.jpg","[""ArrowUp"",""ArrowLeft""]","value training","canyon","26","{""ArrowUp,ArrowLeft"":26,""ArrowUp,ArrowRight"":10,""ArrowDown,ArrowLeft"":5,""ArrowDown,ArrowRight"":17}","true","ArrowUp,ArrowLeft","false","revaluation","1","92","","",""
"html-keyboard-response","210","1102182","0.0-4.0-2.0-1.46","spark_pilot_norest","8582","8","11","Male","","","","","","","null","<div style=""font-size:60px;"">+</div>","null","fixation","","","","","","","","","93","","",""
"revaluation","211","1106187","0.0-4.0-2.0-0.47","spark_pilot_norest","8582","8","11","Male","","false","","","","","[721.6000000014901]","./assets/img/canyon/catch/0.jpg","[""spaceBar""]","value training","canyon","0","{""ArrowUp,ArrowLeft"":26,""ArrowUp,ArrowRight"":10,""ArrowDown,ArrowLeft"":5,""ArrowDown,ArrowRight"":17}","true","spaceBar","true","revaluation","1","94","","",""
"html-keyboard-response","212","1106689","0.0-4.0-2.0-1.47","spark_pilot_norest","8582","8","11","Male","","","","","","","null","<div style=""font-size:60px;"">+</div>","null","fixation","","","","","","","","","95","","",""
"revaluation","213","1112695","0.0-4.0-2.0-0.48","spark_pilot_norest","8582","8","11","Male","","false","","","","","[727.8999999985099,453.8999999985099]","./assets/img/canyon/memory/11.jpg","[""ArrowUp"",""ArrowLeft""]","value training","canyon","26","{""ArrowUp,ArrowLeft"":26,""ArrowUp,ArrowRight"":10,""ArrowDown,ArrowLeft"":5,""ArrowDown,ArrowRight"":17}","true","ArrowUp,ArrowLeft","false","revaluation","1","96","","",""
"html-keyboard-response","214","1113197","0.0-4.0-2.0-1.48","spark_pilot_norest","8582","8","11","Male","","","","","","","null","<div style=""font-size:60px;"">+</div>","null","fixation","","","","","","","","","97","","",""
"revaluation","215","1119203","0.0-4.0-2.0-0.49","spark_pilot_norest","8582","8","11","Male","","false","","","","","[811.6000000014901,587]","./assets/img/canyon/memory/27.jpg","[""ArrowUp"",""ArrowLeft""]","value training","canyon","26","{""ArrowUp,ArrowLeft"":26,""ArrowUp,ArrowRight"":10,""ArrowDown,ArrowLeft"":5,""ArrowDown,ArrowRight"":17}","true","ArrowUp,ArrowLeft","false","revaluation","1","98","","",""
"html-keyboard-response","216","1119705","0.0-4.0-2.0-1.49","spark_pilot_norest","8582","8","11","Male","","","","","","","null","<div style=""font-size:60px;"">+</div>","null","fixation","","","","","","","","","99","","",""
"learning-instructions","217","1137235","0.0-4.0-3.0-0.0","spark_pilot_norest","8582","8","11","Male","","","","","","","4586.60000000149","<p> Now, you will travel with a friend who will choose whether you go up or down first. </p>
            <p> On these turns, you will just see the animal that they found. You will still get to choose which chest to search for treasure.</p>","","instructions","","","","","","","","","","","",""
"revaluation","218","1141246","0.0-4.0-4.0-0.0","spark_pilot_norest","8582","8","11","Male","","false","","","","","[1975.0999999940395]","./assets/img/canyon/animals/lion.jpg","[""ArrowRight""]","revaluation","canyon","27","{""ArrowUp,ArrowLeft"":2,""ArrowUp,ArrowRight"":11,""ArrowDown,ArrowLeft"":8,""ArrowDown,ArrowRight"":27}","true","ArrowDown,ArrowRight","","revaluation","1","0","","",""
"html-keyboard-response","219","1141755","0.0-4.0-4.0-1.0","spark_pilot_norest","8582","8","11","Male","","","","","","","null","<div style=""font-size:60px;"">+</div>","null","fixation","","","","","","","","","1","","",""
"revaluation","220","1145776","0.0-4.0-4.0-0.1","spark_pilot_norest","8582","8","11","Male","","false","","","","","[717.6000000014901]","./assets/img/canyon/animals/giraffe.jpg","[""ArrowLeft""]","revaluation","canyon","2","{""ArrowUp,ArrowLeft"":2,""ArrowUp,ArrowRight"":11,""ArrowDown,ArrowLeft"":8,""ArrowDown,ArrowRight"":27}","false","ArrowUp,ArrowLeft","","revaluation","1","2","","",""
"html-keyboard-response","221","1146289","0.0-4.0-4.0-1.1","spark_pilot_norest","8582","8","11","Male","","","","","","","null","<div style=""font-size:60px;"">+</div>","null","fixation","","","","","","","","","3","","",""
"revaluation","222","1150298","0.0-4.0-4.0-0.2","spark_pilot_norest","8582","8","11","Male","","false","","","","","[487.29999999701977]","./assets/img/canyon/animals/lion.jpg","[""ArrowRight""]","revaluation","canyon","27","{""ArrowUp,ArrowLeft"":2,""ArrowUp,ArrowRight"":11,""ArrowDown,ArrowLeft"":8,""ArrowDown,ArrowRight"":27}","true","ArrowDown,ArrowRight","","revaluation","1","4","","",""
"html-keyboard-response","223","1150809","0.0-4.0-4.0-1.2","spark_pilot_norest","8582","8","11","Male","","","","","","","null","<div style=""font-size:60px;"">+</div>","null","fixation","","","","","","","","","5","","",""
"revaluation","224","1154829","0.0-4.0-4.0-0.3","spark_pilot_norest","8582","8","11","Male","","false","","","","","[400.19999999552965]","./assets/img/canyon/animals/giraffe.jpg","[""ArrowRight""]","revaluation","canyon","11","{""ArrowUp,ArrowLeft"":2,""ArrowUp,ArrowRight"":11,""ArrowDown,ArrowLeft"":8,""ArrowDown,ArrowRight"":27}","true","ArrowUp,ArrowRight","","revaluation","1","6","","",""
"html-keyboard-response","225","1155341","0.0-4.0-4.0-1.3","spark_pilot_norest","8582","8","11","Male","","","","","","","null","<div style=""font-size:60px;"">+</div>","null","fixation","","","","","","","","","7","","",""
"revaluation","226","1159366","0.0-4.0-4.0-0.4","spark_pilot_norest","8582","8","11","Male","","false","","","","","[1132.1000000014901]","./assets/img/canyon/animals/giraffe.jpg","[""ArrowRight""]","revaluation","canyon","11","{""ArrowUp,ArrowLeft"":2,""ArrowUp,ArrowRight"":11,""ArrowDown,ArrowLeft"":8,""ArrowDown,ArrowRight"":27}","true","ArrowUp,ArrowRight","","revaluation","1","8","","",""
"html-keyboard-response","227","1159876","0.0-4.0-4.0-1.4","spark_pilot_norest","8582","8","11","Male","","","","","","","null","<div style=""font-size:60px;"">+</div>","null","fixation","","","","","","","","","9","","",""
"revaluation","228","1163895","0.0-4.0-4.0-0.5","spark_pilot_norest","8582","8","11","Male","","false","","","","","[404.79999999701977]","./assets/img/canyon/animals/lion.jpg","[""ArrowLeft""]","revaluation","canyon","8","{""ArrowUp,ArrowLeft"":2,""ArrowUp,ArrowRight"":11,""ArrowDown,ArrowLeft"":8,""ArrowDown,ArrowRight"":27}","false","ArrowDown,ArrowLeft","","revaluation","1","10","","",""
"html-keyboard-response","229","1164396","0.0-4.0-4.0-1.5","spark_pilot_norest","8582","8","11","Male","","","","","","","null","<div style=""font-size:60px;"">+</div>","null","fixation","","","","","","","","","11","","",""
"revaluation","230","1168402","0.0-4.0-4.0-0.6","spark_pilot_norest","8582","8","11","Male","","false","","","","","[796.2999999970198]","./assets/img/canyon/animals/lion.jpg","[""ArrowRight""]","revaluation","canyon","27","{""ArrowUp,ArrowLeft"":2,""ArrowUp,ArrowRight"":11,""ArrowDown,ArrowLeft"":8,""ArrowDown,ArrowRight"":27}","true","ArrowDown,ArrowRight","","revaluation","1","12","","",""
"html-keyboard-response","231","1168905","0.0-4.0-4.0-1.6","spark_pilot_norest","8582","8","11","Male","","","","","","","null","<div style=""font-size:60px;"">+</div>","null","fixation","","","","","","","","","13","","",""
"revaluation","232","1172909","0.0-4.0-4.0-0.7","spark_pilot_norest","8582","8","11","Male","","false","","","","","[433]","./assets/img/canyon/animals/lion.jpg","[""ArrowRight""]","revaluation","canyon","27","{""ArrowUp,ArrowLeft"":2,""ArrowUp,ArrowRight"":11,""ArrowDown,ArrowLeft"":8,""ArrowDown,ArrowRight"":27}","true","ArrowDown,ArrowRight","","revaluation","1","14","","",""
"html-keyboard-response","233","1173411","0.0-4.0-4.0-1.7","spark_pilot_norest","8582","8","11","Male","","","","","","","null","<div style=""font-size:60px;"">+</div>","null","fixation","","","","","","","","","15","","",""
"revaluation","234","1177417","0.0-4.0-4.0-0.8","spark_pilot_norest","8582","8","11","Male","","false","","","","","[453.5]","./assets/img/canyon/animals/giraffe.jpg","[""ArrowRight""]","revaluation","canyon","11","{""ArrowUp,ArrowLeft"":2,""ArrowUp,ArrowRight"":11,""ArrowDown,ArrowLeft"":8,""ArrowDown,ArrowRight"":27}","true","ArrowUp,ArrowRight","","revaluation","1","16","","",""
"html-keyboard-response","235","1177919","0.0-4.0-4.0-1.8","spark_pilot_norest","8582","8","11","Male","","","","","","","null","<div style=""font-size:60px;"">+</div>","null","fixation","","","","","","","","","17","","",""
"revaluation","236","1181925","0.0-4.0-4.0-0.9","spark_pilot_norest","8582","8","11","Male","","false","","","","","[377.69999999552965]","./assets/img/canyon/animals/lion.jpg","[""ArrowRight""]","revaluation","canyon","27","{""ArrowUp,ArrowLeft"":2,""ArrowUp,ArrowRight"":11,""ArrowDown,ArrowLeft"":8,""ArrowDown,ArrowRight"":27}","true","ArrowDown,ArrowRight","","revaluation","1","18","","",""
"html-keyboard-response","237","1182427","0.0-4.0-4.0-1.9","spark_pilot_norest","8582","8","11","Male","","","","","","","null","<div style=""font-size:60px;"">+</div>","null","fixation","","","","","","","","","19","","",""
"revaluation","238","1186433","0.0-4.0-4.0-0.10","spark_pilot_norest","8582","8","11","Male","","false","","","","","[365.6000000014901]","./assets/img/canyon/animals/giraffe.jpg","[""ArrowRight""]","revaluation","canyon","11","{""ArrowUp,ArrowLeft"":2,""ArrowUp,ArrowRight"":11,""ArrowDown,ArrowLeft"":8,""ArrowDown,ArrowRight"":27}","true","ArrowUp,ArrowRight","","revaluation","1","20","","",""
"html-keyboard-response","239","1186934","0.0-4.0-4.0-1.10","spark_pilot_norest","8582","8","11","Male","","","","","","","null","<div style=""font-size:60px;"">+</div>","null","fixation","","","","","","","","","21","","",""
"revaluation","240","1190937","0.0-4.0-4.0-0.11","spark_pilot_norest","8582","8","11","Male","","false","","","","","[627.8999999985099]","./assets/img/canyon/animals/giraffe.jpg","[""ArrowRight""]","revaluation","canyon","11","{""ArrowUp,ArrowLeft"":2,""ArrowUp,ArrowRight"":11,""ArrowDown,ArrowLeft"":8,""ArrowDown,ArrowRight"":27}","true","ArrowUp,ArrowRight","","revaluation","1","22","","",""
"html-keyboard-response","241","1191439","0.0-4.0-4.0-1.11","spark_pilot_norest","8582","8","11","Male","","","","","","","null","<div style=""font-size:60px;"">+</div>","null","fixation","","","","","","","","","23","","",""
"revaluation","242","1195443","0.0-4.0-4.0-0.12","spark_pilot_norest","8582","8","11","Male","","false","","","","","[539]","./assets/img/canyon/animals/giraffe.jpg","[""ArrowRight""]","revaluation","canyon","11","{""ArrowUp,ArrowLeft"":2,""ArrowUp,ArrowRight"":11,""ArrowDown,ArrowLeft"":8,""ArrowDown,ArrowRight"":27}","true","ArrowUp,ArrowRight","","revaluation","1","24","","",""
"html-keyboard-response","243","1195944","0.0-4.0-4.0-1.12","spark_pilot_norest","8582","8","11","Male","","","","","","","null","<div style=""font-size:60px;"">+</div>","null","fixation","","","","","","","","","25","","",""
"revaluation","244","1199950","0.0-4.0-4.0-0.13","spark_pilot_norest","8582","8","11","Male","","false","","","","","[671.6000000014901]","./assets/img/canyon/animals/giraffe.jpg","[""ArrowRight""]","revaluation","canyon","11","{""ArrowUp,ArrowLeft"":2,""ArrowUp,ArrowRight"":11,""ArrowDown,ArrowLeft"":8,""ArrowDown,ArrowRight"":27}","true","ArrowUp,ArrowRight","","revaluation","1","26","","",""
"html-keyboard-response","245","1200451","0.0-4.0-4.0-1.13","spark_pilot_norest","8582","8","11","Male","","","","","","","null","<div style=""font-size:60px;"">+</div>","null","fixation","","","","","","","","","27","","",""
"revaluation","246","1204457","0.0-4.0-4.0-0.14","spark_pilot_norest","8582","8","11","Male","","false","","","","","[596.8000000044703]","./assets/img/canyon/animals/lion.jpg","[""ArrowRight""]","revaluation","canyon","27","{""ArrowUp,ArrowLeft"":2,""ArrowUp,ArrowRight"":11,""ArrowDown,ArrowLeft"":8,""ArrowDown,ArrowRight"":27}","true","ArrowDown,ArrowRight","","revaluation","1","28","","",""
"html-keyboard-response","247","1204959","0.0-4.0-4.0-1.14","spark_pilot_norest","8582","8","11","Male","","","","","","","null","<div style=""font-size:60px;"">+</div>","null","fixation","","","","","","","","","29","","",""
"revaluation","248","1208965","0.0-4.0-4.0-0.15","spark_pilot_norest","8582","8","11","Male","","false","","","","","[425]","./assets/img/canyon/animals/lion.jpg","[""ArrowRight""]","revaluation","canyon","27","{""ArrowUp,ArrowLeft"":2,""ArrowUp,ArrowRight"":11,""ArrowDown,ArrowLeft"":8,""ArrowDown,ArrowRight"":27}","true","ArrowDown,ArrowRight","","revaluation","1","30","","",""
"html-keyboard-response","249","1209467","0.0-4.0-4.0-1.15","spark_pilot_norest","8582","8","11","Male","","","","","","","null","<div style=""font-size:60px;"">+</div>","null","fixation","","","","","","","","","31","","",""
"revaluation","250","1213472","0.0-4.0-4.0-0.16","spark_pilot_norest","8582","8","11","Male","","false","","","","","[525.3000000044703]","./assets/img/canyon/animals/giraffe.jpg","[""ArrowRight""]","revaluation","canyon","11","{""ArrowUp,ArrowLeft"":2,""ArrowUp,ArrowRight"":11,""ArrowDown,ArrowLeft"":8,""ArrowDown,ArrowRight"":27}","true","ArrowUp,ArrowRight","","revaluation","1","32","","",""
"html-keyboard-response","251","1213974","0.0-4.0-4.0-1.16","spark_pilot_norest","8582","8","11","Male","","","","","","","null","<div style=""font-size:60px;"">+</div>","null","fixation","","","","","","","","","33","","",""
"revaluation","252","1217978","0.0-4.0-4.0-0.17","spark_pilot_norest","8582","8","11","Male","","false","","","","","[466.29999999701977]","./assets/img/canyon/animals/lion.jpg","[""ArrowRight""]","revaluation","canyon","27","{""ArrowUp,ArrowLeft"":2,""ArrowUp,ArrowRight"":11,""ArrowDown,ArrowLeft"":8,""ArrowDown,ArrowRight"":27}","true","ArrowDown,ArrowRight","","revaluation","1","34","","",""
"html-keyboard-response","253","1218481","0.0-4.0-4.0-1.17","spark_pilot_norest","8582","8","11","Male","","","","","","","null","<div style=""font-size:60px;"">+</div>","null","fixation","","","","","","","","","35","","",""
"learning-instructions","254","1226645","0.0-4.0-5.0-0.0","spark_pilot_norest","8582","8","11","Male","","","","","","","null","<p> You have almost finished this part of the game! </p>
            <p> We are going to ask you to make a few more choices. </p>","","instructions","","","","","","","","","","","",""
"learning-instructions","255","1242625","0.0-4.0-5.0-0.1","spark_pilot_norest","8582","8","11","Male","","","","","","","null","<p> First, you need to decide whether to go up or down. When you see each picture, use the arrow keys to make your choice. </p>
            <p><b>You will not see which animal you found, but try to get to the one that will give you the most treasure.</b></p>","","instructions","","","","","","","","","","","",""
"html-keyboard-response","256","1243639","0.0-4.0-6.0-0.0","spark_pilot_norest","8582","8","11","Male","","","","","","","null","<div style=""font-size:100px;color:red;"">Starting in...</div>","null","","","","","","","","","","","","",""
"html-keyboard-response","257","1244650","0.0-4.0-6.0-1.0","spark_pilot_norest","8582","8","11","Male","","","","","","","null","<div style=""font-size:200px;color:red;"">3</div>","null","","","","","","","","","","","","",""
"html-keyboard-response","258","1245655","0.0-4.0-6.0-2.0","spark_pilot_norest","8582","8","11","Male","","","","","","","null","<div style=""font-size:200px;color:red;"">2</div>","null","","","","","","","","","","","","",""
"html-keyboard-response","259","1246664","0.0-4.0-6.0-3.0","spark_pilot_norest","8582","8","11","Male","","","","","","","null","<div style=""font-size:200px;color:red;"">1</div>","null","","","","","","","","","","","","",""
"revaluation","260","1247131","0.0-4.0-7.0-0.0","spark_pilot_norest","8582","8","11","Male","","false","","","","","[463.80000000447035]","./assets/img/canyon/test/0.jpg","[""ArrowUp""]","first stage test","canyon","0","{""ArrowUp,ArrowLeft"":2,""ArrowUp,ArrowRight"":11,""ArrowDown,ArrowLeft"":8,""ArrowDown,ArrowRight"":27}","false","ArrowUp","false","revaluation","1","","","",""
"html-keyboard-response","261","1247645","0.0-4.0-7.0-1.0","spark_pilot_norest","8582","8","11","Male","","","","","","","null","<div style=""font-size:60px;"">+</div>","null","fixation","","","","","","","","","","","",""
"revaluation","262","1248667","0.0-4.0-7.0-0.1","spark_pilot_norest","8582","8","11","Male","","false","","","","","[1019.6000000014901]","./assets/img/canyon/test/2.jpg","[""ArrowDown""]","first stage test","canyon","0","{""ArrowUp,ArrowLeft"":2,""ArrowUp,ArrowRight"":11,""ArrowDown,ArrowLeft"":8,""ArrowDown,ArrowRight"":27}","true","ArrowDown","false","revaluation","1","","","",""
"html-keyboard-response","263","1249172","0.0-4.0-7.0-1.1","spark_pilot_norest","8582","8","11","Male","","","","","","","null","<div style=""font-size:60px;"">+</div>","null","fixation","","","","","","","","","","","",""
"revaluation","264","1249835","0.0-4.0-7.0-0.2","spark_pilot_norest","8582","8","11","Male","","false","","","","","[659.7999999970198]","./assets/img/canyon/test/1.jpg","[""ArrowUp""]","first stage test","canyon","0","{""ArrowUp,ArrowLeft"":2,""ArrowUp,ArrowRight"":11,""ArrowDown,ArrowLeft"":8,""ArrowDown,ArrowRight"":27}","false","ArrowUp","false","revaluation","1","","","",""
"html-keyboard-response","265","1250347","0.0-4.0-7.0-1.2","spark_pilot_norest","8582","8","11","Male","","","","","","","null","<div style=""font-size:60px;"">+</div>","null","fixation","","","","","","","","","","","",""
"revaluation","266","1250924","0.0-4.0-7.0-0.3","spark_pilot_norest","8582","8","11","Male","","false","","","","","[573.1000000014901]","./assets/img/canyon/test/3.jpg","[""ArrowUp""]","first stage test","canyon","0","{""ArrowUp,ArrowLeft"":2,""ArrowUp,ArrowRight"":11,""ArrowDown,ArrowLeft"":8,""ArrowDown,ArrowRight"":27}","false","ArrowUp","false","revaluation","1","","","",""
"html-keyboard-response","267","1251432","0.0-4.0-7.0-1.3","spark_pilot_norest","8582","8","11","Male","","","","","","","null","<div style=""font-size:60px;"">+</div>","null","fixation","","","","","","","","","","","",""
"learning-instructions","268","1264777","0.0-4.0-8.0-0.0","spark_pilot_norest","8582","8","11","Male","","","","","","","null","<p> Now you will see the animals again and can search their chests for treasure. </p>
            <p> This time, you will not see how much treasure you earned, but you will earn more bonus money for making better choices. </p>","","instructions","","","","","","","","","","","",""
"html-keyboard-response","269","1265781","0.0-4.0-9.0-0.0","spark_pilot_norest","8582","8","11","Male","","","","","","","null","<div style=""font-size:100px;color:red;"">Starting in...</div>","null","","","","","","","","","","","","",""
"html-keyboard-response","270","1266787","0.0-4.0-9.0-1.0","spark_pilot_norest","8582","8","11","Male","","","","","","","null","<div style=""font-size:200px;color:red;"">3</div>","null","","","","","","","","","","","","",""
"html-keyboard-response","271","1267802","0.0-4.0-9.0-2.0","spark_pilot_norest","8582","8","11","Male","","","","","","","null","<div style=""font-size:200px;color:red;"">2</div>","null","","","","","","","","","","","","",""
"html-keyboard-response","272","1268807","0.0-4.0-9.0-3.0","spark_pilot_norest","8582","8","11","Male","","","","","","","null","<div style=""font-size:200px;color:red;"">1</div>","null","","","","","","","","","","","","",""
"revaluation","273","1269611","0.0-4.0-10.0-0.0","spark_pilot_norest","8582","8","11","Male","","false","","","","","[800.8999999985099]","./assets/img/canyon/animals/giraffe.jpg","[""ArrowRight""]","second stage test","canyon","0","{""ArrowUp,ArrowLeft"":2,""ArrowUp,ArrowRight"":11,""ArrowDown,ArrowLeft"":8,""ArrowDown,ArrowRight"":27}","true","ArrowUp,ArrowRight","","revaluation","1","","","",""
"html-keyboard-response","274","1270116","0.0-4.0-10.0-1.0","spark_pilot_norest","8582","8","11","Male","","","","","","","null","<div style=""font-size:60px;"">+</div>","null","fixation","","","","","","","","","","","",""
"revaluation","275","1270891","0.0-4.0-10.0-0.1","spark_pilot_norest","8582","8","11","Male","","false","","","","","[771.1000000014901]","./assets/img/canyon/animals/giraffe.jpg","[""ArrowRight""]","second stage test","canyon","0","{""ArrowUp,ArrowLeft"":2,""ArrowUp,ArrowRight"":11,""ArrowDown,ArrowLeft"":8,""ArrowDown,ArrowRight"":27}","true","ArrowUp,ArrowRight","","revaluation","1","","","",""
"html-keyboard-response","276","1271395","0.0-4.0-10.0-1.1","spark_pilot_norest","8582","8","11","Male","","","","","","","null","<div style=""font-size:60px;"">+</div>","null","fixation","","","","","","","","","","","",""
"revaluation","277","1272092","0.0-4.0-10.0-0.2","spark_pilot_norest","8582","8","11","Male","","false","","","","","[693.7000000029802]","./assets/img/canyon/animals/giraffe.jpg","[""ArrowRight""]","second stage test","canyon","0","{""ArrowUp,ArrowLeft"":2,""ArrowUp,ArrowRight"":11,""ArrowDown,ArrowLeft"":8,""ArrowDown,ArrowRight"":27}","true","ArrowUp,ArrowRight","","revaluation","1","","","",""
"html-keyboard-response","278","1272600","0.0-4.0-10.0-1.2","spark_pilot_norest","8582","8","11","Male","","","","","","","null","<div style=""font-size:60px;"">+</div>","null","fixation","","","","","","","","","","","",""
"revaluation","279","1273116","0.0-4.0-10.0-0.3","spark_pilot_norest","8582","8","11","Male","","false","","","","","[511.6000000014901]","./assets/img/canyon/animals/giraffe.jpg","[""ArrowRight""]","second stage test","canyon","0","{""ArrowUp,ArrowLeft"":2,""ArrowUp,ArrowRight"":11,""ArrowDown,ArrowLeft"":8,""ArrowDown,ArrowRight"":27}","true","ArrowUp,ArrowRight","","revaluation","1","","","",""
"html-keyboard-response","280","1273623","0.0-4.0-10.0-1.3","spark_pilot_norest","8582","8","11","Male","","","","","","","null","<div style=""font-size:60px;"">+</div>","null","fixation","","","","","","","","","","","",""
"revaluation","281","1274044","0.0-4.0-10.0-0.4","spark_pilot_norest","8582","8","11","Male","","false","","","","","[418.40000000596046]","./assets/img/canyon/animals/lion.jpg","[""ArrowRight""]","second stage test","canyon","0","{""ArrowUp,ArrowLeft"":2,""ArrowUp,ArrowRight"":11,""ArrowDown,ArrowLeft"":8,""ArrowDown,ArrowRight"":27}","true","ArrowDown,ArrowRight","","revaluation","1","","","",""
"html-keyboard-response","282","1274556","0.0-4.0-10.0-1.4","spark_pilot_norest","8582","8","11","Male","","","","","","","null","<div style=""font-size:60px;"">+</div>","null","fixation","","","","","","","","","","","",""
"revaluation","283","1275004","0.0-4.0-10.0-0.5","spark_pilot_norest","8582","8","11","Male","","false","","","","","[444.29999999701977]","./assets/img/canyon/animals/lion.jpg","[""ArrowRight""]","second stage test","canyon","0","{""ArrowUp,ArrowLeft"":2,""ArrowUp,ArrowRight"":11,""ArrowDown,ArrowLeft"":8,""ArrowDown,ArrowRight"":27}","true","ArrowDown,ArrowRight","","revaluation","1","","","",""
"html-keyboard-response","284","1275519","0.0-4.0-10.0-1.5","spark_pilot_norest","8582","8","11","Male","","","","","","","null","<div style=""font-size:60px;"">+</div>","null","fixation","","","","","","","","","","","",""
"revaluation","285","1276012","0.0-4.0-10.0-0.6","spark_pilot_norest","8582","8","11","Male","","false","","","","","[489.1000000014901]","./assets/img/canyon/animals/lion.jpg","[""ArrowLeft""]","second stage test","canyon","0","{""ArrowUp,ArrowLeft"":2,""ArrowUp,ArrowRight"":11,""ArrowDown,ArrowLeft"":8,""ArrowDown,ArrowRight"":27}","false","ArrowDown,ArrowLeft","","revaluation","1","","","",""
"html-keyboard-response","286","1276516","0.0-4.0-10.0-1.6","spark_pilot_norest","8582","8","11","Male","","","","","","","null","<div style=""font-size:60px;"">+</div>","null","fixation","","","","","","","","","","","",""
"revaluation","287","1276956","0.0-4.0-10.0-0.7","spark_pilot_norest","8582","8","11","Male","","false","","","","","[438.29999999701977]","./assets/img/canyon/animals/lion.jpg","[""ArrowRight""]","second stage test","canyon","0","{""ArrowUp,ArrowLeft"":2,""ArrowUp,ArrowRight"":11,""ArrowDown,ArrowLeft"":8,""ArrowDown,ArrowRight"":27}","true","ArrowDown,ArrowRight","","revaluation","1","","","",""
"html-keyboard-response","288","1277472","0.0-4.0-10.0-1.7","spark_pilot_norest","8582","8","11","Male","","","","","","","null","<div style=""font-size:60px;"">+</div>","null","fixation","","","","","","","","","","","",""
"learning-instructions","289","1285011","0.0-4.0-0.1-0.2","spark_pilot_norest","8582","8","11","Male","","","","","","","2187.2000000029802","<p> This time you are searching for treasure in the <b>ocean</b>.</p>","","instructions","","","","","","","","","","","",""
"learning-instructions","290","1304331","0.0-4.0-0.1-0.3","spark_pilot_norest","8582","8","11","Male","","","","","","","2065.6999999955297","<p><b>New</b> animals with <b>new</b> treasure chests live here. You need to explore to discover where the animal with the best treasure chest is.</p>
                    <p> Like before, once you figure out which animal has the chest with the most treasure, you should try to get to that animal and select that chest! </p>","","instructions","","","","","","","","","","","",""
"learning-instructions","291","1319763","0.0-4.0-1.1-0.1","spark_pilot_norest","8582","8","11","Male","","","","","","","698.1000000014901","<p> Remember, when you see a picture of the place, use the up and down keys to <b>find an animal</b>.</p>
            <p> When you encounter an animal, you should use the left and right keys to <b>select a treasure chest</b>.</p>
            <p> Don't forget to look out for the robber! </p>","","instructions","","","","","","","","","","","",""
"revaluation","292","1325790","0.0-4.0-2.1-0.50","spark_pilot_norest","8582","8","11","Male","","false","","","","","[1190.5999999940395,303.69999999552965]","./assets/img/ocean/memory/29.jpg","[""ArrowDown"",""ArrowLeft""]","value training","ocean","8","{""ArrowUp,ArrowLeft"":23,""ArrowUp,ArrowRight"":10,""ArrowDown,ArrowLeft"":8,""ArrowDown,ArrowRight"":30}","false","ArrowDown,ArrowLeft","false","original","2","0","","",""
"html-keyboard-response","293","1326297","0.0-4.0-2.1-1.50","spark_pilot_norest","8582","8","11","Male","","","","","","","null","<div style=""font-size:60px;"">+</div>","null","fixation","","","","","","","","","1","","",""
"revaluation","294","1332322","0.0-4.0-2.1-0.51","spark_pilot_norest","8582","8","11","Male","","false","","","","","[415.30000000447035,309]","./assets/img/ocean/memory/17.jpg","[""ArrowDown"",""ArrowRight""]","value training","ocean","30","{""ArrowUp,ArrowLeft"":23,""ArrowUp,ArrowRight"":10,""ArrowDown,ArrowLeft"":8,""ArrowDown,ArrowRight"":30}","true","ArrowDown,ArrowRight","false","original","2","2","","",""
"html-keyboard-response","295","1332827","0.0-4.0-2.1-1.51","spark_pilot_norest","8582","8","11","Male","","","","","","","null","<div style=""font-size:60px;"">+</div>","null","fixation","","","","","","","","","3","","",""
"revaluation","296","1338850","0.0-4.0-2.1-0.52","spark_pilot_norest","8582","8","11","Male","","false","","","","","[415.59999999403954,354.8999999985099]","./assets/img/ocean/memory/3.jpg","[""ArrowUp"",""ArrowRight""]","value training","ocean","10","{""ArrowUp,ArrowLeft"":23,""ArrowUp,ArrowRight"":10,""ArrowDown,ArrowLeft"":8,""ArrowDown,ArrowRight"":30}","false","ArrowUp,ArrowRight","false","original","2","4","","",""
"html-keyboard-response","297","1339356","0.0-4.0-2.1-1.52","spark_pilot_norest","8582","8","11","Male","","","","","","","null","<div style=""font-size:60px;"">+</div>","null","fixation","","","","","","","","","5","","",""
"revaluation","298","1345386","0.0-4.0-2.1-0.53","spark_pilot_norest","8582","8","11","Male","","false","","","","","[282.69999999552965,339.5]","./assets/img/ocean/memory/40.jpg","[""ArrowUp"",""ArrowLeft""]","value training","ocean","23","{""ArrowUp,ArrowLeft"":23,""ArrowUp,ArrowRight"":10,""ArrowDown,ArrowLeft"":8,""ArrowDown,ArrowRight"":30}","false","ArrowUp,ArrowLeft","false","original","2","6","","",""
"html-keyboard-response","299","1345903","0.0-4.0-2.1-1.53","spark_pilot_norest","8582","8","11","Male","","","","","","","null","<div style=""font-size:60px;"">+</div>","null","fixation","","","","","","","","","7","","",""
"revaluation","300","1351918","0.0-4.0-2.1-0.54","spark_pilot_norest","8582","8","11","Male","","false","","","","","[376.70000000298023,400]","./assets/img/ocean/memory/27.jpg","[""ArrowDown"",""ArrowRight""]","value training","ocean","30","{""ArrowUp,ArrowLeft"":23,""ArrowUp,ArrowRight"":10,""ArrowDown,ArrowLeft"":8,""ArrowDown,ArrowRight"":30}","true","ArrowDown,ArrowRight","false","original","2","8","","",""
"html-keyboard-response","301","1352420","0.0-4.0-2.1-1.54","spark_pilot_norest","8582","8","11","Male","","","","","","","null","<div style=""font-size:60px;"">+</div>","null","fixation","","","","","","","","","9","","",""
"revaluation","302","1358424","0.0-4.0-2.1-0.55","spark_pilot_norest","8582","8","11","Male","","false","","","","","[1077.2000000029802,564.8999999985099]","./assets/img/ocean/memory/26.jpg","[""ArrowDown"",""ArrowRight""]","value training","ocean","30","{""ArrowUp,ArrowLeft"":23,""ArrowUp,ArrowRight"":10,""ArrowDown,ArrowLeft"":8,""ArrowDown,ArrowRight"":30}","true","ArrowDown,ArrowRight","false","original","2","10","","",""
"html-keyboard-response","303","1358925","0.0-4.0-2.1-1.55","spark_pilot_norest","8582","8","11","Male","","","","","","","null","<div style=""font-size:60px;"">+</div>","null","fixation","","","","","","","","","11","","",""
"revaluation","304","1362930","0.0-4.0-2.1-0.56","spark_pilot_norest","8582","8","11","Male","","false","","","","","[635.1000000014901]","./assets/img/ocean/catch/4.jpg","[""spaceBar""]","value training","ocean","0","{""ArrowUp,ArrowLeft"":23,""ArrowUp,ArrowRight"":10,""ArrowDown,ArrowLeft"":8,""ArrowDown,ArrowRight"":30}","true","spaceBar","true","original","2","12","","",""
"html-keyboard-response","305","1363431","0.0-4.0-2.1-1.56","spark_pilot_norest","8582","8","11","Male","","","","","","","null","<div style=""font-size:60px;"">+</div>","null","fixation","","","","","","","","","13","","",""
"revaluation","306","1367434","0.0-4.0-2.1-0.57","spark_pilot_norest","8582","8","11","Male","","false","","","","","[658.2000000029802]","./assets/img/ocean/catch/0.jpg","[""spaceBar""]","value training","ocean","0","{""ArrowUp,ArrowLeft"":23,""ArrowUp,ArrowRight"":10,""ArrowDown,ArrowLeft"":8,""ArrowDown,ArrowRight"":30}","true","spaceBar","true","original","2","14","","",""
"html-keyboard-response","307","1367935","0.0-4.0-2.1-1.57","spark_pilot_norest","8582","8","11","Male","","","","","","","null","<div style=""font-size:60px;"">+</div>","null","fixation","","","","","","","","","15","","",""
"revaluation","308","1373940","0.0-4.0-2.1-0.58","spark_pilot_norest","8582","8","11","Male","","false","","","","","[842.5,298.5]","./assets/img/ocean/memory/35.jpg","[""ArrowDown"",""ArrowRight""]","value training","ocean","30","{""ArrowUp,ArrowLeft"":23,""ArrowUp,ArrowRight"":10,""ArrowDown,ArrowLeft"":8,""ArrowDown,ArrowRight"":30}","true","ArrowDown,ArrowRight","false","original","2","16","","",""
"html-keyboard-response","309","1374442","0.0-4.0-2.1-1.58","spark_pilot_norest","8582","8","11","Male","","","","","","","null","<div style=""font-size:60px;"">+</div>","null","fixation","","","","","","","","","17","","",""
"revaluation","310","1380449","0.0-4.0-2.1-0.59","spark_pilot_norest","8582","8","11","Male","","false","","","","","[878.1000000014901,1004.3999999985099]","./assets/img/ocean/memory/17.jpg","[""ArrowDown"",""ArrowRight""]","value training","ocean","30","{""ArrowUp,ArrowLeft"":23,""ArrowUp,ArrowRight"":10,""ArrowDown,ArrowLeft"":8,""ArrowDown,ArrowRight"":30}","true","ArrowDown,ArrowRight","false","original","2","18","","",""
"html-keyboard-response","311","1380951","0.0-4.0-2.1-1.59","spark_pilot_norest","8582","8","11","Male","","","","","","","null","<div style=""font-size:60px;"">+</div>","null","fixation","","","","","","","","","19","","",""
"revaluation","312","1386958","0.0-4.0-2.1-0.60","spark_pilot_norest","8582","8","11","Male","","false","","","","","[817.5999999940395,944.2999999970198]","./assets/img/ocean/memory/5.jpg","[""ArrowDown"",""ArrowRight""]","value training","ocean","30","{""ArrowUp,ArrowLeft"":23,""ArrowUp,ArrowRight"":10,""ArrowDown,ArrowLeft"":8,""ArrowDown,ArrowRight"":30}","true","ArrowDown,ArrowRight","false","original","2","20","","",""
