"trial_type","trial_index","time_elapsed","internal_node_id","task_version","subject_id","assigned_condition","age","gender","success","timeout","failed_images","failed_audio","failed_video","browser_interaction","rt","stimulus","response","task_part","environment","score","rewardMap","correct","fullState","isCatch","condition","order","trial_num","key_press","ground_truth","bonus"
"pavlovia","0","3138","0.0-0.0","spark_pilot_norest","8442","2","17","Female","","","","","","","","","","","","","","","","","","","","","",""
"preload","1","14960","0.0-1.0","spark_pilot_norest","8442","2","17","Female","true","false","[]","[]","[]","[{""event"":""fullscreenenter"",""trial"":2,""time"":20555}]","","","","","","","","","","","","","","","",""
"fullscreen","2","21539","0.0-2.0","spark_pilot_norest","8442","2","17","Female","true","","","","","","","","","","","","","","","","","","","","",""
"audio-button-response","3","23149","0.0-3.0-0.0-0.0","spark_pilot_norest","8442","2","17","Female","","","","","","","1541","./assets/audio/audiotest/turtle.mp3","2","audio_test","","","","","","","","","","","",""
"learning-instructions","4","102183","0.0-3.0-1.0-0.0","spark_pilot_norest","8442","2","17","Female","","","","","","","72044.5","<p> Welcome! Please remember to stay in fullscreen mode and don't click away from the experiment. </p>","","instructions","","","","","","","","","","","",""
"learning-instructions","5","111796","0.0-3.0-1.0-0.1","spark_pilot_norest","8442","2","17","Female","","","","","","","1157.8999999910593","<p> Today you will be playing a game to earn treasure. </p>
            <p> At the end of the experiment, you will earn a bonus based on how much treasure you find. </p>
            <img src='./assets/img/instructions/treasure.jpg' class='instructions-image'>","","instructions","","","","","","","","","","","",""
"learning-instructions","6","120705","0.0-3.0-1.0-0.2","spark_pilot_norest","8442","2","17","Female","","","","","","","636.9000000059605","<p> Animals have hidden treasure in treasure chests. </p>
            <p> You need to first find an animal and then choose which of their treasure chests to search. </p>
            <img src='./assets/img/space/animals/cat.jpg' class='instructions-image'>","","instructions","","","","","","","","","","","",""
"learning-instructions","7","134608","0.0-3.0-1.0-0.3","spark_pilot_norest","8442","2","17","Female","","","","","","","737.7000000029802","<p> In each round, you will search for treasure in a different place. In the real game, there will be two rounds. </p>
            <p> You will begin with a separate, practice round where you will search for treasure in outer space. </p>
            <img src='./assets/img/space/0.jpg' class='instructions-image'>","","instructions","","","","","","","","","","","",""
"learning-instructions","8","146930","0.0-3.0-1.0-0.4","spark_pilot_norest","8442","2","17","Female","","","","","","","899.1999999880791","<p> On every turn, you will see a picture of the place that you are in, but the specific image may be different each time. </p>
            <p> For example, both of these images mean you are in outer space. </p>
            <img src='./assets/img/instructions/outerspace.jpg' class='instructions-image'>","","instructions","","","","","","","","","","","",""
"learning-instructions","9","155707","0.0-3.0-1.0-0.5","spark_pilot_norest","8442","2","17","Female","","","","","","","939.1000000089407","<p> You need to decide which direction to travel in. </p>
            <p> You can choose between going <b>up or down</b> by using the arrow keys. </p>
            <img src='./assets/img/instructions/updown.jpg' class='instructions-image'>","","instructions","","","","","","","","","","","",""
"learning-instructions","10","165894","0.0-3.0-1.0-0.6","spark_pilot_norest","8442","2","17","Female","","","","","","","1367.1000000089407","<p> You will have <b>2 seconds</b> to make your choice. </p>
            <p> If you do not make a choice within 2 seconds, you will not find an animal or earn treasure. </p>
            <img src='./assets/img/instructions/2seconds.jpg' class='instructions-image'>","","instructions","","","","","","","","","","","",""
"learning-instructions","11","173632","0.0-3.0-1.0-0.7","spark_pilot_norest","8442","2","17","Female","","","","","","","694.4000000059605","<p> Let’s try practicing that now! </p>
            <p> When you see a picture of the place you are in, press the <b>up</b> key to travel up. </p>
            <img src='./assets/img/instructions/pressUp.jpg' class='instructions-image'>","","instructions","","","","","","","","","","","",""
"revaluation","12","177653","0.0-3.0-2.0-0.0","spark_pilot_norest","8442","2","17","Female","","false","","","","","[1269.5]","./assets/img/space/0.jpg","[""ArrowUp""]","first stage practice","space","0","null","null","ArrowUp","false","","","","","",""
"html-keyboard-response","13","178164","0.0-3.0-2.0-1.0","spark_pilot_norest","8442","2","17","Female","","","","","","","null","<div style=""font-size:60px;"">+</div>","null","fixation","","","","","","","","","","","",""
"revaluation","14","182180","0.0-3.0-2.0-0.1","spark_pilot_norest","8442","2","17","Female","","false","","","","","[612.7999999970198]","./assets/img/space/1.jpg","[""ArrowUp""]","first stage practice","space","0","null","null","ArrowUp","false","","","","","",""
"html-keyboard-response","15","182682","0.0-3.0-2.0-1.1","spark_pilot_norest","8442","2","17","Female","","","","","","","null","<div style=""font-size:60px;"">+</div>","null","fixation","","","","","","","","","","","",""
"revaluation","16","186698","0.0-3.0-2.0-0.2","spark_pilot_norest","8442","2","17","Female","","false","","","","","[518.4000000059605]","./assets/img/space/2.jpg","[""ArrowUp""]","first stage practice","space","0","null","null","ArrowUp","false","","","","","",""
"html-keyboard-response","17","187204","0.0-3.0-2.0-1.2","spark_pilot_norest","8442","2","17","Female","","","","","","","null","<div style=""font-size:60px;"">+</div>","null","fixation","","","","","","","","","","","",""
"learning-instructions","18","193045","0.0-3.0-3.0-0.0","spark_pilot_norest","8442","2","17","Female","","","","","","","1136.2000000029802","<p> Great job! Now try pressing the <b>down</b> key to travel down. </p>
            <img src='./assets/img/instructions/pressDown.jpg' class='instructions-image'>","","instructions","","","","","","","","","","","",""
"revaluation","19","197059","0.0-3.0-4.0-0.0","spark_pilot_norest","8442","2","17","Female","","false","","","","","[1410.9000000059605]","./assets/img/space/3.jpg","[""ArrowDown""]","first stage practice","space","0","null","null","ArrowDown","false","","","","","",""
"html-keyboard-response","20","197563","0.0-3.0-4.0-1.0","spark_pilot_norest","8442","2","17","Female","","","","","","","null","<div style=""font-size:60px;"">+</div>","null","fixation","","","","","","","","","","","",""
"revaluation","21","201579","0.0-3.0-4.0-0.1","spark_pilot_norest","8442","2","17","Female","","false","","","","","[370.70000000298023]","./assets/img/space/4.jpg","[""ArrowDown""]","first stage practice","space","0","null","null","ArrowDown","false","","","","","",""
"html-keyboard-response","22","202084","0.0-3.0-4.0-1.1","spark_pilot_norest","8442","2","17","Female","","","","","","","null","<div style=""font-size:60px;"">+</div>","null","fixation","","","","","","","","","","","",""
"revaluation","23","206103","0.0-3.0-4.0-0.2","spark_pilot_norest","8442","2","17","Female","","false","","","","","[523.2000000029802]","./assets/img/space/5.jpg","[""ArrowDown""]","first stage practice","space","0","null","null","ArrowDown","false","","","","","",""
"html-keyboard-response","24","206611","0.0-3.0-4.0-1.2","spark_pilot_norest","8442","2","17","Female","","","","","","","null","<div style=""font-size:60px;"">+</div>","null","fixation","","","","","","","","","","","",""
"learning-instructions","25","219853","0.0-3.0-5.0-0.0","spark_pilot_norest","8442","2","17","Female","","","","","","","3379.199999988079","<p> The animals don’t move, so the animal in the upper part of a place will stay in the upper part of a place, and the animal in the lower part of a place will stay in the lower part of a place. </p>","","instructions","","","","","","","","","","","",""
"learning-instructions","26","229446","0.0-3.0-5.0-0.1","spark_pilot_norest","8442","2","17","Female","","","","","","","449.29999999701977","<p> Each animal has two treasure chests for you to choose from. </p>
            <p> The amount of treasure in each chest can range from <b> 0 to 40 pieces.</b></p>","","instructions","","","","","","","","","","","",""
"learning-instructions","27","241884","0.0-3.0-5.0-0.2","spark_pilot_norest","8442","2","17","Female","","","","","","","1244.199999988079","<p> You should decide which chest to search for treasure by using the <b>left</b> and <b>right</b> arrow keys. </p>
            <p><b> Pay attention to which animal is on the screen, as the animals have different treasure chests. </b></p>
            <img src='./assets/img/instructions/leftright.jpg' class='instructions-image'>","","instructions","","","","","","","","","","","",""
"learning-instructions","28","249219","0.0-3.0-5.0-0.3","spark_pilot_norest","8442","2","17","Female","","","","","","","963.1000000089407","<p> Let’s try practicing that now. </p>
            <p> When you see an animal, choose which chest to search for treasure. </p>
            <img src='./assets/img/instructions/chooseChest.jpg' class='instructions-image'>","","instructions","","","","","","","","","","","",""
"revaluation","29","253237","0.0-3.0-6.0-0.0","spark_pilot_norest","8442","2","17","Female","","false","","","","","[909.4000000059605]","./assets/img/space/animals/cat.jpg","[""ArrowLeft""]","second stage practice","space","3","{""ArrowUp,ArrowLeft"":3,""ArrowUp,ArrowRight"":36,""ArrowDown,ArrowLeft"":15,""ArrowDown,ArrowRight"":23}","false","ArrowUp,ArrowLeft","","","","","","",""
"html-keyboard-response","30","253738","0.0-3.0-6.0-1.0","spark_pilot_norest","8442","2","17","Female","","","","","","","null","<div style=""font-size:60px;"">+</div>","null","fixation","","","","","","","","","","","",""
"revaluation","31","257756","0.0-3.0-6.0-0.1","spark_pilot_norest","8442","2","17","Female","","false","","","","","[913.2000000029802]","./assets/img/space/animals/rabbit.jpg","[""ArrowRight""]","second stage practice","space","23","{""ArrowUp,ArrowLeft"":3,""ArrowUp,ArrowRight"":36,""ArrowDown,ArrowLeft"":15,""ArrowDown,ArrowRight"":23}","true","ArrowDown,ArrowRight","","","","","","",""
"html-keyboard-response","32","258259","0.0-3.0-6.0-1.1","spark_pilot_norest","8442","2","17","Female","","","","","","","null","<div style=""font-size:60px;"">+</div>","null","fixation","","","","","","","","","","","",""
"revaluation","33","262277","0.0-3.0-6.0-0.2","spark_pilot_norest","8442","2","17","Female","","false","","","","","[858.9000000059605]","./assets/img/space/animals/rabbit.jpg","[""ArrowRight""]","second stage practice","space","23","{""ArrowUp,ArrowLeft"":3,""ArrowUp,ArrowRight"":36,""ArrowDown,ArrowLeft"":15,""ArrowDown,ArrowRight"":23}","true","ArrowDown,ArrowRight","","","","","","",""
"html-keyboard-response","34","262783","0.0-3.0-6.0-1.2","spark_pilot_norest","8442","2","17","Female","","","","","","","null","<div style=""font-size:60px;"">+</div>","null","fixation","","","","","","","","","","","",""
"revaluation","35","266800","0.0-3.0-6.0-0.3","spark_pilot_norest","8442","2","17","Female","","false","","","","","[1324.9000000059605]","./assets/img/space/animals/cat.jpg","[""ArrowRight""]","second stage practice","space","36","{""ArrowUp,ArrowLeft"":3,""ArrowUp,ArrowRight"":36,""ArrowDown,ArrowLeft"":15,""ArrowDown,ArrowRight"":23}","true","ArrowUp,ArrowRight","","","","","","",""
"html-keyboard-response","36","267311","0.0-3.0-6.0-1.3","spark_pilot_norest","8442","2","17","Female","","","","","","","null","<div style=""font-size:60px;"">+</div>","null","fixation","","","","","","","","","","","",""
"learning-instructions","37","285337","0.0-3.0-7.0-0.0","spark_pilot_norest","8442","2","17","Female","","","","","","","1198.3999999910593","<p> Great job. Now let’s try putting it together. </p>
            <p> On each turn, you will first see a picture to remind you of the place you are in, and you need to choose whether to go up or down. </p>
            <p> Then you will see an animal and choose which of its chests to search for treasure. </p>","","instructions","","","","","","","","","","","",""
"learning-instructions","38","294111","0.0-3.0-7.0-0.1","spark_pilot_norest","8442","2","17","Female","","","","","","","505.79999999701977","<p> When you choose whether to go up or down, try to go to the animal with the chest with the most treasure. </p>
            <p> Try practicing that now! </p>","","instructions","","","","","","","","","","","",""
"revaluation","39","300133","0.0-3.0-8.0-0.0","spark_pilot_norest","8442","2","17","Female","","false","","","","","[1175.4000000059605,1149.300000011921]","./assets/img/space/6.jpg","[""ArrowUp"",""ArrowRight""]","full practice","space","36","{""ArrowUp,ArrowLeft"":3,""ArrowUp,ArrowRight"":36,""ArrowDown,ArrowLeft"":15,""ArrowDown,ArrowRight"":23}","true","ArrowUp,ArrowRight","false","","","","","",""
"html-keyboard-response","40","300640","0.0-3.0-8.0-1.0","spark_pilot_norest","8442","2","17","Female","","","","","","","null","<div style=""font-size:60px;"">+</div>","null","fixation","","","","","","","","","","","",""
"revaluation","41","306661","0.0-3.0-8.0-0.1","spark_pilot_norest","8442","2","17","Female","","false","","","","","[1013,1064.6000000089407]","./assets/img/space/7.jpg","[""ArrowDown"",""ArrowRight""]","full practice","space","23","{""ArrowUp,ArrowLeft"":3,""ArrowUp,ArrowRight"":36,""ArrowDown,ArrowLeft"":15,""ArrowDown,ArrowRight"":23}","false","ArrowDown,ArrowRight","false","","","","","",""
"html-keyboard-response","42","307168","0.0-3.0-8.0-1.1","spark_pilot_norest","8442","2","17","Female","","","","","","","null","<div style=""font-size:60px;"">+</div>","null","fixation","","","","","","","","","","","",""
"revaluation","43","313189","0.0-3.0-8.0-0.2","spark_pilot_norest","8442","2","17","Female","","false","","","","","[996.7000000029802,584.3999999910593]","./assets/img/space/8.jpg","[""ArrowUp"",""ArrowRight""]","full practice","space","36","{""ArrowUp,ArrowLeft"":3,""ArrowUp,ArrowRight"":36,""ArrowDown,ArrowLeft"":15,""ArrowDown,ArrowRight"":23}","true","ArrowUp,ArrowRight","false","","","","","",""
"html-keyboard-response","44","313696","0.0-3.0-8.0-1.2","spark_pilot_norest","8442","2","17","Female","","","","","","","null","<div style=""font-size:60px;"">+</div>","null","fixation","","","","","","","","","","","",""
"revaluation","45","319718","0.0-3.0-8.0-0.3","spark_pilot_norest","8442","2","17","Female","","false","","","","","[890,839.5999999940395]","./assets/img/space/9.jpg","[""ArrowDown"",""ArrowLeft""]","full practice","space","15","{""ArrowUp,ArrowLeft"":3,""ArrowUp,ArrowRight"":36,""ArrowDown,ArrowLeft"":15,""ArrowDown,ArrowRight"":23}","false","ArrowDown,ArrowLeft","false","","","","","",""
"html-keyboard-response","46","320224","0.0-3.0-8.0-1.3","spark_pilot_norest","8442","2","17","Female","","","","","","","null","<div style=""font-size:60px;"">+</div>","null","fixation","","","","","","","","","","","",""
"revaluation","47","326247","0.0-3.0-8.0-0.4","spark_pilot_norest","8442","2","17","Female","","false","","","","","[391.6000000089407,528.7000000029802]","./assets/img/space/10.jpg","[""ArrowUp"",""ArrowRight""]","full practice","space","36","{""ArrowUp,ArrowLeft"":3,""ArrowUp,ArrowRight"":36,""ArrowDown,ArrowLeft"":15,""ArrowDown,ArrowRight"":23}","true","ArrowUp,ArrowRight","false","","","","","",""
"html-keyboard-response","48","326753","0.0-3.0-8.0-1.4","spark_pilot_norest","8442","2","17","Female","","","","","","","null","<div style=""font-size:60px;"">+</div>","null","fixation","","","","","","","","","","","",""
"learning-instructions","49","337598","0.0-3.0-9.0-0.0","spark_pilot_norest","8442","2","17","Female","","","","","","","494.3999999910593","<p> One last thing: sometimes, you will see a robber. The robber can be anywhere in the picture. </p>
            <p> If you do not stop them, you will lose treasure. </p>
            <img src='./assets/img/instructions/robber.jpg' class='instructions-image'>","","instructions","","","","","","","","","","","",""
"learning-instructions","50","345512","0.0-3.0-9.0-0.1","spark_pilot_norest","8442","2","17","Female","","","","","","","739","<p> If you see the robber, you should <b>press the space bar</b> rather than using the arrow keys. </p>
            <p> Try practicing that now! </p>","","instructions","","","","","","","","","","","",""
"revaluation","51","349525","0.0-3.0-10.0-0.0","spark_pilot_norest","8442","2","17","Female","","false","","","","","[972.0999999940395]","./assets/img/space/catch/0.jpg","[""spaceBar""]","catch practice","space","0","{""ArrowUp,ArrowLeft"":3,""ArrowUp,ArrowRight"":36,""ArrowDown,ArrowLeft"":15,""ArrowDown,ArrowRight"":23}","true","spaceBar","true","","","","","",""
"html-keyboard-response","52","350031","0.0-3.0-10.0-1.0","spark_pilot_norest","8442","2","17","Female","","","","","","","null","<div style=""font-size:60px;"">+</div>","null","fixation","","","","","","","","","","","",""
"revaluation","53","354048","0.0-3.0-10.0-0.1","spark_pilot_norest","8442","2","17","Female","","false","","","","","[583.3000000119209]","./assets/img/space/catch/1.jpg","[""spaceBar""]","catch practice","space","0","{""ArrowUp,ArrowLeft"":3,""ArrowUp,ArrowRight"":36,""ArrowDown,ArrowLeft"":15,""ArrowDown,ArrowRight"":23}","true","spaceBar","true","","","","","",""
"html-keyboard-response","54","354550","0.0-3.0-10.0-1.1","spark_pilot_norest","8442","2","17","Female","","","","","","","null","<div style=""font-size:60px;"">+</div>","null","fixation","","","","","","","","","","","",""
"revaluation","55","358570","0.0-3.0-10.0-0.2","spark_pilot_norest","8442","2","17","Female","","false","","","","","[461]","./assets/img/space/catch/2.jpg","[""spaceBar""]","catch practice","space","0","{""ArrowUp,ArrowLeft"":3,""ArrowUp,ArrowRight"":36,""ArrowDown,ArrowLeft"":15,""ArrowDown,ArrowRight"":23}","true","spaceBar","true","","","","","",""
"html-keyboard-response","56","359082","0.0-3.0-10.0-1.2","spark_pilot_norest","8442","2","17","Female","","","","","","","null","<div style=""font-size:60px;"">+</div>","null","fixation","","","","","","","","","","","",""
"learning-instructions","57","365866","0.0-3.0-11.0-0.0-0.0","spark_pilot_norest","8442","2","17","Female","","","","","","","1529.7000000029802","<p> Now, you will practice a shortened version of the game to get a sense of how it all fits together. </p>","","instructions","","","","","","","","","","","",""
"learning-instructions","58","369751","0.0-3.0-11.0-0.0-0.1","spark_pilot_norest","8442","2","17","Female","","","","","","","695","<p>This time you are searching for treasure in outer space.</p>","","instructions","","","","","","","","","","","",""
"learning-instructions","59","385137","0.0-3.0-11.0-1.0-0.0","spark_pilot_norest","8442","2","17","Female","","","","","","","603.2999999970198","<p> Remember, when you see a picture of the place, use the up and down keys to <b>find an animal</b>.</p>
            <p> When you encounter an animal, you should use the left and right keys to <b>select a treasure chest</b>.</p>
            <p> Don't forget to look out for the robber! </p>","","instructions","","","","","","","","","","","",""
"revaluation","60","391163","0.0-3.0-11.0-2.0-0.0","spark_pilot_norest","8442","2","17","Female","","false","","","","","[1233.9000000059605,1011.7000000029802]","./assets/img/space/11.jpg","[""ArrowUp"",""ArrowRight""]","practice block","space","36","{""ArrowUp,ArrowLeft"":3,""ArrowUp,ArrowRight"":36,""ArrowDown,ArrowLeft"":15,""ArrowDown,ArrowRight"":23}","true","ArrowUp,ArrowRight","false","","","","","",""
"html-keyboard-response","61","391674","0.0-3.0-11.0-2.0-1.0","spark_pilot_norest","8442","2","17","Female","","","","","","","null","<div style=""font-size:60px;"">+</div>","null","fixation","","","","","","","","","","","",""
"revaluation","62","397696","0.0-3.0-11.0-2.0-0.1","spark_pilot_norest","8442","2","17","Female","","false","","","","","[1819.8999999910593,703.2999999970198]","./assets/img/space/12.jpg","[""ArrowUp"",""ArrowRight""]","practice block","space","36","{""ArrowUp,ArrowLeft"":3,""ArrowUp,ArrowRight"":36,""ArrowDown,ArrowLeft"":15,""ArrowDown,ArrowRight"":23}","true","ArrowUp,ArrowRight","false","","","","","",""
"html-keyboard-response","63","398202","0.0-3.0-11.0-2.0-1.1","spark_pilot_norest","8442","2","17","Female","","","","","","","null","<div style=""font-size:60px;"">+</div>","null","fixation","","","","","","","","","","","",""
"revaluation","64","404224","0.0-3.0-11.0-2.0-0.2","spark_pilot_norest","8442","2","17","Female","","false","","","","","[1861.5999999940395,809]","./assets/img/space/13.jpg","[""ArrowUp"",""ArrowRight""]","practice block","space","36","{""ArrowUp,ArrowLeft"":3,""ArrowUp,ArrowRight"":36,""ArrowDown,ArrowLeft"":15,""ArrowDown,ArrowRight"":23}","true","ArrowUp,ArrowRight","false","","","","","",""
"html-keyboard-response","65","404730","0.0-3.0-11.0-2.0-1.2","spark_pilot_norest","8442","2","17","Female","","","","","","","null","<div style=""font-size:60px;"">+</div>","null","fixation","","","","","","","","","","","",""
"revaluation","66","410752","0.0-3.0-11.0-2.0-0.3","spark_pilot_norest","8442","2","17","Female","","false","","","","","[1002,493.29999999701977]","./assets/img/space/14.jpg","[""ArrowUp"",""ArrowRight""]","practice block","space","36","{""ArrowUp,ArrowLeft"":3,""ArrowUp,ArrowRight"":36,""ArrowDown,ArrowLeft"":15,""ArrowDown,ArrowRight"":23}","true","ArrowUp,ArrowRight","false","","","","","",""
"html-keyboard-response","67","411258","0.0-3.0-11.0-2.0-1.3","spark_pilot_norest","8442","2","17","Female","","","","","","","null","<div style=""font-size:60px;"">+</div>","null","fixation","","","","","","","","","","","",""
"revaluation","68","417282","0.0-3.0-11.0-2.0-0.4","spark_pilot_norest","8442","2","17","Female","","false","","","","","[960.8999999910593,950.3999999910593]","./assets/img/space/11.jpg","[""ArrowUp"",""ArrowRight""]","practice block","space","36","{""ArrowUp,ArrowLeft"":3,""ArrowUp,ArrowRight"":36,""ArrowDown,ArrowLeft"":15,""ArrowDown,ArrowRight"":23}","true","ArrowUp,ArrowRight","false","","","","","",""
"html-keyboard-response","69","417793","0.0-3.0-11.0-2.0-1.4","spark_pilot_norest","8442","2","17","Female","","","","","","","null","<div style=""font-size:60px;"">+</div>","null","fixation","","","","","","","","","","","",""
"revaluation","70","423815","0.0-3.0-11.0-2.0-0.5","spark_pilot_norest","8442","2","17","Female","","false","","","","","[957.2999999970198,313]","./assets/img/space/12.jpg","[""ArrowUp"",""ArrowRight""]","practice block","space","36","{""ArrowUp,ArrowLeft"":3,""ArrowUp,ArrowRight"":36,""ArrowDown,ArrowLeft"":15,""ArrowDown,ArrowRight"":23}","true","ArrowUp,ArrowRight","false","","","","","",""
"html-keyboard-response","71","424322","0.0-3.0-11.0-2.0-1.5","spark_pilot_norest","8442","2","17","Female","","","","","","","null","<div style=""font-size:60px;"">+</div>","null","fixation","","","","","","","","","","","",""
"revaluation","72","430343","0.0-3.0-11.0-2.0-0.6","spark_pilot_norest","8442","2","17","Female","","false","","","","","[710.7000000029802,407.20000000298023]","./assets/img/space/13.jpg","[""ArrowUp"",""ArrowRight""]","practice block","space","36","{""ArrowUp,ArrowLeft"":3,""ArrowUp,ArrowRight"":36,""ArrowDown,ArrowLeft"":15,""ArrowDown,ArrowRight"":23}","true","ArrowUp,ArrowRight","false","","","","","",""
"html-keyboard-response","73","430850","0.0-3.0-11.0-2.0-1.6","spark_pilot_norest","8442","2","17","Female","","","","","","","null","<div style=""font-size:60px;"">+</div>","null","fixation","","","","","","","","","","","",""
"revaluation","74","436871","0.0-3.0-11.0-2.0-0.7","spark_pilot_norest","8442","2","17","Female","","false","","","","","[627,476.5]","./assets/img/space/14.jpg","[""ArrowUp"",""ArrowRight""]","practice block","space","36","{""ArrowUp,ArrowLeft"":3,""ArrowUp,ArrowRight"":36,""ArrowDown,ArrowLeft"":15,""ArrowDown,ArrowRight"":23}","true","ArrowUp,ArrowRight","false","","","","","",""
"html-keyboard-response","75","437378","0.0-3.0-11.0-2.0-1.7","spark_pilot_norest","8442","2","17","Female","","","","","","","null","<div style=""font-size:60px;"">+</div>","null","fixation","","","","","","","","","","","",""
"revaluation","76","441394","0.0-3.0-11.0-2.0-0.8","spark_pilot_norest","8442","2","17","Female","","false","","","","","[858.5]","./assets/img/space/catch/3.jpg","[""spaceBar""]","practice block","space","0","{""ArrowUp,ArrowLeft"":3,""ArrowUp,ArrowRight"":36,""ArrowDown,ArrowLeft"":15,""ArrowDown,ArrowRight"":23}","true","spaceBar","true","","","","","",""
"html-keyboard-response","77","441906","0.0-3.0-11.0-2.0-1.8","spark_pilot_norest","8442","2","17","Female","","","","","","","null","<div style=""font-size:60px;"">+</div>","null","fixation","","","","","","","","","","","",""
"learning-instructions","78","455675","0.0-3.0-11.0-3.0-0.0","spark_pilot_norest","8442","2","17","Female","","","","","","","803.6000000089407","<p> Now, you will travel with a friend who will choose whether you go up or down first. </p>
            <p> On these turns, you will just see the animal that they found. You will still get to choose which chest to search for treasure.</p>","","instructions","","","","","","","","","","","",""
"revaluation","79","459692","0.0-3.0-11.0-4.0-0.0","spark_pilot_norest","8442","2","17","Female","","false","","","","","[1511.5999999940395]","./assets/img/space/animals/rabbit.jpg","[""ArrowRight""]","practice block","space","23","{""ArrowUp,ArrowLeft"":3,""ArrowUp,ArrowRight"":36,""ArrowDown,ArrowLeft"":15,""ArrowDown,ArrowRight"":23}","true","ArrowDown,ArrowRight","","","","","","",""
"html-keyboard-response","80","460203","0.0-3.0-11.0-4.0-1.0","spark_pilot_norest","8442","2","17","Female","","","","","","","null","<div style=""font-size:60px;"">+</div>","null","fixation","","","","","","","","","","","",""
"revaluation","81","464216","0.0-3.0-11.0-4.0-0.1","spark_pilot_norest","8442","2","17","Female","","false","","","","","[998.7000000029802]","./assets/img/space/animals/cat.jpg","[""ArrowRight""]","practice block","space","36","{""ArrowUp,ArrowLeft"":3,""ArrowUp,ArrowRight"":36,""ArrowDown,ArrowLeft"":15,""ArrowDown,ArrowRight"":23}","true","ArrowUp,ArrowRight","","","","","","",""
"html-keyboard-response","82","464720","0.0-3.0-11.0-4.0-1.1","spark_pilot_norest","8442","2","17","Female","","","","","","","null","<div style=""font-size:60px;"">+</div>","null","fixation","","","","","","","","","","","",""
"revaluation","83","468736","0.0-3.0-11.0-4.0-0.2","spark_pilot_norest","8442","2","17","Female","","false","","","","","[426.70000000298023]","./assets/img/space/animals/cat.jpg","[""ArrowRight""]","practice block","space","36","{""ArrowUp,ArrowLeft"":3,""ArrowUp,ArrowRight"":36,""ArrowDown,ArrowLeft"":15,""ArrowDown,ArrowRight"":23}","true","ArrowUp,ArrowRight","","","","","","",""
"html-keyboard-response","84","469244","0.0-3.0-11.0-4.0-1.2","spark_pilot_norest","8442","2","17","Female","","","","","","","null","<div style=""font-size:60px;"">+</div>","null","fixation","","","","","","","","","","","",""
"revaluation","85","473260","0.0-3.0-11.0-4.0-0.3","spark_pilot_norest","8442","2","17","Female","","false","","","","","[388.29999999701977]","./assets/img/space/animals/rabbit.jpg","[""ArrowRight""]","practice block","space","23","{""ArrowUp,ArrowLeft"":3,""ArrowUp,ArrowRight"":36,""ArrowDown,ArrowLeft"":15,""ArrowDown,ArrowRight"":23}","true","ArrowDown,ArrowRight","","","","","","",""
"html-keyboard-response","86","473772","0.0-3.0-11.0-4.0-1.3","spark_pilot_norest","8442","2","17","Female","","","","","","","null","<div style=""font-size:60px;"">+</div>","null","fixation","","","","","","","","","","","",""
"learning-instructions","87","481905","0.0-3.0-11.0-5.0-0.0","spark_pilot_norest","8442","2","17","Female","","","","","","","null","<p> You have almost finished this part of the game! </p>
            <p> We are going to ask you to make a few more choices. </p>","","instructions","","","","","","","","","","","",""
"learning-instructions","88","497932","0.0-3.0-11.0-5.0-0.1","spark_pilot_norest","8442","2","17","Female","","","","","","","null","<p> First, you need to decide whether to go up or down. When you see each picture, use the arrow keys to make your choice. </p>
            <p><b>You will not see which animal you found, but try to get to the one that will give you the most treasure.</b></p>","","instructions","","","","","","","","","","","",""
"html-keyboard-response","89","498940","0.0-3.0-11.0-6.0-0.0","spark_pilot_norest","8442","2","17","Female","","","","","","","null","<div style=""font-size:100px;color:red;"">Starting in...</div>","null","","","","","","","","","","","","",""
"html-keyboard-response","90","499948","0.0-3.0-11.0-6.0-1.0","spark_pilot_norest","8442","2","17","Female","","","","","","","null","<div style=""font-size:200px;color:red;"">3</div>","null","","","","","","","","","","","","",""
"html-keyboard-response","91","500956","0.0-3.0-11.0-6.0-2.0","spark_pilot_norest","8442","2","17","Female","","","","","","","null","<div style=""font-size:200px;color:red;"">2</div>","null","","","","","","","","","","","","",""
"html-keyboard-response","92","501961","0.0-3.0-11.0-6.0-3.0","spark_pilot_norest","8442","2","17","Female","","","","","","","null","<div style=""font-size:200px;color:red;"">1</div>","null","","","","","","","","","","","","",""
"revaluation","93","503021","0.0-3.0-11.0-7.0","spark_pilot_norest","8442","2","17","Female","","false","","","","","[1058]","./assets/img/space/15.jpg","[""ArrowUp""]","practice block","space","0","{""ArrowUp,ArrowLeft"":3,""ArrowUp,ArrowRight"":36,""ArrowDown,ArrowLeft"":15,""ArrowDown,ArrowRight"":23}","true","ArrowUp","false","","","","","",""
"html-keyboard-response","94","503529","0.0-3.0-11.0-8.0","spark_pilot_norest","8442","2","17","Female","","","","","","","null","<div style=""font-size:60px;"">+</div>","null","fixation","","","","","","","","","","","",""
"learning-instructions","95","516921","0.0-3.0-11.0-9.0-0.0","spark_pilot_norest","8442","2","17","Female","","","","","","","null","<p> Now you will see the animals again and can search their chests for treasure. </p>
            <p> This time, you will not see how much treasure you earned, but you will earn more bonus money for making better choices. </p>","","instructions","","","","","","","","","","","",""
"html-keyboard-response","96","517929","0.0-3.0-11.0-10.0-0.0","spark_pilot_norest","8442","2","17","Female","","","","","","","null","<div style=""font-size:100px;color:red;"">Starting in...</div>","null","","","","","","","","","","","","",""
"html-keyboard-response","97","518937","0.0-3.0-11.0-10.0-1.0","spark_pilot_norest","8442","2","17","Female","","","","","","","null","<div style=""font-size:200px;color:red;"">3</div>","null","","","","","","","","","","","","",""
"html-keyboard-response","98","519945","0.0-3.0-11.0-10.0-2.0","spark_pilot_norest","8442","2","17","Female","","","","","","","null","<div style=""font-size:200px;color:red;"">2</div>","null","","","","","","","","","","","","",""
"html-keyboard-response","99","520953","0.0-3.0-11.0-10.0-3.0","spark_pilot_norest","8442","2","17","Female","","","","","","","null","<div style=""font-size:200px;color:red;"">1</div>","null","","","","","","","","","","","","",""
"revaluation","100","521624","0.0-3.0-11.0-11.0-0.0","spark_pilot_norest","8442","2","17","Female","","false","","","","","[670.2000000029802]","./assets/img/space/animals/cat.jpg","[""ArrowRight""]","practice block","space","0","{""ArrowUp,ArrowLeft"":3,""ArrowUp,ArrowRight"":36,""ArrowDown,ArrowLeft"":15,""ArrowDown,ArrowRight"":23}","true","ArrowUp,ArrowRight","","","","","","",""
"html-keyboard-response","101","522130","0.0-3.0-11.0-11.0-1.0","spark_pilot_norest","8442","2","17","Female","","","","","","","null","<div style=""font-size:60px;"">+</div>","null","fixation","","","","","","","","","","","",""
"revaluation","102","522911","0.0-3.0-11.0-11.0-0.1","spark_pilot_norest","8442","2","17","Female","","false","","","","","[779.2999999970198]","./assets/img/space/animals/rabbit.jpg","[""ArrowRight""]","practice block","space","0","{""ArrowUp,ArrowLeft"":3,""ArrowUp,ArrowRight"":36,""ArrowDown,ArrowLeft"":15,""ArrowDown,ArrowRight"":23}","true","ArrowDown,ArrowRight","","","","","","",""
"html-keyboard-response","103","523418","0.0-3.0-11.0-11.0-1.1","spark_pilot_norest","8442","2","17","Female","","","","","","","null","<div style=""font-size:60px;"">+</div>","null","fixation","","","","","","","","","","","",""
"learning-instructions","104","558946","0.0-3.0-12.0-0.0","spark_pilot_norest","8442","2","17","Female","","","","","","","30947.70000000298","<p> Before you start, we're going to ask you a few questions about how the game works. </p>","","instructions","","","","","","","","","","","",""
"comp-q","105","565649","0.0-3.0-13.0-0.0-0.0","spark_pilot_norest","8442","2","17","Female","","","","","","","1074","<p> <b> True or False? </b> </p>
            <p> There can be 50 pieces of treasure in a given animal's chest. </p>","1","comp_question","","","","true","","","","","","","",""
"comp-q","106","573521","0.0-3.0-13.0-0.0-1.0","spark_pilot_norest","8442","2","17","Female","","","","","","","1204.2000000029802","<p> <b> That's right! </b> The amount of treasure in each chest can range from 0 to 40 pieces. </p>","0","comp_answer","","","","","","","","","","","",""
"comp-q","107","581070","0.0-3.0-13.0-0.1-0.1","spark_pilot_norest","8442","2","17","Female","","","","","","","422.3999999910593","<p> <b> True or False? </b> </p><p> In this game, all animals have the same amount of treasure in their left and right chests. </p>","1","comp_question","","","","true","","","","","","","",""
"comp-q","108","587554","0.0-3.0-13.0-0.1-1.1","spark_pilot_norest","8442","2","17","Female","","","","","","","1248","<p> <b> That's right! </b> Animals have different amounts of treasure in their treasure chests. </p>","0","comp_answer","","","","","","","","","","","",""
"comp-q","109","594192","0.0-3.0-13.0-0.2-0.2","spark_pilot_norest","8442","2","17","Female","","","","","","","786.7999999970198","<p> <b> True or False? </b> </p><p> The same animal will always be there if you go up in the same place. </p>","0","comp_question","","","","true","","","","","","","",""
"comp-q","110","601993","0.0-3.0-13.0-0.2-1.2","spark_pilot_norest","8442","2","17","Female","","","","","","","1350.7999999970198","<p> <b> That's right! </b> One animal lives in the upper part and one lives in the lower part of every place. </p>","0","comp_answer","","","","","","","","","","","",""
"comp-q","111","608126","0.0-3.0-13.0-0.3-0.3","spark_pilot_norest","8442","2","17","Female","","","","","","","604","<p> <b> True or False? </b> </p><p> If you see a different picture, it means you are in a new place. </p>","1","comp_question","","","","true","","","","","","","",""
"comp-q","112","620207","0.0-3.0-13.0-0.3-1.3","spark_pilot_norest","8442","2","17","Female","","","","","","","844.2000000029802","<p> <b> That's right! </b> Lots of different images may show the same place. For example,  you may see three different images that all remind you that you are in outer space. </p>","0","comp_answer","","","","","","","","","","","",""
"learning-instructions","113","638624","0.0-3.0-14.0-0.0","spark_pilot_norest","8442","2","17","Female","","","","","","","8557.5","<p> Good job. Remember to do your best because the amount of treasure you earn will be converted into bonus money. </p>
            <p> It’s time to start the real game! </p>","","instructions","","","","","","","","","","","",""
"learning-instructions","114","642395","0.0-4.0-0.0-0.0","spark_pilot_norest","8442","2","17","Female","","","","","","","1059.3999999910593","<p> This time you are searching for treasure in the <b>ocean</b>.</p>","","instructions","","","","","","","","","","","",""
"learning-instructions","115","660200","0.0-4.0-0.0-0.1","spark_pilot_norest","8442","2","17","Female","","","","","","","496.40000000596046","<p><b>New</b> animals with <b>new</b> treasure chests live here. You need to explore to discover where the animal with the best treasure chest is.</p>
                    <p> Like before, once you figure out which animal has the chest with the most treasure, you should try to get to that animal and select that chest! </p>","","instructions","","","","","","","","","","","",""
"learning-instructions","116","675862","0.0-4.0-1.0-0.0","spark_pilot_norest","8442","2","17","Female","","","","","","","931.3000000119209","<p> Remember, when you see a picture of the place, use the up and down keys to <b>find an animal</b>.</p>
            <p> When you encounter an animal, you should use the left and right keys to <b>select a treasure chest</b>.</p>
            <p> Don't forget to look out for the robber! </p>","","instructions","","","","","","","","","","","",""
"revaluation","117","681885","0.0-4.0-2.0-0.0","spark_pilot_norest","8442","2","17","Female","","false","","","","","[1430.1000000089407,656.5]","./assets/img/ocean/memory/15.jpg","[""ArrowUp"",""ArrowRight""]","value training","ocean","10","{""ArrowUp,ArrowLeft"":23,""ArrowUp,ArrowRight"":10,""ArrowDown,ArrowLeft"":8,""ArrowDown,ArrowRight"":30}","false","ArrowUp,ArrowRight","false","revaluation","1","0","","",""
"html-keyboard-response","118","682397","0.0-4.0-2.0-1.0","spark_pilot_norest","8442","2","17","Female","","","","","","","null","<div style=""font-size:60px;"">+</div>","null","fixation","","","","","","","","","1","","",""
"revaluation","119","688424","0.0-4.0-2.0-0.1","spark_pilot_norest","8442","2","17","Female","","false","","","","","[585,461.79999999701977]","./assets/img/ocean/memory/34.jpg","[""ArrowUp"",""ArrowLeft""]","value training","ocean","23","{""ArrowUp,ArrowLeft"":23,""ArrowUp,ArrowRight"":10,""ArrowDown,ArrowLeft"":8,""ArrowDown,ArrowRight"":30}","false","ArrowUp,ArrowLeft","false","revaluation","1","2","","",""
"html-keyboard-response","120","688936","0.0-4.0-2.0-1.1","spark_pilot_norest","8442","2","17","Female","","","","","","","null","<div style=""font-size:60px;"">+</div>","null","fixation","","","","","","","","","3","","",""
"revaluation","121","694958","0.0-4.0-2.0-0.2","spark_pilot_norest","8442","2","17","Female","","false","","","","","[791.7000000029802,582.7999999970198]","./assets/img/ocean/memory/10.jpg","[""ArrowDown"",""ArrowRight""]","value training","ocean","30","{""ArrowUp,ArrowLeft"":23,""ArrowUp,ArrowRight"":10,""ArrowDown,ArrowLeft"":8,""ArrowDown,ArrowRight"":30}","true","ArrowDown,ArrowRight","false","revaluation","1","4","","",""
"html-keyboard-response","122","695462","0.0-4.0-2.0-1.2","spark_pilot_norest","8442","2","17","Female","","","","","","","null","<div style=""font-size:60px;"">+</div>","null","fixation","","","","","","","","","5","","",""
"revaluation","123","701485","0.0-4.0-2.0-0.3","spark_pilot_norest","8442","2","17","Female","","false","","","","","[1022.2000000029802,370]","./assets/img/ocean/memory/37.jpg","[""ArrowDown"",""ArrowLeft""]","value training","ocean","8","{""ArrowUp,ArrowLeft"":23,""ArrowUp,ArrowRight"":10,""ArrowDown,ArrowLeft"":8,""ArrowDown,ArrowRight"":30}","false","ArrowDown,ArrowLeft","false","revaluation","1","6","","",""
"html-keyboard-response","124","701992","0.0-4.0-2.0-1.3","spark_pilot_norest","8442","2","17","Female","","","","","","","null","<div style=""font-size:60px;"">+</div>","null","fixation","","","","","","","","","7","","",""
"revaluation","125","708015","0.0-4.0-2.0-0.4","spark_pilot_norest","8442","2","17","Female","","false","","","","","[565.5,278.30000001192093]","./assets/img/ocean/memory/32.jpg","[""ArrowDown"",""ArrowRight""]","value training","ocean","30","{""ArrowUp,ArrowLeft"":23,""ArrowUp,ArrowRight"":10,""ArrowDown,ArrowLeft"":8,""ArrowDown,ArrowRight"":30}","true","ArrowDown,ArrowRight","false","revaluation","1","8","","",""
"html-keyboard-response","126","708527","0.0-4.0-2.0-1.4","spark_pilot_norest","8442","2","17","Female","","","","","","","null","<div style=""font-size:60px;"">+</div>","null","fixation","","","","","","","","","9","","",""
"revaluation","127","714549","0.0-4.0-2.0-0.5","spark_pilot_norest","8442","2","17","Female","","false","","","","","[646,308.09999999403954]","./assets/img/ocean/memory/30.jpg","[""ArrowDown"",""ArrowRight""]","value training","ocean","30","{""ArrowUp,ArrowLeft"":23,""ArrowUp,ArrowRight"":10,""ArrowDown,ArrowLeft"":8,""ArrowDown,ArrowRight"":30}","true","ArrowDown,ArrowRight","false","revaluation","1","10","","",""
"html-keyboard-response","128","715055","0.0-4.0-2.0-1.5","spark_pilot_norest","8442","2","17","Female","","","","","","","null","<div style=""font-size:60px;"">+</div>","null","fixation","","","","","","","","","11","","",""
"revaluation","129","721082","0.0-4.0-2.0-0.6","spark_pilot_norest","8442","2","17","Female","","false","","","","","[877.7000000029802,313.5]","./assets/img/ocean/memory/27.jpg","[""ArrowDown"",""ArrowRight""]","value training","ocean","30","{""ArrowUp,ArrowLeft"":23,""ArrowUp,ArrowRight"":10,""ArrowDown,ArrowLeft"":8,""ArrowDown,ArrowRight"":30}","true","ArrowDown,ArrowRight","false","revaluation","1","12","","",""
"html-keyboard-response","130","721594","0.0-4.0-2.0-1.6","spark_pilot_norest","8442","2","17","Female","","","","","","","null","<div style=""font-size:60px;"">+</div>","null","fixation","","","","","","","","","13","","",""
"revaluation","131","727621","0.0-4.0-2.0-0.7","spark_pilot_norest","8442","2","17","Female","","false","","","","","[859,323.29999999701977]","./assets/img/ocean/memory/13.jpg","[""ArrowDown"",""ArrowRight""]","value training","ocean","30","{""ArrowUp,ArrowLeft"":23,""ArrowUp,ArrowRight"":10,""ArrowDown,ArrowLeft"":8,""ArrowDown,ArrowRight"":30}","true","ArrowDown,ArrowRight","false","revaluation","1","14","","",""
"html-keyboard-response","132","728127","0.0-4.0-2.0-1.7","spark_pilot_norest","8442","2","17","Female","","","","","","","null","<div style=""font-size:60px;"">+</div>","null","fixation","","","","","","","","","15","","",""
"revaluation","133","734154","0.0-4.0-2.0-0.8","spark_pilot_norest","8442","2","17","Female","","false","","","","","[885.6000000089407,222.29999999701977]","./assets/img/ocean/memory/36.jpg","[""ArrowDown"",""ArrowRight""]","value training","ocean","30","{""ArrowUp,ArrowLeft"":23,""ArrowUp,ArrowRight"":10,""ArrowDown,ArrowLeft"":8,""ArrowDown,ArrowRight"":30}","true","ArrowDown,ArrowRight","false","revaluation","1","16","","",""
"html-keyboard-response","134","734662","0.0-4.0-2.0-1.8","spark_pilot_norest","8442","2","17","Female","","","","","","","null","<div style=""font-size:60px;"">+</div>","null","fixation","","","","","","","","","17","","",""
"revaluation","135","740688","0.0-4.0-2.0-0.9","spark_pilot_norest","8442","2","17","Female","","false","","","","","[776.4000000059605,230.09999999403954]","./assets/img/ocean/memory/24.jpg","[""ArrowDown"",""ArrowRight""]","value training","ocean","30","{""ArrowUp,ArrowLeft"":23,""ArrowUp,ArrowRight"":10,""ArrowDown,ArrowLeft"":8,""ArrowDown,ArrowRight"":30}","true","ArrowDown,ArrowRight","false","revaluation","1","18","","",""
"html-keyboard-response","136","741199","0.0-4.0-2.0-1.9","spark_pilot_norest","8442","2","17","Female","","","","","","","null","<div style=""font-size:60px;"">+</div>","null","fixation","","","","","","","","","19","","",""
"revaluation","137","747226","0.0-4.0-2.0-0.10","spark_pilot_norest","8442","2","17","Female","","false","","","","","[1887,684.8999999910593]","./assets/img/ocean/memory/9.jpg","[""ArrowDown"",""ArrowRight""]","value training","ocean","30","{""ArrowUp,ArrowLeft"":23,""ArrowUp,ArrowRight"":10,""ArrowDown,ArrowLeft"":8,""ArrowDown,ArrowRight"":30}","true","ArrowDown,ArrowRight","false","revaluation","1","20","","",""
"html-keyboard-response","138","747738","0.0-4.0-2.0-1.10","spark_pilot_norest","8442","2","17","Female","","","","","","","null","<div style=""font-size:60px;"">+</div>","null","fixation","","","","","","","","","21","","",""
"revaluation","139","753766","0.0-4.0-2.0-0.11","spark_pilot_norest","8442","2","17","Female","","false","","","","","[682.1000000089407,303.09999999403954]","./assets/img/ocean/memory/37.jpg","[""ArrowDown"",""ArrowRight""]","value training","ocean","30","{""ArrowUp,ArrowLeft"":23,""ArrowUp,ArrowRight"":10,""ArrowDown,ArrowLeft"":8,""ArrowDown,ArrowRight"":30}","true","ArrowDown,ArrowRight","false","revaluation","1","22","","",""
"html-keyboard-response","140","754272","0.0-4.0-2.0-1.11","spark_pilot_norest","8442","2","17","Female","","","","","","","null","<div style=""font-size:60px;"">+</div>","null","fixation","","","","","","","","","23","","",""
"revaluation","141","760294","0.0-4.0-2.0-0.12","spark_pilot_norest","8442","2","17","Female","","false","","","","","[537.8000000119209,308.40000000596046]","./assets/img/ocean/memory/30.jpg","[""ArrowDown"",""ArrowRight""]","value training","ocean","30","{""ArrowUp,ArrowLeft"":23,""ArrowUp,ArrowRight"":10,""ArrowDown,ArrowLeft"":8,""ArrowDown,ArrowRight"":30}","true","ArrowDown,ArrowRight","false","revaluation","1","24","","",""
"html-keyboard-response","142","760800","0.0-4.0-2.0-1.12","spark_pilot_norest","8442","2","17","Female","","","","","","","null","<div style=""font-size:60px;"">+</div>","null","fixation","","","","","","","","","25","","",""
"revaluation","143","766827","0.0-4.0-2.0-0.13","spark_pilot_norest","8442","2","17","Female","","false","","","","","[564.2000000029802,288.3999999910593]","./assets/img/ocean/memory/34.jpg","[""ArrowDown"",""ArrowRight""]","value training","ocean","30","{""ArrowUp,ArrowLeft"":23,""ArrowUp,ArrowRight"":10,""ArrowDown,ArrowLeft"":8,""ArrowDown,ArrowRight"":30}","true","ArrowDown,ArrowRight","false","revaluation","1","26","","",""
"html-keyboard-response","144","767339","0.0-4.0-2.0-1.13","spark_pilot_norest","8442","2","17","Female","","","","","","","null","<div style=""font-size:60px;"">+</div>","null","fixation","","","","","","","","","27","","",""
"revaluation","145","773366","0.0-4.0-2.0-0.14","spark_pilot_norest","8442","2","17","Female","","false","","","","","[989.2999999970198,322.8999999910593]","./assets/img/ocean/memory/14.jpg","[""ArrowDown"",""ArrowRight""]","value training","ocean","30","{""ArrowUp,ArrowLeft"":23,""ArrowUp,ArrowRight"":10,""ArrowDown,ArrowLeft"":8,""ArrowDown,ArrowRight"":30}","true","ArrowDown,ArrowRight","false","revaluation","1","28","","",""
"html-keyboard-response","146","773872","0.0-4.0-2.0-1.14","spark_pilot_norest","8442","2","17","Female","","","","","","","null","<div style=""font-size:60px;"">+</div>","null","fixation","","","","","","","","","29","","",""
"revaluation","147","779895","0.0-4.0-2.0-0.15","spark_pilot_norest","8442","2","17","Female","","false","","","","","[842.7999999970198,282.5]","./assets/img/ocean/memory/0.jpg","[""ArrowDown"",""ArrowRight""]","value training","ocean","30","{""ArrowUp,ArrowLeft"":23,""ArrowUp,ArrowRight"":10,""ArrowDown,ArrowLeft"":8,""ArrowDown,ArrowRight"":30}","true","ArrowDown,ArrowRight","false","revaluation","1","30","","",""
"html-keyboard-response","148","780400","0.0-4.0-2.0-1.15","spark_pilot_norest","8442","2","17","Female","","","","","","","null","<div style=""font-size:60px;"">+</div>","null","fixation","","","","","","","","","31","","",""
"revaluation","149","784417","0.0-4.0-2.0-0.16","spark_pilot_norest","8442","2","17","Female","","true","","","","","[]","./assets/img/ocean/memory/31.jpg","[]","value training","ocean","-5","{""ArrowUp,ArrowLeft"":23,""ArrowUp,ArrowRight"":10,""ArrowDown,ArrowLeft"":8,""ArrowDown,ArrowRight"":30}","false","","false","revaluation","1","32","","",""
"html-keyboard-response","150","784918","0.0-4.0-2.0-1.16","spark_pilot_norest","8442","2","17","Female","","","","","","","null","<div style=""font-size:60px;"">+</div>","null","fixation","","","","","","","","","33","","",""
"revaluation","151","790945","0.0-4.0-2.0-0.17","spark_pilot_norest","8442","2","17","Female","","false","","","","","[451,362.30000001192093]","./assets/img/ocean/memory/5.jpg","[""ArrowDown"",""ArrowRight""]","value training","ocean","30","{""ArrowUp,ArrowLeft"":23,""ArrowUp,ArrowRight"":10,""ArrowDown,ArrowLeft"":8,""ArrowDown,ArrowRight"":30}","true","ArrowDown,ArrowRight","false","revaluation","1","34","","",""
"html-keyboard-response","152","791451","0.0-4.0-2.0-1.17","spark_pilot_norest","8442","2","17","Female","","","","","","","null","<div style=""font-size:60px;"">+</div>","null","fixation","","","","","","","","","35","","",""
"revaluation","153","797479","0.0-4.0-2.0-0.18","spark_pilot_norest","8442","2","17","Female","","false","","","","","[953.0999999940395,353.09999999403954]","./assets/img/ocean/memory/24.jpg","[""ArrowDown"",""ArrowRight""]","value training","ocean","30","{""ArrowUp,ArrowLeft"":23,""ArrowUp,ArrowRight"":10,""ArrowDown,ArrowLeft"":8,""ArrowDown,ArrowRight"":30}","true","ArrowDown,ArrowRight","false","revaluation","1","36","","",""
"html-keyboard-response","154","797985","0.0-4.0-2.0-1.18","spark_pilot_norest","8442","2","17","Female","","","","","","","null","<div style=""font-size:60px;"">+</div>","null","fixation","","","","","","","","","37","","",""
"revaluation","155","804001","0.0-4.0-2.0-0.19","spark_pilot_norest","8442","2","17","Female","","false","","","","","[558,147.5]","./assets/img/ocean/memory/10.jpg","[""ArrowDown"",""ArrowRight""]","value training","ocean","30","{""ArrowUp,ArrowLeft"":23,""ArrowUp,ArrowRight"":10,""ArrowDown,ArrowLeft"":8,""ArrowDown,ArrowRight"":30}","true","ArrowDown,ArrowRight","false","revaluation","1","38","","",""
"html-keyboard-response","156","804502","0.0-4.0-2.0-1.19","spark_pilot_norest","8442","2","17","Female","","","","","","","null","<div style=""font-size:60px;"">+</div>","null","fixation","","","","","","","","","39","","",""
"revaluation","157","810529","0.0-4.0-2.0-0.20","spark_pilot_norest","8442","2","17","Female","","false","","","","","[416.80000001192093,289.6000000089407]","./assets/img/ocean/memory/20.jpg","[""ArrowDown"",""ArrowRight""]","value training","ocean","30","{""ArrowUp,ArrowLeft"":23,""ArrowUp,ArrowRight"":10,""ArrowDown,ArrowLeft"":8,""ArrowDown,ArrowRight"":30}","true","ArrowDown,ArrowRight","false","revaluation","1","40","","",""
"html-keyboard-response","158","811041","0.0-4.0-2.0-1.20","spark_pilot_norest","8442","2","17","Female","","","","","","","null","<div style=""font-size:60px;"">+</div>","null","fixation","","","","","","","","","41","","",""
"revaluation","159","817068","0.0-4.0-2.0-0.21","spark_pilot_norest","8442","2","17","Female","","false","","","","","[619.7000000029802,268.79999999701977]","./assets/img/ocean/memory/40.jpg","[""ArrowDown"",""ArrowRight""]","value training","ocean","30","{""ArrowUp,ArrowLeft"":23,""ArrowUp,ArrowRight"":10,""ArrowDown,ArrowLeft"":8,""ArrowDown,ArrowRight"":30}","true","ArrowDown,ArrowRight","false","revaluation","1","42","","",""
"html-keyboard-response","160","817577","0.0-4.0-2.0-1.21","spark_pilot_norest","8442","2","17","Female","","","","","","","null","<div style=""font-size:60px;"">+</div>","null","fixation","","","","","","","","","43","","",""
"revaluation","161","821596","0.0-4.0-2.0-0.22","spark_pilot_norest","8442","2","17","Female","","false","","","","","[707.3999999910593]","./assets/img/ocean/catch/0.jpg","[""spaceBar""]","value training","ocean","0","{""ArrowUp,ArrowLeft"":23,""ArrowUp,ArrowRight"":10,""ArrowDown,ArrowLeft"":8,""ArrowDown,ArrowRight"":30}","true","spaceBar","true","revaluation","1","44","","",""
"html-keyboard-response","162","822106","0.0-4.0-2.0-1.22","spark_pilot_norest","8442","2","17","Female","","","","","","","null","<div style=""font-size:60px;"">+</div>","null","fixation","","","","","","","","","45","","",""
"revaluation","163","826119","0.0-4.0-2.0-0.23","spark_pilot_norest","8442","2","17","Female","","false","","","","","[826]","./assets/img/ocean/catch/5.jpg","[""spaceBar""]","value training","ocean","0","{""ArrowUp,ArrowLeft"":23,""ArrowUp,ArrowRight"":10,""ArrowDown,ArrowLeft"":8,""ArrowDown,ArrowRight"":30}","true","spaceBar","true","revaluation","1","46","","",""
"html-keyboard-response","164","826625","0.0-4.0-2.0-1.23","spark_pilot_norest","8442","2","17","Female","","","","","","","null","<div style=""font-size:60px;"">+</div>","null","fixation","","","","","","","","","47","","",""
"revaluation","165","832647","0.0-4.0-2.0-0.24","spark_pilot_norest","8442","2","17","Female","","false","","","","","[948.1999999880791,329.30000001192093]","./assets/img/ocean/memory/13.jpg","[""ArrowDown"",""ArrowRight""]","value training","ocean","30","{""ArrowUp,ArrowLeft"":23,""ArrowUp,ArrowRight"":10,""ArrowDown,ArrowLeft"":8,""ArrowDown,ArrowRight"":30}","true","ArrowDown,ArrowRight","false","revaluation","1","48","","",""
"html-keyboard-response","166","833153","0.0-4.0-2.0-1.24","spark_pilot_norest","8442","2","17","Female","","","","","","","null","<div style=""font-size:60px;"">+</div>","null","fixation","","","","","","","","","49","","",""
"revaluation","167","839175","0.0-4.0-2.0-0.25","spark_pilot_norest","8442","2","17","Female","","false","","","","","[903.5999999940395,311.79999999701977]","./assets/img/ocean/memory/2.jpg","[""ArrowDown"",""ArrowRight""]","value training","ocean","30","{""ArrowUp,ArrowLeft"":23,""ArrowUp,ArrowRight"":10,""ArrowDown,ArrowLeft"":8,""ArrowDown,ArrowRight"":30}","true","ArrowDown,ArrowRight","false","revaluation","1","50","","",""
"html-keyboard-response","168","839682","0.0-4.0-2.0-1.25","spark_pilot_norest","8442","2","17","Female","","","","","","","null","<div style=""font-size:60px;"">+</div>","null","fixation","","","","","","","","","51","","",""
"revaluation","169","845709","0.0-4.0-2.0-0.26","spark_pilot_norest","8442","2","17","Female","","false","","","","","[641.2000000029802,251.59999999403954]","./assets/img/ocean/memory/6.jpg","[""ArrowDown"",""ArrowRight""]","value training","ocean","30","{""ArrowUp,ArrowLeft"":23,""ArrowUp,ArrowRight"":10,""ArrowDown,ArrowLeft"":8,""ArrowDown,ArrowRight"":30}","true","ArrowDown,ArrowRight","false","revaluation","1","52","","",""
"html-keyboard-response","170","846219","0.0-4.0-2.0-1.26","spark_pilot_norest","8442","2","17","Female","","","","","","","null","<div style=""font-size:60px;"">+</div>","null","fixation","","","","","","","","","53","","",""
"revaluation","171","852242","0.0-4.0-2.0-0.27","spark_pilot_norest","8442","2","17","Female","","false","","","","","[802.8999999910593,310]","./assets/img/ocean/memory/15.jpg","[""ArrowDown"",""ArrowRight""]","value training","ocean","30","{""ArrowUp,ArrowLeft"":23,""ArrowUp,ArrowRight"":10,""ArrowDown,ArrowLeft"":8,""ArrowDown,ArrowRight"":30}","true","ArrowDown,ArrowRight","false","revaluation","1","54","","",""
"html-keyboard-response","172","852748","0.0-4.0-2.0-1.27","spark_pilot_norest","8442","2","17","Female","","","","","","","null","<div style=""font-size:60px;"">+</div>","null","fixation","","","","","","","","","55","","",""
"revaluation","173","858776","0.0-4.0-2.0-0.28","spark_pilot_norest","8442","2","17","Female","","false","","","","","[772.6000000089407,337.8999999910593]","./assets/img/ocean/memory/27.jpg","[""ArrowDown"",""ArrowRight""]","value training","ocean","30","{""ArrowUp,ArrowLeft"":23,""ArrowUp,ArrowRight"":10,""ArrowDown,ArrowLeft"":8,""ArrowDown,ArrowRight"":30}","true","ArrowDown,ArrowRight","false","revaluation","1","56","","",""
"html-keyboard-response","174","859282","0.0-4.0-2.0-1.28","spark_pilot_norest","8442","2","17","Female","","","","","","","null","<div style=""font-size:60px;"">+</div>","null","fixation","","","","","","","","","57","","",""
"revaluation","175","863298","0.0-4.0-2.0-0.29","spark_pilot_norest","8442","2","17","Female","","false","","","","","[737.9000000059605]","./assets/img/ocean/catch/4.jpg","[""spaceBar""]","value training","ocean","0","{""ArrowUp,ArrowLeft"":23,""ArrowUp,ArrowRight"":10,""ArrowDown,ArrowLeft"":8,""ArrowDown,ArrowRight"":30}","true","spaceBar","true","revaluation","1","58","","",""
"html-keyboard-response","176","863805","0.0-4.0-2.0-1.29","spark_pilot_norest","8442","2","17","Female","","","","","","","null","<div style=""font-size:60px;"">+</div>","null","fixation","","","","","","","","","59","","",""
"revaluation","177","869837","0.0-4.0-2.0-0.30","spark_pilot_norest","8442","2","17","Female","","false","","","","","[878.5,300.90000000596046]","./assets/img/ocean/memory/0.jpg","[""ArrowDown"",""ArrowRight""]","value training","ocean","30","{""ArrowUp,ArrowLeft"":23,""ArrowUp,ArrowRight"":10,""ArrowDown,ArrowLeft"":8,""ArrowDown,ArrowRight"":30}","true","ArrowDown,ArrowRight","false","revaluation","1","60","","",""
"html-keyboard-response","178","870349","0.0-4.0-2.0-1.30","spark_pilot_norest","8442","2","17","Female","","","","","","","null","<div style=""font-size:60px;"">+</div>","null","fixation","","","","","","","","","61","","",""
"revaluation","179","876376","0.0-4.0-2.0-0.31","spark_pilot_norest","8442","2","17","Female","","false","","","","","[625.7000000029802,285.90000000596046]","./assets/img/ocean/memory/40.jpg","[""ArrowDown"",""ArrowRight""]","value training","ocean","30","{""ArrowUp,ArrowLeft"":23,""ArrowUp,ArrowRight"":10,""ArrowDown,ArrowLeft"":8,""ArrowDown,ArrowRight"":30}","true","ArrowDown,ArrowRight","false","revaluation","1","62","","",""
"html-keyboard-response","180","876882","0.0-4.0-2.0-1.31","spark_pilot_norest","8442","2","17","Female","","","","","","","null","<div style=""font-size:60px;"">+</div>","null","fixation","","","","","","","","","63","","",""
"revaluation","181","880899","0.0-4.0-2.0-0.32","spark_pilot_norest","8442","2","17","Female","","false","","","","","[735.7000000029802]","./assets/img/ocean/catch/2.jpg","[""spaceBar""]","value training","ocean","0","{""ArrowUp,ArrowLeft"":23,""ArrowUp,ArrowRight"":10,""ArrowDown,ArrowLeft"":8,""ArrowDown,ArrowRight"":30}","true","spaceBar","true","revaluation","1","64","","",""
"html-keyboard-response","182","881400","0.0-4.0-2.0-1.32","spark_pilot_norest","8442","2","17","Female","","","","","","","null","<div style=""font-size:60px;"">+</div>","null","fixation","","","","","","","","","65","","",""
"revaluation","183","887427","0.0-4.0-2.0-0.33","spark_pilot_norest","8442","2","17","Female","","false","","","","","[820.3000000119209,305.30000001192093]","./assets/img/ocean/memory/31.jpg","[""ArrowDown"",""ArrowRight""]","value training","ocean","30","{""ArrowUp,ArrowLeft"":23,""ArrowUp,ArrowRight"":10,""ArrowDown,ArrowLeft"":8,""ArrowDown,ArrowRight"":30}","true","ArrowDown,ArrowRight","false","revaluation","1","66","","",""
"html-keyboard-response","184","887938","0.0-4.0-2.0-1.33","spark_pilot_norest","8442","2","17","Female","","","","","","","null","<div style=""font-size:60px;"">+</div>","null","fixation","","","","","","","","","67","","",""
"revaluation","185","891955","0.0-4.0-2.0-0.34","spark_pilot_norest","8442","2","17","Female","","true","","","","","[]","./assets/img/ocean/memory/29.jpg","[]","value training","ocean","-5","{""ArrowUp,ArrowLeft"":23,""ArrowUp,ArrowRight"":10,""ArrowDown,ArrowLeft"":8,""ArrowDown,ArrowRight"":30}","false","","false","revaluation","1","68","","",""
"html-keyboard-response","186","892467","0.0-4.0-2.0-1.34","spark_pilot_norest","8442","2","17","Female","","","","","","","null","<div style=""font-size:60px;"">+</div>","null","fixation","","","","","","","","","69","","",""
"revaluation","187","896483","0.0-4.0-2.0-0.35","spark_pilot_norest","8442","2","17","Female","","false","","","","","[981.5999999940395]","./assets/img/ocean/catch/6.jpg","[""spaceBar""]","value training","ocean","0","{""ArrowUp,ArrowLeft"":23,""ArrowUp,ArrowRight"":10,""ArrowDown,ArrowLeft"":8,""ArrowDown,ArrowRight"":30}","true","spaceBar","true","revaluation","1","70","","",""
"html-keyboard-response","188","896984","0.0-4.0-2.0-1.35","spark_pilot_norest","8442","2","17","Female","","","","","","","null","<div style=""font-size:60px;"">+</div>","null","fixation","","","","","","","","","71","","",""
"revaluation","189","901002","0.0-4.0-2.0-0.36","spark_pilot_norest","8442","2","17","Female","","false","","","","","[904]","./assets/img/ocean/catch/3.jpg","[""spaceBar""]","value training","ocean","0","{""ArrowUp,ArrowLeft"":23,""ArrowUp,ArrowRight"":10,""ArrowDown,ArrowLeft"":8,""ArrowDown,ArrowRight"":30}","true","spaceBar","true","revaluation","1","72","","",""
"html-keyboard-response","190","901506","0.0-4.0-2.0-1.36","spark_pilot_norest","8442","2","17","Female","","","","","","","null","<div style=""font-size:60px;"">+</div>","null","fixation","","","","","","","","","73","","",""
"revaluation","191","905523","0.0-4.0-2.0-0.37","spark_pilot_norest","8442","2","17","Female","","true","","","","","[]","./assets/img/ocean/memory/9.jpg","[]","value training","ocean","-5","{""ArrowUp,ArrowLeft"":23,""ArrowUp,ArrowRight"":10,""ArrowDown,ArrowLeft"":8,""ArrowDown,ArrowRight"":30}","false","","false","revaluation","1","74","","",""
"html-keyboard-response","192","906035","0.0-4.0-2.0-1.37","spark_pilot_norest","8442","2","17","Female","","","","","","","null","<div style=""font-size:60px;"">+</div>","null","fixation","","","","","","","","","75","","",""
"revaluation","193","910052","0.0-4.0-2.0-0.38","spark_pilot_norest","8442","2","17","Female","","true","","","","","[]","./assets/img/ocean/memory/2.jpg","[]","value training","ocean","-5","{""ArrowUp,ArrowLeft"":23,""ArrowUp,ArrowRight"":10,""ArrowDown,ArrowLeft"":8,""ArrowDown,ArrowRight"":30}","false","","false","revaluation","1","76","","",""
"html-keyboard-response","194","910563","0.0-4.0-2.0-1.38","spark_pilot_norest","8442","2","17","Female","","","","","","","null","<div style=""font-size:60px;"">+</div>","null","fixation","","","","","","","","","77","","",""
"revaluation","195","914579","0.0-4.0-2.0-0.39","spark_pilot_norest","8442","2","17","Female","","true","","","","","[]","./assets/img/ocean/memory/6.jpg","[]","value training","ocean","-5","{""ArrowUp,ArrowLeft"":23,""ArrowUp,ArrowRight"":10,""ArrowDown,ArrowLeft"":8,""ArrowDown,ArrowRight"":30}","false","","false","revaluation","1","78","","",""
"html-keyboard-response","196","915091","0.0-4.0-2.0-1.39","spark_pilot_norest","8442","2","17","Female","","","","","","","null","<div style=""font-size:60px;"">+</div>","null","fixation","","","","","","","","","79","","",""
"revaluation","197","919108","0.0-4.0-2.0-0.40","spark_pilot_norest","8442","2","17","Female","","true","","","","","[]","./assets/img/ocean/memory/14.jpg","[]","value training","ocean","-5","{""ArrowUp,ArrowLeft"":23,""ArrowUp,ArrowRight"":10,""ArrowDown,ArrowLeft"":8,""ArrowDown,ArrowRight"":30}","false","","false","revaluation","1","80","","",""
"html-keyboard-response","198","919619","0.0-4.0-2.0-1.40","spark_pilot_norest","8442","2","17","Female","","","","","","","null","<div style=""font-size:60px;"">+</div>","null","fixation","","","","","","","","","81","","",""
"revaluation","199","923636","0.0-4.0-2.0-0.41","spark_pilot_norest","8442","2","17","Female","","true","","","","","[]","./assets/img/ocean/memory/32.jpg","[]","value training","ocean","-5","{""ArrowUp,ArrowLeft"":23,""ArrowUp,ArrowRight"":10,""ArrowDown,ArrowLeft"":8,""ArrowDown,ArrowRight"":30}","false","","false","revaluation","1","82","","",""
"html-keyboard-response","200","924147","0.0-4.0-2.0-1.41","spark_pilot_norest","8442","2","17","Female","","","","","","","null","<div style=""font-size:60px;"">+</div>","null","fixation","","","","","","","","","83","","",""
"revaluation","201","928164","0.0-4.0-2.0-0.42","spark_pilot_norest","8442","2","17","Female","","false","","","","","[765.7000000029802]","./assets/img/ocean/catch/1.jpg","[""spaceBar""]","value training","ocean","0","{""ArrowUp,ArrowLeft"":23,""ArrowUp,ArrowRight"":10,""ArrowDown,ArrowLeft"":8,""ArrowDown,ArrowRight"":30}","true","spaceBar","true","revaluation","1","84","","",""
"html-keyboard-response","202","928675","0.0-4.0-2.0-1.42","spark_pilot_norest","8442","2","17","Female","","","","","","","null","<div style=""font-size:60px;"">+</div>","null","fixation","","","","","","","","","85","","",""
"revaluation","203","934702","0.0-4.0-2.0-0.43","spark_pilot_norest","8442","2","17","Female","","false","","","","","[570.9000000059605,793.5]","./assets/img/ocean/memory/5.jpg","[""ArrowUp"",""ArrowRight""]","value training","ocean","10","{""ArrowUp,ArrowLeft"":23,""ArrowUp,ArrowRight"":10,""ArrowDown,ArrowLeft"":8,""ArrowDown,ArrowRight"":30}","false","ArrowUp,ArrowRight","false","revaluation","1","86","","",""
"html-keyboard-response","204","935214","0.0-4.0-2.0-1.43","spark_pilot_norest","8442","2","17","Female","","","","","","","null","<div style=""font-size:60px;"">+</div>","null","fixation","","","","","","","","","87","","",""
"revaluation","205","939225","0.0-4.0-2.0-0.44","spark_pilot_norest","8442","2","17","Female","","true","","","","","[]","./assets/img/ocean/memory/29.jpg","[]","value training","ocean","-5","{""ArrowUp,ArrowLeft"":23,""ArrowUp,ArrowRight"":10,""ArrowDown,ArrowLeft"":8,""ArrowDown,ArrowRight"":30}","false","","false","revaluation","1","88","","",""
"html-keyboard-response","206","939732","0.0-4.0-2.0-1.44","spark_pilot_norest","8442","2","17","Female","","","","","","","null","<div style=""font-size:60px;"">+</div>","null","fixation","","","","","","","","","89","","",""
"revaluation","207","943748","0.0-4.0-2.0-0.45","spark_pilot_norest","8442","2","17","Female","","true","","","","","[]","./assets/img/ocean/memory/1.jpg","[]","value training","ocean","-5","{""ArrowUp,ArrowLeft"":23,""ArrowUp,ArrowRight"":10,""ArrowDown,ArrowLeft"":8,""ArrowDown,ArrowRight"":30}","false","","false","revaluation","1","90","","",""
"html-keyboard-response","208","944249","0.0-4.0-2.0-1.45","spark_pilot_norest","8442","2","17","Female","","","","","","","null","<div style=""font-size:60px;"">+</div>","null","fixation","","","","","","","","","91","","",""
"revaluation","209","948266","0.0-4.0-2.0-0.46","spark_pilot_norest","8442","2","17","Female","","false","","","","","[916.8000000119209]","./assets/img/ocean/catch/7.jpg","[""spaceBar""]","value training","ocean","0","{""ArrowUp,ArrowLeft"":23,""ArrowUp,ArrowRight"":10,""ArrowDown,ArrowLeft"":8,""ArrowDown,ArrowRight"":30}","true","spaceBar","true","revaluation","1","92","","",""
"html-keyboard-response","210","948771","0.0-4.0-2.0-1.46","spark_pilot_norest","8442","2","17","Female","","","","","","","null","<div style=""font-size:60px;"">+</div>","null","fixation","","","","","","","","","93","","",""
"revaluation","211","952788","0.0-4.0-2.0-0.47","spark_pilot_norest","8442","2","17","Female","","true","","","","","[]","./assets/img/ocean/memory/36.jpg","[]","value training","ocean","-5","{""ArrowUp,ArrowLeft"":23,""ArrowUp,ArrowRight"":10,""ArrowDown,ArrowLeft"":8,""ArrowDown,ArrowRight"":30}","false","","false","revaluation","1","94","","",""
"html-keyboard-response","212","953291","0.0-4.0-2.0-1.47","spark_pilot_norest","8442","2","17","Female","","","","","","","null","<div style=""font-size:60px;"">+</div>","null","fixation","","","","","","","","","95","","",""
"revaluation","213","957311","0.0-4.0-2.0-0.48","spark_pilot_norest","8442","2","17","Female","","true","","","","","[]","./assets/img/ocean/memory/1.jpg","[]","value training","ocean","-5","{""ArrowUp,ArrowLeft"":23,""ArrowUp,ArrowRight"":10,""ArrowDown,ArrowLeft"":8,""ArrowDown,ArrowRight"":30}","false","","false","revaluation","1","96","","",""
"html-keyboard-response","214","957823","0.0-4.0-2.0-1.48","spark_pilot_norest","8442","2","17","Female","","","","","","","null","<div style=""font-size:60px;"">+</div>","null","fixation","","","","","","","","","97","","",""
"revaluation","215","961844","0.0-4.0-2.0-0.49","spark_pilot_norest","8442","2","17","Female","","true","","","","","[]","./assets/img/ocean/memory/20.jpg","[]","value training","ocean","-5","{""ArrowUp,ArrowLeft"":23,""ArrowUp,ArrowRight"":10,""ArrowDown,ArrowLeft"":8,""ArrowDown,ArrowRight"":30}","false","","false","revaluation","1","98","","",""
"html-keyboard-response","216","962351","0.0-4.0-2.0-1.49","spark_pilot_norest","8442","2","17","Female","","","","","","","null","<div style=""font-size:60px;"">+</div>","null","fixation","","","","","","","","","99","","",""
"learning-instructions","217","976802","0.0-4.0-3.0-0.0","spark_pilot_norest","8442","2","17","Female","","","","","","","1528","<p> Now, you will travel with a friend who will choose whether you go up or down first. </p>
            <p> On these turns, you will just see the animal that they found. You will still get to choose which chest to search for treasure.</p>","","instructions","","","","","","","","","","","",""
"revaluation","218","980820","0.0-4.0-4.0-0.0","spark_pilot_norest","8442","2","17","Female","","true","","","","","[]","./assets/img/ocean/animals/seahorse.jpg","[]","revaluation","ocean","-5","{""ArrowUp,ArrowLeft"":27,""ArrowUp,ArrowRight"":15,""ArrowDown,ArrowLeft"":21,""ArrowDown,ArrowRight"":7}","false","ArrowUp","","revaluation","1","0","","",""
"html-keyboard-response","219","981335","0.0-4.0-4.0-1.0","spark_pilot_norest","8442","2","17","Female","","","","","","","null","<div style=""font-size:60px;"">+</div>","null","fixation","","","","","","","","","1","","",""
"revaluation","220","985348","0.0-4.0-4.0-0.1","spark_pilot_norest","8442","2","17","Female","","true","","","","","[]","./assets/img/ocean/animals/seahorse.jpg","[]","revaluation","ocean","-5","{""ArrowUp,ArrowLeft"":27,""ArrowUp,ArrowRight"":15,""ArrowDown,ArrowLeft"":21,""ArrowDown,ArrowRight"":7}","false","ArrowUp","","revaluation","1","2","","",""
"html-keyboard-response","221","985855","0.0-4.0-4.0-1.1","spark_pilot_norest","8442","2","17","Female","","","","","","","null","<div style=""font-size:60px;"">+</div>","null","fixation","","","","","","","","","3","","",""
"revaluation","222","989871","0.0-4.0-4.0-0.2","spark_pilot_norest","8442","2","17","Female","","true","","","","","[]","./assets/img/ocean/animals/octopus.jpg","[]","revaluation","ocean","-5","{""ArrowUp,ArrowLeft"":27,""ArrowUp,ArrowRight"":15,""ArrowDown,ArrowLeft"":21,""ArrowDown,ArrowRight"":7}","false","ArrowDown","","revaluation","1","4","","",""
"html-keyboard-response","223","990379","0.0-4.0-4.0-1.2","spark_pilot_norest","8442","2","17","Female","","","","","","","null","<div style=""font-size:60px;"">+</div>","null","fixation","","","","","","","","","5","","",""
"revaluation","224","994399","0.0-4.0-4.0-0.3","spark_pilot_norest","8442","2","17","Female","","true","","","","","[]","./assets/img/ocean/animals/octopus.jpg","[]","revaluation","ocean","-5","{""ArrowUp,ArrowLeft"":27,""ArrowUp,ArrowRight"":15,""ArrowDown,ArrowLeft"":21,""ArrowDown,ArrowRight"":7}","false","ArrowDown","","revaluation","1","6","","",""
"html-keyboard-response","225","994911","0.0-4.0-4.0-1.3","spark_pilot_norest","8442","2","17","Female","","","","","","","null","<div style=""font-size:60px;"">+</div>","null","fixation","","","","","","","","","7","","",""
"revaluation","226","998924","0.0-4.0-4.0-0.4","spark_pilot_norest","8442","2","17","Female","","true","","","","","[]","./assets/img/ocean/animals/octopus.jpg","[]","revaluation","ocean","-5","{""ArrowUp,ArrowLeft"":27,""ArrowUp,ArrowRight"":15,""ArrowDown,ArrowLeft"":21,""ArrowDown,ArrowRight"":7}","false","ArrowDown","","revaluation","1","8","","",""
"html-keyboard-response","227","999428","0.0-4.0-4.0-1.4","spark_pilot_norest","8442","2","17","Female","","","","","","","null","<div style=""font-size:60px;"">+</div>","null","fixation","","","","","","","","","9","","",""
"revaluation","228","1003445","0.0-4.0-4.0-0.5","spark_pilot_norest","8442","2","17","Female","","true","","","","","[]","./assets/img/ocean/animals/octopus.jpg","[]","revaluation","ocean","-5","{""ArrowUp,ArrowLeft"":27,""ArrowUp,ArrowRight"":15,""ArrowDown,ArrowLeft"":21,""ArrowDown,ArrowRight"":7}","false","ArrowDown","","revaluation","1","10","","",""
"html-keyboard-response","229","1003951","0.0-4.0-4.0-1.5","spark_pilot_norest","8442","2","17","Female","","","","","","","null","<div style=""font-size:60px;"">+</div>","null","fixation","","","","","","","","","11","","",""
"revaluation","230","1007964","0.0-4.0-4.0-0.6","spark_pilot_norest","8442","2","17","Female","","true","","","","","[]","./assets/img/ocean/animals/seahorse.jpg","[]","revaluation","ocean","-5","{""ArrowUp,ArrowLeft"":27,""ArrowUp,ArrowRight"":15,""ArrowDown,ArrowLeft"":21,""ArrowDown,ArrowRight"":7}","false","ArrowUp","","revaluation","1","12","","",""
"html-keyboard-response","231","1008470","0.0-4.0-4.0-1.6","spark_pilot_norest","8442","2","17","Female","","","","","","","null","<div style=""font-size:60px;"">+</div>","null","fixation","","","","","","","","","13","","",""
"revaluation","232","1012479","0.0-4.0-4.0-0.7","spark_pilot_norest","8442","2","17","Female","","true","","","","","[]","./assets/img/ocean/animals/seahorse.jpg","[]","revaluation","ocean","-5","{""ArrowUp,ArrowLeft"":27,""ArrowUp,ArrowRight"":15,""ArrowDown,ArrowLeft"":21,""ArrowDown,ArrowRight"":7}","false","ArrowUp","","revaluation","1","14","","",""
"html-keyboard-response","233","1012987","0.0-4.0-4.0-1.7","spark_pilot_norest","8442","2","17","Female","","","","","","","null","<div style=""font-size:60px;"">+</div>","null","fixation","","","","","","","","","15","","",""
"revaluation","234","1016999","0.0-4.0-4.0-0.8","spark_pilot_norest","8442","2","17","Female","","true","","","","","[]","./assets/img/ocean/animals/seahorse.jpg","[]","revaluation","ocean","-5","{""ArrowUp,ArrowLeft"":27,""ArrowUp,ArrowRight"":15,""ArrowDown,ArrowLeft"":21,""ArrowDown,ArrowRight"":7}","false","ArrowUp","","revaluation","1","16","","",""
"html-keyboard-response","235","1017510","0.0-4.0-4.0-1.8","spark_pilot_norest","8442","2","17","Female","","","","","","","null","<div style=""font-size:60px;"">+</div>","null","fixation","","","","","","","","","17","","",""
"revaluation","236","1021527","0.0-4.0-4.0-0.9","spark_pilot_norest","8442","2","17","Female","","true","","","","","[]","./assets/img/ocean/animals/seahorse.jpg","[]","revaluation","ocean","-5","{""ArrowUp,ArrowLeft"":27,""ArrowUp,ArrowRight"":15,""ArrowDown,ArrowLeft"":21,""ArrowDown,ArrowRight"":7}","false","ArrowUp","","revaluation","1","18","","",""
"html-keyboard-response","237","1022038","0.0-4.0-4.0-1.9","spark_pilot_norest","8442","2","17","Female","","","","","","","null","<div style=""font-size:60px;"">+</div>","null","fixation","","","","","","","","","19","","",""
"revaluation","238","1026055","0.0-4.0-4.0-0.10","spark_pilot_norest","8442","2","17","Female","","true","","","","","[]","./assets/img/ocean/animals/seahorse.jpg","[]","revaluation","ocean","-5","{""ArrowUp,ArrowLeft"":27,""ArrowUp,ArrowRight"":15,""ArrowDown,ArrowLeft"":21,""ArrowDown,ArrowRight"":7}","false","ArrowUp","","revaluation","1","20","","",""
"html-keyboard-response","239","1026566","0.0-4.0-4.0-1.10","spark_pilot_norest","8442","2","17","Female","","","","","","","null","<div style=""font-size:60px;"">+</div>","null","fixation","","","","","","","","","21","","",""
"revaluation","240","1030583","0.0-4.0-4.0-0.11","spark_pilot_norest","8442","2","17","Female","","true","","","","","[]","./assets/img/ocean/animals/octopus.jpg","[]","revaluation","ocean","-5","{""ArrowUp,ArrowLeft"":27,""ArrowUp,ArrowRight"":15,""ArrowDown,ArrowLeft"":21,""ArrowDown,ArrowRight"":7}","false","ArrowDown","","revaluation","1","22","","",""
"html-keyboard-response","241","1031094","0.0-4.0-4.0-1.11","spark_pilot_norest","8442","2","17","Female","","","","","","","null","<div style=""font-size:60px;"">+</div>","null","fixation","","","","","","","","","23","","",""
"revaluation","242","1035111","0.0-4.0-4.0-0.12","spark_pilot_norest","8442","2","17","Female","","true","","","","","[]","./assets/img/ocean/animals/seahorse.jpg","[]","revaluation","ocean","-5","{""ArrowUp,ArrowLeft"":27,""ArrowUp,ArrowRight"":15,""ArrowDown,ArrowLeft"":21,""ArrowDown,ArrowRight"":7}","false","ArrowUp","","revaluation","1","24","","",""
"html-keyboard-response","243","1035623","0.0-4.0-4.0-1.12","spark_pilot_norest","8442","2","17","Female","","","","","","","null","<div style=""font-size:60px;"">+</div>","null","fixation","","","","","","","","","25","","",""
"revaluation","244","1039639","0.0-4.0-4.0-0.13","spark_pilot_norest","8442","2","17","Female","","true","","","","","[]","./assets/img/ocean/animals/seahorse.jpg","[]","revaluation","ocean","-5","{""ArrowUp,ArrowLeft"":27,""ArrowUp,ArrowRight"":15,""ArrowDown,ArrowLeft"":21,""ArrowDown,ArrowRight"":7}","false","ArrowUp","","revaluation","1","26","","",""
"html-keyboard-response","245","1040151","0.0-4.0-4.0-1.13","spark_pilot_norest","8442","2","17","Female","","","","","","","null","<div style=""font-size:60px;"">+</div>","null","fixation","","","","","","","","","27","","",""
"revaluation","246","1044167","0.0-4.0-4.0-0.14","spark_pilot_norest","8442","2","17","Female","","true","","","","","[]","./assets/img/ocean/animals/octopus.jpg","[]","revaluation","ocean","-5","{""ArrowUp,ArrowLeft"":27,""ArrowUp,ArrowRight"":15,""ArrowDown,ArrowLeft"":21,""ArrowDown,ArrowRight"":7}","false","ArrowDown","","revaluation","1","28","","",""
"html-keyboard-response","247","1044679","0.0-4.0-4.0-1.14","spark_pilot_norest","8442","2","17","Female","","","","","","","null","<div style=""font-size:60px;"">+</div>","null","fixation","","","","","","","","","29","","",""
"revaluation","248","1048695","0.0-4.0-4.0-0.15","spark_pilot_norest","8442","2","17","Female","","true","","","","","[]","./assets/img/ocean/animals/octopus.jpg","[]","revaluation","ocean","-5","{""ArrowUp,ArrowLeft"":27,""ArrowUp,ArrowRight"":15,""ArrowDown,ArrowLeft"":21,""ArrowDown,ArrowRight"":7}","false","ArrowDown","","revaluation","1","30","","",""
"html-keyboard-response","249","1049207","0.0-4.0-4.0-1.15","spark_pilot_norest","8442","2","17","Female","","","","","","","null","<div style=""font-size:60px;"">+</div>","null","fixation","","","","","","","","","31","","",""
"revaluation","250","1053222","0.0-4.0-4.0-0.16","spark_pilot_norest","8442","2","17","Female","","true","","","","","[]","./assets/img/ocean/animals/octopus.jpg","[]","revaluation","ocean","-5","{""ArrowUp,ArrowLeft"":27,""ArrowUp,ArrowRight"":15,""ArrowDown,ArrowLeft"":21,""ArrowDown,ArrowRight"":7}","false","ArrowDown","","revaluation","1","32","","",""
"html-keyboard-response","251","1053724","0.0-4.0-4.0-1.16","spark_pilot_norest","8442","2","17","Female","","","","","","","null","<div style=""font-size:60px;"">+</div>","null","fixation","","","","","","","","","33","","",""
"revaluation","252","1057741","0.0-4.0-4.0-0.17","spark_pilot_norest","8442","2","17","Female","","true","","","","","[]","./assets/img/ocean/animals/octopus.jpg","[]","revaluation","ocean","-5","{""ArrowUp,ArrowLeft"":27,""ArrowUp,ArrowRight"":15,""ArrowDown,ArrowLeft"":21,""ArrowDown,ArrowRight"":7}","false","ArrowDown","","revaluation","1","34","","",""
"html-keyboard-response","253","1058247","0.0-4.0-4.0-1.17","spark_pilot_norest","8442","2","17","Female","","","","","","","null","<div style=""font-size:60px;"">+</div>","null","fixation","","","","","","","","","35","","",""
"learning-instructions","254","1066394","0.0-4.0-5.0-0.0","spark_pilot_norest","8442","2","17","Female","","","","","","","null","<p> You have almost finished this part of the game! </p>
            <p> We are going to ask you to make a few more choices. </p>","","instructions","","","","","","","","","","","",""
"learning-instructions","255","1082373","0.0-4.0-5.0-0.1","spark_pilot_norest","8442","2","17","Female","","","","","","","null","<p> First, you need to decide whether to go up or down. When you see each picture, use the arrow keys to make your choice. </p>
            <p><b>You will not see which animal you found, but try to get to the one that will give you the most treasure.</b></p>","","instructions","","","","","","","","","","","",""
"html-keyboard-response","256","1083381","0.0-4.0-6.0-0.0","spark_pilot_norest","8442","2","17","Female","","","","","","","null","<div style=""font-size:100px;color:red;"">Starting in...</div>","null","","","","","","","","","","","","",""
"html-keyboard-response","257","1084389","0.0-4.0-6.0-1.0","spark_pilot_norest","8442","2","17","Female","","","","","","","null","<div style=""font-size:200px;color:red;"">3</div>","null","","","","","","","","","","","","",""
"html-keyboard-response","258","1085397","0.0-4.0-6.0-2.0","spark_pilot_norest","8442","2","17","Female","","","","","","","null","<div style=""font-size:200px;color:red;"">2</div>","null","","","","","","","","","","","","",""
"html-keyboard-response","259","1086405","0.0-4.0-6.0-3.0","spark_pilot_norest","8442","2","17","Female","","","","","","","null","<div style=""font-size:200px;color:red;"">1</div>","null","","","","","","","","","","","","",""
"revaluation","260","1096416","0.0-4.0-7.0-0.0","spark_pilot_norest","8442","2","17","Female","","false","","","","","[]","./assets/img/ocean/test/0.jpg","[]","first stage test","ocean","0","{""ArrowUp,ArrowLeft"":27,""ArrowUp,ArrowRight"":15,""ArrowDown,ArrowLeft"":21,""ArrowDown,ArrowRight"":7}","false","","false","revaluation","1","","","",""
"html-keyboard-response","261","1096928","0.0-4.0-7.0-1.0","spark_pilot_norest","8442","2","17","Female","","","","","","","null","<div style=""font-size:60px;"">+</div>","null","fixation","","","","","","","","","","","",""
"revaluation","262","1106936","0.0-4.0-7.0-0.1","spark_pilot_norest","8442","2","17","Female","","false","","","","","[]","./assets/img/ocean/test/1.jpg","[]","first stage test","ocean","0","{""ArrowUp,ArrowLeft"":27,""ArrowUp,ArrowRight"":15,""ArrowDown,ArrowLeft"":21,""ArrowDown,ArrowRight"":7}","false","","false","revaluation","1","","","",""
"html-keyboard-response","263","1107445","0.0-4.0-7.0-1.1","spark_pilot_norest","8442","2","17","Female","","","","","","","null","<div style=""font-size:60px;"">+</div>","null","fixation","","","","","","","","","","","",""
"revaluation","264","1117457","0.0-4.0-7.0-0.2","spark_pilot_norest","8442","2","17","Female","","false","","","","","[]","./assets/img/ocean/test/2.jpg","[]","first stage test","ocean","0","{""ArrowUp,ArrowLeft"":27,""ArrowUp,ArrowRight"":15,""ArrowDown,ArrowLeft"":21,""ArrowDown,ArrowRight"":7}","false","","false","revaluation","1","","","",""
"html-keyboard-response","265","1117969","0.0-4.0-7.0-1.2","spark_pilot_norest","8442","2","17","Female","","","","","","","null","<div style=""font-size:60px;"">+</div>","null","fixation","","","","","","","","","","","",""
"revaluation","266","1127986","0.0-4.0-7.0-0.3","spark_pilot_norest","8442","2","17","Female","","false","","","","","[]","./assets/img/ocean/test/3.jpg","[]","first stage test","ocean","0","{""ArrowUp,ArrowLeft"":27,""ArrowUp,ArrowRight"":15,""ArrowDown,ArrowLeft"":21,""ArrowDown,ArrowRight"":7}","false","","false","revaluation","1","","","",""
"html-keyboard-response","267","1128497","0.0-4.0-7.0-1.3","spark_pilot_norest","8442","2","17","Female","","","","","","","null","<div style=""font-size:60px;"">+</div>","null","fixation","","","","","","","","","","","",""
"learning-instructions","268","1141882","0.0-4.0-8.0-0.0","spark_pilot_norest","8442","2","17","Female","","","","","","","null","<p> Now you will see the animals again and can search their chests for treasure. </p>
            <p> This time, you will not see how much treasure you earned, but you will earn more bonus money for making better choices. </p>","","instructions","","","","","","","","","","","",""
"html-keyboard-response","269","1142889","0.0-4.0-9.0-0.0","spark_pilot_norest","8442","2","17","Female","","","","","","","null","<div style=""font-size:100px;color:red;"">Starting in...</div>","null","","","","","","","","","","","","",""
"html-keyboard-response","270","1143897","0.0-4.0-9.0-1.0","spark_pilot_norest","8442","2","17","Female","","","","","","","null","<div style=""font-size:200px;color:red;"">3</div>","null","","","","","","","","","","","","",""
"html-keyboard-response","271","1144905","0.0-4.0-9.0-2.0","spark_pilot_norest","8442","2","17","Female","","","","","","","null","<div style=""font-size:200px;color:red;"">2</div>","null","","","","","","","","","","","","",""
"html-keyboard-response","272","1145913","0.0-4.0-9.0-3.0","spark_pilot_norest","8442","2","17","Female","","","","","","","null","<div style=""font-size:200px;color:red;"">1</div>","null","","","","","","","","","","","","",""
"revaluation","273","1155919","0.0-4.0-10.0-0.0","spark_pilot_norest","8442","2","17","Female","","false","","","","","[]","./assets/img/ocean/animals/seahorse.jpg","[]","second stage test","ocean","0","{""ArrowUp,ArrowLeft"":27,""ArrowUp,ArrowRight"":15,""ArrowDown,ArrowLeft"":21,""ArrowDown,ArrowRight"":7}","false","ArrowUp","","revaluation","1","","","",""
"html-keyboard-response","274","1156425","0.0-4.0-10.0-1.0","spark_pilot_norest","8442","2","17","Female","","","","","","","null","<div style=""font-size:60px;"">+</div>","null","fixation","","","","","","","","","","","",""
"revaluation","275","1166431","0.0-4.0-10.0-0.1","spark_pilot_norest","8442","2","17","Female","","false","","","","","[]","./assets/img/ocean/animals/seahorse.jpg","[]","second stage test","ocean","0","{""ArrowUp,ArrowLeft"":27,""ArrowUp,ArrowRight"":15,""ArrowDown,ArrowLeft"":21,""ArrowDown,ArrowRight"":7}","false","ArrowUp","","revaluation","1","","","",""
"html-keyboard-response","276","1166935","0.0-4.0-10.0-1.1","spark_pilot_norest","8442","2","17","Female","","","","","","","null","<div style=""font-size:60px;"">+</div>","null","fixation","","","","","","","","","","","",""
"revaluation","277","1176945","0.0-4.0-10.0-0.2","spark_pilot_norest","8442","2","17","Female","","false","","","","","[]","./assets/img/ocean/animals/seahorse.jpg","[]","second stage test","ocean","0","{""ArrowUp,ArrowLeft"":27,""ArrowUp,ArrowRight"":15,""ArrowDown,ArrowLeft"":21,""ArrowDown,ArrowRight"":7}","false","ArrowUp","","revaluation","1","","","",""
"html-keyboard-response","278","1177451","0.0-4.0-10.0-1.2","spark_pilot_norest","8442","2","17","Female","","","","","","","null","<div style=""font-size:60px;"">+</div>","null","fixation","","","","","","","","","","","",""
"revaluation","279","1187467","0.0-4.0-10.0-0.3","spark_pilot_norest","8442","2","17","Female","","false","","","","","[]","./assets/img/ocean/animals/seahorse.jpg","[]","second stage test","ocean","0","{""ArrowUp,ArrowLeft"":27,""ArrowUp,ArrowRight"":15,""ArrowDown,ArrowLeft"":21,""ArrowDown,ArrowRight"":7}","false","ArrowUp","","revaluation","1","","","",""
"html-keyboard-response","280","1187979","0.0-4.0-10.0-1.3","spark_pilot_norest","8442","2","17","Female","","","","","","","null","<div style=""font-size:60px;"">+</div>","null","fixation","","","","","","","","","","","",""
"revaluation","281","1197996","0.0-4.0-10.0-0.4","spark_pilot_norest","8442","2","17","Female","","false","","","","","[]","./assets/img/ocean/animals/octopus.jpg","[]","second stage test","ocean","0","{""ArrowUp,ArrowLeft"":27,""ArrowUp,ArrowRight"":15,""ArrowDown,ArrowLeft"":21,""ArrowDown,ArrowRight"":7}","false","ArrowDown","","revaluation","1","","","",""
"html-keyboard-response","282","1198507","0.0-4.0-10.0-1.4","spark_pilot_norest","8442","2","17","Female","","","","","","","null","<div style=""font-size:60px;"">+</div>","null","fixation","","","","","","","","","","","",""
"revaluation","283","1208524","0.0-4.0-10.0-0.5","spark_pilot_norest","8442","2","17","Female","","false","","","","","[]","./assets/img/ocean/animals/octopus.jpg","[]","second stage test","ocean","0","{""ArrowUp,ArrowLeft"":27,""ArrowUp,ArrowRight"":15,""ArrowDown,ArrowLeft"":21,""ArrowDown,ArrowRight"":7}","false","ArrowDown","","revaluation","1","","","",""
"html-keyboard-response","284","1209035","0.0-4.0-10.0-1.5","spark_pilot_norest","8442","2","17","Female","","","","","","","null","<div style=""font-size:60px;"">+</div>","null","fixation","","","","","","","","","","","",""
"revaluation","285","1219052","0.0-4.0-10.0-0.6","spark_pilot_norest","8442","2","17","Female","","false","","","","","[]","./assets/img/ocean/animals/octopus.jpg","[]","second stage test","ocean","0","{""ArrowUp,ArrowLeft"":27,""ArrowUp,ArrowRight"":15,""ArrowDown,ArrowLeft"":21,""ArrowDown,ArrowRight"":7}","false","ArrowDown","","revaluation","1","","","",""
"html-keyboard-response","286","1219564","0.0-4.0-10.0-1.6","spark_pilot_norest","8442","2","17","Female","","","","","","","null","<div style=""font-size:60px;"">+</div>","null","fixation","","","","","","","","","","","",""
"revaluation","287","1229581","0.0-4.0-10.0-0.7","spark_pilot_norest","8442","2","17","Female","","false","","","","","[]","./assets/img/ocean/animals/octopus.jpg","[]","second stage test","ocean","0","{""ArrowUp,ArrowLeft"":27,""ArrowUp,ArrowRight"":15,""ArrowDown,ArrowLeft"":21,""ArrowDown,ArrowRight"":7}","false","ArrowDown","","revaluation","1","","","",""
"html-keyboard-response","288","1230092","0.0-4.0-10.0-1.7","spark_pilot_norest","8442","2","17","Female","","","","","","","null","<div style=""font-size:60px;"">+</div>","null","fixation","","","","","","","","","","","",""
"learning-instructions","289","1234648","0.0-4.0-0.1-0.2","spark_pilot_norest","8442","2","17","Female","","","","","","","1746.7000000029802","<p> This time you are searching for treasure in the <b>canyon</b>.</p>","","instructions","","","","","","","","","","","",""
"learning-instructions","290","1252883","0.0-4.0-0.1-0.3","spark_pilot_norest","8442","2","17","Female","","","","","","","984.7999999970198","<p><b>New</b> animals with <b>new</b> treasure chests live here. You need to explore to discover where the animal with the best treasure chest is.</p>
                    <p> Like before, once you figure out which animal has the chest with the most treasure, you should try to get to that animal and select that chest! </p>","","instructions","","","","","","","","","","","",""
"learning-instructions","291","1273138","0.0-4.0-1.1-0.1","spark_pilot_norest","8442","2","17","Female","","","","","","","5526.9000000059605","<p> Remember, when you see a picture of the place, use the up and down keys to <b>find an animal</b>.</p>
            <p> When you encounter an animal, you should use the left and right keys to <b>select a treasure chest</b>.</p>
            <p> Don't forget to look out for the robber! </p>","","instructions","","","","","","","","","","","",""
"revaluation","292","1279164","0.0-4.0-2.1-0.50","spark_pilot_norest","8442","2","17","Female","","false","","","","","[891.2000000029802,419.59999999403954]","./assets/img/canyon/memory/34.jpg","[""ArrowUp"",""ArrowRight""]","value training","canyon","10","{""ArrowUp,ArrowLeft"":26,""ArrowUp,ArrowRight"":10,""ArrowDown,ArrowLeft"":5,""ArrowDown,ArrowRight"":17}","false","ArrowUp,ArrowRight","false","original","2","0","","",""
"html-keyboard-response","293","1279672","0.0-4.0-2.1-1.50","spark_pilot_norest","8442","2","17","Female","","","","","","","null","<div style=""font-size:60px;"">+</div>","null","fixation","","","","","","","","","1","","",""
"revaluation","294","1285701","0.0-4.0-2.1-0.51","spark_pilot_norest","8442","2","17","Female","","false","","","","","[448.8999999910593,408.29999999701977]","./assets/img/canyon/memory/13.jpg","[""ArrowUp"",""ArrowLeft""]","value training","canyon","26","{""ArrowUp,ArrowLeft"":26,""ArrowUp,ArrowRight"":10,""ArrowDown,ArrowLeft"":5,""ArrowDown,ArrowRight"":17}","true","ArrowUp,ArrowLeft","false","original","2","2","","",""
"html-keyboard-response","295","1286212","0.0-4.0-2.1-1.51","spark_pilot_norest","8442","2","17","Female","","","","","","","null","<div style=""font-size:60px;"">+</div>","null","fixation","","","","","","","","","3","","",""
"revaluation","296","1292235","0.0-4.0-2.1-0.52","spark_pilot_norest","8442","2","17","Female","","false","","","","","[690.8999999910593,997.3999999910593]","./assets/img/canyon/memory/34.jpg","[""ArrowDown"",""ArrowRight""]","value training","canyon","17","{""ArrowUp,ArrowLeft"":26,""ArrowUp,ArrowRight"":10,""ArrowDown,ArrowLeft"":5,""ArrowDown,ArrowRight"":17}","false","ArrowDown,ArrowRight","false","original","2","4","","",""
"html-keyboard-response","297","1292741","0.0-4.0-2.1-1.52","spark_pilot_norest","8442","2","17","Female","","","","","","","null","<div style=""font-size:60px;"">+</div>","null","fixation","","","","","","","","","5","","",""
"revaluation","298","1298764","0.0-4.0-2.1-0.53","spark_pilot_norest","8442","2","17","Female","","false","","","","","[305.90000000596046,322.79999999701977]","./assets/img/canyon/memory/14.jpg","[""ArrowDown"",""ArrowLeft""]","value training","canyon","5","{""ArrowUp,ArrowLeft"":26,""ArrowUp,ArrowRight"":10,""ArrowDown,ArrowLeft"":5,""ArrowDown,ArrowRight"":17}","false","ArrowDown,ArrowLeft","false","original","2","6","","",""
"html-keyboard-response","299","1299276","0.0-4.0-2.1-1.53","spark_pilot_norest","8442","2","17","Female","","","","","","","null","<div style=""font-size:60px;"">+</div>","null","fixation","","","","","","","","","7","","",""
"revaluation","300","1305298","0.0-4.0-2.1-0.54","spark_pilot_norest","8442","2","17","Female","","false","","","","","[671.7000000029802,594.7999999970198]","./assets/img/canyon/memory/1.jpg","[""ArrowUp"",""ArrowLeft""]","value training","canyon","26","{""ArrowUp,ArrowLeft"":26,""ArrowUp,ArrowRight"":10,""ArrowDown,ArrowLeft"":5,""ArrowDown,ArrowRight"":17}","true","ArrowUp,ArrowLeft","false","original","2","8","","",""
"html-keyboard-response","301","1305804","0.0-4.0-2.1-1.54","spark_pilot_norest","8442","2","17","Female","","","","","","","null","<div style=""font-size:60px;"">+</div>","null","fixation","","","","","","","","","9","","",""
"revaluation","302","1311837","0.0-4.0-2.1-0.55","spark_pilot_norest","8442","2","17","Female","","false","","","","","[341,375.5]","./assets/img/canyon/memory/29.jpg","[""ArrowUp"",""ArrowRight""]","value training","canyon","10","{""ArrowUp,ArrowLeft"":26,""ArrowUp,ArrowRight"":10,""ArrowDown,ArrowLeft"":5,""ArrowDown,ArrowRight"":17}","false","ArrowUp,ArrowRight","false","original","2","10","","",""
"html-keyboard-response","303","1312348","0.0-4.0-2.1-1.55","spark_pilot_norest","8442","2","17","Female","","","","","","","null","<div style=""font-size:60px;"">+</div>","null","fixation","","","","","","","","","11","","",""
"revaluation","304","1318370","0.0-4.0-2.1-0.56","spark_pilot_norest","8442","2","17","Female","","false","","","","","[295,353]","./assets/img/canyon/memory/24.jpg","[""ArrowUp"",""ArrowLeft""]","value training","canyon","26","{""ArrowUp,ArrowLeft"":26,""ArrowUp,ArrowRight"":10,""ArrowDown,ArrowLeft"":5,""ArrowDown,ArrowRight"":17}","true","ArrowUp,ArrowLeft","false","original","2","12","","",""
"html-keyboard-response","305","1318877","0.0-4.0-2.1-1.56","spark_pilot_norest","8442","2","17","Female","","","","","","","null","<div style=""font-size:60px;"">+</div>","null","fixation","","","","","","","","","13","","",""
"revaluation","306","1324897","0.0-4.0-2.1-0.57","spark_pilot_norest","8442","2","17","Female","","false","","","","","[343.20000000298023,351.09999999403954]","./assets/img/canyon/memory/10.jpg","[""ArrowUp"",""ArrowLeft""]","value training","canyon","26","{""ArrowUp,ArrowLeft"":26,""ArrowUp,ArrowRight"":10,""ArrowDown,ArrowLeft"":5,""ArrowDown,ArrowRight"":17}","true","ArrowUp,ArrowLeft","false","original","2","14","","",""
"html-keyboard-response","307","1325404","0.0-4.0-2.1-1.57","spark_pilot_norest","8442","2","17","Female","","","","","","","null","<div style=""font-size:60px;"">+</div>","null","fixation","","","","","","","","","15","","",""
"revaluation","308","1331427","0.0-4.0-2.1-0.58","spark_pilot_norest","8442","2","17","Female","","false","","","","","[520.5,346.5]","./assets/img/canyon/memory/14.jpg","[""ArrowUp"",""ArrowLeft""]","value training","canyon","26","{""ArrowUp,ArrowLeft"":26,""ArrowUp,ArrowRight"":10,""ArrowDown,ArrowLeft"":5,""ArrowDown,ArrowRight"":17}","true","ArrowUp,ArrowLeft","false","original","2","16","","",""
"html-keyboard-response","309","1331933","0.0-4.0-2.1-1.58","spark_pilot_norest","8442","2","17","Female","","","","","","","null","<div style=""font-size:60px;"">+</div>","null","fixation","","","","","","","","","17","","",""
"revaluation","310","1335948","0.0-4.0-2.1-0.59","spark_pilot_norest","8442","2","17","Female","","false","","","","","[343.40000000596046]","./assets/img/canyon/catch/1.jpg","[""ArrowUp""]","value training","canyon","-10","{""ArrowUp,ArrowLeft"":26,""ArrowUp,ArrowRight"":10,""ArrowDown,ArrowLeft"":5,""ArrowDown,ArrowRight"":17}","false","ArrowUp","true","original","2","18","","",""
"html-keyboard-response","311","1336449","0.0-4.0-2.1-1.59","spark_pilot_norest","8442","2","17","Female","","","","","","","null","<div style=""font-size:60px;"">+</div>","null","fixation","","","","","","","","","19","","",""
"revaluation","312","1342476","0.0-4.0-2.1-0.60","spark_pilot_norest","8442","2","17","Female","","false","","","","","[958.6000000089407,375.79999999701977]","./assets/img/canyon/memory/32.jpg","[""ArrowUp"",""ArrowLeft""]","value training","canyon","26","{""ArrowUp,ArrowLeft"":26,""ArrowUp,ArrowRight"":10,""ArrowDown,ArrowLeft"":5,""ArrowDown,ArrowRight"":17}","true","ArrowUp,ArrowLeft","false","original","2","20","","",""
"html-keyboard-response","313","1342978","0.0-4.0-2.1-1.60","spark_pilot_norest","8442","2","17","Female","","","","","","","null","<div style=""font-size:60px;"">+</div>","null","fixation","","","","","","","","","21","","",""
"revaluation","314","1346995","0.0-4.0-2.1-0.61","spark_pilot_norest","8442","2","17","Female","","false","","","","","[718.8999999910593]","./assets/img/canyon/catch/3.jpg","[""spaceBar""]","value training","canyon","0","{""ArrowUp,ArrowLeft"":26,""ArrowUp,ArrowRight"":10,""ArrowDown,ArrowLeft"":5,""ArrowDown,ArrowRight"":17}","true","spaceBar","true","original","2","22","","",""
"html-keyboard-response","315","1347501","0.0-4.0-2.1-1.61","spark_pilot_norest","8442","2","17","Female","","","","","","","null","<div style=""font-size:60px;"">+</div>","null","fixation","","","","","","","","","23","","",""
"revaluation","316","1353539","0.0-4.0-2.1-0.62","spark_pilot_norest","8442","2","17","Female","","false","","","","","[602.9000000059605,422.69999998807907]","./assets/img/canyon/memory/30.jpg","[""ArrowUp"",""ArrowLeft""]","value training","canyon","26","{""ArrowUp,ArrowLeft"":26,""ArrowUp,ArrowRight"":10,""ArrowDown,ArrowLeft"":5,""ArrowDown,ArrowRight"":17}","true","ArrowUp,ArrowLeft","false","original","2","24","","",""
"html-keyboard-response","317","1354046","0.0-4.0-2.1-1.62","spark_pilot_norest","8442","2","17","Female","","","","","","","null","<div style=""font-size:60px;"">+</div>","null","fixation","","","","","","","","","25","","",""
