"trial_type","trial_index","time_elapsed","internal_node_id","task_version","subject_id","assigned_condition","age","gender","success","timeout","failed_images","failed_audio","failed_video","browser_interaction","rt","stimulus","response","task_part","environment","score","rewardMap","correct","fullState","isCatch","condition","order","trial_num","key_press","ground_truth","bonus"
"pavlovia","0","1107","0.0-0.0","spark_pilot_norest","9888","3","7","Male","","","","","","","","","","","","","","","","","","","","","",""
"preload","1","11403","0.0-1.0","spark_pilot_norest","9888","3","7","Male","true","false","[]","[]","[]","[{""event"":""fullscreenenter"",""trial"":2,""time"":13975},{""event"":""blur"",""trial"":620,""time"":2153391},{""event"":""focus"",""trial"":620,""time"":2153393},{""event"":""blur"",""trial"":620,""time"":2154253},{""event"":""focus"",""trial"":620,""time"":2154254},{""event"":""blur"",""trial"":620,""time"":2156805},{""event"":""focus"",""trial"":620,""time"":2156807},{""event"":""blur"",""trial"":620,""time"":2157109},{""event"":""focus"",""trial"":620,""time"":2157111},{""event"":""blur"",""trial"":620,""time"":2157445},{""event"":""focus"",""trial"":620,""time"":2157446}]","","","","","","","","","","","","","","","",""
"fullscreen","2","14963","0.0-2.0","spark_pilot_norest","9888","3","7","Male","true","","","","","","","","","","","","","","","","","","","","",""
"audio-button-response","3","22895","0.0-3.0-0.0-0.0","spark_pilot_norest","9888","3","7","Male","","","","","","","7796","./assets/audio/audiotest/turtle.mp3","2","audio_test","","","","","","","","","","","",""
"learning-instructions","4","32984","0.0-3.0-1.0-0.0","spark_pilot_norest","9888","3","7","Male","","","","","","","3076.399999976158","<p> Welcome! Please remember to stay in fullscreen mode and don't click away from the experiment. </p>","","instructions","","","","","","","","","","","",""
"learning-instructions","5","43261","0.0-3.0-1.0-0.1","spark_pilot_norest","9888","3","7","Male","","","","","","","1818.5","<p> Today you will be playing a game to earn treasure. </p>
            <p> At the end of the experiment, you will earn a bonus based on how much treasure you find. </p>
            <img src='./assets/img/instructions/treasure.jpg' class='instructions-image'>","","instructions","","","","","","","","","","","",""
"learning-instructions","6","54087","0.0-3.0-1.0-0.2","spark_pilot_norest","9888","3","7","Male","","","","","","","2525","<p> Animals have hidden treasure in treasure chests. </p>
            <p> You need to first find an animal and then choose which of their treasure chests to search. </p>
            <img src='./assets/img/space/animals/cat.jpg' class='instructions-image'>","","instructions","","","","","","","","","","","",""
"learning-instructions","7","69074","0.0-3.0-1.0-0.3","spark_pilot_norest","9888","3","7","Male","","","","","","","1775.300000011921","<p> In each round, you will search for treasure in a different place. In the real game, there will be two rounds. </p>
            <p> You will begin with a separate, practice round where you will search for treasure in outer space. </p>
            <img src='./assets/img/space/0.jpg' class='instructions-image'>","","instructions","","","","","","","","","","","",""
"learning-instructions","8","82305","0.0-3.0-1.0-0.4","spark_pilot_norest","9888","3","7","Male","","","","","","","1741.1000000238419","<p> On every turn, you will see a picture of the place that you are in, but the specific image may be different each time. </p>
            <p> For example, both of these images mean you are in outer space. </p>
            <img src='./assets/img/instructions/outerspace.jpg' class='instructions-image'>","","instructions","","","","","","","","","","","",""
"learning-instructions","9","91611","0.0-3.0-1.0-0.5","spark_pilot_norest","9888","3","7","Male","","","","","","","1422","<p> You need to decide which direction to travel in. </p>
            <p> You can choose between going <b>up or down</b> by using the arrow keys. </p>
            <img src='./assets/img/instructions/updown.jpg' class='instructions-image'>","","instructions","","","","","","","","","","","",""
"learning-instructions","10","102125","0.0-3.0-1.0-0.6","spark_pilot_norest","9888","3","7","Male","","","","","","","1620.5","<p> You will have <b>2 seconds</b> to make your choice. </p>
            <p> If you do not make a choice within 2 seconds, you will not find an animal or earn treasure. </p>
            <img src='./assets/img/instructions/2seconds.jpg' class='instructions-image'>","","instructions","","","","","","","","","","","",""
"learning-instructions","11","113905","0.0-3.0-1.0-0.7","spark_pilot_norest","9888","3","7","Male","","","","","","","4704.199999988079","<p> Let’s try practicing that now! </p>
            <p> When you see a picture of the place you are in, press the <b>up</b> key to travel up. </p>
            <img src='./assets/img/instructions/pressUp.jpg' class='instructions-image'>","","instructions","","","","","","","","","","","",""
"revaluation","12","117938","0.0-3.0-2.0-0.0","spark_pilot_norest","9888","3","7","Male","","true","","","","","[]","./assets/img/space/0.jpg","[]","first stage practice","space","-5","null","null","","false","","","","","",""
"html-keyboard-response","13","118448","0.0-3.0-2.0-1.0","spark_pilot_norest","9888","3","7","Male","","","","","","","null","<div style=""font-size:60px;"">+</div>","null","fixation","","","","","","","","","","","",""
"revaluation","14","122464","0.0-3.0-2.0-0.1","spark_pilot_norest","9888","3","7","Male","","true","","","","","[]","./assets/img/space/1.jpg","[]","first stage practice","space","-5","null","null","","false","","","","","",""
"html-keyboard-response","15","122967","0.0-3.0-2.0-1.1","spark_pilot_norest","9888","3","7","Male","","","","","","","null","<div style=""font-size:60px;"">+</div>","null","fixation","","","","","","","","","","","",""
"revaluation","16","126983","0.0-3.0-2.0-0.2","spark_pilot_norest","9888","3","7","Male","","false","","","","","[578.7999999523163]","./assets/img/space/2.jpg","[""ArrowUp""]","first stage practice","space","0","null","null","ArrowUp","false","","","","","",""
"html-keyboard-response","17","127486","0.0-3.0-2.0-1.2","spark_pilot_norest","9888","3","7","Male","","","","","","","null","<div style=""font-size:60px;"">+</div>","null","fixation","","","","","","","","","","","",""
"learning-instructions","18","135912","0.0-3.0-3.0-0.0","spark_pilot_norest","9888","3","7","Male","","","","","","","3693.199999988079","<p> Great job! Now try pressing the <b>down</b> key to travel down. </p>
            <img src='./assets/img/instructions/pressDown.jpg' class='instructions-image'>","","instructions","","","","","","","","","","","",""
"revaluation","19","139927","0.0-3.0-4.0-0.0","spark_pilot_norest","9888","3","7","Male","","false","","","","","[1609.8999999761581]","./assets/img/space/3.jpg","[""ArrowDown""]","first stage practice","space","0","null","null","ArrowDown","false","","","","","",""
"html-keyboard-response","20","140430","0.0-3.0-4.0-1.0","spark_pilot_norest","9888","3","7","Male","","","","","","","null","<div style=""font-size:60px;"">+</div>","null","fixation","","","","","","","","","","","",""
"revaluation","21","144448","0.0-3.0-4.0-0.1","spark_pilot_norest","9888","3","7","Male","","false","","","","","[1965.6000000238419]","./assets/img/space/4.jpg","[""ArrowDown""]","first stage practice","space","0","null","null","ArrowDown","false","","","","","",""
"html-keyboard-response","22","144951","0.0-3.0-4.0-1.1","spark_pilot_norest","9888","3","7","Male","","","","","","","null","<div style=""font-size:60px;"">+</div>","null","fixation","","","","","","","","","","","",""
"revaluation","23","148963","0.0-3.0-4.0-0.2","spark_pilot_norest","9888","3","7","Male","","true","","","","","[]","./assets/img/space/5.jpg","[]","first stage practice","space","-5","null","null","","false","","","","","",""
"html-keyboard-response","24","149473","0.0-3.0-4.0-1.2","spark_pilot_norest","9888","3","7","Male","","","","","","","null","<div style=""font-size:60px;"">+</div>","null","fixation","","","","","","","","","","","",""
"learning-instructions","25","165579","0.0-3.0-5.0-0.0","spark_pilot_norest","9888","3","7","Male","","","","","","","6210.099999964237","<p> The animals don’t move, so the animal in the upper part of a place will stay in the upper part of a place, and the animal in the lower part of a place will stay in the lower part of a place. </p>","","instructions","","","","","","","","","","","",""
"learning-instructions","26","176856","0.0-3.0-5.0-0.1","spark_pilot_norest","9888","3","7","Male","","","","","","","2097.599999964237","<p> Each animal has two treasure chests for you to choose from. </p>
            <p> The amount of treasure in each chest can range from <b> 0 to 40 pieces.</b></p>","","instructions","","","","","","","","","","","",""
"learning-instructions","27","189949","0.0-3.0-5.0-0.2","spark_pilot_norest","9888","3","7","Male","","","","","","","1855.8999999761581","<p> You should decide which chest to search for treasure by using the <b>left</b> and <b>right</b> arrow keys. </p>
            <p><b> Pay attention to which animal is on the screen, as the animals have different treasure chests. </b></p>
            <img src='./assets/img/instructions/leftright.jpg' class='instructions-image'>","","instructions","","","","","","","","","","","",""
"learning-instructions","28","197930","0.0-3.0-5.0-0.3","spark_pilot_norest","9888","3","7","Male","","","","","","","1575.7000000476837","<p> Let’s try practicing that now. </p>
            <p> When you see an animal, choose which chest to search for treasure. </p>
            <img src='./assets/img/instructions/chooseChest.jpg' class='instructions-image'>","","instructions","","","","","","","","","","","",""
"revaluation","29","201956","0.0-3.0-6.0-0.0","spark_pilot_norest","9888","3","7","Male","","false","","","","","[1258.5]","./assets/img/space/animals/rabbit.jpg","[""ArrowRight""]","second stage practice","space","23","{""ArrowUp,ArrowLeft"":3,""ArrowUp,ArrowRight"":36,""ArrowDown,ArrowLeft"":15,""ArrowDown,ArrowRight"":23}","true","ArrowDown,ArrowRight","","","","","","",""
"html-keyboard-response","30","202466","0.0-3.0-6.0-1.0","spark_pilot_norest","9888","3","7","Male","","","","","","","null","<div style=""font-size:60px;"">+</div>","null","fixation","","","","","","","","","","","",""
"revaluation","31","206481","0.0-3.0-6.0-0.1","spark_pilot_norest","9888","3","7","Male","","false","","","","","[1949.199999988079]","./assets/img/space/animals/rabbit.jpg","[""ArrowLeft""]","second stage practice","space","15","{""ArrowUp,ArrowLeft"":3,""ArrowUp,ArrowRight"":36,""ArrowDown,ArrowLeft"":15,""ArrowDown,ArrowRight"":23}","false","ArrowDown,ArrowLeft","","","","","","",""
"html-keyboard-response","32","206984","0.0-3.0-6.0-1.1","spark_pilot_norest","9888","3","7","Male","","","","","","","null","<div style=""font-size:60px;"">+</div>","null","fixation","","","","","","","","","","","",""
"revaluation","33","211001","0.0-3.0-6.0-0.2","spark_pilot_norest","9888","3","7","Male","","false","","","","","[1016.5]","./assets/img/space/animals/cat.jpg","[""ArrowRight""]","second stage practice","space","36","{""ArrowUp,ArrowLeft"":3,""ArrowUp,ArrowRight"":36,""ArrowDown,ArrowLeft"":15,""ArrowDown,ArrowRight"":23}","true","ArrowUp,ArrowRight","","","","","","",""
"html-keyboard-response","34","211506","0.0-3.0-6.0-1.2","spark_pilot_norest","9888","3","7","Male","","","","","","","null","<div style=""font-size:60px;"">+</div>","null","fixation","","","","","","","","","","","",""
"revaluation","35","215522","0.0-3.0-6.0-0.3","spark_pilot_norest","9888","3","7","Male","","false","","","","","[676]","./assets/img/space/animals/cat.jpg","[""ArrowLeft""]","second stage practice","space","3","{""ArrowUp,ArrowLeft"":3,""ArrowUp,ArrowRight"":36,""ArrowDown,ArrowLeft"":15,""ArrowDown,ArrowRight"":23}","false","ArrowUp,ArrowLeft","","","","","","",""
"html-keyboard-response","36","216026","0.0-3.0-6.0-1.3","spark_pilot_norest","9888","3","7","Male","","","","","","","null","<div style=""font-size:60px;"">+</div>","null","fixation","","","","","","","","","","","",""
"learning-instructions","37","234634","0.0-3.0-7.0-0.0","spark_pilot_norest","9888","3","7","Male","","","","","","","1731","<p> Great job. Now let’s try putting it together. </p>
            <p> On each turn, you will first see a picture to remind you of the place you are in, and you need to choose whether to go up or down. </p>
            <p> Then you will see an animal and choose which of its chests to search for treasure. </p>","","instructions","","","","","","","","","","","",""
"learning-instructions","38","244964","0.0-3.0-7.0-0.1","spark_pilot_norest","9888","3","7","Male","","","","","","","2029.6000000238419","<p> When you choose whether to go up or down, try to go to the animal with the chest with the most treasure. </p>
            <p> Try practicing that now! </p>","","instructions","","","","","","","","","","","",""
"revaluation","39","248977","0.0-3.0-8.0-0.0","spark_pilot_norest","9888","3","7","Male","","true","","","","","[]","./assets/img/space/6.jpg","[]","full practice","space","-5","{""ArrowUp,ArrowLeft"":3,""ArrowUp,ArrowRight"":36,""ArrowDown,ArrowLeft"":15,""ArrowDown,ArrowRight"":23}","false","","false","","","","","",""
"html-keyboard-response","40","249483","0.0-3.0-8.0-1.0","spark_pilot_norest","9888","3","7","Male","","","","","","","null","<div style=""font-size:60px;"">+</div>","null","fixation","","","","","","","","","","","",""
"revaluation","41","253498","0.0-3.0-8.0-0.1","spark_pilot_norest","9888","3","7","Male","","true","","","","","[]","./assets/img/space/7.jpg","[]","full practice","space","-5","{""ArrowUp,ArrowLeft"":3,""ArrowUp,ArrowRight"":36,""ArrowDown,ArrowLeft"":15,""ArrowDown,ArrowRight"":23}","false","","false","","","","","",""
"html-keyboard-response","42","254002","0.0-3.0-8.0-1.1","spark_pilot_norest","9888","3","7","Male","","","","","","","null","<div style=""font-size:60px;"">+</div>","null","fixation","","","","","","","","","","","",""
"revaluation","43","258019","0.0-3.0-8.0-0.2","spark_pilot_norest","9888","3","7","Male","","true","","","","","[]","./assets/img/space/8.jpg","[]","full practice","space","-5","{""ArrowUp,ArrowLeft"":3,""ArrowUp,ArrowRight"":36,""ArrowDown,ArrowLeft"":15,""ArrowDown,ArrowRight"":23}","false","","false","","","","","",""
"html-keyboard-response","44","258523","0.0-3.0-8.0-1.2","spark_pilot_norest","9888","3","7","Male","","","","","","","null","<div style=""font-size:60px;"">+</div>","null","fixation","","","","","","","","","","","",""
"revaluation","45","262539","0.0-3.0-8.0-0.3","spark_pilot_norest","9888","3","7","Male","","true","","","","","[]","./assets/img/space/9.jpg","[]","full practice","space","-5","{""ArrowUp,ArrowLeft"":3,""ArrowUp,ArrowRight"":36,""ArrowDown,ArrowLeft"":15,""ArrowDown,ArrowRight"":23}","false","","false","","","","","",""
"html-keyboard-response","46","263043","0.0-3.0-8.0-1.3","spark_pilot_norest","9888","3","7","Male","","","","","","","null","<div style=""font-size:60px;"">+</div>","null","fixation","","","","","","","","","","","",""
"revaluation","47","267059","0.0-3.0-8.0-0.4","spark_pilot_norest","9888","3","7","Male","","true","","","","","[]","./assets/img/space/10.jpg","[]","full practice","space","-5","{""ArrowUp,ArrowLeft"":3,""ArrowUp,ArrowRight"":36,""ArrowDown,ArrowLeft"":15,""ArrowDown,ArrowRight"":23}","false","","false","","","","","",""
"html-keyboard-response","48","267563","0.0-3.0-8.0-1.4","spark_pilot_norest","9888","3","7","Male","","","","","","","null","<div style=""font-size:60px;"">+</div>","null","fixation","","","","","","","","","","","",""
"learning-instructions","49","280632","0.0-3.0-9.0-0.0","spark_pilot_norest","9888","3","7","Male","","","","","","","2721.199999988079","<p> One last thing: sometimes, you will see a robber. The robber can be anywhere in the picture. </p>
            <p> If you do not stop them, you will lose treasure. </p>
            <img src='./assets/img/instructions/robber.jpg' class='instructions-image'>","","instructions","","","","","","","","","","","",""
"learning-instructions","50","290392","0.0-3.0-9.0-0.1","spark_pilot_norest","9888","3","7","Male","","","","","","","2548.800000011921","<p> If you see the robber, you should <b>press the space bar</b> rather than using the arrow keys. </p>
            <p> Try practicing that now! </p>","","instructions","","","","","","","","","","","",""
"revaluation","51","294404","0.0-3.0-10.0-0.0","spark_pilot_norest","9888","3","7","Male","","false","","","","","[1325.6000000238419]","./assets/img/space/catch/0.jpg","[""spaceBar""]","catch practice","space","0","{""ArrowUp,ArrowLeft"":3,""ArrowUp,ArrowRight"":36,""ArrowDown,ArrowLeft"":15,""ArrowDown,ArrowRight"":23}","true","spaceBar","true","","","","","",""
"html-keyboard-response","52","294907","0.0-3.0-10.0-1.0","spark_pilot_norest","9888","3","7","Male","","","","","","","null","<div style=""font-size:60px;"">+</div>","null","fixation","","","","","","","","","","","",""
"revaluation","53","298924","0.0-3.0-10.0-0.1","spark_pilot_norest","9888","3","7","Male","","false","","","","","[699.5]","./assets/img/space/catch/1.jpg","[""spaceBar""]","catch practice","space","0","{""ArrowUp,ArrowLeft"":3,""ArrowUp,ArrowRight"":36,""ArrowDown,ArrowLeft"":15,""ArrowDown,ArrowRight"":23}","true","spaceBar","true","","","","","",""
"html-keyboard-response","54","299427","0.0-3.0-10.0-1.1","spark_pilot_norest","9888","3","7","Male","","","","","","","null","<div style=""font-size:60px;"">+</div>","null","fixation","","","","","","","","","","","",""
"revaluation","55","303445","0.0-3.0-10.0-0.2","spark_pilot_norest","9888","3","7","Male","","false","","","","","[555.8000000119209]","./assets/img/space/catch/2.jpg","[""spaceBar""]","catch practice","space","0","{""ArrowUp,ArrowLeft"":3,""ArrowUp,ArrowRight"":36,""ArrowDown,ArrowLeft"":15,""ArrowDown,ArrowRight"":23}","true","spaceBar","true","","","","","",""
"html-keyboard-response","56","303948","0.0-3.0-10.0-1.2","spark_pilot_norest","9888","3","7","Male","","","","","","","null","<div style=""font-size:60px;"">+</div>","null","fixation","","","","","","","","","","","",""
"learning-instructions","57","311181","0.0-3.0-11.0-0.0-0.0","spark_pilot_norest","9888","3","7","Male","","","","","","","1974.8999999761581","<p> Now, you will practice a shortened version of the game to get a sense of how it all fits together. </p>","","instructions","","","","","","","","","","","",""
"learning-instructions","58","316555","0.0-3.0-11.0-0.0-0.1","spark_pilot_norest","9888","3","7","Male","","","","","","","2147.5","<p>This time you are searching for treasure in outer space.</p>","","instructions","","","","","","","","","","","",""
"learning-instructions","59","332891","0.0-3.0-11.0-1.0-0.0","spark_pilot_norest","9888","3","7","Male","","","","","","","1497.699999988079","<p> Remember, when you see a picture of the place, use the up and down keys to <b>find an animal</b>.</p>
            <p> When you encounter an animal, you should use the left and right keys to <b>select a treasure chest</b>.</p>
            <p> Don't forget to look out for the robber! </p>","","instructions","","","","","","","","","","","",""
"revaluation","60","336903","0.0-3.0-11.0-2.0-0.0","spark_pilot_norest","9888","3","7","Male","","true","","","","","[]","./assets/img/space/11.jpg","[]","practice block","space","-5","{""ArrowUp,ArrowLeft"":3,""ArrowUp,ArrowRight"":36,""ArrowDown,ArrowLeft"":15,""ArrowDown,ArrowRight"":23}","false","","false","","","","","",""
"html-keyboard-response","61","337405","0.0-3.0-11.0-2.0-1.0","spark_pilot_norest","9888","3","7","Male","","","","","","","null","<div style=""font-size:60px;"">+</div>","null","fixation","","","","","","","","","","","",""
"revaluation","62","341422","0.0-3.0-11.0-2.0-0.1","spark_pilot_norest","9888","3","7","Male","","true","","","","","[]","./assets/img/space/12.jpg","[]","practice block","space","-5","{""ArrowUp,ArrowLeft"":3,""ArrowUp,ArrowRight"":36,""ArrowDown,ArrowLeft"":15,""ArrowDown,ArrowRight"":23}","false","","false","","","","","",""
"html-keyboard-response","63","341925","0.0-3.0-11.0-2.0-1.1","spark_pilot_norest","9888","3","7","Male","","","","","","","null","<div style=""font-size:60px;"">+</div>","null","fixation","","","","","","","","","","","",""
"revaluation","64","345941","0.0-3.0-11.0-2.0-0.2","spark_pilot_norest","9888","3","7","Male","","true","","","","","[]","./assets/img/space/13.jpg","[]","practice block","space","-5","{""ArrowUp,ArrowLeft"":3,""ArrowUp,ArrowRight"":36,""ArrowDown,ArrowLeft"":15,""ArrowDown,ArrowRight"":23}","false","","false","","","","","",""
"html-keyboard-response","65","346446","0.0-3.0-11.0-2.0-1.2","spark_pilot_norest","9888","3","7","Male","","","","","","","null","<div style=""font-size:60px;"">+</div>","null","fixation","","","","","","","","","","","",""
"revaluation","66","350461","0.0-3.0-11.0-2.0-0.3","spark_pilot_norest","9888","3","7","Male","","true","","","","","[]","./assets/img/space/14.jpg","[]","practice block","space","-5","{""ArrowUp,ArrowLeft"":3,""ArrowUp,ArrowRight"":36,""ArrowDown,ArrowLeft"":15,""ArrowDown,ArrowRight"":23}","false","","false","","","","","",""
"html-keyboard-response","67","350965","0.0-3.0-11.0-2.0-1.3","spark_pilot_norest","9888","3","7","Male","","","","","","","null","<div style=""font-size:60px;"">+</div>","null","fixation","","","","","","","","","","","",""
"revaluation","68","354982","0.0-3.0-11.0-2.0-0.4","spark_pilot_norest","9888","3","7","Male","","true","","","","","[]","./assets/img/space/11.jpg","[]","practice block","space","-5","{""ArrowUp,ArrowLeft"":3,""ArrowUp,ArrowRight"":36,""ArrowDown,ArrowLeft"":15,""ArrowDown,ArrowRight"":23}","false","","false","","","","","",""
"html-keyboard-response","69","355486","0.0-3.0-11.0-2.0-1.4","spark_pilot_norest","9888","3","7","Male","","","","","","","null","<div style=""font-size:60px;"">+</div>","null","fixation","","","","","","","","","","","",""
"revaluation","70","359497","0.0-3.0-11.0-2.0-0.5","spark_pilot_norest","9888","3","7","Male","","true","","","","","[]","./assets/img/space/12.jpg","[]","practice block","space","-5","{""ArrowUp,ArrowLeft"":3,""ArrowUp,ArrowRight"":36,""ArrowDown,ArrowLeft"":15,""ArrowDown,ArrowRight"":23}","false","","false","","","","","",""
"html-keyboard-response","71","360006","0.0-3.0-11.0-2.0-1.5","spark_pilot_norest","9888","3","7","Male","","","","","","","null","<div style=""font-size:60px;"">+</div>","null","fixation","","","","","","","","","","","",""
"revaluation","72","364013","0.0-3.0-11.0-2.0-0.6","spark_pilot_norest","9888","3","7","Male","","true","","","","","[]","./assets/img/space/13.jpg","[]","practice block","space","-5","{""ArrowUp,ArrowLeft"":3,""ArrowUp,ArrowRight"":36,""ArrowDown,ArrowLeft"":15,""ArrowDown,ArrowRight"":23}","false","","false","","","","","",""
"html-keyboard-response","73","364517","0.0-3.0-11.0-2.0-1.6","spark_pilot_norest","9888","3","7","Male","","","","","","","null","<div style=""font-size:60px;"">+</div>","null","fixation","","","","","","","","","","","",""
"revaluation","74","370542","0.0-3.0-11.0-2.0-0.7","spark_pilot_norest","9888","3","7","Male","","false","","","","","[505.30000001192093,1363.300000011921]","./assets/img/space/14.jpg","[""ArrowDown"",""ArrowRight""]","practice block","space","23","{""ArrowUp,ArrowLeft"":3,""ArrowUp,ArrowRight"":36,""ArrowDown,ArrowLeft"":15,""ArrowDown,ArrowRight"":23}","false","ArrowDown,ArrowRight","false","","","","","",""
"html-keyboard-response","75","371046","0.0-3.0-11.0-2.0-1.7","spark_pilot_norest","9888","3","7","Male","","","","","","","null","<div style=""font-size:60px;"">+</div>","null","fixation","","","","","","","","","","","",""
"revaluation","76","375063","0.0-3.0-11.0-2.0-0.8","spark_pilot_norest","9888","3","7","Male","","false","","","","","[1593.4000000357628]","./assets/img/space/catch/3.jpg","[""spaceBar""]","practice block","space","0","{""ArrowUp,ArrowLeft"":3,""ArrowUp,ArrowRight"":36,""ArrowDown,ArrowLeft"":15,""ArrowDown,ArrowRight"":23}","true","spaceBar","true","","","","","",""
"html-keyboard-response","77","375565","0.0-3.0-11.0-2.0-1.8","spark_pilot_norest","9888","3","7","Male","","","","","","","null","<div style=""font-size:60px;"">+</div>","null","fixation","","","","","","","","","","","",""
"learning-instructions","78","392516","0.0-3.0-11.0-3.0-0.0","spark_pilot_norest","9888","3","7","Male","","","","","","","3971.2999999523163","<p> Now, you will travel with a friend who will choose whether you go up or down first. </p>
            <p> On these turns, you will just see the animal that they found. You will still get to choose which chest to search for treasure.</p>","","instructions","","","","","","","","","","","",""
"revaluation","79","396533","0.0-3.0-11.0-4.0-0.0","spark_pilot_norest","9888","3","7","Male","","true","","","","","[]","./assets/img/space/animals/rabbit.jpg","[]","practice block","space","-5","{""ArrowUp,ArrowLeft"":3,""ArrowUp,ArrowRight"":36,""ArrowDown,ArrowLeft"":15,""ArrowDown,ArrowRight"":23}","false","ArrowDown","","","","","","",""
"html-keyboard-response","80","397035","0.0-3.0-11.0-4.0-1.0","spark_pilot_norest","9888","3","7","Male","","","","","","","null","<div style=""font-size:60px;"">+</div>","null","fixation","","","","","","","","","","","",""
"revaluation","81","401052","0.0-3.0-11.0-4.0-0.1","spark_pilot_norest","9888","3","7","Male","","false","","","","","[832.6999999880791]","./assets/img/space/animals/cat.jpg","[""ArrowRight""]","practice block","space","36","{""ArrowUp,ArrowLeft"":3,""ArrowUp,ArrowRight"":36,""ArrowDown,ArrowLeft"":15,""ArrowDown,ArrowRight"":23}","true","ArrowUp,ArrowRight","","","","","","",""
"html-keyboard-response","82","401557","0.0-3.0-11.0-4.0-1.1","spark_pilot_norest","9888","3","7","Male","","","","","","","null","<div style=""font-size:60px;"">+</div>","null","fixation","","","","","","","","","","","",""
"revaluation","83","405573","0.0-3.0-11.0-4.0-0.2","spark_pilot_norest","9888","3","7","Male","","false","","","","","[946.2000000476837]","./assets/img/space/animals/cat.jpg","[""ArrowRight""]","practice block","space","36","{""ArrowUp,ArrowLeft"":3,""ArrowUp,ArrowRight"":36,""ArrowDown,ArrowLeft"":15,""ArrowDown,ArrowRight"":23}","true","ArrowUp,ArrowRight","","","","","","",""
"html-keyboard-response","84","406077","0.0-3.0-11.0-4.0-1.2","spark_pilot_norest","9888","3","7","Male","","","","","","","null","<div style=""font-size:60px;"">+</div>","null","fixation","","","","","","","","","","","",""
"revaluation","85","410094","0.0-3.0-11.0-4.0-0.3","spark_pilot_norest","9888","3","7","Male","","false","","","","","[720.3999999761581]","./assets/img/space/animals/rabbit.jpg","[""ArrowRight""]","practice block","space","23","{""ArrowUp,ArrowLeft"":3,""ArrowUp,ArrowRight"":36,""ArrowDown,ArrowLeft"":15,""ArrowDown,ArrowRight"":23}","true","ArrowDown,ArrowRight","","","","","","",""
"html-keyboard-response","86","410597","0.0-3.0-11.0-4.0-1.3","spark_pilot_norest","9888","3","7","Male","","","","","","","null","<div style=""font-size:60px;"">+</div>","null","fixation","","","","","","","","","","","",""
"learning-instructions","87","418750","0.0-3.0-11.0-5.0-0.0","spark_pilot_norest","9888","3","7","Male","","","","","","","null","<p> You have almost finished this part of the game! </p>
            <p> We are going to ask you to make a few more choices. </p>","","instructions","","","","","","","","","","","",""
"learning-instructions","88","434823","0.0-3.0-11.0-5.0-0.1","spark_pilot_norest","9888","3","7","Male","","","","","","","null","<p> First, you need to decide whether to go up or down. When you see each picture, use the arrow keys to make your choice. </p>
            <p><b>You will not see which animal you found, but try to get to the one that will give you the most treasure.</b></p>","","instructions","","","","","","","","","","","",""
"html-keyboard-response","89","435831","0.0-3.0-11.0-6.0-0.0","spark_pilot_norest","9888","3","7","Male","","","","","","","null","<div style=""font-size:100px;color:red;"">Starting in...</div>","null","","","","","","","","","","","","",""
"html-keyboard-response","90","436838","0.0-3.0-11.0-6.0-1.0","spark_pilot_norest","9888","3","7","Male","","","","","","","null","<div style=""font-size:200px;color:red;"">3</div>","null","","","","","","","","","","","","",""
"html-keyboard-response","91","437847","0.0-3.0-11.0-6.0-2.0","spark_pilot_norest","9888","3","7","Male","","","","","","","null","<div style=""font-size:200px;color:red;"">2</div>","null","","","","","","","","","","","","",""
"html-keyboard-response","92","438854","0.0-3.0-11.0-6.0-3.0","spark_pilot_norest","9888","3","7","Male","","","","","","","null","<div style=""font-size:200px;color:red;"">1</div>","null","","","","","","","","","","","","",""
"revaluation","93","439743","0.0-3.0-11.0-7.0","spark_pilot_norest","9888","3","7","Male","","false","","","","","[887]","./assets/img/space/15.jpg","[""ArrowDown""]","practice block","space","0","{""ArrowUp,ArrowLeft"":3,""ArrowUp,ArrowRight"":36,""ArrowDown,ArrowLeft"":15,""ArrowDown,ArrowRight"":23}","false","ArrowDown","false","","","","","",""
"html-keyboard-response","94","440247","0.0-3.0-11.0-8.0","spark_pilot_norest","9888","3","7","Male","","","","","","","null","<div style=""font-size:60px;"">+</div>","null","fixation","","","","","","","","","","","",""
"learning-instructions","95","453680","0.0-3.0-11.0-9.0-0.0","spark_pilot_norest","9888","3","7","Male","","","","","","","null","<p> Now you will see the animals again and can search their chests for treasure. </p>
            <p> This time, you will not see how much treasure you earned, but you will earn more bonus money for making better choices. </p>","","instructions","","","","","","","","","","","",""
"html-keyboard-response","96","454687","0.0-3.0-11.0-10.0-0.0","spark_pilot_norest","9888","3","7","Male","","","","","","","null","<div style=""font-size:100px;color:red;"">Starting in...</div>","null","","","","","","","","","","","","",""
"html-keyboard-response","97","455695","0.0-3.0-11.0-10.0-1.0","spark_pilot_norest","9888","3","7","Male","","","","","","","null","<div style=""font-size:200px;color:red;"">3</div>","null","","","","","","","","","","","","",""
"html-keyboard-response","98","456703","0.0-3.0-11.0-10.0-2.0","spark_pilot_norest","9888","3","7","Male","","","","","","","null","<div style=""font-size:200px;color:red;"">2</div>","null","","","","","","","","","","","","",""
"html-keyboard-response","99","457712","0.0-3.0-11.0-10.0-3.0","spark_pilot_norest","9888","3","7","Male","","","","","","","null","<div style=""font-size:200px;color:red;"">1</div>","null","","","","","","","","","","","","",""
"revaluation","100","459237","0.0-3.0-11.0-11.0-0.0","spark_pilot_norest","9888","3","7","Male","","false","","","","","[1523.2999999523163]","./assets/img/space/animals/cat.jpg","[""ArrowRight""]","practice block","space","0","{""ArrowUp,ArrowLeft"":3,""ArrowUp,ArrowRight"":36,""ArrowDown,ArrowLeft"":15,""ArrowDown,ArrowRight"":23}","true","ArrowUp,ArrowRight","","","","","","",""
"html-keyboard-response","101","459744","0.0-3.0-11.0-11.0-1.0","spark_pilot_norest","9888","3","7","Male","","","","","","","null","<div style=""font-size:60px;"">+</div>","null","fixation","","","","","","","","","","","",""
"revaluation","102","461157","0.0-3.0-11.0-11.0-0.1","spark_pilot_norest","9888","3","7","Male","","false","","","","","[1411.4000000357628]","./assets/img/space/animals/rabbit.jpg","[""ArrowRight""]","practice block","space","0","{""ArrowUp,ArrowLeft"":3,""ArrowUp,ArrowRight"":36,""ArrowDown,ArrowLeft"":15,""ArrowDown,ArrowRight"":23}","true","ArrowDown,ArrowRight","","","","","","",""
"html-keyboard-response","103","461663","0.0-3.0-11.0-11.0-1.1","spark_pilot_norest","9888","3","7","Male","","","","","","","null","<div style=""font-size:60px;"">+</div>","null","fixation","","","","","","","","","","","",""
"learning-instructions","104","474335","0.0-3.0-12.0-0.0","spark_pilot_norest","9888","3","7","Male","","","","","","","8062.400000035763","<p> Before you start, we're going to ask you a few questions about how the game works. </p>","","instructions","","","","","","","","","","","",""
"comp-q","105","482862","0.0-3.0-13.0-0.0-0.0","spark_pilot_norest","9888","3","7","Male","","","","","","","2903.199999988079","<p> <b> True or False? </b> </p>
            <p> There can be 50 pieces of treasure in a given animal's chest. </p>","1","comp_question","","","","true","","","","","","","",""
"comp-q","106","494495","0.0-3.0-13.0-0.0-1.0","spark_pilot_norest","9888","3","7","Male","","","","","","","4938.5","<p> <b> That's right! </b> The amount of treasure in each chest can range from 0 to 40 pieces. </p>","0","comp_answer","","","","","","","","","","","",""
"comp-q","107","504996","0.0-3.0-13.0-0.1-0.1","spark_pilot_norest","9888","3","7","Male","","","","","","","3335.5","<p> <b> True or False? </b> </p><p> In this game, all animals have the same amount of treasure in their left and right chests. </p>","1","comp_question","","","","true","","","","","","","",""
"comp-q","108","513524","0.0-3.0-13.0-0.1-1.1","spark_pilot_norest","9888","3","7","Male","","","","","","","3254.800000011921","<p> <b> That's right! </b> Animals have different amounts of treasure in their treasure chests. </p>","0","comp_answer","","","","","","","","","","","",""
"comp-q","109","522075","0.0-3.0-13.0-0.2-0.2","spark_pilot_norest","9888","3","7","Male","","","","","","","2674.399999976158","<p> <b> True or False? </b> </p><p> The same animal will always be there if you go up in the same place. </p>","0","comp_question","","","","true","","","","","","","",""
"comp-q","110","530873","0.0-3.0-13.0-0.2-1.2","spark_pilot_norest","9888","3","7","Male","","","","","","","2323.100000023842","<p> <b> That's right! </b> One animal lives in the upper part and one lives in the lower part of every place. </p>","0","comp_answer","","","","","","","","","","","",""
"comp-q","111","539092","0.0-3.0-13.0-0.3-0.3","spark_pilot_norest","9888","3","7","Male","","","","","","","2664.600000023842","<p> <b> True or False? </b> </p><p> If you see a different picture, it means you are in a new place. </p>","0","comp_question","","","","false","","","","","","","",""
"comp-q","112","553981","0.0-3.0-13.0-0.3-1.3","spark_pilot_norest","9888","3","7","Male","","","","","","","3742.699999988079","<p> <b>Incorrect.</b> Lots of different images may show the same place. For example,  you may see three different images that all remind you that you are in outer space. </p>","0","comp_answer","","","","","","","","","","","",""
"comp-q","113","563734","0.0-3.0-13.0-0.4-0.4","spark_pilot_norest","9888","3","7","Male","","","","","","","4247.800000011921","<p> <b> True or False? </b> </p><p> If you see a different picture, it means you are in a new place. </p>","1","comp_question","","","","true","","","","","","","",""
"comp-q","114","578406","0.0-3.0-13.0-0.4-1.4","spark_pilot_norest","9888","3","7","Male","","","","","","","3368.100000023842","<p> <b> That's right! </b> Lots of different images may show the same place. For example,  you may see three different images that all remind you that you are in outer space. </p>","0","comp_answer","","","","","","","","","","","",""
"learning-instructions","115","590875","0.0-3.0-14.0-0.0","spark_pilot_norest","9888","3","7","Male","","","","","","","2573.100000023842","<p> Good job. Remember to do your best because the amount of treasure you earn will be converted into bonus money. </p>
            <p> It’s time to start the real game! </p>","","instructions","","","","","","","","","","","",""
"learning-instructions","116","595920","0.0-4.0-0.0-0.0","spark_pilot_norest","9888","3","7","Male","","","","","","","2317.800000011921","<p> This time you are searching for treasure in the <b>ocean</b>.</p>","","instructions","","","","","","","","","","","",""
"learning-instructions","117","651683","0.0-4.0-0.0-0.1","spark_pilot_norest","9888","3","7","Male","","","","","","","38382.799999952316","<p><b>New</b> animals with <b>new</b> treasure chests live here. You need to explore to discover where the animal with the best treasure chest is.</p>
                    <p> Like before, once you figure out which animal has the chest with the most treasure, you should try to get to that animal and select that chest! </p>","","instructions","","","","","","","","","","","",""
"learning-instructions","118","667896","0.0-4.0-1.0-0.0","spark_pilot_norest","9888","3","7","Male","","","","","","","1473.1000000238419","<p> Remember, when you see a picture of the place, use the up and down keys to <b>find an animal</b>.</p>
            <p> When you encounter an animal, you should use the left and right keys to <b>select a treasure chest</b>.</p>
            <p> Don't forget to look out for the robber! </p>","","instructions","","","","","","","","","","","",""
"revaluation","119","673918","0.0-4.0-2.0-0.0","spark_pilot_norest","9888","3","7","Male","","false","","","","","[1261.199999988079,991.1000000238419]","./assets/img/ocean/memory/17.jpg","[""ArrowDown"",""ArrowRight""]","value training","ocean","30","{""ArrowUp,ArrowLeft"":23,""ArrowUp,ArrowRight"":10,""ArrowDown,ArrowLeft"":8,""ArrowDown,ArrowRight"":30}","true","ArrowDown,ArrowRight","false","original","1","0","","",""
"html-keyboard-response","120","674430","0.0-4.0-2.0-1.0","spark_pilot_norest","9888","3","7","Male","","","","","","","null","<div style=""font-size:60px;"">+</div>","null","fixation","","","","","","","","","1","","",""
"revaluation","121","680455","0.0-4.0-2.0-0.1","spark_pilot_norest","9888","3","7","Male","","false","","","","","[1142.800000011921,936.8000000119209]","./assets/img/ocean/memory/19.jpg","[""ArrowUp"",""ArrowRight""]","value training","ocean","10","{""ArrowUp,ArrowLeft"":23,""ArrowUp,ArrowRight"":10,""ArrowDown,ArrowLeft"":8,""ArrowDown,ArrowRight"":30}","false","ArrowUp,ArrowRight","false","original","1","2","","",""
"html-keyboard-response","122","680958","0.0-4.0-2.0-1.1","spark_pilot_norest","9888","3","7","Male","","","","","","","null","<div style=""font-size:60px;"">+</div>","null","fixation","","","","","","","","","3","","",""
"revaluation","123","686982","0.0-4.0-2.0-0.2","spark_pilot_norest","9888","3","7","Male","","false","","","","","[1072.6000000238419,1001.5]","./assets/img/ocean/memory/33.jpg","[""ArrowUp"",""ArrowLeft""]","value training","ocean","23","{""ArrowUp,ArrowLeft"":23,""ArrowUp,ArrowRight"":10,""ArrowDown,ArrowLeft"":8,""ArrowDown,ArrowRight"":30}","false","ArrowUp,ArrowLeft","false","original","1","4","","",""
"html-keyboard-response","124","687486","0.0-4.0-2.0-1.2","spark_pilot_norest","9888","3","7","Male","","","","","","","null","<div style=""font-size:60px;"">+</div>","null","fixation","","","","","","","","","5","","",""
"revaluation","125","693511","0.0-4.0-2.0-0.3","spark_pilot_norest","9888","3","7","Male","","false","","","","","[1232.300000011921,650.6000000238419]","./assets/img/ocean/memory/16.jpg","[""ArrowDown"",""ArrowRight""]","value training","ocean","30","{""ArrowUp,ArrowLeft"":23,""ArrowUp,ArrowRight"":10,""ArrowDown,ArrowLeft"":8,""ArrowDown,ArrowRight"":30}","true","ArrowDown,ArrowRight","false","original","1","6","","",""
"html-keyboard-response","126","694015","0.0-4.0-2.0-1.3","spark_pilot_norest","9888","3","7","Male","","","","","","","null","<div style=""font-size:60px;"">+</div>","null","fixation","","","","","","","","","7","","",""
"revaluation","127","700039","0.0-4.0-2.0-0.4","spark_pilot_norest","9888","3","7","Male","","false","","","","","[1104.5999999642372,532.5]","./assets/img/ocean/memory/23.jpg","[""ArrowDown"",""ArrowRight""]","value training","ocean","30","{""ArrowUp,ArrowLeft"":23,""ArrowUp,ArrowRight"":10,""ArrowDown,ArrowLeft"":8,""ArrowDown,ArrowRight"":30}","true","ArrowDown,ArrowRight","false","original","1","8","","",""
"html-keyboard-response","128","700543","0.0-4.0-2.0-1.4","spark_pilot_norest","9888","3","7","Male","","","","","","","null","<div style=""font-size:60px;"">+</div>","null","fixation","","","","","","","","","9","","",""
"revaluation","129","706566","0.0-4.0-2.0-0.5","spark_pilot_norest","9888","3","7","Male","","false","","","","","[914.3999999761581,1045]","./assets/img/ocean/memory/41.jpg","[""ArrowDown"",""ArrowRight""]","value training","ocean","30","{""ArrowUp,ArrowLeft"":23,""ArrowUp,ArrowRight"":10,""ArrowDown,ArrowLeft"":8,""ArrowDown,ArrowRight"":30}","true","ArrowDown,ArrowRight","false","original","1","10","","",""
"html-keyboard-response","130","707071","0.0-4.0-2.0-1.5","spark_pilot_norest","9888","3","7","Male","","","","","","","null","<div style=""font-size:60px;"">+</div>","null","fixation","","","","","","","","","11","","",""
"revaluation","131","711086","0.0-4.0-2.0-0.6","spark_pilot_norest","9888","3","7","Male","","false","","","","","[1350.9000000357628]","./assets/img/ocean/catch/5.jpg","[""ArrowDown""]","value training","ocean","-10","{""ArrowUp,ArrowLeft"":23,""ArrowUp,ArrowRight"":10,""ArrowDown,ArrowLeft"":8,""ArrowDown,ArrowRight"":30}","false","ArrowDown","true","original","1","12","","",""
"html-keyboard-response","132","711591","0.0-4.0-2.0-1.6","spark_pilot_norest","9888","3","7","Male","","","","","","","null","<div style=""font-size:60px;"">+</div>","null","fixation","","","","","","","","","13","","",""
"revaluation","133","715608","0.0-4.0-2.0-0.7","spark_pilot_norest","9888","3","7","Male","","false","","","","","[1752.7999999523163]","./assets/img/ocean/catch/2.jpg","[""spaceBar""]","value training","ocean","0","{""ArrowUp,ArrowLeft"":23,""ArrowUp,ArrowRight"":10,""ArrowDown,ArrowLeft"":8,""ArrowDown,ArrowRight"":30}","true","spaceBar","true","original","1","14","","",""
"html-keyboard-response","134","716111","0.0-4.0-2.0-1.7","spark_pilot_norest","9888","3","7","Male","","","","","","","null","<div style=""font-size:60px;"">+</div>","null","fixation","","","","","","","","","15","","",""
"revaluation","135","720127","0.0-4.0-2.0-0.8","spark_pilot_norest","9888","3","7","Male","","true","","","","","[]","./assets/img/ocean/memory/9.jpg","[]","value training","ocean","-5","{""ArrowUp,ArrowLeft"":23,""ArrowUp,ArrowRight"":10,""ArrowDown,ArrowLeft"":8,""ArrowDown,ArrowRight"":30}","false","","false","original","1","16","","",""
"html-keyboard-response","136","720632","0.0-4.0-2.0-1.8","spark_pilot_norest","9888","3","7","Male","","","","","","","null","<div style=""font-size:60px;"">+</div>","null","fixation","","","","","","","","","17","","",""
"revaluation","137","726655","0.0-4.0-2.0-0.9","spark_pilot_norest","9888","3","7","Male","","false","","","","","[841.9000000357628,747.0999999642372]","./assets/img/ocean/memory/1.jpg","[""ArrowDown"",""ArrowRight""]","value training","ocean","30","{""ArrowUp,ArrowLeft"":23,""ArrowUp,ArrowRight"":10,""ArrowDown,ArrowLeft"":8,""ArrowDown,ArrowRight"":30}","true","ArrowDown,ArrowRight","false","original","1","18","","",""
"html-keyboard-response","138","727160","0.0-4.0-2.0-1.9","spark_pilot_norest","9888","3","7","Male","","","","","","","null","<div style=""font-size:60px;"">+</div>","null","fixation","","","","","","","","","19","","",""
"revaluation","139","733184","0.0-4.0-2.0-0.10","spark_pilot_norest","9888","3","7","Male","","false","","","","","[672.1999999880791,522.8999999761581]","./assets/img/ocean/memory/18.jpg","[""ArrowDown"",""ArrowRight""]","value training","ocean","30","{""ArrowUp,ArrowLeft"":23,""ArrowUp,ArrowRight"":10,""ArrowDown,ArrowLeft"":8,""ArrowDown,ArrowRight"":30}","true","ArrowDown,ArrowRight","false","original","1","20","","",""
"html-keyboard-response","140","733687","0.0-4.0-2.0-1.10","spark_pilot_norest","9888","3","7","Male","","","","","","","null","<div style=""font-size:60px;"">+</div>","null","fixation","","","","","","","","","21","","",""
"revaluation","141","739712","0.0-4.0-2.0-0.11","spark_pilot_norest","9888","3","7","Male","","false","","","","","[1866,1073.6000000238419]","./assets/img/ocean/memory/30.jpg","[""ArrowDown"",""ArrowRight""]","value training","ocean","30","{""ArrowUp,ArrowLeft"":23,""ArrowUp,ArrowRight"":10,""ArrowDown,ArrowLeft"":8,""ArrowDown,ArrowRight"":30}","true","ArrowDown,ArrowRight","false","original","1","22","","",""
"html-keyboard-response","142","740216","0.0-4.0-2.0-1.11","spark_pilot_norest","9888","3","7","Male","","","","","","","null","<div style=""font-size:60px;"">+</div>","null","fixation","","","","","","","","","23","","",""
"revaluation","143","744232","0.0-4.0-2.0-0.12","spark_pilot_norest","9888","3","7","Male","","false","","","","","[1146.5]","./assets/img/ocean/catch/3.jpg","[""spaceBar""]","value training","ocean","0","{""ArrowUp,ArrowLeft"":23,""ArrowUp,ArrowRight"":10,""ArrowDown,ArrowLeft"":8,""ArrowDown,ArrowRight"":30}","true","spaceBar","true","original","1","24","","",""
"html-keyboard-response","144","744737","0.0-4.0-2.0-1.12","spark_pilot_norest","9888","3","7","Male","","","","","","","null","<div style=""font-size:60px;"">+</div>","null","fixation","","","","","","","","","25","","",""
"revaluation","145","750761","0.0-4.0-2.0-0.13","spark_pilot_norest","9888","3","7","Male","","false","","","","","[1579.5,639.2000000476837]","./assets/img/ocean/memory/30.jpg","[""ArrowDown"",""ArrowRight""]","value training","ocean","30","{""ArrowUp,ArrowLeft"":23,""ArrowUp,ArrowRight"":10,""ArrowDown,ArrowLeft"":8,""ArrowDown,ArrowRight"":30}","true","ArrowDown,ArrowRight","false","original","1","26","","",""
"html-keyboard-response","146","751263","0.0-4.0-2.0-1.13","spark_pilot_norest","9888","3","7","Male","","","","","","","null","<div style=""font-size:60px;"">+</div>","null","fixation","","","","","","","","","27","","",""
"revaluation","147","757289","0.0-4.0-2.0-0.14","spark_pilot_norest","9888","3","7","Male","","false","","","","","[885,687.1999999880791]","./assets/img/ocean/memory/17.jpg","[""ArrowDown"",""ArrowRight""]","value training","ocean","30","{""ArrowUp,ArrowLeft"":23,""ArrowUp,ArrowRight"":10,""ArrowDown,ArrowLeft"":8,""ArrowDown,ArrowRight"":30}","true","ArrowDown,ArrowRight","false","original","1","28","","",""
"html-keyboard-response","148","757792","0.0-4.0-2.0-1.14","spark_pilot_norest","9888","3","7","Male","","","","","","","null","<div style=""font-size:60px;"">+</div>","null","fixation","","","","","","","","","29","","",""
"revaluation","149","763817","0.0-4.0-2.0-0.15","spark_pilot_norest","9888","3","7","Male","","false","","","","","[1271.300000011921,818.2000000476837]","./assets/img/ocean/memory/23.jpg","[""ArrowDown"",""ArrowRight""]","value training","ocean","30","{""ArrowUp,ArrowLeft"":23,""ArrowUp,ArrowRight"":10,""ArrowDown,ArrowLeft"":8,""ArrowDown,ArrowRight"":30}","true","ArrowDown,ArrowRight","false","original","1","30","","",""
"html-keyboard-response","150","764321","0.0-4.0-2.0-1.15","spark_pilot_norest","9888","3","7","Male","","","","","","","null","<div style=""font-size:60px;"">+</div>","null","fixation","","","","","","","","","31","","",""
"revaluation","151","770344","0.0-4.0-2.0-0.16","spark_pilot_norest","9888","3","7","Male","","false","","","","","[1273.7999999523163,659.6000000238419]","./assets/img/ocean/memory/33.jpg","[""ArrowDown"",""ArrowRight""]","value training","ocean","30","{""ArrowUp,ArrowLeft"":23,""ArrowUp,ArrowRight"":10,""ArrowDown,ArrowLeft"":8,""ArrowDown,ArrowRight"":30}","true","ArrowDown,ArrowRight","false","original","1","32","","",""
"html-keyboard-response","152","770849","0.0-4.0-2.0-1.16","spark_pilot_norest","9888","3","7","Male","","","","","","","null","<div style=""font-size:60px;"">+</div>","null","fixation","","","","","","","","","33","","",""
"revaluation","153","776873","0.0-4.0-2.0-0.17","spark_pilot_norest","9888","3","7","Male","","false","","","","","[1244.5999999642372,677.1000000238419]","./assets/img/ocean/memory/0.jpg","[""ArrowDown"",""ArrowRight""]","value training","ocean","30","{""ArrowUp,ArrowLeft"":23,""ArrowUp,ArrowRight"":10,""ArrowDown,ArrowLeft"":8,""ArrowDown,ArrowRight"":30}","true","ArrowDown,ArrowRight","false","original","1","34","","",""
"html-keyboard-response","154","777377","0.0-4.0-2.0-1.17","spark_pilot_norest","9888","3","7","Male","","","","","","","null","<div style=""font-size:60px;"">+</div>","null","fixation","","","","","","","","","35","","",""
"revaluation","155","783401","0.0-4.0-2.0-0.18","spark_pilot_norest","9888","3","7","Male","","false","","","","","[1037.3999999761581,536.0999999642372]","./assets/img/ocean/memory/39.jpg","[""ArrowDown"",""ArrowRight""]","value training","ocean","30","{""ArrowUp,ArrowLeft"":23,""ArrowUp,ArrowRight"":10,""ArrowDown,ArrowLeft"":8,""ArrowDown,ArrowRight"":30}","true","ArrowDown,ArrowRight","false","original","1","36","","",""
"html-keyboard-response","156","783906","0.0-4.0-2.0-1.18","spark_pilot_norest","9888","3","7","Male","","","","","","","null","<div style=""font-size:60px;"">+</div>","null","fixation","","","","","","","","","37","","",""
"revaluation","157","789929","0.0-4.0-2.0-0.19","spark_pilot_norest","9888","3","7","Male","","false","","","","","[1075.800000011921,581.5]","./assets/img/ocean/memory/21.jpg","[""ArrowDown"",""ArrowRight""]","value training","ocean","30","{""ArrowUp,ArrowLeft"":23,""ArrowUp,ArrowRight"":10,""ArrowDown,ArrowLeft"":8,""ArrowDown,ArrowRight"":30}","true","ArrowDown,ArrowRight","false","original","1","38","","",""
"html-keyboard-response","158","790433","0.0-4.0-2.0-1.19","spark_pilot_norest","9888","3","7","Male","","","","","","","null","<div style=""font-size:60px;"">+</div>","null","fixation","","","","","","","","","39","","",""
"revaluation","159","794450","0.0-4.0-2.0-0.20","spark_pilot_norest","9888","3","7","Male","","true","","","","","[]","./assets/img/ocean/memory/8.jpg","[]","value training","ocean","-5","{""ArrowUp,ArrowLeft"":23,""ArrowUp,ArrowRight"":10,""ArrowDown,ArrowLeft"":8,""ArrowDown,ArrowRight"":30}","false","","false","original","1","40","","",""
"html-keyboard-response","160","794954","0.0-4.0-2.0-1.20","spark_pilot_norest","9888","3","7","Male","","","","","","","null","<div style=""font-size:60px;"">+</div>","null","fixation","","","","","","","","","41","","",""
"revaluation","161","800977","0.0-4.0-2.0-0.21","spark_pilot_norest","9888","3","7","Male","","false","","","","","[701,488.19999998807907]","./assets/img/ocean/memory/36.jpg","[""ArrowDown"",""ArrowRight""]","value training","ocean","30","{""ArrowUp,ArrowLeft"":23,""ArrowUp,ArrowRight"":10,""ArrowDown,ArrowLeft"":8,""ArrowDown,ArrowRight"":30}","true","ArrowDown,ArrowRight","false","original","1","42","","",""
"html-keyboard-response","162","801482","0.0-4.0-2.0-1.21","spark_pilot_norest","9888","3","7","Male","","","","","","","null","<div style=""font-size:60px;"">+</div>","null","fixation","","","","","","","","","43","","",""
"revaluation","163","807507","0.0-4.0-2.0-0.22","spark_pilot_norest","9888","3","7","Male","","false","","","","","[1542.699999988079,1201.199999988079]","./assets/img/ocean/memory/10.jpg","[""ArrowDown"",""ArrowRight""]","value training","ocean","30","{""ArrowUp,ArrowLeft"":23,""ArrowUp,ArrowRight"":10,""ArrowDown,ArrowLeft"":8,""ArrowDown,ArrowRight"":30}","true","ArrowDown,ArrowRight","false","original","1","44","","",""
"html-keyboard-response","164","808009","0.0-4.0-2.0-1.22","spark_pilot_norest","9888","3","7","Male","","","","","","","null","<div style=""font-size:60px;"">+</div>","null","fixation","","","","","","","","","45","","",""
"revaluation","165","814033","0.0-4.0-2.0-0.23","spark_pilot_norest","9888","3","7","Male","","false","","","","","[1344.0999999642372,672.3999999761581]","./assets/img/ocean/memory/1.jpg","[""ArrowDown"",""ArrowRight""]","value training","ocean","30","{""ArrowUp,ArrowLeft"":23,""ArrowUp,ArrowRight"":10,""ArrowDown,ArrowLeft"":8,""ArrowDown,ArrowRight"":30}","true","ArrowDown,ArrowRight","false","original","1","46","","",""
"html-keyboard-response","166","814538","0.0-4.0-2.0-1.23","spark_pilot_norest","9888","3","7","Male","","","","","","","null","<div style=""font-size:60px;"">+</div>","null","fixation","","","","","","","","","47","","",""
"revaluation","167","820561","0.0-4.0-2.0-0.24","spark_pilot_norest","9888","3","7","Male","","false","","","","","[669.9000000357628,577.3000000119209]","./assets/img/ocean/memory/16.jpg","[""ArrowDown"",""ArrowRight""]","value training","ocean","30","{""ArrowUp,ArrowLeft"":23,""ArrowUp,ArrowRight"":10,""ArrowDown,ArrowLeft"":8,""ArrowDown,ArrowRight"":30}","true","ArrowDown,ArrowRight","false","original","1","48","","",""
"html-keyboard-response","168","821065","0.0-4.0-2.0-1.24","spark_pilot_norest","9888","3","7","Male","","","","","","","null","<div style=""font-size:60px;"">+</div>","null","fixation","","","","","","","","","49","","",""
"revaluation","169","827091","0.0-4.0-2.0-0.25","spark_pilot_norest","9888","3","7","Male","","false","","","","","[567.3000000119209,585.0999999642372]","./assets/img/ocean/memory/14.jpg","[""ArrowDown"",""ArrowRight""]","value training","ocean","30","{""ArrowUp,ArrowLeft"":23,""ArrowUp,ArrowRight"":10,""ArrowDown,ArrowLeft"":8,""ArrowDown,ArrowRight"":30}","true","ArrowDown,ArrowRight","false","original","1","50","","",""
"html-keyboard-response","170","827595","0.0-4.0-2.0-1.25","spark_pilot_norest","9888","3","7","Male","","","","","","","null","<div style=""font-size:60px;"">+</div>","null","fixation","","","","","","","","","51","","",""
"revaluation","171","833619","0.0-4.0-2.0-0.26","spark_pilot_norest","9888","3","7","Male","","false","","","","","[739.1000000238419,781]","./assets/img/ocean/memory/14.jpg","[""ArrowDown"",""ArrowRight""]","value training","ocean","30","{""ArrowUp,ArrowLeft"":23,""ArrowUp,ArrowRight"":10,""ArrowDown,ArrowLeft"":8,""ArrowDown,ArrowRight"":30}","true","ArrowDown,ArrowRight","false","original","1","52","","",""
"html-keyboard-response","172","834123","0.0-4.0-2.0-1.26","spark_pilot_norest","9888","3","7","Male","","","","","","","null","<div style=""font-size:60px;"">+</div>","null","fixation","","","","","","","","","53","","",""
"revaluation","173","840147","0.0-4.0-2.0-0.27","spark_pilot_norest","9888","3","7","Male","","false","","","","","[577.0999999642372,771]","./assets/img/ocean/memory/10.jpg","[""ArrowDown"",""ArrowRight""]","value training","ocean","30","{""ArrowUp,ArrowLeft"":23,""ArrowUp,ArrowRight"":10,""ArrowDown,ArrowLeft"":8,""ArrowDown,ArrowRight"":30}","true","ArrowDown,ArrowRight","false","original","1","54","","",""
"html-keyboard-response","174","840651","0.0-4.0-2.0-1.27","spark_pilot_norest","9888","3","7","Male","","","","","","","null","<div style=""font-size:60px;"">+</div>","null","fixation","","","","","","","","","55","","",""
"revaluation","175","846674","0.0-4.0-2.0-0.28","spark_pilot_norest","9888","3","7","Male","","false","","","","","[1269.199999988079,943.6000000238419]","./assets/img/ocean/memory/8.jpg","[""ArrowDown"",""ArrowRight""]","value training","ocean","30","{""ArrowUp,ArrowLeft"":23,""ArrowUp,ArrowRight"":10,""ArrowDown,ArrowLeft"":8,""ArrowDown,ArrowRight"":30}","true","ArrowDown,ArrowRight","false","original","1","56","","",""
"html-keyboard-response","176","847179","0.0-4.0-2.0-1.28","spark_pilot_norest","9888","3","7","Male","","","","","","","null","<div style=""font-size:60px;"">+</div>","null","fixation","","","","","","","","","57","","",""
"revaluation","177","851196","0.0-4.0-2.0-0.29","spark_pilot_norest","9888","3","7","Male","","false","","","","","[1301.199999988079]","./assets/img/ocean/catch/0.jpg","[""spaceBar""]","value training","ocean","0","{""ArrowUp,ArrowLeft"":23,""ArrowUp,ArrowRight"":10,""ArrowDown,ArrowLeft"":8,""ArrowDown,ArrowRight"":30}","true","spaceBar","true","original","1","58","","",""
"html-keyboard-response","178","851700","0.0-4.0-2.0-1.29","spark_pilot_norest","9888","3","7","Male","","","","","","","null","<div style=""font-size:60px;"">+</div>","null","fixation","","","","","","","","","59","","",""
"revaluation","179","857725","0.0-4.0-2.0-0.30","spark_pilot_norest","9888","3","7","Male","","false","","","","","[1221.8999999761581,687.1999999880791]","./assets/img/ocean/memory/39.jpg","[""ArrowDown"",""ArrowRight""]","value training","ocean","30","{""ArrowUp,ArrowLeft"":23,""ArrowUp,ArrowRight"":10,""ArrowDown,ArrowLeft"":8,""ArrowDown,ArrowRight"":30}","true","ArrowDown,ArrowRight","false","original","1","60","","",""
"html-keyboard-response","180","858228","0.0-4.0-2.0-1.30","spark_pilot_norest","9888","3","7","Male","","","","","","","null","<div style=""font-size:60px;"">+</div>","null","fixation","","","","","","","","","61","","",""
"revaluation","181","864252","0.0-4.0-2.0-0.31","spark_pilot_norest","9888","3","7","Male","","false","","","","","[928.6999999880791,538.0999999642372]","./assets/img/ocean/memory/35.jpg","[""ArrowDown"",""ArrowRight""]","value training","ocean","30","{""ArrowUp,ArrowLeft"":23,""ArrowUp,ArrowRight"":10,""ArrowDown,ArrowLeft"":8,""ArrowDown,ArrowRight"":30}","true","ArrowDown,ArrowRight","false","original","1","62","","",""
"html-keyboard-response","182","864756","0.0-4.0-2.0-1.31","spark_pilot_norest","9888","3","7","Male","","","","","","","null","<div style=""font-size:60px;"">+</div>","null","fixation","","","","","","","","","63","","",""
"revaluation","183","868773","0.0-4.0-2.0-0.32","spark_pilot_norest","9888","3","7","Male","","false","","","","","[1152.300000011921]","./assets/img/ocean/catch/4.jpg","[""spaceBar""]","value training","ocean","0","{""ArrowUp,ArrowLeft"":23,""ArrowUp,ArrowRight"":10,""ArrowDown,ArrowLeft"":8,""ArrowDown,ArrowRight"":30}","true","spaceBar","true","original","1","64","","",""
"html-keyboard-response","184","869275","0.0-4.0-2.0-1.32","spark_pilot_norest","9888","3","7","Male","","","","","","","null","<div style=""font-size:60px;"">+</div>","null","fixation","","","","","","","","","65","","",""
"revaluation","185","875301","0.0-4.0-2.0-0.33","spark_pilot_norest","9888","3","7","Male","","false","","","","","[1201.800000011921,601.3999999761581]","./assets/img/ocean/memory/35.jpg","[""ArrowDown"",""ArrowRight""]","value training","ocean","30","{""ArrowUp,ArrowLeft"":23,""ArrowUp,ArrowRight"":10,""ArrowDown,ArrowLeft"":8,""ArrowDown,ArrowRight"":30}","true","ArrowDown,ArrowRight","false","original","1","66","","",""
"html-keyboard-response","186","875803","0.0-4.0-2.0-1.33","spark_pilot_norest","9888","3","7","Male","","","","","","","null","<div style=""font-size:60px;"">+</div>","null","fixation","","","","","","","","","67","","",""
"revaluation","187","879820","0.0-4.0-2.0-0.34","spark_pilot_norest","9888","3","7","Male","","false","","","","","[1504.5]","./assets/img/ocean/catch/7.jpg","[""spaceBar""]","value training","ocean","0","{""ArrowUp,ArrowLeft"":23,""ArrowUp,ArrowRight"":10,""ArrowDown,ArrowLeft"":8,""ArrowDown,ArrowRight"":30}","true","spaceBar","true","original","1","68","","",""
"html-keyboard-response","188","880323","0.0-4.0-2.0-1.34","spark_pilot_norest","9888","3","7","Male","","","","","","","null","<div style=""font-size:60px;"">+</div>","null","fixation","","","","","","","","","69","","",""
"revaluation","189","886349","0.0-4.0-2.0-0.35","spark_pilot_norest","9888","3","7","Male","","false","","","","","[1317.199999988079,446.9000000357628]","./assets/img/ocean/memory/25.jpg","[""ArrowDown"",""ArrowRight""]","value training","ocean","30","{""ArrowUp,ArrowLeft"":23,""ArrowUp,ArrowRight"":10,""ArrowDown,ArrowLeft"":8,""ArrowDown,ArrowRight"":30}","true","ArrowDown,ArrowRight","false","original","1","70","","",""
"html-keyboard-response","190","886853","0.0-4.0-2.0-1.35","spark_pilot_norest","9888","3","7","Male","","","","","","","null","<div style=""font-size:60px;"">+</div>","null","fixation","","","","","","","","","71","","",""
"revaluation","191","892877","0.0-4.0-2.0-0.36","spark_pilot_norest","9888","3","7","Male","","false","","","","","[1051.199999988079,749.8000000119209]","./assets/img/ocean/memory/27.jpg","[""ArrowDown"",""ArrowRight""]","value training","ocean","30","{""ArrowUp,ArrowLeft"":23,""ArrowUp,ArrowRight"":10,""ArrowDown,ArrowLeft"":8,""ArrowDown,ArrowRight"":30}","true","ArrowDown,ArrowRight","false","original","1","72","","",""
"html-keyboard-response","192","893380","0.0-4.0-2.0-1.36","spark_pilot_norest","9888","3","7","Male","","","","","","","null","<div style=""font-size:60px;"">+</div>","null","fixation","","","","","","","","","73","","",""
"revaluation","193","899405","0.0-4.0-2.0-0.37","spark_pilot_norest","9888","3","7","Male","","false","","","","","[1652.9000000357628,870]","./assets/img/ocean/memory/26.jpg","[""ArrowDown"",""ArrowRight""]","value training","ocean","30","{""ArrowUp,ArrowLeft"":23,""ArrowUp,ArrowRight"":10,""ArrowDown,ArrowLeft"":8,""ArrowDown,ArrowRight"":30}","true","ArrowDown,ArrowRight","false","original","1","74","","",""
"html-keyboard-response","194","899909","0.0-4.0-2.0-1.37","spark_pilot_norest","9888","3","7","Male","","","","","","","null","<div style=""font-size:60px;"">+</div>","null","fixation","","","","","","","","","75","","",""
"revaluation","195","905933","0.0-4.0-2.0-0.38","spark_pilot_norest","9888","3","7","Male","","false","","","","","[665.8000000119209,475.30000001192093]","./assets/img/ocean/memory/27.jpg","[""ArrowDown"",""ArrowRight""]","value training","ocean","30","{""ArrowUp,ArrowLeft"":23,""ArrowUp,ArrowRight"":10,""ArrowDown,ArrowLeft"":8,""ArrowDown,ArrowRight"":30}","true","ArrowDown,ArrowRight","false","original","1","76","","",""
"html-keyboard-response","196","906437","0.0-4.0-2.0-1.38","spark_pilot_norest","9888","3","7","Male","","","","","","","null","<div style=""font-size:60px;"">+</div>","null","fixation","","","","","","","","","77","","",""
"revaluation","197","910453","0.0-4.0-2.0-0.39","spark_pilot_norest","9888","3","7","Male","","false","","","","","[1313.0999999642372]","./assets/img/ocean/catch/6.jpg","[""spaceBar""]","value training","ocean","0","{""ArrowUp,ArrowLeft"":23,""ArrowUp,ArrowRight"":10,""ArrowDown,ArrowLeft"":8,""ArrowDown,ArrowRight"":30}","true","spaceBar","true","original","1","78","","",""
"html-keyboard-response","198","910957","0.0-4.0-2.0-1.39","spark_pilot_norest","9888","3","7","Male","","","","","","","null","<div style=""font-size:60px;"">+</div>","null","fixation","","","","","","","","","79","","",""
"revaluation","199","916982","0.0-4.0-2.0-0.40","spark_pilot_norest","9888","3","7","Male","","false","","","","","[1449.4000000357628,529.5]","./assets/img/ocean/memory/18.jpg","[""ArrowDown"",""ArrowRight""]","value training","ocean","30","{""ArrowUp,ArrowLeft"":23,""ArrowUp,ArrowRight"":10,""ArrowDown,ArrowLeft"":8,""ArrowDown,ArrowRight"":30}","true","ArrowDown,ArrowRight","false","original","1","80","","",""
"html-keyboard-response","200","917485","0.0-4.0-2.0-1.40","spark_pilot_norest","9888","3","7","Male","","","","","","","null","<div style=""font-size:60px;"">+</div>","null","fixation","","","","","","","","","81","","",""
"revaluation","201","921501","0.0-4.0-2.0-0.41","spark_pilot_norest","9888","3","7","Male","","true","","","","","[]","./assets/img/ocean/memory/0.jpg","[]","value training","ocean","-5","{""ArrowUp,ArrowLeft"":23,""ArrowUp,ArrowRight"":10,""ArrowDown,ArrowLeft"":8,""ArrowDown,ArrowRight"":30}","false","","false","original","1","82","","",""
"html-keyboard-response","202","922006","0.0-4.0-2.0-1.41","spark_pilot_norest","9888","3","7","Male","","","","","","","null","<div style=""font-size:60px;"">+</div>","null","fixation","","","","","","","","","83","","",""
"revaluation","203","928031","0.0-4.0-2.0-0.42","spark_pilot_norest","9888","3","7","Male","","false","","","","","[820.6999999880791,534.3999999761581]","./assets/img/ocean/memory/41.jpg","[""ArrowDown"",""ArrowRight""]","value training","ocean","30","{""ArrowUp,ArrowLeft"":23,""ArrowUp,ArrowRight"":10,""ArrowDown,ArrowLeft"":8,""ArrowDown,ArrowRight"":30}","true","ArrowDown,ArrowRight","false","original","1","84","","",""
"html-keyboard-response","204","928534","0.0-4.0-2.0-1.42","spark_pilot_norest","9888","3","7","Male","","","","","","","null","<div style=""font-size:60px;"">+</div>","null","fixation","","","","","","","","","85","","",""
"revaluation","205","934558","0.0-4.0-2.0-0.43","spark_pilot_norest","9888","3","7","Male","","false","","","","","[1252.699999988079,237.10000002384186]","./assets/img/ocean/memory/19.jpg","[""ArrowDown"",""ArrowRight""]","value training","ocean","30","{""ArrowUp,ArrowLeft"":23,""ArrowUp,ArrowRight"":10,""ArrowDown,ArrowLeft"":8,""ArrowDown,ArrowRight"":30}","true","ArrowDown,ArrowRight","false","original","1","86","","",""
"html-keyboard-response","206","935062","0.0-4.0-2.0-1.43","spark_pilot_norest","9888","3","7","Male","","","","","","","null","<div style=""font-size:60px;"">+</div>","null","fixation","","","","","","","","","87","","",""
"revaluation","207","941086","0.0-4.0-2.0-0.44","spark_pilot_norest","9888","3","7","Male","","false","","","","","[1473.5999999642372,915]","./assets/img/ocean/memory/21.jpg","[""ArrowDown"",""ArrowRight""]","value training","ocean","30","{""ArrowUp,ArrowLeft"":23,""ArrowUp,ArrowRight"":10,""ArrowDown,ArrowLeft"":8,""ArrowDown,ArrowRight"":30}","true","ArrowDown,ArrowRight","false","original","1","88","","",""
"html-keyboard-response","208","941590","0.0-4.0-2.0-1.44","spark_pilot_norest","9888","3","7","Male","","","","","","","null","<div style=""font-size:60px;"">+</div>","null","fixation","","","","","","","","","89","","",""
"revaluation","209","947614","0.0-4.0-2.0-0.45","spark_pilot_norest","9888","3","7","Male","","false","","","","","[1043.3999999761581,692.6000000238419]","./assets/img/ocean/memory/25.jpg","[""ArrowDown"",""ArrowRight""]","value training","ocean","30","{""ArrowUp,ArrowLeft"":23,""ArrowUp,ArrowRight"":10,""ArrowDown,ArrowLeft"":8,""ArrowDown,ArrowRight"":30}","true","ArrowDown,ArrowRight","false","original","1","90","","",""
"html-keyboard-response","210","948119","0.0-4.0-2.0-1.45","spark_pilot_norest","9888","3","7","Male","","","","","","","null","<div style=""font-size:60px;"">+</div>","null","fixation","","","","","","","","","91","","",""
"revaluation","211","954142","0.0-4.0-2.0-0.46","spark_pilot_norest","9888","3","7","Male","","false","","","","","[1145.8999999761581,516.1999999880791]","./assets/img/ocean/memory/9.jpg","[""ArrowDown"",""ArrowRight""]","value training","ocean","30","{""ArrowUp,ArrowLeft"":23,""ArrowUp,ArrowRight"":10,""ArrowDown,ArrowLeft"":8,""ArrowDown,ArrowRight"":30}","true","ArrowDown,ArrowRight","false","original","1","92","","",""
"html-keyboard-response","212","954646","0.0-4.0-2.0-1.46","spark_pilot_norest","9888","3","7","Male","","","","","","","null","<div style=""font-size:60px;"">+</div>","null","fixation","","","","","","","","","93","","",""
"revaluation","213","960671","0.0-4.0-2.0-0.47","spark_pilot_norest","9888","3","7","Male","","false","","","","","[622,622.6999999880791]","./assets/img/ocean/memory/36.jpg","[""ArrowDown"",""ArrowRight""]","value training","ocean","30","{""ArrowUp,ArrowLeft"":23,""ArrowUp,ArrowRight"":10,""ArrowDown,ArrowLeft"":8,""ArrowDown,ArrowRight"":30}","true","ArrowDown,ArrowRight","false","original","1","94","","",""
"html-keyboard-response","214","961175","0.0-4.0-2.0-1.47","spark_pilot_norest","9888","3","7","Male","","","","","","","null","<div style=""font-size:60px;"">+</div>","null","fixation","","","","","","","","","95","","",""
"revaluation","215","967200","0.0-4.0-2.0-0.48","spark_pilot_norest","9888","3","7","Male","","false","","","","","[931.9000000357628,653.3999999761581]","./assets/img/ocean/memory/26.jpg","[""ArrowDown"",""ArrowRight""]","value training","ocean","30","{""ArrowUp,ArrowLeft"":23,""ArrowUp,ArrowRight"":10,""ArrowDown,ArrowLeft"":8,""ArrowDown,ArrowRight"":30}","true","ArrowDown,ArrowRight","false","original","1","96","","",""
"html-keyboard-response","216","967703","0.0-4.0-2.0-1.48","spark_pilot_norest","9888","3","7","Male","","","","","","","null","<div style=""font-size:60px;"">+</div>","null","fixation","","","","","","","","","97","","",""
"revaluation","217","971720","0.0-4.0-2.0-0.49","spark_pilot_norest","9888","3","7","Male","","false","","","","","[1499.5999999642372]","./assets/img/ocean/catch/1.jpg","[""spaceBar""]","value training","ocean","0","{""ArrowUp,ArrowLeft"":23,""ArrowUp,ArrowRight"":10,""ArrowDown,ArrowLeft"":8,""ArrowDown,ArrowRight"":30}","true","spaceBar","true","original","1","98","","",""
"html-keyboard-response","218","972224","0.0-4.0-2.0-1.49","spark_pilot_norest","9888","3","7","Male","","","","","","","null","<div style=""font-size:60px;"">+</div>","null","fixation","","","","","","","","","99","","",""
"learning-instructions","219","991023","0.0-4.0-3.0-0.0","spark_pilot_norest","9888","3","7","Male","","","","","","","5789.400000035763","<p> Now, you will travel with a friend who will choose whether you go up or down first. </p>
            <p> On these turns, you will just see the animal that they found. You will still get to choose which chest to search for treasure.</p>","","instructions","","","","","","","","","","","",""
"revaluation","220","995040","0.0-4.0-4.0-0.0","spark_pilot_norest","9888","3","7","Male","","false","","","","","[1156.1000000238419]","./assets/img/ocean/animals/octopus.jpg","[""ArrowRight""]","revaluation","ocean","10","{""ArrowUp,ArrowLeft"":23,""ArrowUp,ArrowRight"":10,""ArrowDown,ArrowLeft"":8,""ArrowDown,ArrowRight"":30}","false","ArrowUp,ArrowRight","","original","1","0","","",""
"html-keyboard-response","221","995560","0.0-4.0-4.0-1.0","spark_pilot_norest","9888","3","7","Male","","","","","","","null","<div style=""font-size:60px;"">+</div>","null","fixation","","","","","","","","","1","","",""
"revaluation","222","999576","0.0-4.0-4.0-0.1","spark_pilot_norest","9888","3","7","Male","","true","","","","","[]","./assets/img/ocean/animals/octopus.jpg","[]","revaluation","ocean","-5","{""ArrowUp,ArrowLeft"":23,""ArrowUp,ArrowRight"":10,""ArrowDown,ArrowLeft"":8,""ArrowDown,ArrowRight"":30}","false","ArrowUp","","original","1","2","","",""
"html-keyboard-response","223","1000080","0.0-4.0-4.0-1.1","spark_pilot_norest","9888","3","7","Male","","","","","","","null","<div style=""font-size:60px;"">+</div>","null","fixation","","","","","","","","","3","","",""
"revaluation","224","1004096","0.0-4.0-4.0-0.2","spark_pilot_norest","9888","3","7","Male","","false","","","","","[781.8999999761581]","./assets/img/ocean/animals/octopus.jpg","[""ArrowLeft""]","revaluation","ocean","23","{""ArrowUp,ArrowLeft"":23,""ArrowUp,ArrowRight"":10,""ArrowDown,ArrowLeft"":8,""ArrowDown,ArrowRight"":30}","true","ArrowUp,ArrowLeft","","original","1","4","","",""
"html-keyboard-response","225","1004599","0.0-4.0-4.0-1.2","spark_pilot_norest","9888","3","7","Male","","","","","","","null","<div style=""font-size:60px;"">+</div>","null","fixation","","","","","","","","","5","","",""
"revaluation","226","1008616","0.0-4.0-4.0-0.3","spark_pilot_norest","9888","3","7","Male","","false","","","","","[1243.0999999642372]","./assets/img/ocean/animals/seahorse.jpg","[""ArrowRight""]","revaluation","ocean","30","{""ArrowUp,ArrowLeft"":23,""ArrowUp,ArrowRight"":10,""ArrowDown,ArrowLeft"":8,""ArrowDown,ArrowRight"":30}","true","ArrowDown,ArrowRight","","original","1","6","","",""
"html-keyboard-response","227","1009120","0.0-4.0-4.0-1.3","spark_pilot_norest","9888","3","7","Male","","","","","","","null","<div style=""font-size:60px;"">+</div>","null","fixation","","","","","","","","","7","","",""
"revaluation","228","1013136","0.0-4.0-4.0-0.4","spark_pilot_norest","9888","3","7","Male","","false","","","","","[746.5]","./assets/img/ocean/animals/octopus.jpg","[""ArrowLeft""]","revaluation","ocean","23","{""ArrowUp,ArrowLeft"":23,""ArrowUp,ArrowRight"":10,""ArrowDown,ArrowLeft"":8,""ArrowDown,ArrowRight"":30}","true","ArrowUp,ArrowLeft","","original","1","8","","",""
"html-keyboard-response","229","1013640","0.0-4.0-4.0-1.4","spark_pilot_norest","9888","3","7","Male","","","","","","","null","<div style=""font-size:60px;"">+</div>","null","fixation","","","","","","","","","9","","",""
"revaluation","230","1017657","0.0-4.0-4.0-0.5","spark_pilot_norest","9888","3","7","Male","","false","","","","","[1181.699999988079]","./assets/img/ocean/animals/seahorse.jpg","[""ArrowRight""]","revaluation","ocean","30","{""ArrowUp,ArrowLeft"":23,""ArrowUp,ArrowRight"":10,""ArrowDown,ArrowLeft"":8,""ArrowDown,ArrowRight"":30}","true","ArrowDown,ArrowRight","","original","1","10","","",""
"html-keyboard-response","231","1018160","0.0-4.0-4.0-1.5","spark_pilot_norest","9888","3","7","Male","","","","","","","null","<div style=""font-size:60px;"">+</div>","null","fixation","","","","","","","","","11","","",""
"revaluation","232","1022176","0.0-4.0-4.0-0.6","spark_pilot_norest","9888","3","7","Male","","false","","","","","[1308.699999988079]","./assets/img/ocean/animals/seahorse.jpg","[""ArrowRight""]","revaluation","ocean","30","{""ArrowUp,ArrowLeft"":23,""ArrowUp,ArrowRight"":10,""ArrowDown,ArrowLeft"":8,""ArrowDown,ArrowRight"":30}","true","ArrowDown,ArrowRight","","original","1","12","","",""
"html-keyboard-response","233","1022680","0.0-4.0-4.0-1.6","spark_pilot_norest","9888","3","7","Male","","","","","","","null","<div style=""font-size:60px;"">+</div>","null","fixation","","","","","","","","","13","","",""
"revaluation","234","1026696","0.0-4.0-4.0-0.7","spark_pilot_norest","9888","3","7","Male","","false","","","","","[804.5]","./assets/img/ocean/animals/seahorse.jpg","[""ArrowRight""]","revaluation","ocean","30","{""ArrowUp,ArrowLeft"":23,""ArrowUp,ArrowRight"":10,""ArrowDown,ArrowLeft"":8,""ArrowDown,ArrowRight"":30}","true","ArrowDown,ArrowRight","","original","1","14","","",""
"html-keyboard-response","235","1027201","0.0-4.0-4.0-1.7","spark_pilot_norest","9888","3","7","Male","","","","","","","null","<div style=""font-size:60px;"">+</div>","null","fixation","","","","","","","","","15","","",""
"revaluation","236","1031216","0.0-4.0-4.0-0.8","spark_pilot_norest","9888","3","7","Male","","false","","","","","[797.8999999761581]","./assets/img/ocean/animals/seahorse.jpg","[""ArrowRight""]","revaluation","ocean","30","{""ArrowUp,ArrowLeft"":23,""ArrowUp,ArrowRight"":10,""ArrowDown,ArrowLeft"":8,""ArrowDown,ArrowRight"":30}","true","ArrowDown,ArrowRight","","original","1","16","","",""
"html-keyboard-response","237","1031720","0.0-4.0-4.0-1.8","spark_pilot_norest","9888","3","7","Male","","","","","","","null","<div style=""font-size:60px;"">+</div>","null","fixation","","","","","","","","","17","","",""
"revaluation","238","1035737","0.0-4.0-4.0-0.9","spark_pilot_norest","9888","3","7","Male","","false","","","","","[608.3999999761581]","./assets/img/ocean/animals/seahorse.jpg","[""ArrowRight""]","revaluation","ocean","30","{""ArrowUp,ArrowLeft"":23,""ArrowUp,ArrowRight"":10,""ArrowDown,ArrowLeft"":8,""ArrowDown,ArrowRight"":30}","true","ArrowDown,ArrowRight","","original","1","18","","",""
"html-keyboard-response","239","1036241","0.0-4.0-4.0-1.9","spark_pilot_norest","9888","3","7","Male","","","","","","","null","<div style=""font-size:60px;"">+</div>","null","fixation","","","","","","","","","19","","",""
"revaluation","240","1040257","0.0-4.0-4.0-0.10","spark_pilot_norest","9888","3","7","Male","","false","","","","","[638.1999999880791]","./assets/img/ocean/animals/seahorse.jpg","[""ArrowRight""]","revaluation","ocean","30","{""ArrowUp,ArrowLeft"":23,""ArrowUp,ArrowRight"":10,""ArrowDown,ArrowLeft"":8,""ArrowDown,ArrowRight"":30}","true","ArrowDown,ArrowRight","","original","1","20","","",""
"html-keyboard-response","241","1040760","0.0-4.0-4.0-1.10","spark_pilot_norest","9888","3","7","Male","","","","","","","null","<div style=""font-size:60px;"">+</div>","null","fixation","","","","","","","","","21","","",""
"revaluation","242","1044778","0.0-4.0-4.0-0.11","spark_pilot_norest","9888","3","7","Male","","false","","","","","[1863.4000000357628]","./assets/img/ocean/animals/octopus.jpg","[""ArrowLeft""]","revaluation","ocean","23","{""ArrowUp,ArrowLeft"":23,""ArrowUp,ArrowRight"":10,""ArrowDown,ArrowLeft"":8,""ArrowDown,ArrowRight"":30}","true","ArrowUp,ArrowLeft","","original","1","22","","",""
"html-keyboard-response","243","1045281","0.0-4.0-4.0-1.11","spark_pilot_norest","9888","3","7","Male","","","","","","","null","<div style=""font-size:60px;"">+</div>","null","fixation","","","","","","","","","23","","",""
"revaluation","244","1049297","0.0-4.0-4.0-0.12","spark_pilot_norest","9888","3","7","Male","","false","","","","","[661.8000000119209]","./assets/img/ocean/animals/seahorse.jpg","[""ArrowRight""]","revaluation","ocean","30","{""ArrowUp,ArrowLeft"":23,""ArrowUp,ArrowRight"":10,""ArrowDown,ArrowLeft"":8,""ArrowDown,ArrowRight"":30}","true","ArrowDown,ArrowRight","","original","1","24","","",""
"html-keyboard-response","245","1049801","0.0-4.0-4.0-1.12","spark_pilot_norest","9888","3","7","Male","","","","","","","null","<div style=""font-size:60px;"">+</div>","null","fixation","","","","","","","","","25","","",""
"revaluation","246","1053817","0.0-4.0-4.0-0.13","spark_pilot_norest","9888","3","7","Male","","false","","","","","[1447.800000011921]","./assets/img/ocean/animals/octopus.jpg","[""ArrowLeft""]","revaluation","ocean","23","{""ArrowUp,ArrowLeft"":23,""ArrowUp,ArrowRight"":10,""ArrowDown,ArrowLeft"":8,""ArrowDown,ArrowRight"":30}","true","ArrowUp,ArrowLeft","","original","1","26","","",""
"html-keyboard-response","247","1054321","0.0-4.0-4.0-1.13","spark_pilot_norest","9888","3","7","Male","","","","","","","null","<div style=""font-size:60px;"">+</div>","null","fixation","","","","","","","","","27","","",""
"revaluation","248","1058338","0.0-4.0-4.0-0.14","spark_pilot_norest","9888","3","7","Male","","false","","","","","[1316.199999988079]","./assets/img/ocean/animals/octopus.jpg","[""ArrowLeft""]","revaluation","ocean","23","{""ArrowUp,ArrowLeft"":23,""ArrowUp,ArrowRight"":10,""ArrowDown,ArrowLeft"":8,""ArrowDown,ArrowRight"":30}","true","ArrowUp,ArrowLeft","","original","1","28","","",""
"html-keyboard-response","249","1058842","0.0-4.0-4.0-1.14","spark_pilot_norest","9888","3","7","Male","","","","","","","null","<div style=""font-size:60px;"">+</div>","null","fixation","","","","","","","","","29","","",""
"revaluation","250","1062857","0.0-4.0-4.0-0.15","spark_pilot_norest","9888","3","7","Male","","false","","","","","[1077.1000000238419]","./assets/img/ocean/animals/octopus.jpg","[""ArrowLeft""]","revaluation","ocean","23","{""ArrowUp,ArrowLeft"":23,""ArrowUp,ArrowRight"":10,""ArrowDown,ArrowLeft"":8,""ArrowDown,ArrowRight"":30}","true","ArrowUp,ArrowLeft","","original","1","30","","",""
"html-keyboard-response","251","1063362","0.0-4.0-4.0-1.15","spark_pilot_norest","9888","3","7","Male","","","","","","","null","<div style=""font-size:60px;"">+</div>","null","fixation","","","","","","","","","31","","",""
"revaluation","252","1067378","0.0-4.0-4.0-0.16","spark_pilot_norest","9888","3","7","Male","","false","","","","","[1155.699999988079]","./assets/img/ocean/animals/seahorse.jpg","[""ArrowRight""]","revaluation","ocean","30","{""ArrowUp,ArrowLeft"":23,""ArrowUp,ArrowRight"":10,""ArrowDown,ArrowLeft"":8,""ArrowDown,ArrowRight"":30}","true","ArrowDown,ArrowRight","","original","1","32","","",""
"html-keyboard-response","253","1067881","0.0-4.0-4.0-1.16","spark_pilot_norest","9888","3","7","Male","","","","","","","null","<div style=""font-size:60px;"">+</div>","null","fixation","","","","","","","","","33","","",""
"revaluation","254","1071898","0.0-4.0-4.0-0.17","spark_pilot_norest","9888","3","7","Male","","false","","","","","[1380.6000000238419]","./assets/img/ocean/animals/octopus.jpg","[""ArrowLeft""]","revaluation","ocean","23","{""ArrowUp,ArrowLeft"":23,""ArrowUp,ArrowRight"":10,""ArrowDown,ArrowLeft"":8,""ArrowDown,ArrowRight"":30}","true","ArrowUp,ArrowLeft","","original","1","34","","",""
"html-keyboard-response","255","1072401","0.0-4.0-4.0-1.17","spark_pilot_norest","9888","3","7","Male","","","","","","","null","<div style=""font-size:60px;"">+</div>","null","fixation","","","","","","","","","35","","",""
"learning-instructions","256","1080634","0.0-4.0-5.0-0.0","spark_pilot_norest","9888","3","7","Male","","","","","","","null","<p> You have almost finished this part of the game! </p>
            <p> We are going to ask you to make a few more choices. </p>","","instructions","","","","","","","","","","","",""
"learning-instructions","257","1096611","0.0-4.0-5.0-0.1","spark_pilot_norest","9888","3","7","Male","","","","","","","null","<p> First, you need to decide whether to go up or down. When you see each picture, use the arrow keys to make your choice. </p>
            <p><b>You will not see which animal you found, but try to get to the one that will give you the most treasure.</b></p>","","instructions","","","","","","","","","","","",""
"html-keyboard-response","258","1097618","0.0-4.0-6.0-0.0","spark_pilot_norest","9888","3","7","Male","","","","","","","null","<div style=""font-size:100px;color:red;"">Starting in...</div>","null","","","","","","","","","","","","",""
"html-keyboard-response","259","1098627","0.0-4.0-6.0-1.0","spark_pilot_norest","9888","3","7","Male","","","","","","","null","<div style=""font-size:200px;color:red;"">3</div>","null","","","","","","","","","","","","",""
"html-keyboard-response","260","1099634","0.0-4.0-6.0-2.0","spark_pilot_norest","9888","3","7","Male","","","","","","","null","<div style=""font-size:200px;color:red;"">2</div>","null","","","","","","","","","","","","",""
"html-keyboard-response","261","1100643","0.0-4.0-6.0-3.0","spark_pilot_norest","9888","3","7","Male","","","","","","","null","<div style=""font-size:200px;color:red;"">1</div>","null","","","","","","","","","","","","",""
"revaluation","262","1102161","0.0-4.0-7.0-0.0","spark_pilot_norest","9888","3","7","Male","","false","","","","","[1515.8999999761581]","./assets/img/ocean/test/0.jpg","[""ArrowDown""]","first stage test","ocean","0","{""ArrowUp,ArrowLeft"":23,""ArrowUp,ArrowRight"":10,""ArrowDown,ArrowLeft"":8,""ArrowDown,ArrowRight"":30}","true","ArrowDown","false","original","1","","","",""
"html-keyboard-response","263","1102667","0.0-4.0-7.0-1.0","spark_pilot_norest","9888","3","7","Male","","","","","","","null","<div style=""font-size:60px;"">+</div>","null","fixation","","","","","","","","","","","",""
"revaluation","264","1104889","0.0-4.0-7.0-0.1","spark_pilot_norest","9888","3","7","Male","","false","","","","","[2221]","./assets/img/ocean/test/1.jpg","[""ArrowDown""]","first stage test","ocean","0","{""ArrowUp,ArrowLeft"":23,""ArrowUp,ArrowRight"":10,""ArrowDown,ArrowLeft"":8,""ArrowDown,ArrowRight"":30}","true","ArrowDown","false","original","1","","","",""
"html-keyboard-response","265","1105395","0.0-4.0-7.0-1.1","spark_pilot_norest","9888","3","7","Male","","","","","","","null","<div style=""font-size:60px;"">+</div>","null","fixation","","","","","","","","","","","",""
"revaluation","266","1106393","0.0-4.0-7.0-0.2","spark_pilot_norest","9888","3","7","Male","","false","","","","","[995.6999999880791]","./assets/img/ocean/test/2.jpg","[""ArrowDown""]","first stage test","ocean","0","{""ArrowUp,ArrowLeft"":23,""ArrowUp,ArrowRight"":10,""ArrowDown,ArrowLeft"":8,""ArrowDown,ArrowRight"":30}","true","ArrowDown","false","original","1","","","",""
"html-keyboard-response","267","1106900","0.0-4.0-7.0-1.2","spark_pilot_norest","9888","3","7","Male","","","","","","","null","<div style=""font-size:60px;"">+</div>","null","fixation","","","","","","","","","","","",""
"revaluation","268","1107761","0.0-4.0-7.0-0.3","spark_pilot_norest","9888","3","7","Male","","false","","","","","[859.5]","./assets/img/ocean/test/3.jpg","[""ArrowDown""]","first stage test","ocean","0","{""ArrowUp,ArrowLeft"":23,""ArrowUp,ArrowRight"":10,""ArrowDown,ArrowLeft"":8,""ArrowDown,ArrowRight"":30}","true","ArrowDown","false","original","1","","","",""
"html-keyboard-response","269","1108266","0.0-4.0-7.0-1.3","spark_pilot_norest","9888","3","7","Male","","","","","","","null","<div style=""font-size:60px;"">+</div>","null","fixation","","","","","","","","","","","",""
"learning-instructions","270","1121612","0.0-4.0-8.0-0.0","spark_pilot_norest","9888","3","7","Male","","","","","","","null","<p> Now you will see the animals again and can search their chests for treasure. </p>
            <p> This time, you will not see how much treasure you earned, but you will earn more bonus money for making better choices. </p>","","instructions","","","","","","","","","","","",""
"html-keyboard-response","271","1122620","0.0-4.0-9.0-0.0","spark_pilot_norest","9888","3","7","Male","","","","","","","null","<div style=""font-size:100px;color:red;"">Starting in...</div>","null","","","","","","","","","","","","",""
"html-keyboard-response","272","1123627","0.0-4.0-9.0-1.0","spark_pilot_norest","9888","3","7","Male","","","","","","","null","<div style=""font-size:200px;color:red;"">3</div>","null","","","","","","","","","","","","",""
"html-keyboard-response","273","1124635","0.0-4.0-9.0-2.0","spark_pilot_norest","9888","3","7","Male","","","","","","","null","<div style=""font-size:200px;color:red;"">2</div>","null","","","","","","","","","","","","",""
"html-keyboard-response","274","1125643","0.0-4.0-9.0-3.0","spark_pilot_norest","9888","3","7","Male","","","","","","","null","<div style=""font-size:200px;color:red;"">1</div>","null","","","","","","","","","","","","",""
"revaluation","275","1127637","0.0-4.0-10.0-0.0","spark_pilot_norest","9888","3","7","Male","","false","","","","","[1990.3999999761581]","./assets/img/ocean/animals/octopus.jpg","[""ArrowLeft""]","second stage test","ocean","0","{""ArrowUp,ArrowLeft"":23,""ArrowUp,ArrowRight"":10,""ArrowDown,ArrowLeft"":8,""ArrowDown,ArrowRight"":30}","true","ArrowUp,ArrowLeft","","original","1","","","",""
"html-keyboard-response","276","1128140","0.0-4.0-10.0-1.0","spark_pilot_norest","9888","3","7","Male","","","","","","","null","<div style=""font-size:60px;"">+</div>","null","fixation","","","","","","","","","","","",""
"revaluation","277","1129468","0.0-4.0-10.0-0.1","spark_pilot_norest","9888","3","7","Male","","false","","","","","[1325.1000000238419]","./assets/img/ocean/animals/octopus.jpg","[""ArrowLeft""]","second stage test","ocean","0","{""ArrowUp,ArrowLeft"":23,""ArrowUp,ArrowRight"":10,""ArrowDown,ArrowLeft"":8,""ArrowDown,ArrowRight"":30}","true","ArrowUp,ArrowLeft","","original","1","","","",""
"html-keyboard-response","278","1129972","0.0-4.0-10.0-1.1","spark_pilot_norest","9888","3","7","Male","","","","","","","null","<div style=""font-size:60px;"">+</div>","null","fixation","","","","","","","","","","","",""
"revaluation","279","1131029","0.0-4.0-10.0-0.2","spark_pilot_norest","9888","3","7","Male","","false","","","","","[1054.5]","./assets/img/ocean/animals/octopus.jpg","[""ArrowLeft""]","second stage test","ocean","0","{""ArrowUp,ArrowLeft"":23,""ArrowUp,ArrowRight"":10,""ArrowDown,ArrowLeft"":8,""ArrowDown,ArrowRight"":30}","true","ArrowUp,ArrowLeft","","original","1","","","",""
"html-keyboard-response","280","1131532","0.0-4.0-10.0-1.2","spark_pilot_norest","9888","3","7","Male","","","","","","","null","<div style=""font-size:60px;"">+</div>","null","fixation","","","","","","","","","","","",""
"revaluation","281","1132212","0.0-4.0-10.0-0.3","spark_pilot_norest","9888","3","7","Male","","false","","","","","[677.5]","./assets/img/ocean/animals/octopus.jpg","[""ArrowLeft""]","second stage test","ocean","0","{""ArrowUp,ArrowLeft"":23,""ArrowUp,ArrowRight"":10,""ArrowDown,ArrowLeft"":8,""ArrowDown,ArrowRight"":30}","true","ArrowUp,ArrowLeft","","original","1","","","",""
"html-keyboard-response","282","1132715","0.0-4.0-10.0-1.3","spark_pilot_norest","9888","3","7","Male","","","","","","","null","<div style=""font-size:60px;"">+</div>","null","fixation","","","","","","","","","","","",""
"revaluation","283","1133845","0.0-4.0-10.0-0.4","spark_pilot_norest","9888","3","7","Male","","false","","","","","[1128.8999999761581]","./assets/img/ocean/animals/seahorse.jpg","[""ArrowRight""]","second stage test","ocean","0","{""ArrowUp,ArrowLeft"":23,""ArrowUp,ArrowRight"":10,""ArrowDown,ArrowLeft"":8,""ArrowDown,ArrowRight"":30}","true","ArrowDown,ArrowRight","","original","1","","","",""
"html-keyboard-response","284","1134348","0.0-4.0-10.0-1.4","spark_pilot_norest","9888","3","7","Male","","","","","","","null","<div style=""font-size:60px;"">+</div>","null","fixation","","","","","","","","","","","",""
"revaluation","285","1135684","0.0-4.0-10.0-0.5","spark_pilot_norest","9888","3","7","Male","","false","","","","","[1334.0999999642372]","./assets/img/ocean/animals/seahorse.jpg","[""ArrowRight""]","second stage test","ocean","0","{""ArrowUp,ArrowLeft"":23,""ArrowUp,ArrowRight"":10,""ArrowDown,ArrowLeft"":8,""ArrowDown,ArrowRight"":30}","true","ArrowDown,ArrowRight","","original","1","","","",""
"html-keyboard-response","286","1136187","0.0-4.0-10.0-1.5","spark_pilot_norest","9888","3","7","Male","","","","","","","null","<div style=""font-size:60px;"">+</div>","null","fixation","","","","","","","","","","","",""
"revaluation","287","1136917","0.0-4.0-10.0-0.6","spark_pilot_norest","9888","3","7","Male","","false","","","","","[726.8000000119209]","./assets/img/ocean/animals/seahorse.jpg","[""ArrowRight""]","second stage test","ocean","0","{""ArrowUp,ArrowLeft"":23,""ArrowUp,ArrowRight"":10,""ArrowDown,ArrowLeft"":8,""ArrowDown,ArrowRight"":30}","true","ArrowDown,ArrowRight","","original","1","","","",""
"html-keyboard-response","288","1137420","0.0-4.0-10.0-1.6","spark_pilot_norest","9888","3","7","Male","","","","","","","null","<div style=""font-size:60px;"">+</div>","null","fixation","","","","","","","","","","","",""
"revaluation","289","1138172","0.0-4.0-10.0-0.7","spark_pilot_norest","9888","3","7","Male","","false","","","","","[750]","./assets/img/ocean/animals/seahorse.jpg","[""ArrowRight""]","second stage test","ocean","0","{""ArrowUp,ArrowLeft"":23,""ArrowUp,ArrowRight"":10,""ArrowDown,ArrowLeft"":8,""ArrowDown,ArrowRight"":30}","true","ArrowDown,ArrowRight","","original","1","","","",""
"html-keyboard-response","290","1138676","0.0-4.0-10.0-1.7","spark_pilot_norest","9888","3","7","Male","","","","","","","null","<div style=""font-size:60px;"">+</div>","null","fixation","","","","","","","","","","","",""
"learning-instructions","291","1144634","0.0-4.0-0.1-0.2","spark_pilot_norest","9888","3","7","Male","","","","","","","3181.899999976158","<p> This time you are searching for treasure in the <b>canyon</b>.</p>","","instructions","","","","","","","","","","","",""
"learning-instructions","292","1166404","0.0-4.0-0.1-0.3","spark_pilot_norest","9888","3","7","Male","","","","","","","4517.300000011921","<p><b>New</b> animals with <b>new</b> treasure chests live here. You need to explore to discover where the animal with the best treasure chest is.</p>
                    <p> Like before, once you figure out which animal has the chest with the most treasure, you should try to get to that animal and select that chest! </p>","","instructions","","","","","","","","","","","",""
"learning-instructions","293","1182702","0.0-4.0-1.1-0.1","spark_pilot_norest","9888","3","7","Male","","","","","","","1566","<p> Remember, when you see a picture of the place, use the up and down keys to <b>find an animal</b>.</p>
            <p> When you encounter an animal, you should use the left and right keys to <b>select a treasure chest</b>.</p>
            <p> Don't forget to look out for the robber! </p>","","instructions","","","","","","","","","","","",""
"revaluation","294","1188726","0.0-4.0-2.1-0.50","spark_pilot_norest","9888","3","7","Male","","false","","","","","[1400,1076.3999999761581]","./assets/img/canyon/memory/10.jpg","[""ArrowDown"",""ArrowRight""]","value training","canyon","17","{""ArrowUp,ArrowLeft"":26,""ArrowUp,ArrowRight"":10,""ArrowDown,ArrowLeft"":5,""ArrowDown,ArrowRight"":17}","false","ArrowDown,ArrowRight","false","revaluation","2","0","","",""
"html-keyboard-response","295","1189229","0.0-4.0-2.1-1.50","spark_pilot_norest","9888","3","7","Male","","","","","","","null","<div style=""font-size:60px;"">+</div>","null","fixation","","","","","","","","","1","","",""
"revaluation","296","1195254","0.0-4.0-2.1-0.51","spark_pilot_norest","9888","3","7","Male","","false","","","","","[754,739.5999999642372]","./assets/img/canyon/memory/21.jpg","[""ArrowDown"",""ArrowLeft""]","value training","canyon","5","{""ArrowUp,ArrowLeft"":26,""ArrowUp,ArrowRight"":10,""ArrowDown,ArrowLeft"":5,""ArrowDown,ArrowRight"":17}","false","ArrowDown,ArrowLeft","false","revaluation","2","2","","",""
"html-keyboard-response","297","1195758","0.0-4.0-2.1-1.51","spark_pilot_norest","9888","3","7","Male","","","","","","","null","<div style=""font-size:60px;"">+</div>","null","fixation","","","","","","","","","3","","",""
"revaluation","298","1201781","0.0-4.0-2.1-0.52","spark_pilot_norest","9888","3","7","Male","","false","","","","","[1662.3999999761581,1511.9000000357628]","./assets/img/canyon/memory/1.jpg","[""ArrowUp"",""ArrowRight""]","value training","canyon","10","{""ArrowUp,ArrowLeft"":26,""ArrowUp,ArrowRight"":10,""ArrowDown,ArrowLeft"":5,""ArrowDown,ArrowRight"":17}","false","ArrowUp,ArrowRight","false","revaluation","2","4","","",""
"html-keyboard-response","299","1202286","0.0-4.0-2.1-1.52","spark_pilot_norest","9888","3","7","Male","","","","","","","null","<div style=""font-size:60px;"">+</div>","null","fixation","","","","","","","","","5","","",""
"revaluation","300","1208310","0.0-4.0-2.1-0.53","spark_pilot_norest","9888","3","7","Male","","false","","","","","[1014.5,1192.9000000357628]","./assets/img/canyon/memory/23.jpg","[""ArrowUp"",""ArrowLeft""]","value training","canyon","26","{""ArrowUp,ArrowLeft"":26,""ArrowUp,ArrowRight"":10,""ArrowDown,ArrowLeft"":5,""ArrowDown,ArrowRight"":17}","true","ArrowUp,ArrowLeft","false","revaluation","2","6","","",""
"html-keyboard-response","301","1208813","0.0-4.0-2.1-1.53","spark_pilot_norest","9888","3","7","Male","","","","","","","null","<div style=""font-size:60px;"">+</div>","null","fixation","","","","","","","","","7","","",""
"revaluation","302","1214839","0.0-4.0-2.1-0.54","spark_pilot_norest","9888","3","7","Male","","false","","","","","[920.9000000357628,841.4000000357628]","./assets/img/canyon/memory/39.jpg","[""ArrowUp"",""ArrowLeft""]","value training","canyon","26","{""ArrowUp,ArrowLeft"":26,""ArrowUp,ArrowRight"":10,""ArrowDown,ArrowLeft"":5,""ArrowDown,ArrowRight"":17}","true","ArrowUp,ArrowLeft","false","revaluation","2","8","","",""
"html-keyboard-response","303","1215343","0.0-4.0-2.1-1.54","spark_pilot_norest","9888","3","7","Male","","","","","","","null","<div style=""font-size:60px;"">+</div>","null","fixation","","","","","","","","","9","","",""
"revaluation","304","1221367","0.0-4.0-2.1-0.55","spark_pilot_norest","9888","3","7","Male","","false","","","","","[702.5999999642372,689]","./assets/img/canyon/memory/23.jpg","[""ArrowUp"",""ArrowLeft""]","value training","canyon","26","{""ArrowUp,ArrowLeft"":26,""ArrowUp,ArrowRight"":10,""ArrowDown,ArrowLeft"":5,""ArrowDown,ArrowRight"":17}","true","ArrowUp,ArrowLeft","false","revaluation","2","10","","",""
"html-keyboard-response","305","1221870","0.0-4.0-2.1-1.55","spark_pilot_norest","9888","3","7","Male","","","","","","","null","<div style=""font-size:60px;"">+</div>","null","fixation","","","","","","","","","11","","",""
"revaluation","306","1227895","0.0-4.0-2.1-0.56","spark_pilot_norest","9888","3","7","Male","","false","","","","","[998.3999999761581,752.1999999880791]","./assets/img/canyon/memory/26.jpg","[""ArrowUp"",""ArrowLeft""]","value training","canyon","26","{""ArrowUp,ArrowLeft"":26,""ArrowUp,ArrowRight"":10,""ArrowDown,ArrowLeft"":5,""ArrowDown,ArrowRight"":17}","true","ArrowUp,ArrowLeft","false","revaluation","2","12","","",""
"html-keyboard-response","307","1228398","0.0-4.0-2.1-1.56","spark_pilot_norest","9888","3","7","Male","","","","","","","null","<div style=""font-size:60px;"">+</div>","null","fixation","","","","","","","","","13","","",""
"revaluation","308","1234423","0.0-4.0-2.1-0.57","spark_pilot_norest","9888","3","7","Male","","false","","","","","[708.1999999880791,961.3999999761581]","./assets/img/canyon/memory/18.jpg","[""ArrowUp"",""ArrowLeft""]","value training","canyon","26","{""ArrowUp,ArrowLeft"":26,""ArrowUp,ArrowRight"":10,""ArrowDown,ArrowLeft"":5,""ArrowDown,ArrowRight"":17}","true","ArrowUp,ArrowLeft","false","revaluation","2","14","","",""
"html-keyboard-response","309","1234926","0.0-4.0-2.1-1.57","spark_pilot_norest","9888","3","7","Male","","","","","","","null","<div style=""font-size:60px;"">+</div>","null","fixation","","","","","","","","","15","","",""
"revaluation","310","1240952","0.0-4.0-2.1-0.58","spark_pilot_norest","9888","3","7","Male","","false","","","","","[559.3999999761581,1279.3999999761581]","./assets/img/canyon/memory/33.jpg","[""ArrowUp"",""ArrowLeft""]","value training","canyon","26","{""ArrowUp,ArrowLeft"":26,""ArrowUp,ArrowRight"":10,""ArrowDown,ArrowLeft"":5,""ArrowDown,ArrowRight"":17}","true","ArrowUp,ArrowLeft","false","revaluation","2","16","","",""
"html-keyboard-response","311","1241455","0.0-4.0-2.1-1.58","spark_pilot_norest","9888","3","7","Male","","","","","","","null","<div style=""font-size:60px;"">+</div>","null","fixation","","","","","","","","","17","","",""
"revaluation","312","1247479","0.0-4.0-2.1-0.59","spark_pilot_norest","9888","3","7","Male","","false","","","","","[974.7000000476837,873]","./assets/img/canyon/memory/33.jpg","[""ArrowUp"",""ArrowLeft""]","value training","canyon","26","{""ArrowUp,ArrowLeft"":26,""ArrowUp,ArrowRight"":10,""ArrowDown,ArrowLeft"":5,""ArrowDown,ArrowRight"":17}","true","ArrowUp,ArrowLeft","false","revaluation","2","18","","",""
"html-keyboard-response","313","1247983","0.0-4.0-2.1-1.59","spark_pilot_norest","9888","3","7","Male","","","","","","","null","<div style=""font-size:60px;"">+</div>","null","fixation","","","","","","","","","19","","",""
"revaluation","314","1254008","0.0-4.0-2.1-0.60","spark_pilot_norest","9888","3","7","Male","","false","","","","","[551.6000000238419,626.8000000119209]","./assets/img/canyon/memory/14.jpg","[""ArrowUp"",""ArrowLeft""]","value training","canyon","26","{""ArrowUp,ArrowLeft"":26,""ArrowUp,ArrowRight"":10,""ArrowDown,ArrowLeft"":5,""ArrowDown,ArrowRight"":17}","true","ArrowUp,ArrowLeft","false","revaluation","2","20","","",""
"html-keyboard-response","315","1254512","0.0-4.0-2.1-1.60","spark_pilot_norest","9888","3","7","Male","","","","","","","null","<div style=""font-size:60px;"">+</div>","null","fixation","","","","","","","","","21","","",""
"revaluation","316","1260535","0.0-4.0-2.1-0.61","spark_pilot_norest","9888","3","7","Male","","false","","","","","[1049.1000000238419,582]","./assets/img/canyon/memory/36.jpg","[""ArrowUp"",""ArrowLeft""]","value training","canyon","26","{""ArrowUp,ArrowLeft"":26,""ArrowUp,ArrowRight"":10,""ArrowDown,ArrowLeft"":5,""ArrowDown,ArrowRight"":17}","true","ArrowUp,ArrowLeft","false","revaluation","2","22","","",""
