"trial_type","trial_index","time_elapsed","internal_node_id","task_version","subject_id","assigned_condition","age","gender","browser_interaction","success","timeout","failed_images","failed_audio","failed_video","rt","stimulus","response","task_part","environment","score","rewardMap","correct","fullState","isCatch","condition","order","trial_num","key_press","ground_truth","bonus"
"pavlovia","0","2496","0.0-0.0","spark_pilot_norest","9460","2","16","Male","[{""event"":""focus"",""trial"":0,""time"":1124},{""event"":""blur"",""trial"":1,""time"":3236},{""event"":""focus"",""trial"":1,""time"":4778},{""event"":""blur"",""trial"":1,""time"":5332},{""event"":""focus"",""trial"":1,""time"":8317},{""event"":""blur"",""trial"":1,""time"":15671},{""event"":""focus"",""trial"":1,""time"":18986},{""event"":""blur"",""trial"":2,""time"":28045},{""event"":""focus"",""trial"":2,""time"":28472},{""event"":""fullscreenenter"",""trial"":2,""time"":30376}]","","","","","","","","","","","","","","","","","","","","",""
"preload","1","23533","0.0-1.0","spark_pilot_norest","9460","2","16","Male","[{""event"":""focus"",""trial"":0,""time"":1124},{""event"":""blur"",""trial"":1,""time"":3236},{""event"":""focus"",""trial"":1,""time"":4778},{""event"":""blur"",""trial"":1,""time"":5332},{""event"":""focus"",""trial"":1,""time"":8317},{""event"":""blur"",""trial"":1,""time"":15671},{""event"":""focus"",""trial"":1,""time"":18986},{""event"":""blur"",""trial"":2,""time"":28045},{""event"":""focus"",""trial"":2,""time"":28472},{""event"":""fullscreenenter"",""trial"":2,""time"":30376}]","true","false","[]","[]","[]","","","","","","","","","","","","","","","",""
"fullscreen","2","31367","0.0-2.0","spark_pilot_norest","9460","2","16","Male","","true","","","","","","","","","","","","","","","","","","","",""
"audio-button-response","3","32722","0.0-3.0-0.0-0.0","spark_pilot_norest","9460","2","16","Male","","","","","","","1248","./assets/audio/audiotest/turtle.mp3","2","audio_test","","","","","","","","","","","",""
"learning-instructions","4","41393","0.0-3.0-1.0-0.0","spark_pilot_norest","9460","2","16","Male","","","","","","","1087.0999999940395","<p> Welcome! Please remember to stay in fullscreen mode and don't click away from the experiment. </p>","","instructions","","","","","","","","","","","",""
"learning-instructions","5","51355","0.0-3.0-1.0-0.1","spark_pilot_norest","9460","2","16","Male","","","","","","","858.9000000059605","<p> Today you will be playing a game to earn treasure. </p>
            <p> At the end of the experiment, you will earn a bonus based on how much treasure you find. </p>
            <img src='./assets/img/instructions/treasure.jpg' class='instructions-image'>","","instructions","","","","","","","","","","","",""
"learning-instructions","6","61211","0.0-3.0-1.0-0.2","spark_pilot_norest","9460","2","16","Male","","","","","","","914.8000000119209","<p> Animals have hidden treasure in treasure chests. </p>
            <p> You need to first find an animal and then choose which of their treasure chests to search. </p>
            <img src='./assets/img/space/animals/cat.jpg' class='instructions-image'>","","instructions","","","","","","","","","","","",""
"learning-instructions","7","75103","0.0-3.0-1.0-0.3","spark_pilot_norest","9460","2","16","Male","","","","","","","756.7000000178814","<p> In each round, you will search for treasure in a different place. In the real game, there will be two rounds. </p>
            <p> You will begin with a separate, practice round where you will search for treasure in outer space. </p>
            <img src='./assets/img/space/0.jpg' class='instructions-image'>","","instructions","","","","","","","","","","","",""
"learning-instructions","8","87229","0.0-3.0-1.0-0.4","spark_pilot_norest","9460","2","16","Male","","","","","","","732.8000000119209","<p> On every turn, you will see a picture of the place that you are in, but the specific image may be different each time. </p>
            <p> For example, both of these images mean you are in outer space. </p>
            <img src='./assets/img/instructions/outerspace.jpg' class='instructions-image'>","","instructions","","","","","","","","","","","",""
"learning-instructions","9","97154","0.0-3.0-1.0-0.5","spark_pilot_norest","9460","2","16","Male","","","","","","","1417.6000000238419","<p> You need to decide which direction to travel in. </p>
            <p> You can choose between going <b>up or down</b> by using the arrow keys. </p>
            <img src='./assets/img/instructions/updown.jpg' class='instructions-image'>","","instructions","","","","","","","","","","","",""
"learning-instructions","10","107648","0.0-3.0-1.0-0.6","spark_pilot_norest","9460","2","16","Male","","","","","","","991.6999999880791","<p> You will have <b>2 seconds</b> to make your choice. </p>
            <p> If you do not make a choice within 2 seconds, you will not find an animal or earn treasure. </p>
            <img src='./assets/img/instructions/2seconds.jpg' class='instructions-image'>","","instructions","","","","","","","","","","","",""
"learning-instructions","11","116358","0.0-3.0-1.0-0.7","spark_pilot_norest","9460","2","16","Male","","","","","","","1021.7000000178814","<p> Let’s try practicing that now! </p>
            <p> When you see a picture of the place you are in, press the <b>up</b> key to travel up. </p>
            <img src='./assets/img/instructions/pressUp.jpg' class='instructions-image'>","","instructions","","","","","","","","","","","",""
"revaluation","12","120382","0.0-3.0-2.0-0.0","spark_pilot_norest","9460","2","16","Male","","","false","","","","[462.19999998807907]","./assets/img/space/0.jpg","[""ArrowUp""]","first stage practice","space","0","null","null","ArrowUp","false","","","","","",""
"html-keyboard-response","13","120895","0.0-3.0-2.0-1.0","spark_pilot_norest","9460","2","16","Male","","","","","","","null","<div style=""font-size:60px;"">+</div>","null","fixation","","","","","","","","","","","",""
"revaluation","14","124906","0.0-3.0-2.0-0.1","spark_pilot_norest","9460","2","16","Male","","","false","","","","[1035.699999988079]","./assets/img/space/1.jpg","[""ArrowUp""]","first stage practice","space","0","null","null","ArrowUp","false","","","","","",""
"html-keyboard-response","15","125421","0.0-3.0-2.0-1.1","spark_pilot_norest","9460","2","16","Male","","","","","","","null","<div style=""font-size:60px;"">+</div>","null","fixation","","","","","","","","","","","",""
"revaluation","16","129437","0.0-3.0-2.0-0.2","spark_pilot_norest","9460","2","16","Male","","","false","","","","[690.4000000059605]","./assets/img/space/2.jpg","[""ArrowUp""]","first stage practice","space","0","null","null","ArrowUp","false","","","","","",""
"html-keyboard-response","17","129938","0.0-3.0-2.0-1.2","spark_pilot_norest","9460","2","16","Male","","","","","","","null","<div style=""font-size:60px;"">+</div>","null","fixation","","","","","","","","","","","",""
"learning-instructions","18","135520","0.0-3.0-3.0-0.0","spark_pilot_norest","9460","2","16","Male","","","","","","","894.5","<p> Great job! Now try pressing the <b>down</b> key to travel down. </p>
            <img src='./assets/img/instructions/pressDown.jpg' class='instructions-image'>","","instructions","","","","","","","","","","","",""
"revaluation","19","139531","0.0-3.0-4.0-0.0","spark_pilot_norest","9460","2","16","Male","","","false","","","","[1001.3000000119209]","./assets/img/space/3.jpg","[""ArrowDown""]","first stage practice","space","0","null","null","ArrowDown","false","","","","","",""
"html-keyboard-response","20","140047","0.0-3.0-4.0-1.0","spark_pilot_norest","9460","2","16","Male","","","","","","","null","<div style=""font-size:60px;"">+</div>","null","fixation","","","","","","","","","","","",""
"revaluation","21","144065","0.0-3.0-4.0-0.1","spark_pilot_norest","9460","2","16","Male","","","false","","","","[438.09999999403954]","./assets/img/space/4.jpg","[""ArrowDown""]","first stage practice","space","0","null","null","ArrowDown","false","","","","","",""
"html-keyboard-response","22","144580","0.0-3.0-4.0-1.1","spark_pilot_norest","9460","2","16","Male","","","","","","","null","<div style=""font-size:60px;"">+</div>","null","fixation","","","","","","","","","","","",""
"revaluation","23","148586","0.0-3.0-4.0-0.2","spark_pilot_norest","9460","2","16","Male","","","false","","","","[628.7999999821186]","./assets/img/space/5.jpg","[""ArrowDown""]","first stage practice","space","0","null","null","ArrowDown","false","","","","","",""
"html-keyboard-response","24","149090","0.0-3.0-4.0-1.2","spark_pilot_norest","9460","2","16","Male","","","","","","","null","<div style=""font-size:60px;"">+</div>","null","fixation","","","","","","","","","","","",""
"learning-instructions","25","159582","0.0-3.0-5.0-0.0","spark_pilot_norest","9460","2","16","Male","","","","","","","646.5","<p> The animals don’t move, so the animal in the upper part of a place will stay in the upper part of a place, and the animal in the lower part of a place will stay in the lower part of a place. </p>","","instructions","","","","","","","","","","","",""
"learning-instructions","26","169603","0.0-3.0-5.0-0.1","spark_pilot_norest","9460","2","16","Male","","","","","","","907.6000000238419","<p> Each animal has two treasure chests for you to choose from. </p>
            <p> The amount of treasure in each chest can range from <b> 0 to 40 pieces.</b></p>","","instructions","","","","","","","","","","","",""
"learning-instructions","27","181507","0.0-3.0-5.0-0.2","spark_pilot_norest","9460","2","16","Male","","","","","","","731.3000000119209","<p> You should decide which chest to search for treasure by using the <b>left</b> and <b>right</b> arrow keys. </p>
            <p><b> Pay attention to which animal is on the screen, as the animals have different treasure chests. </b></p>
            <img src='./assets/img/instructions/leftright.jpg' class='instructions-image'>","","instructions","","","","","","","","","","","",""
"learning-instructions","28","188769","0.0-3.0-5.0-0.3","spark_pilot_norest","9460","2","16","Male","","","","","","","913.1999999880791","<p> Let’s try practicing that now. </p>
            <p> When you see an animal, choose which chest to search for treasure. </p>
            <img src='./assets/img/instructions/chooseChest.jpg' class='instructions-image'>","","instructions","","","","","","","","","","","",""
"revaluation","29","192782","0.0-3.0-6.0-0.0","spark_pilot_norest","9460","2","16","Male","","","false","","","","[550.4000000059605]","./assets/img/space/animals/rabbit.jpg","[""ArrowRight""]","second stage practice","space","23","{""ArrowUp,ArrowLeft"":3,""ArrowUp,ArrowRight"":36,""ArrowDown,ArrowLeft"":15,""ArrowDown,ArrowRight"":23}","true","ArrowDown,ArrowRight","","","","","","",""
"html-keyboard-response","30","193296","0.0-3.0-6.0-1.0","spark_pilot_norest","9460","2","16","Male","","","","","","","null","<div style=""font-size:60px;"">+</div>","null","fixation","","","","","","","","","","","",""
"revaluation","31","197309","0.0-3.0-6.0-0.1","spark_pilot_norest","9460","2","16","Male","","","false","","","","[413.19999998807907]","./assets/img/space/animals/cat.jpg","[""ArrowLeft""]","second stage practice","space","3","{""ArrowUp,ArrowLeft"":3,""ArrowUp,ArrowRight"":36,""ArrowDown,ArrowLeft"":15,""ArrowDown,ArrowRight"":23}","false","ArrowUp,ArrowLeft","","","","","","",""
"html-keyboard-response","32","197810","0.0-3.0-6.0-1.1","spark_pilot_norest","9460","2","16","Male","","","","","","","null","<div style=""font-size:60px;"">+</div>","null","fixation","","","","","","","","","","","",""
"revaluation","33","201830","0.0-3.0-6.0-0.2","spark_pilot_norest","9460","2","16","Male","","","false","","","","[538.1000000238419]","./assets/img/space/animals/rabbit.jpg","[""ArrowRight""]","second stage practice","space","23","{""ArrowUp,ArrowLeft"":3,""ArrowUp,ArrowRight"":36,""ArrowDown,ArrowLeft"":15,""ArrowDown,ArrowRight"":23}","true","ArrowDown,ArrowRight","","","","","","",""
"html-keyboard-response","34","202343","0.0-3.0-6.0-1.2","spark_pilot_norest","9460","2","16","Male","","","","","","","null","<div style=""font-size:60px;"">+</div>","null","fixation","","","","","","","","","","","",""
"revaluation","35","206365","0.0-3.0-6.0-0.3","spark_pilot_norest","9460","2","16","Male","","","false","","","","[532.8000000119209]","./assets/img/space/animals/cat.jpg","[""ArrowRight""]","second stage practice","space","36","{""ArrowUp,ArrowLeft"":3,""ArrowUp,ArrowRight"":36,""ArrowDown,ArrowLeft"":15,""ArrowDown,ArrowRight"":23}","true","ArrowUp,ArrowRight","","","","","","",""
"html-keyboard-response","36","206878","0.0-3.0-6.0-1.3","spark_pilot_norest","9460","2","16","Male","","","","","","","null","<div style=""font-size:60px;"">+</div>","null","fixation","","","","","","","","","","","",""
"learning-instructions","37","225419","0.0-3.0-7.0-0.0","spark_pilot_norest","9460","2","16","Male","","","","","","","853.1999999880791","<p> Great job. Now let’s try putting it together. </p>
            <p> On each turn, you will first see a picture to remind you of the place you are in, and you need to choose whether to go up or down. </p>
            <p> Then you will see an animal and choose which of its chests to search for treasure. </p>","","instructions","","","","","","","","","","","",""
"learning-instructions","38","235251","0.0-3.0-7.0-0.1","spark_pilot_norest","9460","2","16","Male","","","","","","","905.1999999880791","<p> When you choose whether to go up or down, try to go to the animal with the chest with the most treasure. </p>
            <p> Try practicing that now! </p>","","instructions","","","","","","","","","","","",""
"revaluation","39","241255","0.0-3.0-8.0-0.0","spark_pilot_norest","9460","2","16","Male","","","false","","","","[638.7999999821186,418.40000000596046]","./assets/img/space/6.jpg","[""ArrowUp"",""ArrowRight""]","full practice","space","36","{""ArrowUp,ArrowLeft"":3,""ArrowUp,ArrowRight"":36,""ArrowDown,ArrowLeft"":15,""ArrowDown,ArrowRight"":23}","true","ArrowUp,ArrowRight","false","","","","","",""
"html-keyboard-response","40","241757","0.0-3.0-8.0-1.0","spark_pilot_norest","9460","2","16","Male","","","","","","","null","<div style=""font-size:60px;"">+</div>","null","fixation","","","","","","","","","","","",""
"revaluation","41","247766","0.0-3.0-8.0-0.1","spark_pilot_norest","9460","2","16","Male","","","false","","","","[693.9000000059605,404.7000000178814]","./assets/img/space/7.jpg","[""ArrowUp"",""ArrowRight""]","full practice","space","36","{""ArrowUp,ArrowLeft"":3,""ArrowUp,ArrowRight"":36,""ArrowDown,ArrowLeft"":15,""ArrowDown,ArrowRight"":23}","true","ArrowUp,ArrowRight","false","","","","","",""
"html-keyboard-response","42","248267","0.0-3.0-8.0-1.1","spark_pilot_norest","9460","2","16","Male","","","","","","","null","<div style=""font-size:60px;"">+</div>","null","fixation","","","","","","","","","","","",""
"revaluation","43","254288","0.0-3.0-8.0-0.2","spark_pilot_norest","9460","2","16","Male","","","false","","","","[587.2999999821186,321.5]","./assets/img/space/8.jpg","[""ArrowUp"",""ArrowRight""]","full practice","space","36","{""ArrowUp,ArrowLeft"":3,""ArrowUp,ArrowRight"":36,""ArrowDown,ArrowLeft"":15,""ArrowDown,ArrowRight"":23}","true","ArrowUp,ArrowRight","false","","","","","",""
"html-keyboard-response","44","254789","0.0-3.0-8.0-1.2","spark_pilot_norest","9460","2","16","Male","","","","","","","null","<div style=""font-size:60px;"">+</div>","null","fixation","","","","","","","","","","","",""
"revaluation","45","260813","0.0-3.0-8.0-0.3","spark_pilot_norest","9460","2","16","Male","","","false","","","","[728.9000000059605,351.40000000596046]","./assets/img/space/9.jpg","[""ArrowDown"",""ArrowRight""]","full practice","space","23","{""ArrowUp,ArrowLeft"":3,""ArrowUp,ArrowRight"":36,""ArrowDown,ArrowLeft"":15,""ArrowDown,ArrowRight"":23}","false","ArrowDown,ArrowRight","false","","","","","",""
"html-keyboard-response","46","261315","0.0-3.0-8.0-1.3","spark_pilot_norest","9460","2","16","Male","","","","","","","null","<div style=""font-size:60px;"">+</div>","null","fixation","","","","","","","","","","","",""
"revaluation","47","267318","0.0-3.0-8.0-0.4","spark_pilot_norest","9460","2","16","Male","","","false","","","","[545.0999999940395,287.80000001192093]","./assets/img/space/10.jpg","[""ArrowUp"",""ArrowRight""]","full practice","space","36","{""ArrowUp,ArrowLeft"":3,""ArrowUp,ArrowRight"":36,""ArrowDown,ArrowLeft"":15,""ArrowDown,ArrowRight"":23}","true","ArrowUp,ArrowRight","false","","","","","",""
"html-keyboard-response","48","267820","0.0-3.0-8.0-1.4","spark_pilot_norest","9460","2","16","Male","","","","","","","null","<div style=""font-size:60px;"">+</div>","null","fixation","","","","","","","","","","","",""
"learning-instructions","49","279514","0.0-3.0-9.0-0.0","spark_pilot_norest","9460","2","16","Male","","","","","","","697.8000000119209","<p> One last thing: sometimes, you will see a robber. The robber can be anywhere in the picture. </p>
            <p> If you do not stop them, you will lose treasure. </p>
            <img src='./assets/img/instructions/robber.jpg' class='instructions-image'>","","instructions","","","","","","","","","","","",""
"learning-instructions","50","288768","0.0-3.0-9.0-0.1","spark_pilot_norest","9460","2","16","Male","","","","","","","1411.800000011921","<p> If you see the robber, you should <b>press the space bar</b> rather than using the arrow keys. </p>
            <p> Try practicing that now! </p>","","instructions","","","","","","","","","","","",""
"revaluation","51","292783","0.0-3.0-10.0-0.0","spark_pilot_norest","9460","2","16","Male","","","false","","","","[781.4000000059605]","./assets/img/space/catch/0.jpg","[""ArrowUp""]","catch practice","space","-10","{""ArrowUp,ArrowLeft"":3,""ArrowUp,ArrowRight"":36,""ArrowDown,ArrowLeft"":15,""ArrowDown,ArrowRight"":23}","false","ArrowUp","true","","","","","",""
"html-keyboard-response","52","293295","0.0-3.0-10.0-1.0","spark_pilot_norest","9460","2","16","Male","","","","","","","null","<div style=""font-size:60px;"">+</div>","null","fixation","","","","","","","","","","","",""
"revaluation","53","297307","0.0-3.0-10.0-0.1","spark_pilot_norest","9460","2","16","Male","","","false","","","","[284.2999999821186]","./assets/img/space/catch/1.jpg","[""spaceBar""]","catch practice","space","0","{""ArrowUp,ArrowLeft"":3,""ArrowUp,ArrowRight"":36,""ArrowDown,ArrowLeft"":15,""ArrowDown,ArrowRight"":23}","true","spaceBar","true","","","","","",""
"html-keyboard-response","54","297822","0.0-3.0-10.0-1.1","spark_pilot_norest","9460","2","16","Male","","","","","","","null","<div style=""font-size:60px;"">+</div>","null","fixation","","","","","","","","","","","",""
"revaluation","55","301839","0.0-3.0-10.0-0.2","spark_pilot_norest","9460","2","16","Male","","","false","","","","[490.69999998807907]","./assets/img/space/catch/2.jpg","[""spaceBar""]","catch practice","space","0","{""ArrowUp,ArrowLeft"":3,""ArrowUp,ArrowRight"":36,""ArrowDown,ArrowLeft"":15,""ArrowDown,ArrowRight"":23}","true","spaceBar","true","","","","","",""
"html-keyboard-response","56","302351","0.0-3.0-10.0-1.2","spark_pilot_norest","9460","2","16","Male","","","","","","","null","<div style=""font-size:60px;"">+</div>","null","fixation","","","","","","","","","","","",""
"learning-instructions","57","309555","0.0-3.0-11.0-0.0-0.0","spark_pilot_norest","9460","2","16","Male","","","","","","","1348.7000000178814","<p> Now, you will practice a shortened version of the game to get a sense of how it all fits together. </p>","","instructions","","","","","","","","","","","",""
"learning-instructions","58","313331","0.0-3.0-11.0-0.0-0.1","spark_pilot_norest","9460","2","16","Male","","","","","","","604.7000000178814","<p>This time you are searching for treasure in outer space.</p>","","instructions","","","","","","","","","","","",""
"learning-instructions","59","328987","0.0-3.0-11.0-1.0-0.0","spark_pilot_norest","9460","2","16","Male","","","","","","","909.6999999880791","<p> Remember, when you see a picture of the place, use the up and down keys to <b>find an animal</b>.</p>
            <p> When you encounter an animal, you should use the left and right keys to <b>select a treasure chest</b>.</p>
            <p> Don't forget to look out for the robber! </p>","","instructions","","","","","","","","","","","",""
"revaluation","60","335026","0.0-3.0-11.0-2.0-0.0","spark_pilot_norest","9460","2","16","Male","","","false","","","","[747.8000000119209,359]","./assets/img/space/11.jpg","[""ArrowUp"",""ArrowRight""]","practice block","space","36","{""ArrowUp,ArrowLeft"":3,""ArrowUp,ArrowRight"":36,""ArrowDown,ArrowLeft"":15,""ArrowDown,ArrowRight"":23}","true","ArrowUp,ArrowRight","false","","","","","",""
"html-keyboard-response","61","335542","0.0-3.0-11.0-2.0-1.0","spark_pilot_norest","9460","2","16","Male","","","","","","","null","<div style=""font-size:60px;"">+</div>","null","fixation","","","","","","","","","","","",""
"revaluation","62","341555","0.0-3.0-11.0-2.0-0.1","spark_pilot_norest","9460","2","16","Male","","","false","","","","[639.6999999880791,316.5]","./assets/img/space/12.jpg","[""ArrowUp"",""ArrowRight""]","practice block","space","36","{""ArrowUp,ArrowLeft"":3,""ArrowUp,ArrowRight"":36,""ArrowDown,ArrowLeft"":15,""ArrowDown,ArrowRight"":23}","true","ArrowUp,ArrowRight","false","","","","","",""
"html-keyboard-response","63","342057","0.0-3.0-11.0-2.0-1.1","spark_pilot_norest","9460","2","16","Male","","","","","","","null","<div style=""font-size:60px;"">+</div>","null","fixation","","","","","","","","","","","",""
"revaluation","64","348085","0.0-3.0-11.0-2.0-0.2","spark_pilot_norest","9460","2","16","Male","","","false","","","","[593,428.2999999821186]","./assets/img/space/13.jpg","[""ArrowUp"",""ArrowRight""]","practice block","space","36","{""ArrowUp,ArrowLeft"":3,""ArrowUp,ArrowRight"":36,""ArrowDown,ArrowLeft"":15,""ArrowDown,ArrowRight"":23}","true","ArrowUp,ArrowRight","false","","","","","",""
"html-keyboard-response","65","348596","0.0-3.0-11.0-2.0-1.2","spark_pilot_norest","9460","2","16","Male","","","","","","","null","<div style=""font-size:60px;"">+</div>","null","fixation","","","","","","","","","","","",""
"revaluation","66","354614","0.0-3.0-11.0-2.0-0.3","spark_pilot_norest","9460","2","16","Male","","","false","","","","[483.7999999821186,437]","./assets/img/space/14.jpg","[""ArrowUp"",""ArrowRight""]","practice block","space","36","{""ArrowUp,ArrowLeft"":3,""ArrowUp,ArrowRight"":36,""ArrowDown,ArrowLeft"":15,""ArrowDown,ArrowRight"":23}","true","ArrowUp,ArrowRight","false","","","","","",""
"html-keyboard-response","67","355128","0.0-3.0-11.0-2.0-1.3","spark_pilot_norest","9460","2","16","Male","","","","","","","null","<div style=""font-size:60px;"">+</div>","null","fixation","","","","","","","","","","","",""
"revaluation","68","361142","0.0-3.0-11.0-2.0-0.4","spark_pilot_norest","9460","2","16","Male","","","false","","","","[682.1000000238419,481.69999998807907]","./assets/img/space/11.jpg","[""ArrowUp"",""ArrowRight""]","practice block","space","36","{""ArrowUp,ArrowLeft"":3,""ArrowUp,ArrowRight"":36,""ArrowDown,ArrowLeft"":15,""ArrowDown,ArrowRight"":23}","true","ArrowUp,ArrowRight","false","","","","","",""
"html-keyboard-response","69","361644","0.0-3.0-11.0-2.0-1.4","spark_pilot_norest","9460","2","16","Male","","","","","","","null","<div style=""font-size:60px;"">+</div>","null","fixation","","","","","","","","","","","",""
"revaluation","70","367648","0.0-3.0-11.0-2.0-0.5","spark_pilot_norest","9460","2","16","Male","","","false","","","","[545.7999999821186,435.90000000596046]","./assets/img/space/12.jpg","[""ArrowUp"",""ArrowRight""]","practice block","space","36","{""ArrowUp,ArrowLeft"":3,""ArrowUp,ArrowRight"":36,""ArrowDown,ArrowLeft"":15,""ArrowDown,ArrowRight"":23}","true","ArrowUp,ArrowRight","false","","","","","",""
"html-keyboard-response","71","368150","0.0-3.0-11.0-2.0-1.5","spark_pilot_norest","9460","2","16","Male","","","","","","","null","<div style=""font-size:60px;"">+</div>","null","fixation","","","","","","","","","","","",""
"revaluation","72","374154","0.0-3.0-11.0-2.0-0.6","spark_pilot_norest","9460","2","16","Male","","","false","","","","[620.5,391.2999999821186]","./assets/img/space/13.jpg","[""ArrowUp"",""ArrowRight""]","practice block","space","36","{""ArrowUp,ArrowLeft"":3,""ArrowUp,ArrowRight"":36,""ArrowDown,ArrowLeft"":15,""ArrowDown,ArrowRight"":23}","true","ArrowUp,ArrowRight","false","","","","","",""
"html-keyboard-response","73","374656","0.0-3.0-11.0-2.0-1.6","spark_pilot_norest","9460","2","16","Male","","","","","","","null","<div style=""font-size:60px;"">+</div>","null","fixation","","","","","","","","","","","",""
"revaluation","74","380659","0.0-3.0-11.0-2.0-0.7","spark_pilot_norest","9460","2","16","Male","","","false","","","","[488.09999999403954,496.2999999821186]","./assets/img/space/14.jpg","[""ArrowUp"",""ArrowRight""]","practice block","space","36","{""ArrowUp,ArrowLeft"":3,""ArrowUp,ArrowRight"":36,""ArrowDown,ArrowLeft"":15,""ArrowDown,ArrowRight"":23}","true","ArrowUp,ArrowRight","false","","","","","",""
"html-keyboard-response","75","381160","0.0-3.0-11.0-2.0-1.7","spark_pilot_norest","9460","2","16","Male","","","","","","","null","<div style=""font-size:60px;"">+</div>","null","fixation","","","","","","","","","","","",""
"revaluation","76","385164","0.0-3.0-11.0-2.0-0.8","spark_pilot_norest","9460","2","16","Male","","","false","","","","[521.5]","./assets/img/space/catch/3.jpg","[""spaceBar""]","practice block","space","0","{""ArrowUp,ArrowLeft"":3,""ArrowUp,ArrowRight"":36,""ArrowDown,ArrowLeft"":15,""ArrowDown,ArrowRight"":23}","true","spaceBar","true","","","","","",""
"html-keyboard-response","77","385666","0.0-3.0-11.0-2.0-1.8","spark_pilot_norest","9460","2","16","Male","","","","","","","null","<div style=""font-size:60px;"">+</div>","null","fixation","","","","","","","","","","","",""
"learning-instructions","78","399568","0.0-3.0-11.0-3.0-0.0","spark_pilot_norest","9460","2","16","Male","","","","","","","1011.5","<p> Now, you will travel with a friend who will choose whether you go up or down first. </p>
            <p> On these turns, you will just see the animal that they found. You will still get to choose which chest to search for treasure.</p>","","instructions","","","","","","","","","","","",""
"revaluation","79","403582","0.0-3.0-11.0-4.0-0.0","spark_pilot_norest","9460","2","16","Male","","","false","","","","[1303.3999999761581]","./assets/img/space/animals/rabbit.jpg","[""ArrowRight""]","practice block","space","23","{""ArrowUp,ArrowLeft"":3,""ArrowUp,ArrowRight"":36,""ArrowDown,ArrowLeft"":15,""ArrowDown,ArrowRight"":23}","true","ArrowDown,ArrowRight","","","","","","",""
"html-keyboard-response","80","404084","0.0-3.0-11.0-4.0-1.0","spark_pilot_norest","9460","2","16","Male","","","","","","","null","<div style=""font-size:60px;"">+</div>","null","fixation","","","","","","","","","","","",""
"revaluation","81","408097","0.0-3.0-11.0-4.0-0.1","spark_pilot_norest","9460","2","16","Male","","","false","","","","[697.2000000178814]","./assets/img/space/animals/cat.jpg","[""ArrowRight""]","practice block","space","36","{""ArrowUp,ArrowLeft"":3,""ArrowUp,ArrowRight"":36,""ArrowDown,ArrowLeft"":15,""ArrowDown,ArrowRight"":23}","true","ArrowUp,ArrowRight","","","","","","",""
"html-keyboard-response","82","408612","0.0-3.0-11.0-4.0-1.1","spark_pilot_norest","9460","2","16","Male","","","","","","","null","<div style=""font-size:60px;"">+</div>","null","fixation","","","","","","","","","","","",""
"revaluation","83","412641","0.0-3.0-11.0-4.0-0.2","spark_pilot_norest","9460","2","16","Male","","","false","","","","[447.10000002384186]","./assets/img/space/animals/rabbit.jpg","[""ArrowRight""]","practice block","space","23","{""ArrowUp,ArrowLeft"":3,""ArrowUp,ArrowRight"":36,""ArrowDown,ArrowLeft"":15,""ArrowDown,ArrowRight"":23}","true","ArrowDown,ArrowRight","","","","","","",""
"html-keyboard-response","84","413152","0.0-3.0-11.0-4.0-1.2","spark_pilot_norest","9460","2","16","Male","","","","","","","null","<div style=""font-size:60px;"">+</div>","null","fixation","","","","","","","","","","","",""
"revaluation","85","417164","0.0-3.0-11.0-4.0-0.3","spark_pilot_norest","9460","2","16","Male","","","false","","","","[360.30000001192093]","./assets/img/space/animals/cat.jpg","[""ArrowRight""]","practice block","space","36","{""ArrowUp,ArrowLeft"":3,""ArrowUp,ArrowRight"":36,""ArrowDown,ArrowLeft"":15,""ArrowDown,ArrowRight"":23}","true","ArrowUp,ArrowRight","","","","","","",""
"html-keyboard-response","86","417678","0.0-3.0-11.0-4.0-1.3","spark_pilot_norest","9460","2","16","Male","","","","","","","null","<div style=""font-size:60px;"">+</div>","null","fixation","","","","","","","","","","","",""
"learning-instructions","87","426399","0.0-3.0-11.0-5.0-0.0","spark_pilot_norest","9460","2","16","Male","","","","","","","null","<p> You have almost finished this part of the game! </p>
            <p> We are going to ask you to make a few more choices. </p>","","instructions","","","","","","","","","","","",""
"learning-instructions","88","443194","0.0-3.0-11.0-5.0-0.1","spark_pilot_norest","9460","2","16","Male","","","","","","","null","<p> First, you need to decide whether to go up or down. When you see each picture, use the arrow keys to make your choice. </p>
            <p><b>You will not see which animal you found, but try to get to the one that will give you the most treasure.</b></p>","","instructions","","","","","","","","","","","",""
"html-keyboard-response","89","444198","0.0-3.0-11.0-6.0-0.0","spark_pilot_norest","9460","2","16","Male","","","","","","","null","<div style=""font-size:100px;color:red;"">Starting in...</div>","null","","","","","","","","","","","","",""
"html-keyboard-response","90","445212","0.0-3.0-11.0-6.0-1.0","spark_pilot_norest","9460","2","16","Male","","","","","","","null","<div style=""font-size:200px;color:red;"">3</div>","null","","","","","","","","","","","","",""
"html-keyboard-response","91","446214","0.0-3.0-11.0-6.0-2.0","spark_pilot_norest","9460","2","16","Male","","","","","","","null","<div style=""font-size:200px;color:red;"">2</div>","null","","","","","","","","","","","","",""
"html-keyboard-response","92","447214","0.0-3.0-11.0-6.0-3.0","spark_pilot_norest","9460","2","16","Male","","","","","","","null","<div style=""font-size:200px;color:red;"">1</div>","null","","","","","","","","","","","","",""
"revaluation","93","447868","0.0-3.0-11.0-7.0","spark_pilot_norest","9460","2","16","Male","","","false","","","","[652.4000000059605]","./assets/img/space/15.jpg","[""ArrowUp""]","practice block","space","0","{""ArrowUp,ArrowLeft"":3,""ArrowUp,ArrowRight"":36,""ArrowDown,ArrowLeft"":15,""ArrowDown,ArrowRight"":23}","true","ArrowUp","false","","","","","",""
"html-keyboard-response","94","448373","0.0-3.0-11.0-8.0","spark_pilot_norest","9460","2","16","Male","","","","","","","null","<div style=""font-size:60px;"">+</div>","null","fixation","","","","","","","","","","","",""
"learning-instructions","95","461733","0.0-3.0-11.0-9.0-0.0","spark_pilot_norest","9460","2","16","Male","","","","","","","null","<p> Now you will see the animals again and can search their chests for treasure. </p>
            <p> This time, you will not see how much treasure you earned, but you will earn more bonus money for making better choices. </p>","","instructions","","","","","","","","","","","",""
"html-keyboard-response","96","462744","0.0-3.0-11.0-10.0-0.0","spark_pilot_norest","9460","2","16","Male","","","","","","","null","<div style=""font-size:100px;color:red;"">Starting in...</div>","null","","","","","","","","","","","","",""
"html-keyboard-response","97","463756","0.0-3.0-11.0-10.0-1.0","spark_pilot_norest","9460","2","16","Male","","","","","","","null","<div style=""font-size:200px;color:red;"">3</div>","null","","","","","","","","","","","","",""
"html-keyboard-response","98","464758","0.0-3.0-11.0-10.0-2.0","spark_pilot_norest","9460","2","16","Male","","","","","","","null","<div style=""font-size:200px;color:red;"">2</div>","null","","","","","","","","","","","","",""
"html-keyboard-response","99","465760","0.0-3.0-11.0-10.0-3.0","spark_pilot_norest","9460","2","16","Male","","","","","","","null","<div style=""font-size:200px;color:red;"">1</div>","null","","","","","","","","","","","","",""
"revaluation","100","466179","0.0-3.0-11.0-11.0-0.0","spark_pilot_norest","9460","2","16","Male","","","false","","","","[417.90000000596046]","./assets/img/space/animals/cat.jpg","[""ArrowRight""]","practice block","space","0","{""ArrowUp,ArrowLeft"":3,""ArrowUp,ArrowRight"":36,""ArrowDown,ArrowLeft"":15,""ArrowDown,ArrowRight"":23}","true","ArrowUp,ArrowRight","","","","","","",""
"html-keyboard-response","101","466688","0.0-3.0-11.0-11.0-1.0","spark_pilot_norest","9460","2","16","Male","","","","","","","null","<div style=""font-size:60px;"">+</div>","null","fixation","","","","","","","","","","","",""
"revaluation","102","467291","0.0-3.0-11.0-11.0-0.1","spark_pilot_norest","9460","2","16","Male","","","false","","","","[601.5]","./assets/img/space/animals/rabbit.jpg","[""ArrowRight""]","practice block","space","0","{""ArrowUp,ArrowLeft"":3,""ArrowUp,ArrowRight"":36,""ArrowDown,ArrowLeft"":15,""ArrowDown,ArrowRight"":23}","true","ArrowDown,ArrowRight","","","","","","",""
"html-keyboard-response","103","467796","0.0-3.0-11.0-11.0-1.1","spark_pilot_norest","9460","2","16","Male","","","","","","","null","<div style=""font-size:60px;"">+</div>","null","fixation","","","","","","","","","","","",""
"learning-instructions","104","473975","0.0-3.0-12.0-0.0","spark_pilot_norest","9460","2","16","Male","","","","","","","1617.9000000059605","<p> Before you start, we're going to ask you a few questions about how the game works. </p>","","instructions","","","","","","","","","","","",""
"comp-q","105","480888","0.0-3.0-13.0-0.0-0.0","spark_pilot_norest","9460","2","16","Male","","","","","","","739.6999999880791","<p> <b> True or False? </b> </p>
            <p> There can be 50 pieces of treasure in a given animal's chest. </p>","1","comp_question","","","","true","","","","","","","",""
"comp-q","106","488847","0.0-3.0-13.0-0.0-1.0","spark_pilot_norest","9460","2","16","Male","","","","","","","1319.8999999761581","<p> <b> That's right! </b> The amount of treasure in each chest can range from 0 to 40 pieces. </p>","0","comp_answer","","","","","","","","","","","",""
"comp-q","107","496715","0.0-3.0-13.0-0.1-0.1","spark_pilot_norest","9460","2","16","Male","","","","","","","768","<p> <b> True or False? </b> </p><p> In this game, all animals have the same amount of treasure in their left and right chests. </p>","1","comp_question","","","","true","","","","","","","",""
"comp-q","108","502722","0.0-3.0-13.0-0.1-1.1","spark_pilot_norest","9460","2","16","Male","","","","","","","794.7999999821186","<p> <b> That's right! </b> Animals have different amounts of treasure in their treasure chests. </p>","0","comp_answer","","","","","","","","","","","",""
"comp-q","109","509048","0.0-3.0-13.0-0.2-0.2","spark_pilot_norest","9460","2","16","Male","","","","","","","490.7999999821186","<p> <b> True or False? </b> </p><p> The same animal will always be there if you go up in the same place. </p>","0","comp_question","","","","true","","","","","","","",""
"comp-q","110","516388","0.0-3.0-13.0-0.2-1.2","spark_pilot_norest","9460","2","16","Male","","","","","","","910.6999999880791","<p> <b> That's right! </b> One animal lives in the upper part and one lives in the lower part of every place. </p>","0","comp_answer","","","","","","","","","","","",""
"comp-q","111","522384","0.0-3.0-13.0-0.3-0.3","spark_pilot_norest","9460","2","16","Male","","","","","","","477.7999999821186","<p> <b> True or False? </b> </p><p> If you see a different picture, it means you are in a new place. </p>","1","comp_question","","","","true","","","","","","","",""
"comp-q","112","534183","0.0-3.0-13.0-0.3-1.3","spark_pilot_norest","9460","2","16","Male","","","","","","","586.5","<p> <b> That's right! </b> Lots of different images may show the same place. For example,  you may see three different images that all remind you that you are in outer space. </p>","0","comp_answer","","","","","","","","","","","",""
"learning-instructions","113","545580","0.0-3.0-14.0-0.0","spark_pilot_norest","9460","2","16","Male","","","","","","","853.6999999880791","<p> Good job. Remember to do your best because the amount of treasure you earn will be converted into bonus money. </p>
            <p> It’s time to start the real game! </p>","","instructions","","","","","","","","","","","",""
"learning-instructions","114","549046","0.0-4.0-0.0-0.0","spark_pilot_norest","9460","2","16","Male","","","","","","","769.5","<p> This time you are searching for treasure in the <b>ocean</b>.</p>","","instructions","","","","","","","","","","","",""
"learning-instructions","115","566831","0.0-4.0-0.0-0.1","spark_pilot_norest","9460","2","16","Male","","","","","","","514.6999999880791","<p><b>New</b> animals with <b>new</b> treasure chests live here. You need to explore to discover where the animal with the best treasure chest is.</p>
                    <p> Like before, once you figure out which animal has the chest with the most treasure, you should try to get to that animal and select that chest! </p>","","instructions","","","","","","","","","","","",""
"learning-instructions","116","582145","0.0-4.0-1.0-0.0","spark_pilot_norest","9460","2","16","Male","","","","","","","587.4000000059605","<p> Remember, when you see a picture of the place, use the up and down keys to <b>find an animal</b>.</p>
            <p> When you encounter an animal, you should use the left and right keys to <b>select a treasure chest</b>.</p>
            <p> Don't forget to look out for the robber! </p>","","instructions","","","","","","","","","","","",""
"revaluation","117","588161","0.0-4.0-2.0-0.0","spark_pilot_norest","9460","2","16","Male","","","false","","","","[1018.9000000059605,541.5]","./assets/img/ocean/memory/16.jpg","[""ArrowDown"",""ArrowLeft""]","value training","ocean","8","{""ArrowUp,ArrowLeft"":23,""ArrowUp,ArrowRight"":10,""ArrowDown,ArrowLeft"":8,""ArrowDown,ArrowRight"":30}","false","ArrowDown,ArrowLeft","false","revaluation","1","0","","",""
"html-keyboard-response","118","588673","0.0-4.0-2.0-1.0","spark_pilot_norest","9460","2","16","Male","","","","","","","null","<div style=""font-size:60px;"">+</div>","null","fixation","","","","","","","","","1","","",""
"revaluation","119","594690","0.0-4.0-2.0-0.1","spark_pilot_norest","9460","2","16","Male","","","false","","","","[567.6000000238419,458.59999999403954]","./assets/img/ocean/memory/22.jpg","[""ArrowUp"",""ArrowLeft""]","value training","ocean","23","{""ArrowUp,ArrowLeft"":23,""ArrowUp,ArrowRight"":10,""ArrowDown,ArrowLeft"":8,""ArrowDown,ArrowRight"":30}","false","ArrowUp,ArrowLeft","false","revaluation","1","2","","",""
"html-keyboard-response","120","595201","0.0-4.0-2.0-1.1","spark_pilot_norest","9460","2","16","Male","","","","","","","null","<div style=""font-size:60px;"">+</div>","null","fixation","","","","","","","","","3","","",""
"revaluation","121","601227","0.0-4.0-2.0-0.2","spark_pilot_norest","9460","2","16","Male","","","false","","","","[635.5999999940395,613.5999999940395]","./assets/img/ocean/memory/0.jpg","[""ArrowDown"",""ArrowRight""]","value training","ocean","30","{""ArrowUp,ArrowLeft"":23,""ArrowUp,ArrowRight"":10,""ArrowDown,ArrowLeft"":8,""ArrowDown,ArrowRight"":30}","true","ArrowDown,ArrowRight","false","revaluation","1","4","","",""
"html-keyboard-response","122","601741","0.0-4.0-2.0-1.2","spark_pilot_norest","9460","2","16","Male","","","","","","","null","<div style=""font-size:60px;"">+</div>","null","fixation","","","","","","","","","5","","",""
"revaluation","123","605749","0.0-4.0-2.0-0.3","spark_pilot_norest","9460","2","16","Male","","","false","","","","[809.5]","./assets/img/ocean/catch/6.jpg","[""spaceBar""]","value training","ocean","0","{""ArrowUp,ArrowLeft"":23,""ArrowUp,ArrowRight"":10,""ArrowDown,ArrowLeft"":8,""ArrowDown,ArrowRight"":30}","true","spaceBar","true","revaluation","1","6","","",""
"html-keyboard-response","124","606262","0.0-4.0-2.0-1.3","spark_pilot_norest","9460","2","16","Male","","","","","","","null","<div style=""font-size:60px;"">+</div>","null","fixation","","","","","","","","","7","","",""
"revaluation","125","612283","0.0-4.0-2.0-0.4","spark_pilot_norest","9460","2","16","Male","","","false","","","","[547.4000000059605,375.09999999403954]","./assets/img/ocean/memory/8.jpg","[""ArrowUp"",""ArrowRight""]","value training","ocean","10","{""ArrowUp,ArrowLeft"":23,""ArrowUp,ArrowRight"":10,""ArrowDown,ArrowLeft"":8,""ArrowDown,ArrowRight"":30}","false","ArrowUp,ArrowRight","false","revaluation","1","8","","",""
"html-keyboard-response","126","612784","0.0-4.0-2.0-1.4","spark_pilot_norest","9460","2","16","Male","","","","","","","null","<div style=""font-size:60px;"">+</div>","null","fixation","","","","","","","","","9","","",""
"revaluation","127","618789","0.0-4.0-2.0-0.5","spark_pilot_norest","9460","2","16","Male","","","false","","","","[853.3000000119209,259.7000000178814]","./assets/img/ocean/memory/24.jpg","[""ArrowDown"",""ArrowRight""]","value training","ocean","30","{""ArrowUp,ArrowLeft"":23,""ArrowUp,ArrowRight"":10,""ArrowDown,ArrowLeft"":8,""ArrowDown,ArrowRight"":30}","true","ArrowDown,ArrowRight","false","revaluation","1","10","","",""
"html-keyboard-response","128","619290","0.0-4.0-2.0-1.5","spark_pilot_norest","9460","2","16","Male","","","","","","","null","<div style=""font-size:60px;"">+</div>","null","fixation","","","","","","","","","11","","",""
"revaluation","129","625297","0.0-4.0-2.0-0.6","spark_pilot_norest","9460","2","16","Male","","","false","","","","[409.40000000596046,266.5]","./assets/img/ocean/memory/11.jpg","[""ArrowDown"",""ArrowRight""]","value training","ocean","30","{""ArrowUp,ArrowLeft"":23,""ArrowUp,ArrowRight"":10,""ArrowDown,ArrowLeft"":8,""ArrowDown,ArrowRight"":30}","true","ArrowDown,ArrowRight","false","revaluation","1","12","","",""
"html-keyboard-response","130","625802","0.0-4.0-2.0-1.6","spark_pilot_norest","9460","2","16","Male","","","","","","","null","<div style=""font-size:60px;"">+</div>","null","fixation","","","","","","","","","13","","",""
"revaluation","131","631806","0.0-4.0-2.0-0.7","spark_pilot_norest","9460","2","16","Male","","","false","","","","[594.4000000059605,213.7999999821186]","./assets/img/ocean/memory/1.jpg","[""ArrowDown"",""ArrowRight""]","value training","ocean","30","{""ArrowUp,ArrowLeft"":23,""ArrowUp,ArrowRight"":10,""ArrowDown,ArrowLeft"":8,""ArrowDown,ArrowRight"":30}","true","ArrowDown,ArrowRight","false","revaluation","1","14","","",""
"html-keyboard-response","132","632308","0.0-4.0-2.0-1.7","spark_pilot_norest","9460","2","16","Male","","","","","","","null","<div style=""font-size:60px;"">+</div>","null","fixation","","","","","","","","","15","","",""
"revaluation","133","638312","0.0-4.0-2.0-0.8","spark_pilot_norest","9460","2","16","Male","","","false","","","","[615.5,234.89999997615814]","./assets/img/ocean/memory/37.jpg","[""ArrowDown"",""ArrowRight""]","value training","ocean","30","{""ArrowUp,ArrowLeft"":23,""ArrowUp,ArrowRight"":10,""ArrowDown,ArrowLeft"":8,""ArrowDown,ArrowRight"":30}","true","ArrowDown,ArrowRight","false","revaluation","1","16","","",""
"html-keyboard-response","134","638814","0.0-4.0-2.0-1.8","spark_pilot_norest","9460","2","16","Male","","","","","","","null","<div style=""font-size:60px;"">+</div>","null","fixation","","","","","","","","","17","","",""
"revaluation","135","644820","0.0-4.0-2.0-0.9","spark_pilot_norest","9460","2","16","Male","","","false","","","","[331.7000000178814,329.80000001192093]","./assets/img/ocean/memory/11.jpg","[""ArrowDown"",""ArrowRight""]","value training","ocean","30","{""ArrowUp,ArrowLeft"":23,""ArrowUp,ArrowRight"":10,""ArrowDown,ArrowLeft"":8,""ArrowDown,ArrowRight"":30}","true","ArrowDown,ArrowRight","false","revaluation","1","18","","",""
"html-keyboard-response","136","645320","0.0-4.0-2.0-1.9","spark_pilot_norest","9460","2","16","Male","","","","","","","null","<div style=""font-size:60px;"">+</div>","null","fixation","","","","","","","","","19","","",""
"revaluation","137","651325","0.0-4.0-2.0-0.10","spark_pilot_norest","9460","2","16","Male","","","false","","","","[686.5,316.69999998807907]","./assets/img/ocean/memory/19.jpg","[""ArrowDown"",""ArrowRight""]","value training","ocean","30","{""ArrowUp,ArrowLeft"":23,""ArrowUp,ArrowRight"":10,""ArrowDown,ArrowLeft"":8,""ArrowDown,ArrowRight"":30}","true","ArrowDown,ArrowRight","false","revaluation","1","20","","",""
"html-keyboard-response","138","651826","0.0-4.0-2.0-1.10","spark_pilot_norest","9460","2","16","Male","","","","","","","null","<div style=""font-size:60px;"">+</div>","null","fixation","","","","","","","","","21","","",""
"revaluation","139","657830","0.0-4.0-2.0-0.11","spark_pilot_norest","9460","2","16","Male","","","false","","","","[554.8000000119209,237.39999997615814]","./assets/img/ocean/memory/40.jpg","[""ArrowDown"",""ArrowRight""]","value training","ocean","30","{""ArrowUp,ArrowLeft"":23,""ArrowUp,ArrowRight"":10,""ArrowDown,ArrowLeft"":8,""ArrowDown,ArrowRight"":30}","true","ArrowDown,ArrowRight","false","revaluation","1","22","","",""
"html-keyboard-response","140","658331","0.0-4.0-2.0-1.11","spark_pilot_norest","9460","2","16","Male","","","","","","","null","<div style=""font-size:60px;"">+</div>","null","fixation","","","","","","","","","23","","",""
"revaluation","141","664336","0.0-4.0-2.0-0.12","spark_pilot_norest","9460","2","16","Male","","","false","","","","[898.1999999880791,330.2999999821186]","./assets/img/ocean/memory/15.jpg","[""ArrowDown"",""ArrowRight""]","value training","ocean","30","{""ArrowUp,ArrowLeft"":23,""ArrowUp,ArrowRight"":10,""ArrowDown,ArrowLeft"":8,""ArrowDown,ArrowRight"":30}","true","ArrowDown,ArrowRight","false","revaluation","1","24","","",""
"html-keyboard-response","142","664845","0.0-4.0-2.0-1.12","spark_pilot_norest","9460","2","16","Male","","","","","","","null","<div style=""font-size:60px;"">+</div>","null","fixation","","","","","","","","","25","","",""
"revaluation","143","668849","0.0-4.0-2.0-0.13","spark_pilot_norest","9460","2","16","Male","","","false","","","","[618.6999999880791]","./assets/img/ocean/catch/4.jpg","[""spaceBar""]","value training","ocean","0","{""ArrowUp,ArrowLeft"":23,""ArrowUp,ArrowRight"":10,""ArrowDown,ArrowLeft"":8,""ArrowDown,ArrowRight"":30}","true","spaceBar","true","revaluation","1","26","","",""
"html-keyboard-response","144","669350","0.0-4.0-2.0-1.13","spark_pilot_norest","9460","2","16","Male","","","","","","","null","<div style=""font-size:60px;"">+</div>","null","fixation","","","","","","","","","27","","",""
"revaluation","145","673353","0.0-4.0-2.0-0.14","spark_pilot_norest","9460","2","16","Male","","","false","","","","[911.4000000059605]","./assets/img/ocean/catch/5.jpg","[""spaceBar""]","value training","ocean","0","{""ArrowUp,ArrowLeft"":23,""ArrowUp,ArrowRight"":10,""ArrowDown,ArrowLeft"":8,""ArrowDown,ArrowRight"":30}","true","spaceBar","true","revaluation","1","28","","",""
"html-keyboard-response","146","673855","0.0-4.0-2.0-1.14","spark_pilot_norest","9460","2","16","Male","","","","","","","null","<div style=""font-size:60px;"">+</div>","null","fixation","","","","","","","","","29","","",""
"revaluation","147","679860","0.0-4.0-2.0-0.15","spark_pilot_norest","9460","2","16","Male","","","false","","","","[611.3000000119209,238.80000001192093]","./assets/img/ocean/memory/10.jpg","[""ArrowDown"",""ArrowRight""]","value training","ocean","30","{""ArrowUp,ArrowLeft"":23,""ArrowUp,ArrowRight"":10,""ArrowDown,ArrowLeft"":8,""ArrowDown,ArrowRight"":30}","true","ArrowDown,ArrowRight","false","revaluation","1","30","","",""
"html-keyboard-response","148","680360","0.0-4.0-2.0-1.15","spark_pilot_norest","9460","2","16","Male","","","","","","","null","<div style=""font-size:60px;"">+</div>","null","fixation","","","","","","","","","31","","",""
"revaluation","149","686366","0.0-4.0-2.0-0.16","spark_pilot_norest","9460","2","16","Male","","","false","","","","[596.7999999821186,312.80000001192093]","./assets/img/ocean/memory/15.jpg","[""ArrowDown"",""ArrowRight""]","value training","ocean","30","{""ArrowUp,ArrowLeft"":23,""ArrowUp,ArrowRight"":10,""ArrowDown,ArrowLeft"":8,""ArrowDown,ArrowRight"":30}","true","ArrowDown,ArrowRight","false","revaluation","1","32","","",""
"html-keyboard-response","150","686868","0.0-4.0-2.0-1.16","spark_pilot_norest","9460","2","16","Male","","","","","","","null","<div style=""font-size:60px;"">+</div>","null","fixation","","","","","","","","","33","","",""
"revaluation","151","692872","0.0-4.0-2.0-0.17","spark_pilot_norest","9460","2","16","Male","","","false","","","","[756.6999999880791,360.89999997615814]","./assets/img/ocean/memory/24.jpg","[""ArrowDown"",""ArrowRight""]","value training","ocean","30","{""ArrowUp,ArrowLeft"":23,""ArrowUp,ArrowRight"":10,""ArrowDown,ArrowLeft"":8,""ArrowDown,ArrowRight"":30}","true","ArrowDown,ArrowRight","false","revaluation","1","34","","",""
"html-keyboard-response","152","693373","0.0-4.0-2.0-1.17","spark_pilot_norest","9460","2","16","Male","","","","","","","null","<div style=""font-size:60px;"">+</div>","null","fixation","","","","","","","","","35","","",""
"revaluation","153","699375","0.0-4.0-2.0-0.18","spark_pilot_norest","9460","2","16","Male","","","false","","","","[584.1000000238419,146.7000000178814]","./assets/img/ocean/memory/22.jpg","[""ArrowDown"",""ArrowRight""]","value training","ocean","30","{""ArrowUp,ArrowLeft"":23,""ArrowUp,ArrowRight"":10,""ArrowDown,ArrowLeft"":8,""ArrowDown,ArrowRight"":30}","true","ArrowDown,ArrowRight","false","revaluation","1","36","","",""
"html-keyboard-response","154","699877","0.0-4.0-2.0-1.18","spark_pilot_norest","9460","2","16","Male","","","","","","","null","<div style=""font-size:60px;"">+</div>","null","fixation","","","","","","","","","37","","",""
"revaluation","155","705881","0.0-4.0-2.0-0.19","spark_pilot_norest","9460","2","16","Male","","","false","","","","[624.5999999940395,338.40000000596046]","./assets/img/ocean/memory/37.jpg","[""ArrowDown"",""ArrowRight""]","value training","ocean","30","{""ArrowUp,ArrowLeft"":23,""ArrowUp,ArrowRight"":10,""ArrowDown,ArrowLeft"":8,""ArrowDown,ArrowRight"":30}","true","ArrowDown,ArrowRight","false","revaluation","1","38","","",""
"html-keyboard-response","156","706382","0.0-4.0-2.0-1.19","spark_pilot_norest","9460","2","16","Male","","","","","","","null","<div style=""font-size:60px;"">+</div>","null","fixation","","","","","","","","","39","","",""
"revaluation","157","712386","0.0-4.0-2.0-0.20","spark_pilot_norest","9460","2","16","Male","","","false","","","","[600.4000000059605,208.30000001192093]","./assets/img/ocean/memory/16.jpg","[""ArrowDown"",""ArrowRight""]","value training","ocean","30","{""ArrowUp,ArrowLeft"":23,""ArrowUp,ArrowRight"":10,""ArrowDown,ArrowLeft"":8,""ArrowDown,ArrowRight"":30}","true","ArrowDown,ArrowRight","false","revaluation","1","40","","",""
"html-keyboard-response","158","712887","0.0-4.0-2.0-1.20","spark_pilot_norest","9460","2","16","Male","","","","","","","null","<div style=""font-size:60px;"">+</div>","null","fixation","","","","","","","","","41","","",""
"revaluation","159","718892","0.0-4.0-2.0-0.21","spark_pilot_norest","9460","2","16","Male","","","false","","","","[404.30000001192093,298.30000001192093]","./assets/img/ocean/memory/6.jpg","[""ArrowDown"",""ArrowRight""]","value training","ocean","30","{""ArrowUp,ArrowLeft"":23,""ArrowUp,ArrowRight"":10,""ArrowDown,ArrowLeft"":8,""ArrowDown,ArrowRight"":30}","true","ArrowDown,ArrowRight","false","revaluation","1","42","","",""
"html-keyboard-response","160","719394","0.0-4.0-2.0-1.21","spark_pilot_norest","9460","2","16","Male","","","","","","","null","<div style=""font-size:60px;"">+</div>","null","fixation","","","","","","","","","43","","",""
"revaluation","161","723398","0.0-4.0-2.0-0.22","spark_pilot_norest","9460","2","16","Male","","","false","","","","[419.80000001192093]","./assets/img/ocean/catch/2.jpg","[""spaceBar""]","value training","ocean","0","{""ArrowUp,ArrowLeft"":23,""ArrowUp,ArrowRight"":10,""ArrowDown,ArrowLeft"":8,""ArrowDown,ArrowRight"":30}","true","spaceBar","true","revaluation","1","44","","",""
"html-keyboard-response","162","723899","0.0-4.0-2.0-1.22","spark_pilot_norest","9460","2","16","Male","","","","","","","null","<div style=""font-size:60px;"">+</div>","null","fixation","","","","","","","","","45","","",""
"revaluation","163","729903","0.0-4.0-2.0-0.23","spark_pilot_norest","9460","2","16","Male","","","false","","","","[548.5999999940395,378.90000000596046]","./assets/img/ocean/memory/26.jpg","[""ArrowDown"",""ArrowRight""]","value training","ocean","30","{""ArrowUp,ArrowLeft"":23,""ArrowUp,ArrowRight"":10,""ArrowDown,ArrowLeft"":8,""ArrowDown,ArrowRight"":30}","true","ArrowDown,ArrowRight","false","revaluation","1","46","","",""
"html-keyboard-response","164","730404","0.0-4.0-2.0-1.23","spark_pilot_norest","9460","2","16","Male","","","","","","","null","<div style=""font-size:60px;"">+</div>","null","fixation","","","","","","","","","47","","",""
"revaluation","165","736409","0.0-4.0-2.0-0.24","spark_pilot_norest","9460","2","16","Male","","","false","","","","[478.80000001192093,368.59999999403954]","./assets/img/ocean/memory/10.jpg","[""ArrowDown"",""ArrowRight""]","value training","ocean","30","{""ArrowUp,ArrowLeft"":23,""ArrowUp,ArrowRight"":10,""ArrowDown,ArrowLeft"":8,""ArrowDown,ArrowRight"":30}","true","ArrowDown,ArrowRight","false","revaluation","1","48","","",""
"html-keyboard-response","166","736911","0.0-4.0-2.0-1.24","spark_pilot_norest","9460","2","16","Male","","","","","","","null","<div style=""font-size:60px;"">+</div>","null","fixation","","","","","","","","","49","","",""
"revaluation","167","742915","0.0-4.0-2.0-0.25","spark_pilot_norest","9460","2","16","Male","","","false","","","","[589,395.09999999403954]","./assets/img/ocean/memory/4.jpg","[""ArrowDown"",""ArrowRight""]","value training","ocean","30","{""ArrowUp,ArrowLeft"":23,""ArrowUp,ArrowRight"":10,""ArrowDown,ArrowLeft"":8,""ArrowDown,ArrowRight"":30}","true","ArrowDown,ArrowRight","false","revaluation","1","50","","",""
"html-keyboard-response","168","743415","0.0-4.0-2.0-1.25","spark_pilot_norest","9460","2","16","Male","","","","","","","null","<div style=""font-size:60px;"">+</div>","null","fixation","","","","","","","","","51","","",""
"revaluation","169","747420","0.0-4.0-2.0-0.26","spark_pilot_norest","9460","2","16","Male","","","false","","","","[566.9000000059605]","./assets/img/ocean/catch/7.jpg","[""spaceBar""]","value training","ocean","0","{""ArrowUp,ArrowLeft"":23,""ArrowUp,ArrowRight"":10,""ArrowDown,ArrowLeft"":8,""ArrowDown,ArrowRight"":30}","true","spaceBar","true","revaluation","1","52","","",""
"html-keyboard-response","170","747921","0.0-4.0-2.0-1.26","spark_pilot_norest","9460","2","16","Male","","","","","","","null","<div style=""font-size:60px;"">+</div>","null","fixation","","","","","","","","","53","","",""
"revaluation","171","753926","0.0-4.0-2.0-0.27","spark_pilot_norest","9460","2","16","Male","","","false","","","","[702.4000000059605,350.90000000596046]","./assets/img/ocean/memory/21.jpg","[""ArrowDown"",""ArrowRight""]","value training","ocean","30","{""ArrowUp,ArrowLeft"":23,""ArrowUp,ArrowRight"":10,""ArrowDown,ArrowLeft"":8,""ArrowDown,ArrowRight"":30}","true","ArrowDown,ArrowRight","false","revaluation","1","54","","",""
"html-keyboard-response","172","754427","0.0-4.0-2.0-1.27","spark_pilot_norest","9460","2","16","Male","","","","","","","null","<div style=""font-size:60px;"">+</div>","null","fixation","","","","","","","","","55","","",""
"revaluation","173","760431","0.0-4.0-2.0-0.28","spark_pilot_norest","9460","2","16","Male","","","false","","","","[454.19999998807907,273.30000001192093]","./assets/img/ocean/memory/8.jpg","[""ArrowDown"",""ArrowRight""]","value training","ocean","30","{""ArrowUp,ArrowLeft"":23,""ArrowUp,ArrowRight"":10,""ArrowDown,ArrowLeft"":8,""ArrowDown,ArrowRight"":30}","true","ArrowDown,ArrowRight","false","revaluation","1","56","","",""
"html-keyboard-response","174","760932","0.0-4.0-2.0-1.28","spark_pilot_norest","9460","2","16","Male","","","","","","","null","<div style=""font-size:60px;"">+</div>","null","fixation","","","","","","","","","57","","",""
"revaluation","175","766936","0.0-4.0-2.0-0.29","spark_pilot_norest","9460","2","16","Male","","","false","","","","[637.5999999940395,320.90000000596046]","./assets/img/ocean/memory/30.jpg","[""ArrowDown"",""ArrowRight""]","value training","ocean","30","{""ArrowUp,ArrowLeft"":23,""ArrowUp,ArrowRight"":10,""ArrowDown,ArrowLeft"":8,""ArrowDown,ArrowRight"":30}","true","ArrowDown,ArrowRight","false","revaluation","1","58","","",""
"html-keyboard-response","176","767440","0.0-4.0-2.0-1.29","spark_pilot_norest","9460","2","16","Male","","","","","","","null","<div style=""font-size:60px;"">+</div>","null","fixation","","","","","","","","","59","","",""
"revaluation","177","773445","0.0-4.0-2.0-0.30","spark_pilot_norest","9460","2","16","Male","","","false","","","","[503,346.90000000596046]","./assets/img/ocean/memory/39.jpg","[""ArrowDown"",""ArrowRight""]","value training","ocean","30","{""ArrowUp,ArrowLeft"":23,""ArrowUp,ArrowRight"":10,""ArrowDown,ArrowLeft"":8,""ArrowDown,ArrowRight"":30}","true","ArrowDown,ArrowRight","false","revaluation","1","60","","",""
"html-keyboard-response","178","773946","0.0-4.0-2.0-1.30","spark_pilot_norest","9460","2","16","Male","","","","","","","null","<div style=""font-size:60px;"">+</div>","null","fixation","","","","","","","","","61","","",""
"revaluation","179","779950","0.0-4.0-2.0-0.31","spark_pilot_norest","9460","2","16","Male","","","false","","","","[449.40000000596046,220.5]","./assets/img/ocean/memory/29.jpg","[""ArrowDown"",""ArrowRight""]","value training","ocean","30","{""ArrowUp,ArrowLeft"":23,""ArrowUp,ArrowRight"":10,""ArrowDown,ArrowLeft"":8,""ArrowDown,ArrowRight"":30}","true","ArrowDown,ArrowRight","false","revaluation","1","62","","",""
"html-keyboard-response","180","780452","0.0-4.0-2.0-1.31","spark_pilot_norest","9460","2","16","Male","","","","","","","null","<div style=""font-size:60px;"">+</div>","null","fixation","","","","","","","","","63","","",""
"revaluation","181","786455","0.0-4.0-2.0-0.32","spark_pilot_norest","9460","2","16","Male","","","false","","","","[394.2000000178814,205.2000000178814]","./assets/img/ocean/memory/1.jpg","[""ArrowDown"",""ArrowRight""]","value training","ocean","30","{""ArrowUp,ArrowLeft"":23,""ArrowUp,ArrowRight"":10,""ArrowDown,ArrowLeft"":8,""ArrowDown,ArrowRight"":30}","true","ArrowDown,ArrowRight","false","revaluation","1","64","","",""
"html-keyboard-response","182","786956","0.0-4.0-2.0-1.32","spark_pilot_norest","9460","2","16","Male","","","","","","","null","<div style=""font-size:60px;"">+</div>","null","fixation","","","","","","","","","65","","",""
"revaluation","183","792960","0.0-4.0-2.0-0.33","spark_pilot_norest","9460","2","16","Male","","","false","","","","[462.69999998807907,302.40000000596046]","./assets/img/ocean/memory/2.jpg","[""ArrowDown"",""ArrowRight""]","value training","ocean","30","{""ArrowUp,ArrowLeft"":23,""ArrowUp,ArrowRight"":10,""ArrowDown,ArrowLeft"":8,""ArrowDown,ArrowRight"":30}","true","ArrowDown,ArrowRight","false","revaluation","1","66","","",""
"html-keyboard-response","184","793462","0.0-4.0-2.0-1.33","spark_pilot_norest","9460","2","16","Male","","","","","","","null","<div style=""font-size:60px;"">+</div>","null","fixation","","","","","","","","","67","","",""
"revaluation","185","799466","0.0-4.0-2.0-0.34","spark_pilot_norest","9460","2","16","Male","","","false","","","","[500.90000000596046,675]","./assets/img/ocean/memory/28.jpg","[""ArrowDown"",""ArrowRight""]","value training","ocean","30","{""ArrowUp,ArrowLeft"":23,""ArrowUp,ArrowRight"":10,""ArrowDown,ArrowLeft"":8,""ArrowDown,ArrowRight"":30}","true","ArrowDown,ArrowRight","false","revaluation","1","68","","",""
"html-keyboard-response","186","799968","0.0-4.0-2.0-1.34","spark_pilot_norest","9460","2","16","Male","","","","","","","null","<div style=""font-size:60px;"">+</div>","null","fixation","","","","","","","","","69","","",""
"revaluation","187","805970","0.0-4.0-2.0-0.35","spark_pilot_norest","9460","2","16","Male","","","false","","","","[581.0999999940395,435.19999998807907]","./assets/img/ocean/memory/0.jpg","[""ArrowDown"",""ArrowRight""]","value training","ocean","30","{""ArrowUp,ArrowLeft"":23,""ArrowUp,ArrowRight"":10,""ArrowDown,ArrowLeft"":8,""ArrowDown,ArrowRight"":30}","true","ArrowDown,ArrowRight","false","revaluation","1","70","","",""
"html-keyboard-response","188","806472","0.0-4.0-2.0-1.35","spark_pilot_norest","9460","2","16","Male","","","","","","","null","<div style=""font-size:60px;"">+</div>","null","fixation","","","","","","","","","71","","",""
"revaluation","189","810474","0.0-4.0-2.0-0.36","spark_pilot_norest","9460","2","16","Male","","","false","","","","[549.3000000119209]","./assets/img/ocean/catch/0.jpg","[""spaceBar""]","value training","ocean","0","{""ArrowUp,ArrowLeft"":23,""ArrowUp,ArrowRight"":10,""ArrowDown,ArrowLeft"":8,""ArrowDown,ArrowRight"":30}","true","spaceBar","true","revaluation","1","72","","",""
"html-keyboard-response","190","810976","0.0-4.0-2.0-1.36","spark_pilot_norest","9460","2","16","Male","","","","","","","null","<div style=""font-size:60px;"">+</div>","null","fixation","","","","","","","","","73","","",""
"revaluation","191","816980","0.0-4.0-2.0-0.37","spark_pilot_norest","9460","2","16","Male","","","false","","","","[434.59999999403954,267.30000001192093]","./assets/img/ocean/memory/26.jpg","[""ArrowDown"",""ArrowRight""]","value training","ocean","30","{""ArrowUp,ArrowLeft"":23,""ArrowUp,ArrowRight"":10,""ArrowDown,ArrowLeft"":8,""ArrowDown,ArrowRight"":30}","true","ArrowDown,ArrowRight","false","revaluation","1","74","","",""
"html-keyboard-response","192","817482","0.0-4.0-2.0-1.37","spark_pilot_norest","9460","2","16","Male","","","","","","","null","<div style=""font-size:60px;"">+</div>","null","fixation","","","","","","","","","75","","",""
"revaluation","193","823486","0.0-4.0-2.0-0.38","spark_pilot_norest","9460","2","16","Male","","","false","","","","[340.80000001192093,397]","./assets/img/ocean/memory/29.jpg","[""ArrowDown"",""ArrowRight""]","value training","ocean","30","{""ArrowUp,ArrowLeft"":23,""ArrowUp,ArrowRight"":10,""ArrowDown,ArrowLeft"":8,""ArrowDown,ArrowRight"":30}","true","ArrowDown,ArrowRight","false","revaluation","1","76","","",""
"html-keyboard-response","194","824001","0.0-4.0-2.0-1.38","spark_pilot_norest","9460","2","16","Male","","","","","","","null","<div style=""font-size:60px;"">+</div>","null","fixation","","","","","","","","","77","","",""
"revaluation","195","830006","0.0-4.0-2.0-0.39","spark_pilot_norest","9460","2","16","Male","","","false","","","","[593.1999999880791,248.2999999821186]","./assets/img/ocean/memory/4.jpg","[""ArrowDown"",""ArrowRight""]","value training","ocean","30","{""ArrowUp,ArrowLeft"":23,""ArrowUp,ArrowRight"":10,""ArrowDown,ArrowLeft"":8,""ArrowDown,ArrowRight"":30}","true","ArrowDown,ArrowRight","false","revaluation","1","78","","",""
"html-keyboard-response","196","830507","0.0-4.0-2.0-1.39","spark_pilot_norest","9460","2","16","Male","","","","","","","null","<div style=""font-size:60px;"">+</div>","null","fixation","","","","","","","","","79","","",""
"revaluation","197","836513","0.0-4.0-2.0-0.40","spark_pilot_norest","9460","2","16","Male","","","false","","","","[618,351.30000001192093]","./assets/img/ocean/memory/40.jpg","[""ArrowDown"",""ArrowRight""]","value training","ocean","30","{""ArrowUp,ArrowLeft"":23,""ArrowUp,ArrowRight"":10,""ArrowDown,ArrowLeft"":8,""ArrowDown,ArrowRight"":30}","true","ArrowDown,ArrowRight","false","revaluation","1","80","","",""
"html-keyboard-response","198","837014","0.0-4.0-2.0-1.40","spark_pilot_norest","9460","2","16","Male","","","","","","","null","<div style=""font-size:60px;"">+</div>","null","fixation","","","","","","","","","81","","",""
"revaluation","199","841018","0.0-4.0-2.0-0.41","spark_pilot_norest","9460","2","16","Male","","","false","","","","[711.3999999761581]","./assets/img/ocean/catch/1.jpg","[""spaceBar""]","value training","ocean","0","{""ArrowUp,ArrowLeft"":23,""ArrowUp,ArrowRight"":10,""ArrowDown,ArrowLeft"":8,""ArrowDown,ArrowRight"":30}","true","spaceBar","true","revaluation","1","82","","",""
"html-keyboard-response","200","841519","0.0-4.0-2.0-1.41","spark_pilot_norest","9460","2","16","Male","","","","","","","null","<div style=""font-size:60px;"">+</div>","null","fixation","","","","","","","","","83","","",""
"revaluation","201","847524","0.0-4.0-2.0-0.42","spark_pilot_norest","9460","2","16","Male","","","false","","","","[875.0999999940395,332]","./assets/img/ocean/memory/30.jpg","[""ArrowDown"",""ArrowRight""]","value training","ocean","30","{""ArrowUp,ArrowLeft"":23,""ArrowUp,ArrowRight"":10,""ArrowDown,ArrowLeft"":8,""ArrowDown,ArrowRight"":30}","true","ArrowDown,ArrowRight","false","revaluation","1","84","","",""
"html-keyboard-response","202","848025","0.0-4.0-2.0-1.42","spark_pilot_norest","9460","2","16","Male","","","","","","","null","<div style=""font-size:60px;"">+</div>","null","fixation","","","","","","","","","85","","",""
"revaluation","203","854029","0.0-4.0-2.0-0.43","spark_pilot_norest","9460","2","16","Male","","","false","","","","[609.5,314.09999999403954]","./assets/img/ocean/memory/19.jpg","[""ArrowDown"",""ArrowRight""]","value training","ocean","30","{""ArrowUp,ArrowLeft"":23,""ArrowUp,ArrowRight"":10,""ArrowDown,ArrowLeft"":8,""ArrowDown,ArrowRight"":30}","true","ArrowDown,ArrowRight","false","revaluation","1","86","","",""
"html-keyboard-response","204","854531","0.0-4.0-2.0-1.43","spark_pilot_norest","9460","2","16","Male","","","","","","","null","<div style=""font-size:60px;"">+</div>","null","fixation","","","","","","","","","87","","",""
"revaluation","205","860538","0.0-4.0-2.0-0.44","spark_pilot_norest","9460","2","16","Male","","","false","","","","[536.0999999940395,339.09999999403954]","./assets/img/ocean/memory/6.jpg","[""ArrowDown"",""ArrowRight""]","value training","ocean","30","{""ArrowUp,ArrowLeft"":23,""ArrowUp,ArrowRight"":10,""ArrowDown,ArrowLeft"":8,""ArrowDown,ArrowRight"":30}","true","ArrowDown,ArrowRight","false","revaluation","1","88","","",""
"html-keyboard-response","206","861050","0.0-4.0-2.0-1.44","spark_pilot_norest","9460","2","16","Male","","","","","","","null","<div style=""font-size:60px;"">+</div>","null","fixation","","","","","","","","","89","","",""
"revaluation","207","867054","0.0-4.0-2.0-0.45","spark_pilot_norest","9460","2","16","Male","","","false","","","","[575.7000000178814,286.19999998807907]","./assets/img/ocean/memory/2.jpg","[""ArrowDown"",""ArrowRight""]","value training","ocean","30","{""ArrowUp,ArrowLeft"":23,""ArrowUp,ArrowRight"":10,""ArrowDown,ArrowLeft"":8,""ArrowDown,ArrowRight"":30}","true","ArrowDown,ArrowRight","false","revaluation","1","90","","",""
"html-keyboard-response","208","867555","0.0-4.0-2.0-1.45","spark_pilot_norest","9460","2","16","Male","","","","","","","null","<div style=""font-size:60px;"">+</div>","null","fixation","","","","","","","","","91","","",""
"revaluation","209","873560","0.0-4.0-2.0-0.46","spark_pilot_norest","9460","2","16","Male","","","false","","","","[551.5999999940395,340]","./assets/img/ocean/memory/39.jpg","[""ArrowDown"",""ArrowRight""]","value training","ocean","30","{""ArrowUp,ArrowLeft"":23,""ArrowUp,ArrowRight"":10,""ArrowDown,ArrowLeft"":8,""ArrowDown,ArrowRight"":30}","true","ArrowDown,ArrowRight","false","revaluation","1","92","","",""
"html-keyboard-response","210","874061","0.0-4.0-2.0-1.46","spark_pilot_norest","9460","2","16","Male","","","","","","","null","<div style=""font-size:60px;"">+</div>","null","fixation","","","","","","","","","93","","",""
"revaluation","211","880065","0.0-4.0-2.0-0.47","spark_pilot_norest","9460","2","16","Male","","","false","","","","[617.3000000119209,352.19999998807907]","./assets/img/ocean/memory/28.jpg","[""ArrowDown"",""ArrowRight""]","value training","ocean","30","{""ArrowUp,ArrowLeft"":23,""ArrowUp,ArrowRight"":10,""ArrowDown,ArrowLeft"":8,""ArrowDown,ArrowRight"":30}","true","ArrowDown,ArrowRight","false","revaluation","1","94","","",""
"html-keyboard-response","212","880566","0.0-4.0-2.0-1.47","spark_pilot_norest","9460","2","16","Male","","","","","","","null","<div style=""font-size:60px;"">+</div>","null","fixation","","","","","","","","","95","","",""
"revaluation","213","884570","0.0-4.0-2.0-0.48","spark_pilot_norest","9460","2","16","Male","","","false","","","","[553.2999999821186]","./assets/img/ocean/catch/3.jpg","[""spaceBar""]","value training","ocean","0","{""ArrowUp,ArrowLeft"":23,""ArrowUp,ArrowRight"":10,""ArrowDown,ArrowLeft"":8,""ArrowDown,ArrowRight"":30}","true","spaceBar","true","revaluation","1","96","","",""
"html-keyboard-response","214","885071","0.0-4.0-2.0-1.48","spark_pilot_norest","9460","2","16","Male","","","","","","","null","<div style=""font-size:60px;"">+</div>","null","fixation","","","","","","","","","97","","",""
"revaluation","215","891074","0.0-4.0-2.0-0.49","spark_pilot_norest","9460","2","16","Male","","","false","","","","[666.7000000178814,376]","./assets/img/ocean/memory/21.jpg","[""ArrowDown"",""ArrowRight""]","value training","ocean","30","{""ArrowUp,ArrowLeft"":23,""ArrowUp,ArrowRight"":10,""ArrowDown,ArrowLeft"":8,""ArrowDown,ArrowRight"":30}","true","ArrowDown,ArrowRight","false","revaluation","1","98","","",""
"html-keyboard-response","216","891575","0.0-4.0-2.0-1.49","spark_pilot_norest","9460","2","16","Male","","","","","","","null","<div style=""font-size:60px;"">+</div>","null","fixation","","","","","","","","","99","","",""
"learning-instructions","217","906416","0.0-4.0-3.0-0.0","spark_pilot_norest","9460","2","16","Male","","","","","","","1968.800000011921","<p> Now, you will travel with a friend who will choose whether you go up or down first. </p>
            <p> On these turns, you will just see the animal that they found. You will still get to choose which chest to search for treasure.</p>","","instructions","","","","","","","","","","","",""
"revaluation","218","910435","0.0-4.0-4.0-0.0","spark_pilot_norest","9460","2","16","Male","","","false","","","","[876.2999999821186]","./assets/img/ocean/animals/octopus.jpg","[""ArrowRight""]","revaluation","ocean","15","{""ArrowUp,ArrowLeft"":27,""ArrowUp,ArrowRight"":15,""ArrowDown,ArrowLeft"":21,""ArrowDown,ArrowRight"":7}","false","ArrowUp,ArrowRight","","revaluation","1","0","","",""
"html-keyboard-response","219","910949","0.0-4.0-4.0-1.0","spark_pilot_norest","9460","2","16","Male","","","","","","","null","<div style=""font-size:60px;"">+</div>","null","fixation","","","","","","","","","1","","",""
"revaluation","220","914969","0.0-4.0-4.0-0.1","spark_pilot_norest","9460","2","16","Male","","","false","","","","[507.5]","./assets/img/ocean/animals/octopus.jpg","[""ArrowRight""]","revaluation","ocean","15","{""ArrowUp,ArrowLeft"":27,""ArrowUp,ArrowRight"":15,""ArrowDown,ArrowLeft"":21,""ArrowDown,ArrowRight"":7}","false","ArrowUp,ArrowRight","","revaluation","1","2","","",""
"html-keyboard-response","221","915482","0.0-4.0-4.0-1.1","spark_pilot_norest","9460","2","16","Male","","","","","","","null","<div style=""font-size:60px;"">+</div>","null","fixation","","","","","","","","","3","","",""
"revaluation","222","919495","0.0-4.0-4.0-0.2","spark_pilot_norest","9460","2","16","Male","","","false","","","","[541.0999999940395]","./assets/img/ocean/animals/seahorse.jpg","[""ArrowRight""]","revaluation","ocean","7","{""ArrowUp,ArrowLeft"":27,""ArrowUp,ArrowRight"":15,""ArrowDown,ArrowLeft"":21,""ArrowDown,ArrowRight"":7}","false","ArrowDown,ArrowRight","","revaluation","1","4","","",""
"html-keyboard-response","223","920010","0.0-4.0-4.0-1.2","spark_pilot_norest","9460","2","16","Male","","","","","","","null","<div style=""font-size:60px;"">+</div>","null","fixation","","","","","","","","","5","","",""
"revaluation","224","924031","0.0-4.0-4.0-0.3","spark_pilot_norest","9460","2","16","Male","","","false","","","","[618.3000000119209]","./assets/img/ocean/animals/seahorse.jpg","[""ArrowLeft""]","revaluation","ocean","21","{""ArrowUp,ArrowLeft"":27,""ArrowUp,ArrowRight"":15,""ArrowDown,ArrowLeft"":21,""ArrowDown,ArrowRight"":7}","true","ArrowDown,ArrowLeft","","revaluation","1","6","","",""
"html-keyboard-response","225","924546","0.0-4.0-4.0-1.3","spark_pilot_norest","9460","2","16","Male","","","","","","","null","<div style=""font-size:60px;"">+</div>","null","fixation","","","","","","","","","7","","",""
"revaluation","226","928569","0.0-4.0-4.0-0.4","spark_pilot_norest","9460","2","16","Male","","","false","","","","[403.09999999403954]","./assets/img/ocean/animals/octopus.jpg","[""ArrowLeft""]","revaluation","ocean","27","{""ArrowUp,ArrowLeft"":27,""ArrowUp,ArrowRight"":15,""ArrowDown,ArrowLeft"":21,""ArrowDown,ArrowRight"":7}","true","ArrowUp,ArrowLeft","","revaluation","1","8","","",""
"html-keyboard-response","227","929070","0.0-4.0-4.0-1.4","spark_pilot_norest","9460","2","16","Male","","","","","","","null","<div style=""font-size:60px;"">+</div>","null","fixation","","","","","","","","","9","","",""
"revaluation","228","933090","0.0-4.0-4.0-0.5","spark_pilot_norest","9460","2","16","Male","","","false","","","","[428.59999999403954]","./assets/img/ocean/animals/octopus.jpg","[""ArrowLeft""]","revaluation","ocean","27","{""ArrowUp,ArrowLeft"":27,""ArrowUp,ArrowRight"":15,""ArrowDown,ArrowLeft"":21,""ArrowDown,ArrowRight"":7}","true","ArrowUp,ArrowLeft","","revaluation","1","10","","",""
"html-keyboard-response","229","933605","0.0-4.0-4.0-1.5","spark_pilot_norest","9460","2","16","Male","","","","","","","null","<div style=""font-size:60px;"">+</div>","null","fixation","","","","","","","","","11","","",""
"revaluation","230","937608","0.0-4.0-4.0-0.6","spark_pilot_norest","9460","2","16","Male","","","false","","","","[621.1999999880791]","./assets/img/ocean/animals/octopus.jpg","[""ArrowLeft""]","revaluation","ocean","27","{""ArrowUp,ArrowLeft"":27,""ArrowUp,ArrowRight"":15,""ArrowDown,ArrowLeft"":21,""ArrowDown,ArrowRight"":7}","true","ArrowUp,ArrowLeft","","revaluation","1","12","","",""
"html-keyboard-response","231","938110","0.0-4.0-4.0-1.6","spark_pilot_norest","9460","2","16","Male","","","","","","","null","<div style=""font-size:60px;"">+</div>","null","fixation","","","","","","","","","13","","",""
"revaluation","232","942114","0.0-4.0-4.0-0.7","spark_pilot_norest","9460","2","16","Male","","","false","","","","[710.1000000238419]","./assets/img/ocean/animals/octopus.jpg","[""ArrowLeft""]","revaluation","ocean","27","{""ArrowUp,ArrowLeft"":27,""ArrowUp,ArrowRight"":15,""ArrowDown,ArrowLeft"":21,""ArrowDown,ArrowRight"":7}","true","ArrowUp,ArrowLeft","","revaluation","1","14","","",""
"html-keyboard-response","233","942615","0.0-4.0-4.0-1.7","spark_pilot_norest","9460","2","16","Male","","","","","","","null","<div style=""font-size:60px;"">+</div>","null","fixation","","","","","","","","","15","","",""
"revaluation","234","946618","0.0-4.0-4.0-0.8","spark_pilot_norest","9460","2","16","Male","","","false","","","","[630.5]","./assets/img/ocean/animals/seahorse.jpg","[""ArrowLeft""]","revaluation","ocean","21","{""ArrowUp,ArrowLeft"":27,""ArrowUp,ArrowRight"":15,""ArrowDown,ArrowLeft"":21,""ArrowDown,ArrowRight"":7}","true","ArrowDown,ArrowLeft","","revaluation","1","16","","",""
"html-keyboard-response","235","947123","0.0-4.0-4.0-1.8","spark_pilot_norest","9460","2","16","Male","","","","","","","null","<div style=""font-size:60px;"">+</div>","null","fixation","","","","","","","","","17","","",""
"revaluation","236","951126","0.0-4.0-4.0-0.9","spark_pilot_norest","9460","2","16","Male","","","false","","","","[437.40000000596046]","./assets/img/ocean/animals/seahorse.jpg","[""ArrowLeft""]","revaluation","ocean","21","{""ArrowUp,ArrowLeft"":27,""ArrowUp,ArrowRight"":15,""ArrowDown,ArrowLeft"":21,""ArrowDown,ArrowRight"":7}","true","ArrowDown,ArrowLeft","","revaluation","1","18","","",""
"html-keyboard-response","237","951628","0.0-4.0-4.0-1.9","spark_pilot_norest","9460","2","16","Male","","","","","","","null","<div style=""font-size:60px;"">+</div>","null","fixation","","","","","","","","","19","","",""
"revaluation","238","955631","0.0-4.0-4.0-0.10","spark_pilot_norest","9460","2","16","Male","","","false","","","","[367.10000002384186]","./assets/img/ocean/animals/seahorse.jpg","[""ArrowLeft""]","revaluation","ocean","21","{""ArrowUp,ArrowLeft"":27,""ArrowUp,ArrowRight"":15,""ArrowDown,ArrowLeft"":21,""ArrowDown,ArrowRight"":7}","true","ArrowDown,ArrowLeft","","revaluation","1","20","","",""
"html-keyboard-response","239","956132","0.0-4.0-4.0-1.10","spark_pilot_norest","9460","2","16","Male","","","","","","","null","<div style=""font-size:60px;"">+</div>","null","fixation","","","","","","","","","21","","",""
"revaluation","240","960135","0.0-4.0-4.0-0.11","spark_pilot_norest","9460","2","16","Male","","","false","","","","[817.1000000238419]","./assets/img/ocean/animals/octopus.jpg","[""ArrowLeft""]","revaluation","ocean","27","{""ArrowUp,ArrowLeft"":27,""ArrowUp,ArrowRight"":15,""ArrowDown,ArrowLeft"":21,""ArrowDown,ArrowRight"":7}","true","ArrowUp,ArrowLeft","","revaluation","1","22","","",""
"html-keyboard-response","241","960637","0.0-4.0-4.0-1.11","spark_pilot_norest","9460","2","16","Male","","","","","","","null","<div style=""font-size:60px;"">+</div>","null","fixation","","","","","","","","","23","","",""
"revaluation","242","964640","0.0-4.0-4.0-0.12","spark_pilot_norest","9460","2","16","Male","","","false","","","","[462.5]","./assets/img/ocean/animals/octopus.jpg","[""ArrowLeft""]","revaluation","ocean","27","{""ArrowUp,ArrowLeft"":27,""ArrowUp,ArrowRight"":15,""ArrowDown,ArrowLeft"":21,""ArrowDown,ArrowRight"":7}","true","ArrowUp,ArrowLeft","","revaluation","1","24","","",""
"html-keyboard-response","243","965141","0.0-4.0-4.0-1.12","spark_pilot_norest","9460","2","16","Male","","","","","","","null","<div style=""font-size:60px;"">+</div>","null","fixation","","","","","","","","","25","","",""
"revaluation","244","969143","0.0-4.0-4.0-0.13","spark_pilot_norest","9460","2","16","Male","","","false","","","","[229.40000000596046]","./assets/img/ocean/animals/seahorse.jpg","[""ArrowLeft""]","revaluation","ocean","21","{""ArrowUp,ArrowLeft"":27,""ArrowUp,ArrowRight"":15,""ArrowDown,ArrowLeft"":21,""ArrowDown,ArrowRight"":7}","true","ArrowDown,ArrowLeft","","revaluation","1","26","","",""
"html-keyboard-response","245","969645","0.0-4.0-4.0-1.13","spark_pilot_norest","9460","2","16","Male","","","","","","","null","<div style=""font-size:60px;"">+</div>","null","fixation","","","","","","","","","27","","",""
"revaluation","246","973648","0.0-4.0-4.0-0.14","spark_pilot_norest","9460","2","16","Male","","","false","","","","[595.3000000119209]","./assets/img/ocean/animals/seahorse.jpg","[""ArrowLeft""]","revaluation","ocean","21","{""ArrowUp,ArrowLeft"":27,""ArrowUp,ArrowRight"":15,""ArrowDown,ArrowLeft"":21,""ArrowDown,ArrowRight"":7}","true","ArrowDown,ArrowLeft","","revaluation","1","28","","",""
"html-keyboard-response","247","974150","0.0-4.0-4.0-1.14","spark_pilot_norest","9460","2","16","Male","","","","","","","null","<div style=""font-size:60px;"">+</div>","null","fixation","","","","","","","","","29","","",""
"revaluation","248","978153","0.0-4.0-4.0-0.15","spark_pilot_norest","9460","2","16","Male","","","false","","","","[352.09999999403954]","./assets/img/ocean/animals/seahorse.jpg","[""ArrowLeft""]","revaluation","ocean","21","{""ArrowUp,ArrowLeft"":27,""ArrowUp,ArrowRight"":15,""ArrowDown,ArrowLeft"":21,""ArrowDown,ArrowRight"":7}","true","ArrowDown,ArrowLeft","","revaluation","1","30","","",""
"html-keyboard-response","249","978655","0.0-4.0-4.0-1.15","spark_pilot_norest","9460","2","16","Male","","","","","","","null","<div style=""font-size:60px;"">+</div>","null","fixation","","","","","","","","","31","","",""
"revaluation","250","982661","0.0-4.0-4.0-0.16","spark_pilot_norest","9460","2","16","Male","","","false","","","","[438.60000002384186]","./assets/img/ocean/animals/octopus.jpg","[""ArrowLeft""]","revaluation","ocean","27","{""ArrowUp,ArrowLeft"":27,""ArrowUp,ArrowRight"":15,""ArrowDown,ArrowLeft"":21,""ArrowDown,ArrowRight"":7}","true","ArrowUp,ArrowLeft","","revaluation","1","32","","",""
"html-keyboard-response","251","983163","0.0-4.0-4.0-1.16","spark_pilot_norest","9460","2","16","Male","","","","","","","null","<div style=""font-size:60px;"">+</div>","null","fixation","","","","","","","","","33","","",""
"revaluation","252","987168","0.0-4.0-4.0-0.17","spark_pilot_norest","9460","2","16","Male","","","false","","","","[1018.0999999940395]","./assets/img/ocean/animals/seahorse.jpg","[""ArrowLeft""]","revaluation","ocean","21","{""ArrowUp,ArrowLeft"":27,""ArrowUp,ArrowRight"":15,""ArrowDown,ArrowLeft"":21,""ArrowDown,ArrowRight"":7}","true","ArrowDown,ArrowLeft","","revaluation","1","34","","",""
"html-keyboard-response","253","987669","0.0-4.0-4.0-1.17","spark_pilot_norest","9460","2","16","Male","","","","","","","null","<div style=""font-size:60px;"">+</div>","null","fixation","","","","","","","","","35","","",""
"learning-instructions","254","995784","0.0-4.0-5.0-0.0","spark_pilot_norest","9460","2","16","Male","","","","","","","null","<p> You have almost finished this part of the game! </p>
            <p> We are going to ask you to make a few more choices. </p>","","instructions","","","","","","","","","","","",""
"learning-instructions","255","1011748","0.0-4.0-5.0-0.1","spark_pilot_norest","9460","2","16","Male","","","","","","","null","<p> First, you need to decide whether to go up or down. When you see each picture, use the arrow keys to make your choice. </p>
            <p><b>You will not see which animal you found, but try to get to the one that will give you the most treasure.</b></p>","","instructions","","","","","","","","","","","",""
"html-keyboard-response","256","1012750","0.0-4.0-6.0-0.0","spark_pilot_norest","9460","2","16","Male","","","","","","","null","<div style=""font-size:100px;color:red;"">Starting in...</div>","null","","","","","","","","","","","","",""
"html-keyboard-response","257","1013758","0.0-4.0-6.0-1.0","spark_pilot_norest","9460","2","16","Male","","","","","","","null","<div style=""font-size:200px;color:red;"">3</div>","null","","","","","","","","","","","","",""
"html-keyboard-response","258","1014760","0.0-4.0-6.0-2.0","spark_pilot_norest","9460","2","16","Male","","","","","","","null","<div style=""font-size:200px;color:red;"">2</div>","null","","","","","","","","","","","","",""
"html-keyboard-response","259","1015760","0.0-4.0-6.0-3.0","spark_pilot_norest","9460","2","16","Male","","","","","","","null","<div style=""font-size:200px;color:red;"">1</div>","null","","","","","","","","","","","","",""
"revaluation","260","1016568","0.0-4.0-7.0-0.0","spark_pilot_norest","9460","2","16","Male","","","false","","","","[806.1999999880791]","./assets/img/ocean/test/3.jpg","[""ArrowUp""]","first stage test","ocean","0","{""ArrowUp,ArrowLeft"":27,""ArrowUp,ArrowRight"":15,""ArrowDown,ArrowLeft"":21,""ArrowDown,ArrowRight"":7}","true","ArrowUp","false","revaluation","1","","","",""
"html-keyboard-response","261","1017068","0.0-4.0-7.0-1.0","spark_pilot_norest","9460","2","16","Male","","","","","","","null","<div style=""font-size:60px;"">+</div>","null","fixation","","","","","","","","","","","",""
"revaluation","262","1018506","0.0-4.0-7.0-0.1","spark_pilot_norest","9460","2","16","Male","","","false","","","","[1436.0999999940395]","./assets/img/ocean/test/1.jpg","[""ArrowDown""]","first stage test","ocean","0","{""ArrowUp,ArrowLeft"":27,""ArrowUp,ArrowRight"":15,""ArrowDown,ArrowLeft"":21,""ArrowDown,ArrowRight"":7}","false","ArrowDown","false","revaluation","1","","","",""
"html-keyboard-response","263","1019020","0.0-4.0-7.0-1.1","spark_pilot_norest","9460","2","16","Male","","","","","","","null","<div style=""font-size:60px;"">+</div>","null","fixation","","","","","","","","","","","",""
"revaluation","264","1020532","0.0-4.0-7.0-0.2","spark_pilot_norest","9460","2","16","Male","","","false","","","","[1510]","./assets/img/ocean/test/2.jpg","[""ArrowUp""]","first stage test","ocean","0","{""ArrowUp,ArrowLeft"":27,""ArrowUp,ArrowRight"":15,""ArrowDown,ArrowLeft"":21,""ArrowDown,ArrowRight"":7}","true","ArrowUp","false","revaluation","1","","","",""
"html-keyboard-response","265","1021033","0.0-4.0-7.0-1.2","spark_pilot_norest","9460","2","16","Male","","","","","","","null","<div style=""font-size:60px;"">+</div>","null","fixation","","","","","","","","","","","",""
"revaluation","266","1022861","0.0-4.0-7.0-0.3","spark_pilot_norest","9460","2","16","Male","","","false","","","","[1826.4000000059605]","./assets/img/ocean/test/0.jpg","[""ArrowUp""]","first stage test","ocean","0","{""ArrowUp,ArrowLeft"":27,""ArrowUp,ArrowRight"":15,""ArrowDown,ArrowLeft"":21,""ArrowDown,ArrowRight"":7}","true","ArrowUp","false","revaluation","1","","","",""
"html-keyboard-response","267","1023371","0.0-4.0-7.0-1.3","spark_pilot_norest","9460","2","16","Male","","","","","","","null","<div style=""font-size:60px;"">+</div>","null","fixation","","","","","","","","","","","",""
"learning-instructions","268","1036708","0.0-4.0-8.0-0.0","spark_pilot_norest","9460","2","16","Male","","","","","","","null","<p> Now you will see the animals again and can search their chests for treasure. </p>
            <p> This time, you will not see how much treasure you earned, but you will earn more bonus money for making better choices. </p>","","instructions","","","","","","","","","","","",""
"html-keyboard-response","269","1037710","0.0-4.0-9.0-0.0","spark_pilot_norest","9460","2","16","Male","","","","","","","null","<div style=""font-size:100px;color:red;"">Starting in...</div>","null","","","","","","","","","","","","",""
"html-keyboard-response","270","1038719","0.0-4.0-9.0-1.0","spark_pilot_norest","9460","2","16","Male","","","","","","","null","<div style=""font-size:200px;color:red;"">3</div>","null","","","","","","","","","","","","",""
"html-keyboard-response","271","1039721","0.0-4.0-9.0-2.0","spark_pilot_norest","9460","2","16","Male","","","","","","","null","<div style=""font-size:200px;color:red;"">2</div>","null","","","","","","","","","","","","",""
"html-keyboard-response","272","1040722","0.0-4.0-9.0-3.0","spark_pilot_norest","9460","2","16","Male","","","","","","","null","<div style=""font-size:200px;color:red;"">1</div>","null","","","","","","","","","","","","",""
"revaluation","273","1041421","0.0-4.0-10.0-0.0","spark_pilot_norest","9460","2","16","Male","","","false","","","","[698]","./assets/img/ocean/animals/octopus.jpg","[""ArrowRight""]","second stage test","ocean","0","{""ArrowUp,ArrowLeft"":27,""ArrowUp,ArrowRight"":15,""ArrowDown,ArrowLeft"":21,""ArrowDown,ArrowRight"":7}","false","ArrowUp,ArrowRight","","revaluation","1","","","",""
"html-keyboard-response","274","1041931","0.0-4.0-10.0-1.0","spark_pilot_norest","9460","2","16","Male","","","","","","","null","<div style=""font-size:60px;"">+</div>","null","fixation","","","","","","","","","","","",""
"revaluation","275","1042821","0.0-4.0-10.0-0.1","spark_pilot_norest","9460","2","16","Male","","","false","","","","[888.5]","./assets/img/ocean/animals/octopus.jpg","[""ArrowRight""]","second stage test","ocean","0","{""ArrowUp,ArrowLeft"":27,""ArrowUp,ArrowRight"":15,""ArrowDown,ArrowLeft"":21,""ArrowDown,ArrowRight"":7}","false","ArrowUp,ArrowRight","","revaluation","1","","","",""
"html-keyboard-response","276","1043324","0.0-4.0-10.0-1.1","spark_pilot_norest","9460","2","16","Male","","","","","","","null","<div style=""font-size:60px;"">+</div>","null","fixation","","","","","","","","","","","",""
"revaluation","277","1044261","0.0-4.0-10.0-0.2","spark_pilot_norest","9460","2","16","Male","","","false","","","","[935.4000000059605]","./assets/img/ocean/animals/octopus.jpg","[""ArrowLeft""]","second stage test","ocean","0","{""ArrowUp,ArrowLeft"":27,""ArrowUp,ArrowRight"":15,""ArrowDown,ArrowLeft"":21,""ArrowDown,ArrowRight"":7}","true","ArrowUp,ArrowLeft","","revaluation","1","","","",""
"html-keyboard-response","278","1044770","0.0-4.0-10.0-1.2","spark_pilot_norest","9460","2","16","Male","","","","","","","null","<div style=""font-size:60px;"">+</div>","null","fixation","","","","","","","","","","","",""
"revaluation","279","1045326","0.0-4.0-10.0-0.3","spark_pilot_norest","9460","2","16","Male","","","false","","","","[554.9000000059605]","./assets/img/ocean/animals/octopus.jpg","[""ArrowLeft""]","second stage test","ocean","0","{""ArrowUp,ArrowLeft"":27,""ArrowUp,ArrowRight"":15,""ArrowDown,ArrowLeft"":21,""ArrowDown,ArrowRight"":7}","true","ArrowUp,ArrowLeft","","revaluation","1","","","",""
"html-keyboard-response","280","1045830","0.0-4.0-10.0-1.3","spark_pilot_norest","9460","2","16","Male","","","","","","","null","<div style=""font-size:60px;"">+</div>","null","fixation","","","","","","","","","","","",""
"revaluation","281","1047209","0.0-4.0-10.0-0.4","spark_pilot_norest","9460","2","16","Male","","","false","","","","[1377.4000000059605]","./assets/img/ocean/animals/seahorse.jpg","[""ArrowRight""]","second stage test","ocean","0","{""ArrowUp,ArrowLeft"":27,""ArrowUp,ArrowRight"":15,""ArrowDown,ArrowLeft"":21,""ArrowDown,ArrowRight"":7}","false","ArrowDown,ArrowRight","","revaluation","1","","","",""
"html-keyboard-response","282","1047715","0.0-4.0-10.0-1.4","spark_pilot_norest","9460","2","16","Male","","","","","","","null","<div style=""font-size:60px;"">+</div>","null","fixation","","","","","","","","","","","",""
"revaluation","283","1048028","0.0-4.0-10.0-0.5","spark_pilot_norest","9460","2","16","Male","","","false","","","","[311.30000001192093]","./assets/img/ocean/animals/seahorse.jpg","[""ArrowRight""]","second stage test","ocean","0","{""ArrowUp,ArrowLeft"":27,""ArrowUp,ArrowRight"":15,""ArrowDown,ArrowLeft"":21,""ArrowDown,ArrowRight"":7}","false","ArrowDown,ArrowRight","","revaluation","1","","","",""
"html-keyboard-response","284","1048535","0.0-4.0-10.0-1.5","spark_pilot_norest","9460","2","16","Male","","","","","","","null","<div style=""font-size:60px;"">+</div>","null","fixation","","","","","","","","","","","",""
"revaluation","285","1049124","0.0-4.0-10.0-0.6","spark_pilot_norest","9460","2","16","Male","","","false","","","","[587.7999999821186]","./assets/img/ocean/animals/seahorse.jpg","[""ArrowLeft""]","second stage test","ocean","0","{""ArrowUp,ArrowLeft"":27,""ArrowUp,ArrowRight"":15,""ArrowDown,ArrowLeft"":21,""ArrowDown,ArrowRight"":7}","true","ArrowDown,ArrowLeft","","revaluation","1","","","",""
"html-keyboard-response","286","1049625","0.0-4.0-10.0-1.6","spark_pilot_norest","9460","2","16","Male","","","","","","","null","<div style=""font-size:60px;"">+</div>","null","fixation","","","","","","","","","","","",""
"revaluation","287","1050012","0.0-4.0-10.0-0.7","spark_pilot_norest","9460","2","16","Male","","","false","","","","[386.5]","./assets/img/ocean/animals/seahorse.jpg","[""ArrowLeft""]","second stage test","ocean","0","{""ArrowUp,ArrowLeft"":27,""ArrowUp,ArrowRight"":15,""ArrowDown,ArrowLeft"":21,""ArrowDown,ArrowRight"":7}","true","ArrowDown,ArrowLeft","","revaluation","1","","","",""
"html-keyboard-response","288","1050519","0.0-4.0-10.0-1.7","spark_pilot_norest","9460","2","16","Male","","","","","","","null","<div style=""font-size:60px;"">+</div>","null","fixation","","","","","","","","","","","",""
"learning-instructions","289","1054803","0.0-4.0-0.1-0.2","spark_pilot_norest","9460","2","16","Male","","","","","","","1534.199999988079","<p> This time you are searching for treasure in the <b>canyon</b>.</p>","","instructions","","","","","","","","","","","",""
"learning-instructions","290","1074973","0.0-4.0-0.1-0.3","spark_pilot_norest","9460","2","16","Male","","","","","","","2924.9000000059605","<p><b>New</b> animals with <b>new</b> treasure chests live here. You need to explore to discover where the animal with the best treasure chest is.</p>
                    <p> Like before, once you figure out which animal has the chest with the most treasure, you should try to get to that animal and select that chest! </p>","","instructions","","","","","","","","","","","",""
"learning-instructions","291","1092745","0.0-4.0-1.1-0.1","spark_pilot_norest","9460","2","16","Male","","","","","","","3046.9000000059605","<p> Remember, when you see a picture of the place, use the up and down keys to <b>find an animal</b>.</p>
            <p> When you encounter an animal, you should use the left and right keys to <b>select a treasure chest</b>.</p>
            <p> Don't forget to look out for the robber! </p>","","instructions","","","","","","","","","","","",""
"revaluation","292","1098754","0.0-4.0-2.1-0.50","spark_pilot_norest","9460","2","16","Male","","","false","","","","[869,475.90000000596046]","./assets/img/canyon/memory/22.jpg","[""ArrowUp"",""ArrowLeft""]","value training","canyon","26","{""ArrowUp,ArrowLeft"":26,""ArrowUp,ArrowRight"":10,""ArrowDown,ArrowLeft"":5,""ArrowDown,ArrowRight"":17}","true","ArrowUp,ArrowLeft","false","original","2","0","","",""
"html-keyboard-response","293","1099255","0.0-4.0-2.1-1.50","spark_pilot_norest","9460","2","16","Male","","","","","","","null","<div style=""font-size:60px;"">+</div>","null","fixation","","","","","","","","","1","","",""
"revaluation","294","1105285","0.0-4.0-2.1-0.51","spark_pilot_norest","9460","2","16","Male","","","false","","","","[486.5,479.90000000596046]","./assets/img/canyon/memory/39.jpg","[""ArrowDown"",""ArrowLeft""]","value training","canyon","5","{""ArrowUp,ArrowLeft"":26,""ArrowUp,ArrowRight"":10,""ArrowDown,ArrowLeft"":5,""ArrowDown,ArrowRight"":17}","false","ArrowDown,ArrowLeft","false","original","2","2","","",""
"html-keyboard-response","295","1105785","0.0-4.0-2.1-1.51","spark_pilot_norest","9460","2","16","Male","","","","","","","null","<div style=""font-size:60px;"">+</div>","null","fixation","","","","","","","","","3","","",""
"revaluation","296","1111808","0.0-4.0-2.1-0.52","spark_pilot_norest","9460","2","16","Male","","","false","","","","[629,320]","./assets/img/canyon/memory/24.jpg","[""ArrowDown"",""ArrowRight""]","value training","canyon","17","{""ArrowUp,ArrowLeft"":26,""ArrowUp,ArrowRight"":10,""ArrowDown,ArrowLeft"":5,""ArrowDown,ArrowRight"":17}","false","ArrowDown,ArrowRight","false","original","2","4","","",""
"html-keyboard-response","297","1112309","0.0-4.0-2.1-1.52","spark_pilot_norest","9460","2","16","Male","","","","","","","null","<div style=""font-size:60px;"">+</div>","null","fixation","","","","","","","","","5","","",""
"revaluation","298","1116330","0.0-4.0-2.1-0.53","spark_pilot_norest","9460","2","16","Male","","","false","","","","[40.400000005960464]","./assets/img/canyon/catch/2.jpg","[""ArrowUp""]","value training","canyon","-10","{""ArrowUp,ArrowLeft"":26,""ArrowUp,ArrowRight"":10,""ArrowDown,ArrowLeft"":5,""ArrowDown,ArrowRight"":17}","false","ArrowUp","true","original","2","6","","",""
"html-keyboard-response","299","1116843","0.0-4.0-2.1-1.53","spark_pilot_norest","9460","2","16","Male","","","","","","","null","<div style=""font-size:60px;"">+</div>","null","fixation","","","","","","","","","7","","",""
"revaluation","300","1120858","0.0-4.0-2.1-0.54","spark_pilot_norest","9460","2","16","Male","","","false","","","","[747]","./assets/img/canyon/catch/5.jpg","[""spaceBar""]","value training","canyon","0","{""ArrowUp,ArrowLeft"":26,""ArrowUp,ArrowRight"":10,""ArrowDown,ArrowLeft"":5,""ArrowDown,ArrowRight"":17}","true","spaceBar","true","original","2","8","","",""
"html-keyboard-response","301","1121359","0.0-4.0-2.1-1.54","spark_pilot_norest","9460","2","16","Male","","","","","","","null","<div style=""font-size:60px;"">+</div>","null","fixation","","","","","","","","","9","","",""
"revaluation","302","1125363","0.0-4.0-2.1-0.55","spark_pilot_norest","9460","2","16","Male","","","false","","","","[651.7999999821186]","./assets/img/canyon/catch/0.jpg","[""spaceBar""]","value training","canyon","0","{""ArrowUp,ArrowLeft"":26,""ArrowUp,ArrowRight"":10,""ArrowDown,ArrowLeft"":5,""ArrowDown,ArrowRight"":17}","true","spaceBar","true","original","2","10","","",""
"html-keyboard-response","303","1125863","0.0-4.0-2.1-1.55","spark_pilot_norest","9460","2","16","Male","","","","","","","null","<div style=""font-size:60px;"">+</div>","null","fixation","","","","","","","","","11","","",""
"revaluation","304","1131868","0.0-4.0-2.1-0.56","spark_pilot_norest","9460","2","16","Male","","","false","","","","[502.69999998807907,355.90000000596046]","./assets/img/canyon/memory/29.jpg","[""ArrowUp"",""ArrowRight""]","value training","canyon","10","{""ArrowUp,ArrowLeft"":26,""ArrowUp,ArrowRight"":10,""ArrowDown,ArrowLeft"":5,""ArrowDown,ArrowRight"":17}","false","ArrowUp,ArrowRight","false","original","2","12","","",""
"html-keyboard-response","305","1132370","0.0-4.0-2.1-1.56","spark_pilot_norest","9460","2","16","Male","","","","","","","null","<div style=""font-size:60px;"">+</div>","null","fixation","","","","","","","","","13","","",""
"revaluation","306","1138374","0.0-4.0-2.1-0.57","spark_pilot_norest","9460","2","16","Male","","","false","","","","[798.5,503.59999999403954]","./assets/img/canyon/memory/30.jpg","[""ArrowUp"",""ArrowLeft""]","value training","canyon","26","{""ArrowUp,ArrowLeft"":26,""ArrowUp,ArrowRight"":10,""ArrowDown,ArrowLeft"":5,""ArrowDown,ArrowRight"":17}","true","ArrowUp,ArrowLeft","false","original","2","14","","",""
"html-keyboard-response","307","1138875","0.0-4.0-2.1-1.57","spark_pilot_norest","9460","2","16","Male","","","","","","","null","<div style=""font-size:60px;"">+</div>","null","fixation","","","","","","","","","15","","",""
"revaluation","308","1144879","0.0-4.0-2.1-0.58","spark_pilot_norest","9460","2","16","Male","","","false","","","","[481,290.59999999403954]","./assets/img/canyon/memory/10.jpg","[""ArrowUp"",""ArrowLeft""]","value training","canyon","26","{""ArrowUp,ArrowLeft"":26,""ArrowUp,ArrowRight"":10,""ArrowDown,ArrowLeft"":5,""ArrowDown,ArrowRight"":17}","true","ArrowUp,ArrowLeft","false","original","2","16","","",""
"html-keyboard-response","309","1145379","0.0-4.0-2.1-1.58","spark_pilot_norest","9460","2","16","Male","","","","","","","null","<div style=""font-size:60px;"">+</div>","null","fixation","","","","","","","","","17","","",""
