"trial_type","trial_index","time_elapsed","internal_node_id","task_version","subject_id","assigned_condition","age","gender","success","timeout","failed_images","failed_audio","failed_video","browser_interaction","rt","stimulus","response","task_part","environment","score","rewardMap","correct","fullState","isCatch","condition","order","trial_num","key_press","ground_truth","bonus"
"pavlovia","0","1665","0.0-0.0","spark_pilot_norest","9160","5","15","Male","","","","","","","","","","","","","","","","","","","","","",""
"preload","1","50836","0.0-1.0","spark_pilot_norest","9160","5","15","Male","true","false","[]","[]","[]","[{""event"":""fullscreenenter"",""trial"":2,""time"":54891}]","","","","","","","","","","","","","","","",""
"fullscreen","2","55888","0.0-2.0","spark_pilot_norest","9160","5","15","Male","true","","","","","","","","","","","","","","","","","","","","",""
"audio-button-response","3","57901","0.0-3.0-0.0-0.0","spark_pilot_norest","9160","5","15","Male","","","","","","","1817","./assets/audio/audiotest/turtle.mp3","2","audio_test","","","","","","","","","","","",""
"learning-instructions","4","69268","0.0-3.0-1.0-0.0","spark_pilot_norest","9160","5","15","Male","","","","","","","4378.89999999851","<p> Welcome! Please remember to stay in fullscreen mode and don't click away from the experiment. </p>","","instructions","","","","","","","","","","","",""
"learning-instructions","5","87657","0.0-3.0-1.0-0.1","spark_pilot_norest","9160","5","15","Male","","","","","","","9948.30000000447","<p> Today you will be playing a game to earn treasure. </p>
            <p> At the end of the experiment, you will earn a bonus based on how much treasure you find. </p>
            <img src='./assets/img/instructions/treasure.jpg' class='instructions-image'>","","instructions","","","","","","","","","","","",""
"learning-instructions","6","100314","0.0-3.0-1.0-0.2","spark_pilot_norest","9160","5","15","Male","","","","","","","4372.30000000447","<p> Animals have hidden treasure in treasure chests. </p>
            <p> You need to first find an animal and then choose which of their treasure chests to search. </p>
            <img src='./assets/img/space/animals/cat.jpg' class='instructions-image'>","","instructions","","","","","","","","","","","",""
"learning-instructions","7","114541","0.0-3.0-1.0-0.3","spark_pilot_norest","9160","5","15","Male","","","","","","","1033.3999999985099","<p> In each round, you will search for treasure in a different place. In the real game, there will be two rounds. </p>
            <p> You will begin with a separate, practice round where you will search for treasure in outer space. </p>
            <img src='./assets/img/space/0.jpg' class='instructions-image'>","","instructions","","","","","","","","","","","",""
"learning-instructions","8","126729","0.0-3.0-1.0-0.4","spark_pilot_norest","9160","5","15","Male","","","","","","","746.7999999970198","<p> On every turn, you will see a picture of the place that you are in, but the specific image may be different each time. </p>
            <p> For example, both of these images mean you are in outer space. </p>
            <img src='./assets/img/instructions/outerspace.jpg' class='instructions-image'>","","instructions","","","","","","","","","","","",""
"learning-instructions","9","135673","0.0-3.0-1.0-0.5","spark_pilot_norest","9160","5","15","Male","","","","","","","1098.7000000029802","<p> You need to decide which direction to travel in. </p>
            <p> You can choose between going <b>up or down</b> by using the arrow keys. </p>
            <img src='./assets/img/instructions/updown.jpg' class='instructions-image'>","","instructions","","","","","","","","","","","",""
"learning-instructions","10","145177","0.0-3.0-1.0-0.6","spark_pilot_norest","9160","5","15","Male","","","","","","","676.3999999985099","<p> You will have <b>2 seconds</b> to make your choice. </p>
            <p> If you do not make a choice within 2 seconds, you will not find an animal or earn treasure. </p>
            <img src='./assets/img/instructions/2seconds.jpg' class='instructions-image'>","","instructions","","","","","","","","","","","",""
"learning-instructions","11","153099","0.0-3.0-1.0-0.7","spark_pilot_norest","9160","5","15","Male","","","","","","","877.2999999970198","<p> Let’s try practicing that now! </p>
            <p> When you see a picture of the place you are in, press the <b>up</b> key to travel up. </p>
            <img src='./assets/img/instructions/pressUp.jpg' class='instructions-image'>","","instructions","","","","","","","","","","","",""
"revaluation","12","157115","0.0-3.0-2.0-0.0","spark_pilot_norest","9160","5","15","Male","","false","","","","","[1545.2000000029802]","./assets/img/space/0.jpg","[""ArrowUp""]","first stage practice","space","0","null","null","ArrowUp","false","","","","","",""
"html-keyboard-response","13","157625","0.0-3.0-2.0-1.0","spark_pilot_norest","9160","5","15","Male","","","","","","","null","<div style=""font-size:60px;"">+</div>","null","fixation","","","","","","","","","","","",""
"revaluation","14","161640","0.0-3.0-2.0-0.1","spark_pilot_norest","9160","5","15","Male","","false","","","","","[490.5]","./assets/img/space/1.jpg","[""ArrowUp""]","first stage practice","space","0","null","null","ArrowUp","false","","","","","",""
"html-keyboard-response","15","162145","0.0-3.0-2.0-1.1","spark_pilot_norest","9160","5","15","Male","","","","","","","null","<div style=""font-size:60px;"">+</div>","null","fixation","","","","","","","","","","","",""
"revaluation","16","166159","0.0-3.0-2.0-0.2","spark_pilot_norest","9160","5","15","Male","","true","","","","","[]","./assets/img/space/2.jpg","[]","first stage practice","space","-5","null","null","","false","","","","","",""
"html-keyboard-response","17","166663","0.0-3.0-2.0-1.2","spark_pilot_norest","9160","5","15","Male","","","","","","","null","<div style=""font-size:60px;"">+</div>","null","fixation","","","","","","","","","","","",""
"learning-instructions","18","172173","0.0-3.0-3.0-0.0","spark_pilot_norest","9160","5","15","Male","","","","","","","801.2000000029802","<p> Great job! Now try pressing the <b>down</b> key to travel down. </p>
            <img src='./assets/img/instructions/pressDown.jpg' class='instructions-image'>","","instructions","","","","","","","","","","","",""
"revaluation","19","176184","0.0-3.0-4.0-0.0","spark_pilot_norest","9160","5","15","Male","","false","","","","","[734.3999999985099]","./assets/img/space/3.jpg","[""ArrowDown""]","first stage practice","space","0","null","null","ArrowDown","false","","","","","",""
"html-keyboard-response","20","176688","0.0-3.0-4.0-1.0","spark_pilot_norest","9160","5","15","Male","","","","","","","null","<div style=""font-size:60px;"">+</div>","null","fixation","","","","","","","","","","","",""
"revaluation","21","180704","0.0-3.0-4.0-0.1","spark_pilot_norest","9160","5","15","Male","","false","","","","","[389.20000000298023]","./assets/img/space/4.jpg","[""ArrowDown""]","first stage practice","space","0","null","null","ArrowDown","false","","","","","",""
"html-keyboard-response","22","181211","0.0-3.0-4.0-1.1","spark_pilot_norest","9160","5","15","Male","","","","","","","null","<div style=""font-size:60px;"">+</div>","null","fixation","","","","","","","","","","","",""
"revaluation","23","185223","0.0-3.0-4.0-0.2","spark_pilot_norest","9160","5","15","Male","","false","","","","","[1626.7999999970198]","./assets/img/space/5.jpg","[""ArrowDown""]","first stage practice","space","0","null","null","ArrowDown","false","","","","","",""
"html-keyboard-response","24","185727","0.0-3.0-4.0-1.2","spark_pilot_norest","9160","5","15","Male","","","","","","","null","<div style=""font-size:60px;"">+</div>","null","fixation","","","","","","","","","","","",""
"learning-instructions","25","196669","0.0-3.0-5.0-0.0","spark_pilot_norest","9160","5","15","Male","","","","","","","1073.3999999985099","<p> The animals don’t move, so the animal in the upper part of a place will stay in the upper part of a place, and the animal in the lower part of a place will stay in the lower part of a place. </p>","","instructions","","","","","","","","","","","",""
"learning-instructions","26","206233","0.0-3.0-5.0-0.1","spark_pilot_norest","9160","5","15","Male","","","","","","","420.1000000014901","<p> Each animal has two treasure chests for you to choose from. </p>
            <p> The amount of treasure in each chest can range from <b> 0 to 40 pieces.</b></p>","","instructions","","","","","","","","","","","",""
"learning-instructions","27","219619","0.0-3.0-5.0-0.2","spark_pilot_norest","9160","5","15","Male","","","","","","","2184.5","<p> You should decide which chest to search for treasure by using the <b>left</b> and <b>right</b> arrow keys. </p>
            <p><b> Pay attention to which animal is on the screen, as the animals have different treasure chests. </b></p>
            <img src='./assets/img/instructions/leftright.jpg' class='instructions-image'>","","instructions","","","","","","","","","","","",""
"learning-instructions","28","228173","0.0-3.0-5.0-0.3","spark_pilot_norest","9160","5","15","Male","","","","","","","2176","<p> Let’s try practicing that now. </p>
            <p> When you see an animal, choose which chest to search for treasure. </p>
            <img src='./assets/img/instructions/chooseChest.jpg' class='instructions-image'>","","instructions","","","","","","","","","","","",""
"revaluation","29","232179","0.0-3.0-6.0-0.0","spark_pilot_norest","9160","5","15","Male","","false","","","","","[672.5]","./assets/img/space/animals/cat.jpg","[""ArrowLeft""]","second stage practice","space","3","{""ArrowUp,ArrowLeft"":3,""ArrowUp,ArrowRight"":36,""ArrowDown,ArrowLeft"":15,""ArrowDown,ArrowRight"":23}","false","ArrowUp,ArrowLeft","","","","","","",""
"html-keyboard-response","30","232683","0.0-3.0-6.0-1.0","spark_pilot_norest","9160","5","15","Male","","","","","","","null","<div style=""font-size:60px;"">+</div>","null","fixation","","","","","","","","","","","",""
"revaluation","31","236696","0.0-3.0-6.0-0.1","spark_pilot_norest","9160","5","15","Male","","false","","","","","[347]","./assets/img/space/animals/rabbit.jpg","[""ArrowRight""]","second stage practice","space","23","{""ArrowUp,ArrowLeft"":3,""ArrowUp,ArrowRight"":36,""ArrowDown,ArrowLeft"":15,""ArrowDown,ArrowRight"":23}","true","ArrowDown,ArrowRight","","","","","","",""
"html-keyboard-response","32","237199","0.0-3.0-6.0-1.1","spark_pilot_norest","9160","5","15","Male","","","","","","","null","<div style=""font-size:60px;"">+</div>","null","fixation","","","","","","","","","","","",""
"revaluation","33","241217","0.0-3.0-6.0-0.2","spark_pilot_norest","9160","5","15","Male","","false","","","","","[916]","./assets/img/space/animals/cat.jpg","[""ArrowRight""]","second stage practice","space","36","{""ArrowUp,ArrowLeft"":3,""ArrowUp,ArrowRight"":36,""ArrowDown,ArrowLeft"":15,""ArrowDown,ArrowRight"":23}","true","ArrowUp,ArrowRight","","","","","","",""
"html-keyboard-response","34","241719","0.0-3.0-6.0-1.2","spark_pilot_norest","9160","5","15","Male","","","","","","","null","<div style=""font-size:60px;"">+</div>","null","fixation","","","","","","","","","","","",""
"revaluation","35","245732","0.0-3.0-6.0-0.3","spark_pilot_norest","9160","5","15","Male","","false","","","","","[220.89999999850988]","./assets/img/space/animals/rabbit.jpg","[""ArrowLeft""]","second stage practice","space","15","{""ArrowUp,ArrowLeft"":3,""ArrowUp,ArrowRight"":36,""ArrowDown,ArrowLeft"":15,""ArrowDown,ArrowRight"":23}","false","ArrowDown,ArrowLeft","","","","","","",""
"html-keyboard-response","36","246232","0.0-3.0-6.0-1.3","spark_pilot_norest","9160","5","15","Male","","","","","","","null","<div style=""font-size:60px;"">+</div>","null","fixation","","","","","","","","","","","",""
"learning-instructions","37","264427","0.0-3.0-7.0-0.0","spark_pilot_norest","9160","5","15","Male","","","","","","","1336.2999999970198","<p> Great job. Now let’s try putting it together. </p>
            <p> On each turn, you will first see a picture to remind you of the place you are in, and you need to choose whether to go up or down. </p>
            <p> Then you will see an animal and choose which of its chests to search for treasure. </p>","","instructions","","","","","","","","","","","",""
"learning-instructions","38","273269","0.0-3.0-7.0-0.1","spark_pilot_norest","9160","5","15","Male","","","","","","","553.5","<p> When you choose whether to go up or down, try to go to the animal with the chest with the most treasure. </p>
            <p> Try practicing that now! </p>","","instructions","","","","","","","","","","","",""
"revaluation","39","279279","0.0-3.0-8.0-0.0","spark_pilot_norest","9160","5","15","Male","","false","","","","","[1359.5,461.5]","./assets/img/space/6.jpg","[""ArrowUp"",""ArrowRight""]","full practice","space","36","{""ArrowUp,ArrowLeft"":3,""ArrowUp,ArrowRight"":36,""ArrowDown,ArrowLeft"":15,""ArrowDown,ArrowRight"":23}","true","ArrowUp,ArrowRight","false","","","","","",""
"html-keyboard-response","40","279784","0.0-3.0-8.0-1.0","spark_pilot_norest","9160","5","15","Male","","","","","","","null","<div style=""font-size:60px;"">+</div>","null","fixation","","","","","","","","","","","",""
"revaluation","41","285799","0.0-3.0-8.0-0.1","spark_pilot_norest","9160","5","15","Male","","false","","","","","[269.90000000596046,343.80000000447035]","./assets/img/space/7.jpg","[""ArrowUp"",""ArrowRight""]","full practice","space","36","{""ArrowUp,ArrowLeft"":3,""ArrowUp,ArrowRight"":36,""ArrowDown,ArrowLeft"":15,""ArrowDown,ArrowRight"":23}","true","ArrowUp,ArrowRight","false","","","","","",""
"html-keyboard-response","42","286304","0.0-3.0-8.0-1.1","spark_pilot_norest","9160","5","15","Male","","","","","","","null","<div style=""font-size:60px;"">+</div>","null","fixation","","","","","","","","","","","",""
"revaluation","43","292331","0.0-3.0-8.0-0.2","spark_pilot_norest","9160","5","15","Male","","false","","","","","[278.6000000014901,421.69999999552965]","./assets/img/space/8.jpg","[""ArrowUp"",""ArrowRight""]","full practice","space","36","{""ArrowUp,ArrowLeft"":3,""ArrowUp,ArrowRight"":36,""ArrowDown,ArrowLeft"":15,""ArrowDown,ArrowRight"":23}","true","ArrowUp,ArrowRight","false","","","","","",""
"html-keyboard-response","44","292831","0.0-3.0-8.0-1.2","spark_pilot_norest","9160","5","15","Male","","","","","","","null","<div style=""font-size:60px;"">+</div>","null","fixation","","","","","","","","","","","",""
"revaluation","45","298849","0.0-3.0-8.0-0.3","spark_pilot_norest","9160","5","15","Male","","false","","","","","[214.29999999701977,444.29999999701977]","./assets/img/space/9.jpg","[""ArrowUp"",""ArrowRight""]","full practice","space","36","{""ArrowUp,ArrowLeft"":3,""ArrowUp,ArrowRight"":36,""ArrowDown,ArrowLeft"":15,""ArrowDown,ArrowRight"":23}","true","ArrowUp,ArrowRight","false","","","","","",""
"html-keyboard-response","46","299351","0.0-3.0-8.0-1.3","spark_pilot_norest","9160","5","15","Male","","","","","","","null","<div style=""font-size:60px;"">+</div>","null","fixation","","","","","","","","","","","",""
"revaluation","47","305375","0.0-3.0-8.0-0.4","spark_pilot_norest","9160","5","15","Male","","false","","","","","[684.6000000014901,974.5]","./assets/img/space/10.jpg","[""ArrowUp"",""ArrowLeft""]","full practice","space","3","{""ArrowUp,ArrowLeft"":3,""ArrowUp,ArrowRight"":36,""ArrowDown,ArrowLeft"":15,""ArrowDown,ArrowRight"":23}","false","ArrowUp,ArrowLeft","false","","","","","",""
"html-keyboard-response","48","305880","0.0-3.0-8.0-1.4","spark_pilot_norest","9160","5","15","Male","","","","","","","null","<div style=""font-size:60px;"">+</div>","null","fixation","","","","","","","","","","","",""
"learning-instructions","49","317007","0.0-3.0-9.0-0.0","spark_pilot_norest","9160","5","15","Male","","","","","","","798","<p> One last thing: sometimes, you will see a robber. The robber can be anywhere in the picture. </p>
            <p> If you do not stop them, you will lose treasure. </p>
            <img src='./assets/img/instructions/robber.jpg' class='instructions-image'>","","instructions","","","","","","","","","","","",""
"learning-instructions","50","324711","0.0-3.0-9.0-0.1","spark_pilot_norest","9160","5","15","Male","","","","","","","532","<p> If you see the robber, you should <b>press the space bar</b> rather than using the arrow keys. </p>
            <p> Try practicing that now! </p>","","instructions","","","","","","","","","","","",""
"revaluation","51","328728","0.0-3.0-10.0-0.0","spark_pilot_norest","9160","5","15","Male","","false","","","","","[1084.3999999985099]","./assets/img/space/catch/0.jpg","[""spaceBar""]","catch practice","space","0","{""ArrowUp,ArrowLeft"":3,""ArrowUp,ArrowRight"":36,""ArrowDown,ArrowLeft"":15,""ArrowDown,ArrowRight"":23}","true","spaceBar","true","","","","","",""
"html-keyboard-response","52","329231","0.0-3.0-10.0-1.0","spark_pilot_norest","9160","5","15","Male","","","","","","","null","<div style=""font-size:60px;"">+</div>","null","fixation","","","","","","","","","","","",""
"revaluation","53","333247","0.0-3.0-10.0-0.1","spark_pilot_norest","9160","5","15","Male","","false","","","","","[809.1999999955297]","./assets/img/space/catch/1.jpg","[""spaceBar""]","catch practice","space","0","{""ArrowUp,ArrowLeft"":3,""ArrowUp,ArrowRight"":36,""ArrowDown,ArrowLeft"":15,""ArrowDown,ArrowRight"":23}","true","spaceBar","true","","","","","",""
"html-keyboard-response","54","333751","0.0-3.0-10.0-1.1","spark_pilot_norest","9160","5","15","Male","","","","","","","null","<div style=""font-size:60px;"">+</div>","null","fixation","","","","","","","","","","","",""
"revaluation","55","337768","0.0-3.0-10.0-0.2","spark_pilot_norest","9160","5","15","Male","","false","","","","","[399.90000000596046]","./assets/img/space/catch/2.jpg","[""spaceBar""]","catch practice","space","0","{""ArrowUp,ArrowLeft"":3,""ArrowUp,ArrowRight"":36,""ArrowDown,ArrowLeft"":15,""ArrowDown,ArrowRight"":23}","true","spaceBar","true","","","","","",""
"html-keyboard-response","56","338271","0.0-3.0-10.0-1.2","spark_pilot_norest","9160","5","15","Male","","","","","","","null","<div style=""font-size:60px;"">+</div>","null","fixation","","","","","","","","","","","",""
"learning-instructions","57","344391","0.0-3.0-11.0-0.0-0.0","spark_pilot_norest","9160","5","15","Male","","","","","","","869.7000000029802","<p> Now, you will practice a shortened version of the game to get a sense of how it all fits together. </p>","","instructions","","","","","","","","","","","",""
"learning-instructions","58","348805","0.0-3.0-11.0-0.0-0.1","spark_pilot_norest","9160","5","15","Male","","","","","","","1220.2000000029802","<p>This time you are searching for treasure in outer space.</p>","","instructions","","","","","","","","","","","",""
"learning-instructions","59","364199","0.0-3.0-11.0-1.0-0.0","spark_pilot_norest","9160","5","15","Male","","","","","","","598.3000000044703","<p> Remember, when you see a picture of the place, use the up and down keys to <b>find an animal</b>.</p>
            <p> When you encounter an animal, you should use the left and right keys to <b>select a treasure chest</b>.</p>
            <p> Don't forget to look out for the robber! </p>","","instructions","","","","","","","","","","","",""
"revaluation","60","370224","0.0-3.0-11.0-2.0-0.0","spark_pilot_norest","9160","5","15","Male","","false","","","","","[1244.3000000044703,422.29999999701977]","./assets/img/space/11.jpg","[""ArrowUp"",""ArrowRight""]","practice block","space","36","{""ArrowUp,ArrowLeft"":3,""ArrowUp,ArrowRight"":36,""ArrowDown,ArrowLeft"":15,""ArrowDown,ArrowRight"":23}","true","ArrowUp,ArrowRight","false","","","","","",""
"html-keyboard-response","61","370729","0.0-3.0-11.0-2.0-1.0","spark_pilot_norest","9160","5","15","Male","","","","","","","null","<div style=""font-size:60px;"">+</div>","null","fixation","","","","","","","","","","","",""
"revaluation","62","376754","0.0-3.0-11.0-2.0-0.1","spark_pilot_norest","9160","5","15","Male","","false","","","","","[414.1000000014901,491.8999999985099]","./assets/img/space/12.jpg","[""ArrowUp"",""ArrowRight""]","practice block","space","36","{""ArrowUp,ArrowLeft"":3,""ArrowUp,ArrowRight"":36,""ArrowDown,ArrowLeft"":15,""ArrowDown,ArrowRight"":23}","true","ArrowUp,ArrowRight","false","","","","","",""
"html-keyboard-response","63","377263","0.0-3.0-11.0-2.0-1.1","spark_pilot_norest","9160","5","15","Male","","","","","","","null","<div style=""font-size:60px;"">+</div>","null","fixation","","","","","","","","","","","",""
"revaluation","64","383288","0.0-3.0-11.0-2.0-0.2","spark_pilot_norest","9160","5","15","Male","","false","","","","","[854.6999999955297,285.3999999985099]","./assets/img/space/13.jpg","[""ArrowUp"",""ArrowRight""]","practice block","space","36","{""ArrowUp,ArrowLeft"":3,""ArrowUp,ArrowRight"":36,""ArrowDown,ArrowLeft"":15,""ArrowDown,ArrowRight"":23}","true","ArrowUp,ArrowRight","false","","","","","",""
"html-keyboard-response","65","383792","0.0-3.0-11.0-2.0-1.2","spark_pilot_norest","9160","5","15","Male","","","","","","","null","<div style=""font-size:60px;"">+</div>","null","fixation","","","","","","","","","","","",""
"revaluation","66","389816","0.0-3.0-11.0-2.0-0.3","spark_pilot_norest","9160","5","15","Male","","false","","","","","[942.1000000014901,507.70000000298023]","./assets/img/space/14.jpg","[""ArrowUp"",""ArrowRight""]","practice block","space","36","{""ArrowUp,ArrowLeft"":3,""ArrowUp,ArrowRight"":36,""ArrowDown,ArrowLeft"":15,""ArrowDown,ArrowRight"":23}","true","ArrowUp,ArrowRight","false","","","","","",""
"html-keyboard-response","67","390319","0.0-3.0-11.0-2.0-1.3","spark_pilot_norest","9160","5","15","Male","","","","","","","null","<div style=""font-size:60px;"">+</div>","null","fixation","","","","","","","","","","","",""
"revaluation","68","396346","0.0-3.0-11.0-2.0-0.4","spark_pilot_norest","9160","5","15","Male","","false","","","","","[1104.7000000029802,265.69999999552965]","./assets/img/space/11.jpg","[""ArrowUp"",""ArrowRight""]","practice block","space","36","{""ArrowUp,ArrowLeft"":3,""ArrowUp,ArrowRight"":36,""ArrowDown,ArrowLeft"":15,""ArrowDown,ArrowRight"":23}","true","ArrowUp,ArrowRight","false","","","","","",""
"html-keyboard-response","69","396857","0.0-3.0-11.0-2.0-1.4","spark_pilot_norest","9160","5","15","Male","","","","","","","null","<div style=""font-size:60px;"">+</div>","null","fixation","","","","","","","","","","","",""
"revaluation","70","402881","0.0-3.0-11.0-2.0-0.5","spark_pilot_norest","9160","5","15","Male","","false","","","","","[1016.3000000044703,254]","./assets/img/space/12.jpg","[""ArrowUp"",""ArrowRight""]","practice block","space","36","{""ArrowUp,ArrowLeft"":3,""ArrowUp,ArrowRight"":36,""ArrowDown,ArrowLeft"":15,""ArrowDown,ArrowRight"":23}","true","ArrowUp,ArrowRight","false","","","","","",""
"html-keyboard-response","71","403385","0.0-3.0-11.0-2.0-1.5","spark_pilot_norest","9160","5","15","Male","","","","","","","null","<div style=""font-size:60px;"">+</div>","null","fixation","","","","","","","","","","","",""
"revaluation","72","409409","0.0-3.0-11.0-2.0-0.6","spark_pilot_norest","9160","5","15","Male","","false","","","","","[684.2000000029802,254.10000000149012]","./assets/img/space/13.jpg","[""ArrowUp"",""ArrowRight""]","practice block","space","36","{""ArrowUp,ArrowLeft"":3,""ArrowUp,ArrowRight"":36,""ArrowDown,ArrowLeft"":15,""ArrowDown,ArrowRight"":23}","true","ArrowUp,ArrowRight","false","","","","","",""
"html-keyboard-response","73","409913","0.0-3.0-11.0-2.0-1.6","spark_pilot_norest","9160","5","15","Male","","","","","","","null","<div style=""font-size:60px;"">+</div>","null","fixation","","","","","","","","","","","",""
"revaluation","74","415939","0.0-3.0-11.0-2.0-0.7","spark_pilot_norest","9160","5","15","Male","","false","","","","","[651.5,233.60000000149012]","./assets/img/space/14.jpg","[""ArrowUp"",""ArrowRight""]","practice block","space","36","{""ArrowUp,ArrowLeft"":3,""ArrowUp,ArrowRight"":36,""ArrowDown,ArrowLeft"":15,""ArrowDown,ArrowRight"":23}","true","ArrowUp,ArrowRight","false","","","","","",""
"html-keyboard-response","75","416450","0.0-3.0-11.0-2.0-1.7","spark_pilot_norest","9160","5","15","Male","","","","","","","null","<div style=""font-size:60px;"">+</div>","null","fixation","","","","","","","","","","","",""
"revaluation","76","420467","0.0-3.0-11.0-2.0-0.8","spark_pilot_norest","9160","5","15","Male","","false","","","","","[685.3999999985099]","./assets/img/space/catch/3.jpg","[""spaceBar""]","practice block","space","0","{""ArrowUp,ArrowLeft"":3,""ArrowUp,ArrowRight"":36,""ArrowDown,ArrowLeft"":15,""ArrowDown,ArrowRight"":23}","true","spaceBar","true","","","","","",""
"html-keyboard-response","77","420976","0.0-3.0-11.0-2.0-1.8","spark_pilot_norest","9160","5","15","Male","","","","","","","null","<div style=""font-size:60px;"">+</div>","null","fixation","","","","","","","","","","","",""
"learning-instructions","78","435031","0.0-3.0-11.0-3.0-0.0","spark_pilot_norest","9160","5","15","Male","","","","","","","1116.1000000014901","<p> Now, you will travel with a friend who will choose whether you go up or down first. </p>
            <p> On these turns, you will just see the animal that they found. You will still get to choose which chest to search for treasure.</p>","","instructions","","","","","","","","","","","",""
"revaluation","79","439050","0.0-3.0-11.0-4.0-0.0","spark_pilot_norest","9160","5","15","Male","","false","","","","","[1214.7999999970198]","./assets/img/space/animals/rabbit.jpg","[""ArrowRight""]","practice block","space","23","{""ArrowUp,ArrowLeft"":3,""ArrowUp,ArrowRight"":36,""ArrowDown,ArrowLeft"":15,""ArrowDown,ArrowRight"":23}","true","ArrowDown,ArrowRight","","","","","","",""
"html-keyboard-response","80","439558","0.0-3.0-11.0-4.0-1.0","spark_pilot_norest","9160","5","15","Male","","","","","","","null","<div style=""font-size:60px;"">+</div>","null","fixation","","","","","","","","","","","",""
"revaluation","81","443578","0.0-3.0-11.0-4.0-0.1","spark_pilot_norest","9160","5","15","Male","","false","","","","","[328.29999999701977]","./assets/img/space/animals/rabbit.jpg","[""ArrowRight""]","practice block","space","23","{""ArrowUp,ArrowLeft"":3,""ArrowUp,ArrowRight"":36,""ArrowDown,ArrowLeft"":15,""ArrowDown,ArrowRight"":23}","true","ArrowDown,ArrowRight","","","","","","",""
"html-keyboard-response","82","444083","0.0-3.0-11.0-4.0-1.1","spark_pilot_norest","9160","5","15","Male","","","","","","","null","<div style=""font-size:60px;"">+</div>","null","fixation","","","","","","","","","","","",""
"revaluation","83","448096","0.0-3.0-11.0-4.0-0.2","spark_pilot_norest","9160","5","15","Male","","false","","","","","[383.29999999701977]","./assets/img/space/animals/cat.jpg","[""ArrowRight""]","practice block","space","36","{""ArrowUp,ArrowLeft"":3,""ArrowUp,ArrowRight"":36,""ArrowDown,ArrowLeft"":15,""ArrowDown,ArrowRight"":23}","true","ArrowUp,ArrowRight","","","","","","",""
"html-keyboard-response","84","448599","0.0-3.0-11.0-4.0-1.2","spark_pilot_norest","9160","5","15","Male","","","","","","","null","<div style=""font-size:60px;"">+</div>","null","fixation","","","","","","","","","","","",""
"revaluation","85","452617","0.0-3.0-11.0-4.0-0.3","spark_pilot_norest","9160","5","15","Male","","false","","","","","[248.5]","./assets/img/space/animals/cat.jpg","[""ArrowRight""]","practice block","space","36","{""ArrowUp,ArrowLeft"":3,""ArrowUp,ArrowRight"":36,""ArrowDown,ArrowLeft"":15,""ArrowDown,ArrowRight"":23}","true","ArrowUp,ArrowRight","","","","","","",""
"html-keyboard-response","86","453120","0.0-3.0-11.0-4.0-1.3","spark_pilot_norest","9160","5","15","Male","","","","","","","null","<div style=""font-size:60px;"">+</div>","null","fixation","","","","","","","","","","","",""
"learning-instructions","87","461256","0.0-3.0-11.0-5.0-0.0","spark_pilot_norest","9160","5","15","Male","","","","","","","null","<p> You have almost finished this part of the game! </p>
            <p> We are going to ask you to make a few more choices. </p>","","instructions","","","","","","","","","","","",""
"learning-instructions","88","477329","0.0-3.0-11.0-5.0-0.1","spark_pilot_norest","9160","5","15","Male","","","","","","","null","<p> First, you need to decide whether to go up or down. When you see each picture, use the arrow keys to make your choice. </p>
            <p><b>You will not see which animal you found, but try to get to the one that will give you the most treasure.</b></p>","","instructions","","","","","","","","","","","",""
"html-keyboard-response","89","478335","0.0-3.0-11.0-6.0-0.0","spark_pilot_norest","9160","5","15","Male","","","","","","","null","<div style=""font-size:100px;color:red;"">Starting in...</div>","null","","","","","","","","","","","","",""
"html-keyboard-response","90","479345","0.0-3.0-11.0-6.0-1.0","spark_pilot_norest","9160","5","15","Male","","","","","","","null","<div style=""font-size:200px;color:red;"">3</div>","null","","","","","","","","","","","","",""
"html-keyboard-response","91","480353","0.0-3.0-11.0-6.0-2.0","spark_pilot_norest","9160","5","15","Male","","","","","","","null","<div style=""font-size:200px;color:red;"">2</div>","null","","","","","","","","","","","","",""
"html-keyboard-response","92","481359","0.0-3.0-11.0-6.0-3.0","spark_pilot_norest","9160","5","15","Male","","","","","","","null","<div style=""font-size:200px;color:red;"">1</div>","null","","","","","","","","","","","","",""
"revaluation","93","481972","0.0-3.0-11.0-7.0","spark_pilot_norest","9160","5","15","Male","","false","","","","","[611.5]","./assets/img/space/15.jpg","[""ArrowUp""]","practice block","space","0","{""ArrowUp,ArrowLeft"":3,""ArrowUp,ArrowRight"":36,""ArrowDown,ArrowLeft"":15,""ArrowDown,ArrowRight"":23}","true","ArrowUp","false","","","","","",""
"html-keyboard-response","94","482479","0.0-3.0-11.0-8.0","spark_pilot_norest","9160","5","15","Male","","","","","","","null","<div style=""font-size:60px;"">+</div>","null","fixation","","","","","","","","","","","",""
"learning-instructions","95","495881","0.0-3.0-11.0-9.0-0.0","spark_pilot_norest","9160","5","15","Male","","","","","","","null","<p> Now you will see the animals again and can search their chests for treasure. </p>
            <p> This time, you will not see how much treasure you earned, but you will earn more bonus money for making better choices. </p>","","instructions","","","","","","","","","","","",""
"html-keyboard-response","96","496887","0.0-3.0-11.0-10.0-0.0","spark_pilot_norest","9160","5","15","Male","","","","","","","null","<div style=""font-size:100px;color:red;"">Starting in...</div>","null","","","","","","","","","","","","",""
"html-keyboard-response","97","497897","0.0-3.0-11.0-10.0-1.0","spark_pilot_norest","9160","5","15","Male","","","","","","","null","<div style=""font-size:200px;color:red;"">3</div>","null","","","","","","","","","","","","",""
"html-keyboard-response","98","498905","0.0-3.0-11.0-10.0-2.0","spark_pilot_norest","9160","5","15","Male","","","","","","","null","<div style=""font-size:200px;color:red;"">2</div>","null","","","","","","","","","","","","",""
"html-keyboard-response","99","499912","0.0-3.0-11.0-10.0-3.0","spark_pilot_norest","9160","5","15","Male","","","","","","","null","<div style=""font-size:200px;color:red;"">1</div>","null","","","","","","","","","","","","",""
"revaluation","100","500601","0.0-3.0-11.0-11.0-0.0","spark_pilot_norest","9160","5","15","Male","","false","","","","","[687.6999999955297]","./assets/img/space/animals/cat.jpg","[""ArrowRight""]","practice block","space","0","{""ArrowUp,ArrowLeft"":3,""ArrowUp,ArrowRight"":36,""ArrowDown,ArrowLeft"":15,""ArrowDown,ArrowRight"":23}","true","ArrowUp,ArrowRight","","","","","","",""
"html-keyboard-response","101","501103","0.0-3.0-11.0-11.0-1.0","spark_pilot_norest","9160","5","15","Male","","","","","","","null","<div style=""font-size:60px;"">+</div>","null","fixation","","","","","","","","","","","",""
"revaluation","102","501711","0.0-3.0-11.0-11.0-0.1","spark_pilot_norest","9160","5","15","Male","","false","","","","","[606.5]","./assets/img/space/animals/rabbit.jpg","[""ArrowRight""]","practice block","space","0","{""ArrowUp,ArrowLeft"":3,""ArrowUp,ArrowRight"":36,""ArrowDown,ArrowLeft"":15,""ArrowDown,ArrowRight"":23}","true","ArrowDown,ArrowRight","","","","","","",""
"html-keyboard-response","103","502215","0.0-3.0-11.0-11.0-1.1","spark_pilot_norest","9160","5","15","Male","","","","","","","null","<div style=""font-size:60px;"">+</div>","null","fixation","","","","","","","","","","","",""
"learning-instructions","104","508809","0.0-3.0-12.0-0.0","spark_pilot_norest","9160","5","15","Male","","","","","","","1988.7999999970198","<p> Before you start, we're going to ask you a few questions about how the game works. </p>","","instructions","","","","","","","","","","","",""
"comp-q","105","515483","0.0-3.0-13.0-0.0-0.0","spark_pilot_norest","9160","5","15","Male","","","","","","","1079.8000000044703","<p> <b> True or False? </b> </p>
            <p> There can be 50 pieces of treasure in a given animal's chest. </p>","1","comp_question","","","","true","","","","","","","",""
"comp-q","106","522977","0.0-3.0-13.0-0.0-1.0","spark_pilot_norest","9160","5","15","Male","","","","","","","825.8000000044703","<p> <b> That's right! </b> The amount of treasure in each chest can range from 0 to 40 pieces. </p>","0","comp_answer","","","","","","","","","","","",""
"comp-q","107","530743","0.0-3.0-13.0-0.1-0.1","spark_pilot_norest","9160","5","15","Male","","","","","","","633.2000000029802","<p> <b> True or False? </b> </p><p> In this game, all animals have the same amount of treasure in their left and right chests. </p>","1","comp_question","","","","true","","","","","","","",""
"comp-q","108","536805","0.0-3.0-13.0-0.1-1.1","spark_pilot_norest","9160","5","15","Male","","","","","","","820.6000000014901","<p> <b> That's right! </b> Animals have different amounts of treasure in their treasure chests. </p>","0","comp_answer","","","","","","","","","","","",""
"comp-q","109","543894","0.0-3.0-13.0-0.2-0.2","spark_pilot_norest","9160","5","15","Male","","","","","","","1238.7000000029802","<p> <b> True or False? </b> </p><p> The same animal will always be there if you go up in the same place. </p>","0","comp_question","","","","true","","","","","","","",""
"comp-q","110","551091","0.0-3.0-13.0-0.2-1.2","spark_pilot_norest","9160","5","15","Male","","","","","","","745.1000000014901","<p> <b> That's right! </b> One animal lives in the upper part and one lives in the lower part of every place. </p>","0","comp_answer","","","","","","","","","","","",""
"comp-q","111","559285","0.0-3.0-13.0-0.3-0.3","spark_pilot_norest","9160","5","15","Male","","","","","","","2652.7000000029802","<p> <b> True or False? </b> </p><p> If you see a different picture, it means you are in a new place. </p>","1","comp_question","","","","true","","","","","","","",""
"comp-q","112","571764","0.0-3.0-13.0-0.3-1.3","spark_pilot_norest","9160","5","15","Male","","","","","","","1234.7000000029802","<p> <b> That's right! </b> Lots of different images may show the same place. For example,  you may see three different images that all remind you that you are in outer space. </p>","0","comp_answer","","","","","","","","","","","",""
"learning-instructions","113","582786","0.0-3.0-14.0-0.0","spark_pilot_norest","9160","5","15","Male","","","","","","","1122.2000000029802","<p> Good job. Remember to do your best because the amount of treasure you earn will be converted into bonus money. </p>
            <p> It’s time to start the real game! </p>","","instructions","","","","","","","","","","","",""
"learning-instructions","114","586029","0.0-4.0-0.0-0.0","spark_pilot_norest","9160","5","15","Male","","","","","","","377.5","<p> This time you are searching for treasure in the <b>canyon</b>.</p>","","instructions","","","","","","","","","","","",""
"learning-instructions","115","605601","0.0-4.0-0.0-0.1","spark_pilot_norest","9160","5","15","Male","","","","","","","2179.89999999851","<p><b>New</b> animals with <b>new</b> treasure chests live here. You need to explore to discover where the animal with the best treasure chest is.</p>
                    <p> Like before, once you figure out which animal has the chest with the most treasure, you should try to get to that animal and select that chest! </p>","","instructions","","","","","","","","","","","",""
"learning-instructions","116","621675","0.0-4.0-1.0-0.0","spark_pilot_norest","9160","5","15","Male","","","","","","","1344.3999999985099","<p> Remember, when you see a picture of the place, use the up and down keys to <b>find an animal</b>.</p>
            <p> When you encounter an animal, you should use the left and right keys to <b>select a treasure chest</b>.</p>
            <p> Don't forget to look out for the robber! </p>","","instructions","","","","","","","","","","","",""
"revaluation","117","627688","0.0-4.0-2.0-0.0","spark_pilot_norest","9160","5","15","Male","","false","","","","","[1087,362.79999999701977]","./assets/img/canyon/memory/21.jpg","[""ArrowUp"",""ArrowRight""]","value training","canyon","10","{""ArrowUp,ArrowLeft"":26,""ArrowUp,ArrowRight"":10,""ArrowDown,ArrowLeft"":5,""ArrowDown,ArrowRight"":17}","false","ArrowUp,ArrowRight","false","original","1","0","","",""
"html-keyboard-response","118","628192","0.0-4.0-2.0-1.0","spark_pilot_norest","9160","5","15","Male","","","","","","","null","<div style=""font-size:60px;"">+</div>","null","fixation","","","","","","","","","1","","",""
"revaluation","119","634207","0.0-4.0-2.0-0.1","spark_pilot_norest","9160","5","15","Male","","false","","","","","[229.60000000149012,384]","./assets/img/canyon/memory/37.jpg","[""ArrowUp"",""ArrowLeft""]","value training","canyon","26","{""ArrowUp,ArrowLeft"":26,""ArrowUp,ArrowRight"":10,""ArrowDown,ArrowLeft"":5,""ArrowDown,ArrowRight"":17}","true","ArrowUp,ArrowLeft","false","original","1","2","","",""
"html-keyboard-response","120","634711","0.0-4.0-2.0-1.1","spark_pilot_norest","9160","5","15","Male","","","","","","","null","<div style=""font-size:60px;"">+</div>","null","fixation","","","","","","","","","3","","",""
"revaluation","121","640735","0.0-4.0-2.0-0.2","spark_pilot_norest","9160","5","15","Male","","false","","","","","[85.60000000149012,315]","./assets/img/canyon/memory/31.jpg","[""ArrowDown"",""ArrowRight""]","value training","canyon","17","{""ArrowUp,ArrowLeft"":26,""ArrowUp,ArrowRight"":10,""ArrowDown,ArrowLeft"":5,""ArrowDown,ArrowRight"":17}","false","ArrowDown,ArrowRight","false","original","1","4","","",""
"html-keyboard-response","122","641240","0.0-4.0-2.0-1.2","spark_pilot_norest","9160","5","15","Male","","","","","","","null","<div style=""font-size:60px;"">+</div>","null","fixation","","","","","","","","","5","","",""
"revaluation","123","647263","0.0-4.0-2.0-0.3","spark_pilot_norest","9160","5","15","Male","","false","","","","","[172.90000000596046,355.5]","./assets/img/canyon/memory/35.jpg","[""ArrowDown"",""ArrowLeft""]","value training","canyon","5","{""ArrowUp,ArrowLeft"":26,""ArrowUp,ArrowRight"":10,""ArrowDown,ArrowLeft"":5,""ArrowDown,ArrowRight"":17}","false","ArrowDown,ArrowLeft","false","original","1","6","","",""
"html-keyboard-response","124","647767","0.0-4.0-2.0-1.3","spark_pilot_norest","9160","5","15","Male","","","","","","","null","<div style=""font-size:60px;"">+</div>","null","fixation","","","","","","","","","7","","",""
"revaluation","125","653792","0.0-4.0-2.0-0.4","spark_pilot_norest","9160","5","15","Male","","false","","","","","[231,516.5]","./assets/img/canyon/memory/21.jpg","[""ArrowUp"",""ArrowLeft""]","value training","canyon","26","{""ArrowUp,ArrowLeft"":26,""ArrowUp,ArrowRight"":10,""ArrowDown,ArrowLeft"":5,""ArrowDown,ArrowRight"":17}","true","ArrowUp,ArrowLeft","false","original","1","8","","",""
"html-keyboard-response","126","654297","0.0-4.0-2.0-1.4","spark_pilot_norest","9160","5","15","Male","","","","","","","null","<div style=""font-size:60px;"">+</div>","null","fixation","","","","","","","","","9","","",""
"revaluation","127","660322","0.0-4.0-2.0-0.5","spark_pilot_norest","9160","5","15","Male","","false","","","","","[526.3999999985099,292.29999999701977]","./assets/img/canyon/memory/40.jpg","[""ArrowUp"",""ArrowLeft""]","value training","canyon","26","{""ArrowUp,ArrowLeft"":26,""ArrowUp,ArrowRight"":10,""ArrowDown,ArrowLeft"":5,""ArrowDown,ArrowRight"":17}","true","ArrowUp,ArrowLeft","false","original","1","10","","",""
"html-keyboard-response","128","660833","0.0-4.0-2.0-1.5","spark_pilot_norest","9160","5","15","Male","","","","","","","null","<div style=""font-size:60px;"">+</div>","null","fixation","","","","","","","","","11","","",""
"revaluation","129","666850","0.0-4.0-2.0-0.6","spark_pilot_norest","9160","5","15","Male","","false","","","","","[530.7000000029802,330.3999999985099]","./assets/img/canyon/memory/16.jpg","[""ArrowUp"",""ArrowLeft""]","value training","canyon","26","{""ArrowUp,ArrowLeft"":26,""ArrowUp,ArrowRight"":10,""ArrowDown,ArrowLeft"":5,""ArrowDown,ArrowRight"":17}","true","ArrowUp,ArrowLeft","false","original","1","12","","",""
"html-keyboard-response","130","667361","0.0-4.0-2.0-1.6","spark_pilot_norest","9160","5","15","Male","","","","","","","null","<div style=""font-size:60px;"">+</div>","null","fixation","","","","","","","","","13","","",""
"revaluation","131","673384","0.0-4.0-2.0-0.7","spark_pilot_norest","9160","5","15","Male","","false","","","","","[752.1000000014901,276.79999999701977]","./assets/img/canyon/memory/7.jpg","[""ArrowUp"",""ArrowLeft""]","value training","canyon","26","{""ArrowUp,ArrowLeft"":26,""ArrowUp,ArrowRight"":10,""ArrowDown,ArrowLeft"":5,""ArrowDown,ArrowRight"":17}","true","ArrowUp,ArrowLeft","false","original","1","14","","",""
"html-keyboard-response","132","673888","0.0-4.0-2.0-1.7","spark_pilot_norest","9160","5","15","Male","","","","","","","null","<div style=""font-size:60px;"">+</div>","null","fixation","","","","","","","","","15","","",""
"revaluation","133","679914","0.0-4.0-2.0-0.8","spark_pilot_norest","9160","5","15","Male","","false","","","","","[929.2000000029802,333.80000000447035]","./assets/img/canyon/memory/39.jpg","[""ArrowUp"",""ArrowLeft""]","value training","canyon","26","{""ArrowUp,ArrowLeft"":26,""ArrowUp,ArrowRight"":10,""ArrowDown,ArrowLeft"":5,""ArrowDown,ArrowRight"":17}","true","ArrowUp,ArrowLeft","false","original","1","16","","",""
"html-keyboard-response","134","680419","0.0-4.0-2.0-1.8","spark_pilot_norest","9160","5","15","Male","","","","","","","null","<div style=""font-size:60px;"">+</div>","null","fixation","","","","","","","","","17","","",""
"revaluation","135","686438","0.0-4.0-2.0-0.9","spark_pilot_norest","9160","5","15","Male","","false","","","","","[610.5,285.79999999701977]","./assets/img/canyon/memory/9.jpg","[""ArrowUp"",""ArrowLeft""]","value training","canyon","26","{""ArrowUp,ArrowLeft"":26,""ArrowUp,ArrowRight"":10,""ArrowDown,ArrowLeft"":5,""ArrowDown,ArrowRight"":17}","true","ArrowUp,ArrowLeft","false","original","1","18","","",""
"html-keyboard-response","136","686943","0.0-4.0-2.0-1.9","spark_pilot_norest","9160","5","15","Male","","","","","","","null","<div style=""font-size:60px;"">+</div>","null","fixation","","","","","","","","","19","","",""
"revaluation","137","692970","0.0-4.0-2.0-0.10","spark_pilot_norest","9160","5","15","Male","","false","","","","","[597.3999999985099,253.89999999850988]","./assets/img/canyon/memory/38.jpg","[""ArrowUp"",""ArrowLeft""]","value training","canyon","26","{""ArrowUp,ArrowLeft"":26,""ArrowUp,ArrowRight"":10,""ArrowDown,ArrowLeft"":5,""ArrowDown,ArrowRight"":17}","true","ArrowUp,ArrowLeft","false","original","1","20","","",""
"html-keyboard-response","138","693473","0.0-4.0-2.0-1.10","spark_pilot_norest","9160","5","15","Male","","","","","","","null","<div style=""font-size:60px;"">+</div>","null","fixation","","","","","","","","","21","","",""
"revaluation","139","699498","0.0-4.0-2.0-0.11","spark_pilot_norest","9160","5","15","Male","","false","","","","","[667.4000000059605,266.5]","./assets/img/canyon/memory/10.jpg","[""ArrowUp"",""ArrowLeft""]","value training","canyon","26","{""ArrowUp,ArrowLeft"":26,""ArrowUp,ArrowRight"":10,""ArrowDown,ArrowLeft"":5,""ArrowDown,ArrowRight"":17}","true","ArrowUp,ArrowLeft","false","original","1","22","","",""
"html-keyboard-response","140","700001","0.0-4.0-2.0-1.11","spark_pilot_norest","9160","5","15","Male","","","","","","","null","<div style=""font-size:60px;"">+</div>","null","fixation","","","","","","","","","23","","",""
"revaluation","141","704017","0.0-4.0-2.0-0.12","spark_pilot_norest","9160","5","15","Male","","false","","","","","[634.1000000014901]","./assets/img/canyon/catch/4.jpg","[""spaceBar""]","value training","canyon","0","{""ArrowUp,ArrowLeft"":26,""ArrowUp,ArrowRight"":10,""ArrowDown,ArrowLeft"":5,""ArrowDown,ArrowRight"":17}","true","spaceBar","true","original","1","24","","",""
"html-keyboard-response","142","704521","0.0-4.0-2.0-1.12","spark_pilot_norest","9160","5","15","Male","","","","","","","null","<div style=""font-size:60px;"">+</div>","null","fixation","","","","","","","","","25","","",""
"revaluation","143","710544","0.0-4.0-2.0-0.13","spark_pilot_norest","9160","5","15","Male","","false","","","","","[614.8000000044703,303.1000000014901]","./assets/img/canyon/memory/37.jpg","[""ArrowUp"",""ArrowLeft""]","value training","canyon","26","{""ArrowUp,ArrowLeft"":26,""ArrowUp,ArrowRight"":10,""ArrowDown,ArrowLeft"":5,""ArrowDown,ArrowRight"":17}","true","ArrowUp,ArrowLeft","false","original","1","26","","",""
"html-keyboard-response","144","711048","0.0-4.0-2.0-1.13","spark_pilot_norest","9160","5","15","Male","","","","","","","null","<div style=""font-size:60px;"">+</div>","null","fixation","","","","","","","","","27","","",""
"revaluation","145","717072","0.0-4.0-2.0-0.14","spark_pilot_norest","9160","5","15","Male","","false","","","","","[613.7000000029802,253.60000000149012]","./assets/img/canyon/memory/13.jpg","[""ArrowUp"",""ArrowLeft""]","value training","canyon","26","{""ArrowUp,ArrowLeft"":26,""ArrowUp,ArrowRight"":10,""ArrowDown,ArrowLeft"":5,""ArrowDown,ArrowRight"":17}","true","ArrowUp,ArrowLeft","false","original","1","28","","",""
"html-keyboard-response","146","717577","0.0-4.0-2.0-1.14","spark_pilot_norest","9160","5","15","Male","","","","","","","null","<div style=""font-size:60px;"">+</div>","null","fixation","","","","","","","","","29","","",""
"revaluation","147","723591","0.0-4.0-2.0-0.15","spark_pilot_norest","9160","5","15","Male","","false","","","","","[654.5,79.10000000149012]","./assets/img/canyon/memory/22.jpg","[""ArrowUp"",""ArrowLeft""]","value training","canyon","26","{""ArrowUp,ArrowLeft"":26,""ArrowUp,ArrowRight"":10,""ArrowDown,ArrowLeft"":5,""ArrowDown,ArrowRight"":17}","true","ArrowUp,ArrowLeft","false","original","1","30","","",""
"html-keyboard-response","148","724096","0.0-4.0-2.0-1.15","spark_pilot_norest","9160","5","15","Male","","","","","","","null","<div style=""font-size:60px;"">+</div>","null","fixation","","","","","","","","","31","","",""
"revaluation","149","730122","0.0-4.0-2.0-0.16","spark_pilot_norest","9160","5","15","Male","","false","","","","","[555.8000000044703,481.20000000298023]","./assets/img/canyon/memory/5.jpg","[""ArrowUp"",""ArrowLeft""]","value training","canyon","26","{""ArrowUp,ArrowLeft"":26,""ArrowUp,ArrowRight"":10,""ArrowDown,ArrowLeft"":5,""ArrowDown,ArrowRight"":17}","true","ArrowUp,ArrowLeft","false","original","1","32","","",""
"html-keyboard-response","150","730625","0.0-4.0-2.0-1.16","spark_pilot_norest","9160","5","15","Male","","","","","","","null","<div style=""font-size:60px;"">+</div>","null","fixation","","","","","","","","","33","","",""
"revaluation","151","736649","0.0-4.0-2.0-0.17","spark_pilot_norest","9160","5","15","Male","","false","","","","","[611.7000000029802,224.10000000149012]","./assets/img/canyon/memory/9.jpg","[""ArrowUp"",""ArrowLeft""]","value training","canyon","26","{""ArrowUp,ArrowLeft"":26,""ArrowUp,ArrowRight"":10,""ArrowDown,ArrowLeft"":5,""ArrowDown,ArrowRight"":17}","true","ArrowUp,ArrowLeft","false","original","1","34","","",""
"html-keyboard-response","152","737151","0.0-4.0-2.0-1.17","spark_pilot_norest","9160","5","15","Male","","","","","","","null","<div style=""font-size:60px;"">+</div>","null","fixation","","","","","","","","","35","","",""
"revaluation","153","743176","0.0-4.0-2.0-0.18","spark_pilot_norest","9160","5","15","Male","","false","","","","","[581.7999999970198,375.8999999985099]","./assets/img/canyon/memory/5.jpg","[""ArrowUp"",""ArrowLeft""]","value training","canyon","26","{""ArrowUp,ArrowLeft"":26,""ArrowUp,ArrowRight"":10,""ArrowDown,ArrowLeft"":5,""ArrowDown,ArrowRight"":17}","true","ArrowUp,ArrowLeft","false","original","1","36","","",""
"html-keyboard-response","154","743680","0.0-4.0-2.0-1.18","spark_pilot_norest","9160","5","15","Male","","","","","","","null","<div style=""font-size:60px;"">+</div>","null","fixation","","","","","","","","","37","","",""
"revaluation","155","749708","0.0-4.0-2.0-0.19","spark_pilot_norest","9160","5","15","Male","","false","","","","","[608.6000000014901,327.29999999701977]","./assets/img/canyon/memory/31.jpg","[""ArrowUp"",""ArrowLeft""]","value training","canyon","26","{""ArrowUp,ArrowLeft"":26,""ArrowUp,ArrowRight"":10,""ArrowDown,ArrowLeft"":5,""ArrowDown,ArrowRight"":17}","true","ArrowUp,ArrowLeft","false","original","1","38","","",""
"html-keyboard-response","156","750217","0.0-4.0-2.0-1.19","spark_pilot_norest","9160","5","15","Male","","","","","","","null","<div style=""font-size:60px;"">+</div>","null","fixation","","","","","","","","","39","","",""
"revaluation","157","756240","0.0-4.0-2.0-0.20","spark_pilot_norest","9160","5","15","Male","","false","","","","","[611.2999999970198,328]","./assets/img/canyon/memory/10.jpg","[""ArrowUp"",""ArrowLeft""]","value training","canyon","26","{""ArrowUp,ArrowLeft"":26,""ArrowUp,ArrowRight"":10,""ArrowDown,ArrowLeft"":5,""ArrowDown,ArrowRight"":17}","true","ArrowUp,ArrowLeft","false","original","1","40","","",""
"html-keyboard-response","158","756743","0.0-4.0-2.0-1.20","spark_pilot_norest","9160","5","15","Male","","","","","","","null","<div style=""font-size:60px;"">+</div>","null","fixation","","","","","","","","","41","","",""
"revaluation","159","762767","0.0-4.0-2.0-0.21","spark_pilot_norest","9160","5","15","Male","","false","","","","","[970.7999999970198,419.69999999552965]","./assets/img/canyon/memory/16.jpg","[""ArrowUp"",""ArrowLeft""]","value training","canyon","26","{""ArrowUp,ArrowLeft"":26,""ArrowUp,ArrowRight"":10,""ArrowDown,ArrowLeft"":5,""ArrowDown,ArrowRight"":17}","true","ArrowUp,ArrowLeft","false","original","1","42","","",""
"html-keyboard-response","160","763274","0.0-4.0-2.0-1.21","spark_pilot_norest","9160","5","15","Male","","","","","","","null","<div style=""font-size:60px;"">+</div>","null","fixation","","","","","","","","","43","","",""
"revaluation","161","767288","0.0-4.0-2.0-0.22","spark_pilot_norest","9160","5","15","Male","","false","","","","","[725.6000000014901]","./assets/img/canyon/catch/6.jpg","[""spaceBar""]","value training","canyon","0","{""ArrowUp,ArrowLeft"":26,""ArrowUp,ArrowRight"":10,""ArrowDown,ArrowLeft"":5,""ArrowDown,ArrowRight"":17}","true","spaceBar","true","original","1","44","","",""
"html-keyboard-response","162","767793","0.0-4.0-2.0-1.22","spark_pilot_norest","9160","5","15","Male","","","","","","","null","<div style=""font-size:60px;"">+</div>","null","fixation","","","","","","","","","45","","",""
"revaluation","163","771807","0.0-4.0-2.0-0.23","spark_pilot_norest","9160","5","15","Male","","false","","","","","[856.2999999970198]","./assets/img/canyon/catch/3.jpg","[""spaceBar""]","value training","canyon","0","{""ArrowUp,ArrowLeft"":26,""ArrowUp,ArrowRight"":10,""ArrowDown,ArrowLeft"":5,""ArrowDown,ArrowRight"":17}","true","spaceBar","true","original","1","46","","",""
"html-keyboard-response","164","772312","0.0-4.0-2.0-1.23","spark_pilot_norest","9160","5","15","Male","","","","","","","null","<div style=""font-size:60px;"">+</div>","null","fixation","","","","","","","","","47","","",""
"revaluation","165","776329","0.0-4.0-2.0-0.24","spark_pilot_norest","9160","5","15","Male","","false","","","","","[987.5]","./assets/img/canyon/catch/7.jpg","[""spaceBar""]","value training","canyon","0","{""ArrowUp,ArrowLeft"":26,""ArrowUp,ArrowRight"":10,""ArrowDown,ArrowLeft"":5,""ArrowDown,ArrowRight"":17}","true","spaceBar","true","original","1","48","","",""
"html-keyboard-response","166","776834","0.0-4.0-2.0-1.24","spark_pilot_norest","9160","5","15","Male","","","","","","","null","<div style=""font-size:60px;"">+</div>","null","fixation","","","","","","","","","49","","",""
"revaluation","167","782858","0.0-4.0-2.0-0.25","spark_pilot_norest","9160","5","15","Male","","false","","","","","[1251.3999999985099,388.20000000298023]","./assets/img/canyon/memory/27.jpg","[""ArrowUp"",""ArrowLeft""]","value training","canyon","26","{""ArrowUp,ArrowLeft"":26,""ArrowUp,ArrowRight"":10,""ArrowDown,ArrowLeft"":5,""ArrowDown,ArrowRight"":17}","true","ArrowUp,ArrowLeft","false","original","1","50","","",""
"html-keyboard-response","168","783371","0.0-4.0-2.0-1.25","spark_pilot_norest","9160","5","15","Male","","","","","","","null","<div style=""font-size:60px;"">+</div>","null","fixation","","","","","","","","","51","","",""
"revaluation","169","789392","0.0-4.0-2.0-0.26","spark_pilot_norest","9160","5","15","Male","","false","","","","","[549.3999999985099,315]","./assets/img/canyon/memory/19.jpg","[""ArrowUp"",""ArrowLeft""]","value training","canyon","26","{""ArrowUp,ArrowLeft"":26,""ArrowUp,ArrowRight"":10,""ArrowDown,ArrowLeft"":5,""ArrowDown,ArrowRight"":17}","true","ArrowUp,ArrowLeft","false","original","1","52","","",""
"html-keyboard-response","170","789896","0.0-4.0-2.0-1.26","spark_pilot_norest","9160","5","15","Male","","","","","","","null","<div style=""font-size:60px;"">+</div>","null","fixation","","","","","","","","","53","","",""
"revaluation","171","793911","0.0-4.0-2.0-0.27","spark_pilot_norest","9160","5","15","Male","","false","","","","","[820.5]","./assets/img/canyon/catch/1.jpg","[""spaceBar""]","value training","canyon","0","{""ArrowUp,ArrowLeft"":26,""ArrowUp,ArrowRight"":10,""ArrowDown,ArrowLeft"":5,""ArrowDown,ArrowRight"":17}","true","spaceBar","true","original","1","54","","",""
"html-keyboard-response","172","794417","0.0-4.0-2.0-1.27","spark_pilot_norest","9160","5","15","Male","","","","","","","null","<div style=""font-size:60px;"">+</div>","null","fixation","","","","","","","","","55","","",""
"revaluation","173","800441","0.0-4.0-2.0-0.28","spark_pilot_norest","9160","5","15","Male","","false","","","","","[649.5,442]","./assets/img/canyon/memory/29.jpg","[""ArrowUp"",""ArrowLeft""]","value training","canyon","26","{""ArrowUp,ArrowLeft"":26,""ArrowUp,ArrowRight"":10,""ArrowDown,ArrowLeft"":5,""ArrowDown,ArrowRight"":17}","true","ArrowUp,ArrowLeft","false","original","1","56","","",""
"html-keyboard-response","174","800943","0.0-4.0-2.0-1.28","spark_pilot_norest","9160","5","15","Male","","","","","","","null","<div style=""font-size:60px;"">+</div>","null","fixation","","","","","","","","","57","","",""
"revaluation","175","806969","0.0-4.0-2.0-0.29","spark_pilot_norest","9160","5","15","Male","","false","","","","","[558,292.1000000014901]","./assets/img/canyon/memory/2.jpg","[""ArrowUp"",""ArrowLeft""]","value training","canyon","26","{""ArrowUp,ArrowLeft"":26,""ArrowUp,ArrowRight"":10,""ArrowDown,ArrowLeft"":5,""ArrowDown,ArrowRight"":17}","true","ArrowUp,ArrowLeft","false","original","1","58","","",""
"html-keyboard-response","176","807473","0.0-4.0-2.0-1.29","spark_pilot_norest","9160","5","15","Male","","","","","","","null","<div style=""font-size:60px;"">+</div>","null","fixation","","","","","","","","","59","","",""
"revaluation","177","813496","0.0-4.0-2.0-0.30","spark_pilot_norest","9160","5","15","Male","","false","","","","","[583.4000000059605,333]","./assets/img/canyon/memory/38.jpg","[""ArrowUp"",""ArrowLeft""]","value training","canyon","26","{""ArrowUp,ArrowLeft"":26,""ArrowUp,ArrowRight"":10,""ArrowDown,ArrowLeft"":5,""ArrowDown,ArrowRight"":17}","true","ArrowUp,ArrowLeft","false","original","1","60","","",""
"html-keyboard-response","178","814000","0.0-4.0-2.0-1.30","spark_pilot_norest","9160","5","15","Male","","","","","","","null","<div style=""font-size:60px;"">+</div>","null","fixation","","","","","","","","","61","","",""
"revaluation","179","820023","0.0-4.0-2.0-0.31","spark_pilot_norest","9160","5","15","Male","","false","","","","","[912.7000000029802,482.69999999552965]","./assets/img/canyon/memory/13.jpg","[""ArrowUp"",""ArrowLeft""]","value training","canyon","26","{""ArrowUp,ArrowLeft"":26,""ArrowUp,ArrowRight"":10,""ArrowDown,ArrowLeft"":5,""ArrowDown,ArrowRight"":17}","true","ArrowUp,ArrowLeft","false","original","1","62","","",""
"html-keyboard-response","180","820528","0.0-4.0-2.0-1.31","spark_pilot_norest","9160","5","15","Male","","","","","","","null","<div style=""font-size:60px;"">+</div>","null","fixation","","","","","","","","","63","","",""
"revaluation","181","826543","0.0-4.0-2.0-0.32","spark_pilot_norest","9160","5","15","Male","","false","","","","","[789.2000000029802,356.90000000596046]","./assets/img/canyon/memory/4.jpg","[""ArrowUp"",""ArrowLeft""]","value training","canyon","26","{""ArrowUp,ArrowLeft"":26,""ArrowUp,ArrowRight"":10,""ArrowDown,ArrowLeft"":5,""ArrowDown,ArrowRight"":17}","true","ArrowUp,ArrowLeft","false","original","1","64","","",""
"html-keyboard-response","182","827047","0.0-4.0-2.0-1.32","spark_pilot_norest","9160","5","15","Male","","","","","","","null","<div style=""font-size:60px;"">+</div>","null","fixation","","","","","","","","","65","","",""
"revaluation","183","833073","0.0-4.0-2.0-0.33","spark_pilot_norest","9160","5","15","Male","","false","","","","","[510.8999999985099,408.5]","./assets/img/canyon/memory/22.jpg","[""ArrowUp"",""ArrowLeft""]","value training","canyon","26","{""ArrowUp,ArrowLeft"":26,""ArrowUp,ArrowRight"":10,""ArrowDown,ArrowLeft"":5,""ArrowDown,ArrowRight"":17}","true","ArrowUp,ArrowLeft","false","original","1","66","","",""
"html-keyboard-response","184","833578","0.0-4.0-2.0-1.33","spark_pilot_norest","9160","5","15","Male","","","","","","","null","<div style=""font-size:60px;"">+</div>","null","fixation","","","","","","","","","67","","",""
"revaluation","185","839604","0.0-4.0-2.0-0.34","spark_pilot_norest","9160","5","15","Male","","false","","","","","[640.1999999955297,301]","./assets/img/canyon/memory/29.jpg","[""ArrowUp"",""ArrowLeft""]","value training","canyon","26","{""ArrowUp,ArrowLeft"":26,""ArrowUp,ArrowRight"":10,""ArrowDown,ArrowLeft"":5,""ArrowDown,ArrowRight"":17}","true","ArrowUp,ArrowLeft","false","original","1","68","","",""
"html-keyboard-response","186","840113","0.0-4.0-2.0-1.34","spark_pilot_norest","9160","5","15","Male","","","","","","","null","<div style=""font-size:60px;"">+</div>","null","fixation","","","","","","","","","69","","",""
"revaluation","187","846140","0.0-4.0-2.0-0.35","spark_pilot_norest","9160","5","15","Male","","false","","","","","[1350.7000000029802,391.3999999985099]","./assets/img/canyon/memory/36.jpg","[""ArrowUp"",""ArrowLeft""]","value training","canyon","26","{""ArrowUp,ArrowLeft"":26,""ArrowUp,ArrowRight"":10,""ArrowDown,ArrowLeft"":5,""ArrowDown,ArrowRight"":17}","true","ArrowUp,ArrowLeft","false","original","1","70","","",""
"html-keyboard-response","188","846650","0.0-4.0-2.0-1.35","spark_pilot_norest","9160","5","15","Male","","","","","","","null","<div style=""font-size:60px;"">+</div>","null","fixation","","","","","","","","","71","","",""
"revaluation","189","852671","0.0-4.0-2.0-0.36","spark_pilot_norest","9160","5","15","Male","","false","","","","","[739.1000000014901,504.6000000014901]","./assets/img/canyon/memory/3.jpg","[""ArrowUp"",""ArrowLeft""]","value training","canyon","26","{""ArrowUp,ArrowLeft"":26,""ArrowUp,ArrowRight"":10,""ArrowDown,ArrowLeft"":5,""ArrowDown,ArrowRight"":17}","true","ArrowUp,ArrowLeft","false","original","1","72","","",""
"html-keyboard-response","190","853176","0.0-4.0-2.0-1.36","spark_pilot_norest","9160","5","15","Male","","","","","","","null","<div style=""font-size:60px;"">+</div>","null","fixation","","","","","","","","","73","","",""
"revaluation","191","857187","0.0-4.0-2.0-0.37","spark_pilot_norest","9160","5","15","Male","","false","","","","","[739.3999999985099]","./assets/img/canyon/catch/5.jpg","[""spaceBar""]","value training","canyon","0","{""ArrowUp,ArrowLeft"":26,""ArrowUp,ArrowRight"":10,""ArrowDown,ArrowLeft"":5,""ArrowDown,ArrowRight"":17}","true","spaceBar","true","original","1","74","","",""
"html-keyboard-response","192","857697","0.0-4.0-2.0-1.37","spark_pilot_norest","9160","5","15","Male","","","","","","","null","<div style=""font-size:60px;"">+</div>","null","fixation","","","","","","","","","75","","",""
"revaluation","193","863724","0.0-4.0-2.0-0.38","spark_pilot_norest","9160","5","15","Male","","false","","","","","[687.5,242.60000000149012]","./assets/img/canyon/memory/27.jpg","[""ArrowUp"",""ArrowLeft""]","value training","canyon","26","{""ArrowUp,ArrowLeft"":26,""ArrowUp,ArrowRight"":10,""ArrowDown,ArrowLeft"":5,""ArrowDown,ArrowRight"":17}","true","ArrowUp,ArrowLeft","false","original","1","76","","",""
"html-keyboard-response","194","864233","0.0-4.0-2.0-1.38","spark_pilot_norest","9160","5","15","Male","","","","","","","null","<div style=""font-size:60px;"">+</div>","null","fixation","","","","","","","","","77","","",""
"revaluation","195","870255","0.0-4.0-2.0-0.39","spark_pilot_norest","9160","5","15","Male","","false","","","","","[691.8000000044703,471.70000000298023]","./assets/img/canyon/memory/3.jpg","[""ArrowUp"",""ArrowLeft""]","value training","canyon","26","{""ArrowUp,ArrowLeft"":26,""ArrowUp,ArrowRight"":10,""ArrowDown,ArrowLeft"":5,""ArrowDown,ArrowRight"":17}","true","ArrowUp,ArrowLeft","false","original","1","78","","",""
"html-keyboard-response","196","870763","0.0-4.0-2.0-1.39","spark_pilot_norest","9160","5","15","Male","","","","","","","null","<div style=""font-size:60px;"">+</div>","null","fixation","","","","","","","","","79","","",""
"revaluation","197","876785","0.0-4.0-2.0-0.40","spark_pilot_norest","9160","5","15","Male","","false","","","","","[686.6000000014901,320.1000000014901]","./assets/img/canyon/memory/36.jpg","[""ArrowUp"",""ArrowLeft""]","value training","canyon","26","{""ArrowUp,ArrowLeft"":26,""ArrowUp,ArrowRight"":10,""ArrowDown,ArrowLeft"":5,""ArrowDown,ArrowRight"":17}","true","ArrowUp,ArrowLeft","false","original","1","80","","",""
"html-keyboard-response","198","877288","0.0-4.0-2.0-1.40","spark_pilot_norest","9160","5","15","Male","","","","","","","null","<div style=""font-size:60px;"">+</div>","null","fixation","","","","","","","","","81","","",""
"revaluation","199","883311","0.0-4.0-2.0-0.41","spark_pilot_norest","9160","5","15","Male","","false","","","","","[478.1000000014901,302.30000000447035]","./assets/img/canyon/memory/2.jpg","[""ArrowUp"",""ArrowLeft""]","value training","canyon","26","{""ArrowUp,ArrowLeft"":26,""ArrowUp,ArrowRight"":10,""ArrowDown,ArrowLeft"":5,""ArrowDown,ArrowRight"":17}","true","ArrowUp,ArrowLeft","false","original","1","82","","",""
"html-keyboard-response","200","883815","0.0-4.0-2.0-1.41","spark_pilot_norest","9160","5","15","Male","","","","","","","null","<div style=""font-size:60px;"">+</div>","null","fixation","","","","","","","","","83","","",""
"revaluation","201","889834","0.0-4.0-2.0-0.42","spark_pilot_norest","9160","5","15","Male","","false","","","","","[476.30000000447035,279.8999999985099]","./assets/img/canyon/memory/7.jpg","[""ArrowUp"",""ArrowLeft""]","value training","canyon","26","{""ArrowUp,ArrowLeft"":26,""ArrowUp,ArrowRight"":10,""ArrowDown,ArrowLeft"":5,""ArrowDown,ArrowRight"":17}","true","ArrowUp,ArrowLeft","false","original","1","84","","",""
"html-keyboard-response","202","890345","0.0-4.0-2.0-1.42","spark_pilot_norest","9160","5","15","Male","","","","","","","null","<div style=""font-size:60px;"">+</div>","null","fixation","","","","","","","","","85","","",""
"revaluation","203","894361","0.0-4.0-2.0-0.43","spark_pilot_norest","9160","5","15","Male","","false","","","","","[1101.7000000029802]","./assets/img/canyon/catch/2.jpg","[""spaceBar""]","value training","canyon","0","{""ArrowUp,ArrowLeft"":26,""ArrowUp,ArrowRight"":10,""ArrowDown,ArrowLeft"":5,""ArrowDown,ArrowRight"":17}","true","spaceBar","true","original","1","86","","",""
"html-keyboard-response","204","894866","0.0-4.0-2.0-1.43","spark_pilot_norest","9160","5","15","Male","","","","","","","null","<div style=""font-size:60px;"">+</div>","null","fixation","","","","","","","","","87","","",""
"revaluation","205","900889","0.0-4.0-2.0-0.44","spark_pilot_norest","9160","5","15","Male","","false","","","","","[735.8999999985099,425]","./assets/img/canyon/memory/39.jpg","[""ArrowUp"",""ArrowLeft""]","value training","canyon","26","{""ArrowUp,ArrowLeft"":26,""ArrowUp,ArrowRight"":10,""ArrowDown,ArrowLeft"":5,""ArrowDown,ArrowRight"":17}","true","ArrowUp,ArrowLeft","false","original","1","88","","",""
"html-keyboard-response","206","901392","0.0-4.0-2.0-1.44","spark_pilot_norest","9160","5","15","Male","","","","","","","null","<div style=""font-size:60px;"">+</div>","null","fixation","","","","","","","","","89","","",""
"revaluation","207","907418","0.0-4.0-2.0-0.45","spark_pilot_norest","9160","5","15","Male","","false","","","","","[586,229.10000000149012]","./assets/img/canyon/memory/40.jpg","[""ArrowUp"",""ArrowLeft""]","value training","canyon","26","{""ArrowUp,ArrowLeft"":26,""ArrowUp,ArrowRight"":10,""ArrowDown,ArrowLeft"":5,""ArrowDown,ArrowRight"":17}","true","ArrowUp,ArrowLeft","false","original","1","90","","",""
"html-keyboard-response","208","907927","0.0-4.0-2.0-1.45","spark_pilot_norest","9160","5","15","Male","","","","","","","null","<div style=""font-size:60px;"">+</div>","null","fixation","","","","","","","","","91","","",""
"revaluation","209","913954","0.0-4.0-2.0-0.46","spark_pilot_norest","9160","5","15","Male","","false","","","","","[485,321.6000000014901]","./assets/img/canyon/memory/4.jpg","[""ArrowUp"",""ArrowLeft""]","value training","canyon","26","{""ArrowUp,ArrowLeft"":26,""ArrowUp,ArrowRight"":10,""ArrowDown,ArrowLeft"":5,""ArrowDown,ArrowRight"":17}","true","ArrowUp,ArrowLeft","false","original","1","92","","",""
"html-keyboard-response","210","914463","0.0-4.0-2.0-1.46","spark_pilot_norest","9160","5","15","Male","","","","","","","null","<div style=""font-size:60px;"">+</div>","null","fixation","","","","","","","","","93","","",""
"revaluation","211","918482","0.0-4.0-2.0-0.47","spark_pilot_norest","9160","5","15","Male","","false","","","","","[999.8999999985099]","./assets/img/canyon/catch/0.jpg","[""spaceBar""]","value training","canyon","0","{""ArrowUp,ArrowLeft"":26,""ArrowUp,ArrowRight"":10,""ArrowDown,ArrowLeft"":5,""ArrowDown,ArrowRight"":17}","true","spaceBar","true","original","1","94","","",""
"html-keyboard-response","212","918983","0.0-4.0-2.0-1.47","spark_pilot_norest","9160","5","15","Male","","","","","","","null","<div style=""font-size:60px;"">+</div>","null","fixation","","","","","","","","","95","","",""
"revaluation","213","925009","0.0-4.0-2.0-0.48","spark_pilot_norest","9160","5","15","Male","","false","","","","","[1024.7999999970198,308.29999999701977]","./assets/img/canyon/memory/35.jpg","[""ArrowUp"",""ArrowLeft""]","value training","canyon","26","{""ArrowUp,ArrowLeft"":26,""ArrowUp,ArrowRight"":10,""ArrowDown,ArrowLeft"":5,""ArrowDown,ArrowRight"":17}","true","ArrowUp,ArrowLeft","false","original","1","96","","",""
"html-keyboard-response","214","925516","0.0-4.0-2.0-1.48","spark_pilot_norest","9160","5","15","Male","","","","","","","null","<div style=""font-size:60px;"">+</div>","null","fixation","","","","","","","","","97","","",""
"revaluation","215","931538","0.0-4.0-2.0-0.49","spark_pilot_norest","9160","5","15","Male","","false","","","","","[492.8999999985099,215.09999999403954]","./assets/img/canyon/memory/19.jpg","[""ArrowUp"",""ArrowLeft""]","value training","canyon","26","{""ArrowUp,ArrowLeft"":26,""ArrowUp,ArrowRight"":10,""ArrowDown,ArrowLeft"":5,""ArrowDown,ArrowRight"":17}","true","ArrowUp,ArrowLeft","false","original","1","98","","",""
"html-keyboard-response","216","932048","0.0-4.0-2.0-1.49","spark_pilot_norest","9160","5","15","Male","","","","","","","null","<div style=""font-size:60px;"">+</div>","null","fixation","","","","","","","","","99","","",""
"learning-instructions","217","946184","0.0-4.0-3.0-0.0","spark_pilot_norest","9160","5","15","Male","","","","","","","1066","<p> Now, you will travel with a friend who will choose whether you go up or down first. </p>
            <p> On these turns, you will just see the animal that they found. You will still get to choose which chest to search for treasure.</p>","","instructions","","","","","","","","","","","",""
"revaluation","218","950201","0.0-4.0-4.0-0.0","spark_pilot_norest","9160","5","15","Male","","false","","","","","[1052.3000000044703]","./assets/img/canyon/animals/lion.jpg","[""ArrowLeft""]","revaluation","canyon","26","{""ArrowUp,ArrowLeft"":26,""ArrowUp,ArrowRight"":10,""ArrowDown,ArrowLeft"":5,""ArrowDown,ArrowRight"":17}","true","ArrowUp,ArrowLeft","","original","1","0","","",""
"html-keyboard-response","219","950713","0.0-4.0-4.0-1.0","spark_pilot_norest","9160","5","15","Male","","","","","","","null","<div style=""font-size:60px;"">+</div>","null","fixation","","","","","","","","","1","","",""
"revaluation","220","954728","0.0-4.0-4.0-0.1","spark_pilot_norest","9160","5","15","Male","","false","","","","","[451.59999999403954]","./assets/img/canyon/animals/lion.jpg","[""ArrowLeft""]","revaluation","canyon","26","{""ArrowUp,ArrowLeft"":26,""ArrowUp,ArrowRight"":10,""ArrowDown,ArrowLeft"":5,""ArrowDown,ArrowRight"":17}","true","ArrowUp,ArrowLeft","","original","1","2","","",""
"html-keyboard-response","221","955233","0.0-4.0-4.0-1.1","spark_pilot_norest","9160","5","15","Male","","","","","","","null","<div style=""font-size:60px;"">+</div>","null","fixation","","","","","","","","","3","","",""
"revaluation","222","959248","0.0-4.0-4.0-0.2","spark_pilot_norest","9160","5","15","Male","","false","","","","","[325.8999999985099]","./assets/img/canyon/animals/giraffe.jpg","[""ArrowLeft""]","revaluation","canyon","5","{""ArrowUp,ArrowLeft"":26,""ArrowUp,ArrowRight"":10,""ArrowDown,ArrowLeft"":5,""ArrowDown,ArrowRight"":17}","false","ArrowDown,ArrowLeft","","original","1","4","","",""
"html-keyboard-response","223","959751","0.0-4.0-4.0-1.2","spark_pilot_norest","9160","5","15","Male","","","","","","","null","<div style=""font-size:60px;"">+</div>","null","fixation","","","","","","","","","5","","",""
"revaluation","224","963769","0.0-4.0-4.0-0.3","spark_pilot_norest","9160","5","15","Male","","false","","","","","[281.69999999552965]","./assets/img/canyon/animals/lion.jpg","[""ArrowLeft""]","revaluation","canyon","26","{""ArrowUp,ArrowLeft"":26,""ArrowUp,ArrowRight"":10,""ArrowDown,ArrowLeft"":5,""ArrowDown,ArrowRight"":17}","true","ArrowUp,ArrowLeft","","original","1","6","","",""
"html-keyboard-response","225","964273","0.0-4.0-4.0-1.3","spark_pilot_norest","9160","5","15","Male","","","","","","","null","<div style=""font-size:60px;"">+</div>","null","fixation","","","","","","","","","7","","",""
"revaluation","226","968288","0.0-4.0-4.0-0.4","spark_pilot_norest","9160","5","15","Male","","false","","","","","[398.6000000014901]","./assets/img/canyon/animals/lion.jpg","[""ArrowLeft""]","revaluation","canyon","26","{""ArrowUp,ArrowLeft"":26,""ArrowUp,ArrowRight"":10,""ArrowDown,ArrowLeft"":5,""ArrowDown,ArrowRight"":17}","true","ArrowUp,ArrowLeft","","original","1","8","","",""
"html-keyboard-response","227","968792","0.0-4.0-4.0-1.4","spark_pilot_norest","9160","5","15","Male","","","","","","","null","<div style=""font-size:60px;"">+</div>","null","fixation","","","","","","","","","9","","",""
"revaluation","228","972803","0.0-4.0-4.0-0.5","spark_pilot_norest","9160","5","15","Male","","false","","","","","[423.79999999701977]","./assets/img/canyon/animals/giraffe.jpg","[""ArrowRight""]","revaluation","canyon","17","{""ArrowUp,ArrowLeft"":26,""ArrowUp,ArrowRight"":10,""ArrowDown,ArrowLeft"":5,""ArrowDown,ArrowRight"":17}","true","ArrowDown,ArrowRight","","original","1","10","","",""
"html-keyboard-response","229","973312","0.0-4.0-4.0-1.5","spark_pilot_norest","9160","5","15","Male","","","","","","","null","<div style=""font-size:60px;"">+</div>","null","fixation","","","","","","","","","11","","",""
"revaluation","230","977329","0.0-4.0-4.0-0.6","spark_pilot_norest","9160","5","15","Male","","false","","","","","[549.3000000044703]","./assets/img/canyon/animals/giraffe.jpg","[""ArrowRight""]","revaluation","canyon","17","{""ArrowUp,ArrowLeft"":26,""ArrowUp,ArrowRight"":10,""ArrowDown,ArrowLeft"":5,""ArrowDown,ArrowRight"":17}","true","ArrowDown,ArrowRight","","original","1","12","","",""
"html-keyboard-response","231","977833","0.0-4.0-4.0-1.6","spark_pilot_norest","9160","5","15","Male","","","","","","","null","<div style=""font-size:60px;"">+</div>","null","fixation","","","","","","","","","13","","",""
"revaluation","232","981847","0.0-4.0-4.0-0.7","spark_pilot_norest","9160","5","15","Male","","false","","","","","[621.7999999970198]","./assets/img/canyon/animals/giraffe.jpg","[""ArrowRight""]","revaluation","canyon","17","{""ArrowUp,ArrowLeft"":26,""ArrowUp,ArrowRight"":10,""ArrowDown,ArrowLeft"":5,""ArrowDown,ArrowRight"":17}","true","ArrowDown,ArrowRight","","original","1","14","","",""
"html-keyboard-response","233","982352","0.0-4.0-4.0-1.7","spark_pilot_norest","9160","5","15","Male","","","","","","","null","<div style=""font-size:60px;"">+</div>","null","fixation","","","","","","","","","15","","",""
"revaluation","234","986362","0.0-4.0-4.0-0.8","spark_pilot_norest","9160","5","15","Male","","false","","","","","[549]","./assets/img/canyon/animals/lion.jpg","[""ArrowLeft""]","revaluation","canyon","26","{""ArrowUp,ArrowLeft"":26,""ArrowUp,ArrowRight"":10,""ArrowDown,ArrowLeft"":5,""ArrowDown,ArrowRight"":17}","true","ArrowUp,ArrowLeft","","original","1","16","","",""
"html-keyboard-response","235","986873","0.0-4.0-4.0-1.8","spark_pilot_norest","9160","5","15","Male","","","","","","","null","<div style=""font-size:60px;"">+</div>","null","fixation","","","","","","","","","17","","",""
"revaluation","236","990888","0.0-4.0-4.0-0.9","spark_pilot_norest","9160","5","15","Male","","false","","","","","[398.40000000596046]","./assets/img/canyon/animals/lion.jpg","[""ArrowLeft""]","revaluation","canyon","26","{""ArrowUp,ArrowLeft"":26,""ArrowUp,ArrowRight"":10,""ArrowDown,ArrowLeft"":5,""ArrowDown,ArrowRight"":17}","true","ArrowUp,ArrowLeft","","original","1","18","","",""
"html-keyboard-response","237","991392","0.0-4.0-4.0-1.9","spark_pilot_norest","9160","5","15","Male","","","","","","","null","<div style=""font-size:60px;"">+</div>","null","fixation","","","","","","","","","19","","",""
"revaluation","238","995407","0.0-4.0-4.0-0.10","spark_pilot_norest","9160","5","15","Male","","false","","","","","[604.8999999985099]","./assets/img/canyon/animals/giraffe.jpg","[""ArrowRight""]","revaluation","canyon","17","{""ArrowUp,ArrowLeft"":26,""ArrowUp,ArrowRight"":10,""ArrowDown,ArrowLeft"":5,""ArrowDown,ArrowRight"":17}","true","ArrowDown,ArrowRight","","original","1","20","","",""
"html-keyboard-response","239","995911","0.0-4.0-4.0-1.10","spark_pilot_norest","9160","5","15","Male","","","","","","","null","<div style=""font-size:60px;"">+</div>","null","fixation","","","","","","","","","21","","",""
"revaluation","240","999929","0.0-4.0-4.0-0.11","spark_pilot_norest","9160","5","15","Male","","false","","","","","[633.3999999985099]","./assets/img/canyon/animals/giraffe.jpg","[""ArrowRight""]","revaluation","canyon","17","{""ArrowUp,ArrowLeft"":26,""ArrowUp,ArrowRight"":10,""ArrowDown,ArrowLeft"":5,""ArrowDown,ArrowRight"":17}","true","ArrowDown,ArrowRight","","original","1","22","","",""
"html-keyboard-response","241","1000431","0.0-4.0-4.0-1.11","spark_pilot_norest","9160","5","15","Male","","","","","","","null","<div style=""font-size:60px;"">+</div>","null","fixation","","","","","","","","","23","","",""
"revaluation","242","1004447","0.0-4.0-4.0-0.12","spark_pilot_norest","9160","5","15","Male","","false","","","","","[626.5999999940395]","./assets/img/canyon/animals/lion.jpg","[""ArrowLeft""]","revaluation","canyon","26","{""ArrowUp,ArrowLeft"":26,""ArrowUp,ArrowRight"":10,""ArrowDown,ArrowLeft"":5,""ArrowDown,ArrowRight"":17}","true","ArrowUp,ArrowLeft","","original","1","24","","",""
"html-keyboard-response","243","1004953","0.0-4.0-4.0-1.12","spark_pilot_norest","9160","5","15","Male","","","","","","","null","<div style=""font-size:60px;"">+</div>","null","fixation","","","","","","","","","25","","",""
"revaluation","244","1008967","0.0-4.0-4.0-0.13","spark_pilot_norest","9160","5","15","Male","","false","","","","","[724.5]","./assets/img/canyon/animals/giraffe.jpg","[""ArrowRight""]","revaluation","canyon","17","{""ArrowUp,ArrowLeft"":26,""ArrowUp,ArrowRight"":10,""ArrowDown,ArrowLeft"":5,""ArrowDown,ArrowRight"":17}","true","ArrowDown,ArrowRight","","original","1","26","","",""
"html-keyboard-response","245","1009473","0.0-4.0-4.0-1.13","spark_pilot_norest","9160","5","15","Male","","","","","","","null","<div style=""font-size:60px;"">+</div>","null","fixation","","","","","","","","","27","","",""
"revaluation","246","1013484","0.0-4.0-4.0-0.14","spark_pilot_norest","9160","5","15","Male","","false","","","","","[525.3000000044703]","./assets/img/canyon/animals/lion.jpg","[""ArrowLeft""]","revaluation","canyon","26","{""ArrowUp,ArrowLeft"":26,""ArrowUp,ArrowRight"":10,""ArrowDown,ArrowLeft"":5,""ArrowDown,ArrowRight"":17}","true","ArrowUp,ArrowLeft","","original","1","28","","",""
"html-keyboard-response","247","1013992","0.0-4.0-4.0-1.14","spark_pilot_norest","9160","5","15","Male","","","","","","","null","<div style=""font-size:60px;"">+</div>","null","fixation","","","","","","","","","29","","",""
"revaluation","248","1018019","0.0-4.0-4.0-0.15","spark_pilot_norest","9160","5","15","Male","","false","","","","","[1245.5]","./assets/img/canyon/animals/giraffe.jpg","[""ArrowRight""]","revaluation","canyon","17","{""ArrowUp,ArrowLeft"":26,""ArrowUp,ArrowRight"":10,""ArrowDown,ArrowLeft"":5,""ArrowDown,ArrowRight"":17}","true","ArrowDown,ArrowRight","","original","1","30","","",""
"html-keyboard-response","249","1018563","0.0-4.0-4.0-1.15","spark_pilot_norest","9160","5","15","Male","","","","","","","null","<div style=""font-size:60px;"">+</div>","null","fixation","","","","","","","","","31","","",""
"revaluation","250","1022575","0.0-4.0-4.0-0.16","spark_pilot_norest","9160","5","15","Male","","false","","","","","[750.2000000029802]","./assets/img/canyon/animals/lion.jpg","[""ArrowLeft""]","revaluation","canyon","26","{""ArrowUp,ArrowLeft"":26,""ArrowUp,ArrowRight"":10,""ArrowDown,ArrowLeft"":5,""ArrowDown,ArrowRight"":17}","true","ArrowUp,ArrowLeft","","original","1","32","","",""
"html-keyboard-response","251","1023079","0.0-4.0-4.0-1.16","spark_pilot_norest","9160","5","15","Male","","","","","","","null","<div style=""font-size:60px;"">+</div>","null","fixation","","","","","","","","","33","","",""
"revaluation","252","1027089","0.0-4.0-4.0-0.17","spark_pilot_norest","9160","5","15","Male","","false","","","","","[599.4000000059605]","./assets/img/canyon/animals/giraffe.jpg","[""ArrowRight""]","revaluation","canyon","17","{""ArrowUp,ArrowLeft"":26,""ArrowUp,ArrowRight"":10,""ArrowDown,ArrowLeft"":5,""ArrowDown,ArrowRight"":17}","true","ArrowDown,ArrowRight","","original","1","34","","",""
"html-keyboard-response","253","1027592","0.0-4.0-4.0-1.17","spark_pilot_norest","9160","5","15","Male","","","","","","","null","<div style=""font-size:60px;"">+</div>","null","fixation","","","","","","","","","35","","",""
"learning-instructions","254","1035942","0.0-4.0-5.0-0.0","spark_pilot_norest","9160","5","15","Male","","","","","","","null","<p> You have almost finished this part of the game! </p>
            <p> We are going to ask you to make a few more choices. </p>","","instructions","","","","","","","","","","","",""
"learning-instructions","255","1051918","0.0-4.0-5.0-0.1","spark_pilot_norest","9160","5","15","Male","","","","","","","null","<p> First, you need to decide whether to go up or down. When you see each picture, use the arrow keys to make your choice. </p>
            <p><b>You will not see which animal you found, but try to get to the one that will give you the most treasure.</b></p>","","instructions","","","","","","","","","","","",""
"html-keyboard-response","256","1052928","0.0-4.0-6.0-0.0","spark_pilot_norest","9160","5","15","Male","","","","","","","null","<div style=""font-size:100px;color:red;"">Starting in...</div>","null","","","","","","","","","","","","",""
"html-keyboard-response","257","1053938","0.0-4.0-6.0-1.0","spark_pilot_norest","9160","5","15","Male","","","","","","","null","<div style=""font-size:200px;color:red;"">3</div>","null","","","","","","","","","","","","",""
"html-keyboard-response","258","1054943","0.0-4.0-6.0-2.0","spark_pilot_norest","9160","5","15","Male","","","","","","","null","<div style=""font-size:200px;color:red;"">2</div>","null","","","","","","","","","","","","",""
"html-keyboard-response","259","1055953","0.0-4.0-6.0-3.0","spark_pilot_norest","9160","5","15","Male","","","","","","","null","<div style=""font-size:200px;color:red;"">1</div>","null","","","","","","","","","","","","",""
"revaluation","260","1056487","0.0-4.0-7.0-0.0","spark_pilot_norest","9160","5","15","Male","","false","","","","","[532.8999999985099]","./assets/img/canyon/test/3.jpg","[""ArrowUp""]","first stage test","canyon","0","{""ArrowUp,ArrowLeft"":26,""ArrowUp,ArrowRight"":10,""ArrowDown,ArrowLeft"":5,""ArrowDown,ArrowRight"":17}","true","ArrowUp","false","original","1","","","",""
"html-keyboard-response","261","1056992","0.0-4.0-7.0-1.0","spark_pilot_norest","9160","5","15","Male","","","","","","","null","<div style=""font-size:60px;"">+</div>","null","fixation","","","","","","","","","","","",""
"revaluation","262","1057612","0.0-4.0-7.0-0.1","spark_pilot_norest","9160","5","15","Male","","false","","","","","[618.1000000014901]","./assets/img/canyon/test/2.jpg","[""ArrowUp""]","first stage test","canyon","0","{""ArrowUp,ArrowLeft"":26,""ArrowUp,ArrowRight"":10,""ArrowDown,ArrowLeft"":5,""ArrowDown,ArrowRight"":17}","true","ArrowUp","false","original","1","","","",""
"html-keyboard-response","263","1058122","0.0-4.0-7.0-1.1","spark_pilot_norest","9160","5","15","Male","","","","","","","null","<div style=""font-size:60px;"">+</div>","null","fixation","","","","","","","","","","","",""
"revaluation","264","1058782","0.0-4.0-7.0-0.2","spark_pilot_norest","9160","5","15","Male","","false","","","","","[658.3999999985099]","./assets/img/canyon/test/1.jpg","[""ArrowUp""]","first stage test","canyon","0","{""ArrowUp,ArrowLeft"":26,""ArrowUp,ArrowRight"":10,""ArrowDown,ArrowLeft"":5,""ArrowDown,ArrowRight"":17}","true","ArrowUp","false","original","1","","","",""
"html-keyboard-response","265","1059288","0.0-4.0-7.0-1.2","spark_pilot_norest","9160","5","15","Male","","","","","","","null","<div style=""font-size:60px;"">+</div>","null","fixation","","","","","","","","","","","",""
"revaluation","266","1060027","0.0-4.0-7.0-0.3","spark_pilot_norest","9160","5","15","Male","","false","","","","","[737.5]","./assets/img/canyon/test/0.jpg","[""ArrowUp""]","first stage test","canyon","0","{""ArrowUp,ArrowLeft"":26,""ArrowUp,ArrowRight"":10,""ArrowDown,ArrowLeft"":5,""ArrowDown,ArrowRight"":17}","true","ArrowUp","false","original","1","","","",""
"html-keyboard-response","267","1060539","0.0-4.0-7.0-1.3","spark_pilot_norest","9160","5","15","Male","","","","","","","null","<div style=""font-size:60px;"">+</div>","null","fixation","","","","","","","","","","","",""
"learning-instructions","268","1073887","0.0-4.0-8.0-0.0","spark_pilot_norest","9160","5","15","Male","","","","","","","null","<p> Now you will see the animals again and can search their chests for treasure. </p>
            <p> This time, you will not see how much treasure you earned, but you will earn more bonus money for making better choices. </p>","","instructions","","","","","","","","","","","",""
"html-keyboard-response","269","1074894","0.0-4.0-9.0-0.0","spark_pilot_norest","9160","5","15","Male","","","","","","","null","<div style=""font-size:100px;color:red;"">Starting in...</div>","null","","","","","","","","","","","","",""
"html-keyboard-response","270","1075905","0.0-4.0-9.0-1.0","spark_pilot_norest","9160","5","15","Male","","","","","","","null","<div style=""font-size:200px;color:red;"">3</div>","null","","","","","","","","","","","","",""
"html-keyboard-response","271","1076911","0.0-4.0-9.0-2.0","spark_pilot_norest","9160","5","15","Male","","","","","","","null","<div style=""font-size:200px;color:red;"">2</div>","null","","","","","","","","","","","","",""
"html-keyboard-response","272","1077919","0.0-4.0-9.0-3.0","spark_pilot_norest","9160","5","15","Male","","","","","","","null","<div style=""font-size:200px;color:red;"">1</div>","null","","","","","","","","","","","","",""
"revaluation","273","1078644","0.0-4.0-10.0-0.0","spark_pilot_norest","9160","5","15","Male","","false","","","","","[723.2000000029802]","./assets/img/canyon/animals/lion.jpg","[""ArrowLeft""]","second stage test","canyon","0","{""ArrowUp,ArrowLeft"":26,""ArrowUp,ArrowRight"":10,""ArrowDown,ArrowLeft"":5,""ArrowDown,ArrowRight"":17}","true","ArrowUp,ArrowLeft","","original","1","","","",""
"html-keyboard-response","274","1079152","0.0-4.0-10.0-1.0","spark_pilot_norest","9160","5","15","Male","","","","","","","null","<div style=""font-size:60px;"">+</div>","null","fixation","","","","","","","","","","","",""
"revaluation","275","1079633","0.0-4.0-10.0-0.1","spark_pilot_norest","9160","5","15","Male","","false","","","","","[478.80000000447035]","./assets/img/canyon/animals/lion.jpg","[""ArrowLeft""]","second stage test","canyon","0","{""ArrowUp,ArrowLeft"":26,""ArrowUp,ArrowRight"":10,""ArrowDown,ArrowLeft"":5,""ArrowDown,ArrowRight"":17}","true","ArrowUp,ArrowLeft","","original","1","","","",""
"html-keyboard-response","276","1080136","0.0-4.0-10.0-1.1","spark_pilot_norest","9160","5","15","Male","","","","","","","null","<div style=""font-size:60px;"">+</div>","null","fixation","","","","","","","","","","","",""
"revaluation","277","1080623","0.0-4.0-10.0-0.2","spark_pilot_norest","9160","5","15","Male","","false","","","","","[484.70000000298023]","./assets/img/canyon/animals/lion.jpg","[""ArrowLeft""]","second stage test","canyon","0","{""ArrowUp,ArrowLeft"":26,""ArrowUp,ArrowRight"":10,""ArrowDown,ArrowLeft"":5,""ArrowDown,ArrowRight"":17}","true","ArrowUp,ArrowLeft","","original","1","","","",""
"html-keyboard-response","278","1081129","0.0-4.0-10.0-1.2","spark_pilot_norest","9160","5","15","Male","","","","","","","null","<div style=""font-size:60px;"">+</div>","null","fixation","","","","","","","","","","","",""
"revaluation","279","1081599","0.0-4.0-10.0-0.3","spark_pilot_norest","9160","5","15","Male","","false","","","","","[467.79999999701977]","./assets/img/canyon/animals/lion.jpg","[""ArrowLeft""]","second stage test","canyon","0","{""ArrowUp,ArrowLeft"":26,""ArrowUp,ArrowRight"":10,""ArrowDown,ArrowLeft"":5,""ArrowDown,ArrowRight"":17}","true","ArrowUp,ArrowLeft","","original","1","","","",""
"html-keyboard-response","280","1082104","0.0-4.0-10.0-1.3","spark_pilot_norest","9160","5","15","Male","","","","","","","null","<div style=""font-size:60px;"">+</div>","null","fixation","","","","","","","","","","","",""
"revaluation","281","1082678","0.0-4.0-10.0-0.4","spark_pilot_norest","9160","5","15","Male","","false","","","","","[572]","./assets/img/canyon/animals/giraffe.jpg","[""ArrowRight""]","second stage test","canyon","0","{""ArrowUp,ArrowLeft"":26,""ArrowUp,ArrowRight"":10,""ArrowDown,ArrowLeft"":5,""ArrowDown,ArrowRight"":17}","true","ArrowDown,ArrowRight","","original","1","","","",""
"html-keyboard-response","282","1083184","0.0-4.0-10.0-1.4","spark_pilot_norest","9160","5","15","Male","","","","","","","null","<div style=""font-size:60px;"">+</div>","null","fixation","","","","","","","","","","","",""
"revaluation","283","1083729","0.0-4.0-10.0-0.5","spark_pilot_norest","9160","5","15","Male","","false","","","","","[543.2000000029802]","./assets/img/canyon/animals/giraffe.jpg","[""ArrowRight""]","second stage test","canyon","0","{""ArrowUp,ArrowLeft"":26,""ArrowUp,ArrowRight"":10,""ArrowDown,ArrowLeft"":5,""ArrowDown,ArrowRight"":17}","true","ArrowDown,ArrowRight","","original","1","","","",""
"html-keyboard-response","284","1084235","0.0-4.0-10.0-1.5","spark_pilot_norest","9160","5","15","Male","","","","","","","null","<div style=""font-size:60px;"">+</div>","null","fixation","","","","","","","","","","","",""
"revaluation","285","1084749","0.0-4.0-10.0-0.6","spark_pilot_norest","9160","5","15","Male","","false","","","","","[512.3999999985099]","./assets/img/canyon/animals/giraffe.jpg","[""ArrowRight""]","second stage test","canyon","0","{""ArrowUp,ArrowLeft"":26,""ArrowUp,ArrowRight"":10,""ArrowDown,ArrowLeft"":5,""ArrowDown,ArrowRight"":17}","true","ArrowDown,ArrowRight","","original","1","","","",""
"html-keyboard-response","286","1085256","0.0-4.0-10.0-1.6","spark_pilot_norest","9160","5","15","Male","","","","","","","null","<div style=""font-size:60px;"">+</div>","null","fixation","","","","","","","","","","","",""
"revaluation","287","1085723","0.0-4.0-10.0-0.7","spark_pilot_norest","9160","5","15","Male","","false","","","","","[465.30000000447035]","./assets/img/canyon/animals/giraffe.jpg","[""ArrowRight""]","second stage test","canyon","0","{""ArrowUp,ArrowLeft"":26,""ArrowUp,ArrowRight"":10,""ArrowDown,ArrowLeft"":5,""ArrowDown,ArrowRight"":17}","true","ArrowDown,ArrowRight","","original","1","","","",""
"html-keyboard-response","288","1086232","0.0-4.0-10.0-1.7","spark_pilot_norest","9160","5","15","Male","","","","","","","null","<div style=""font-size:60px;"">+</div>","null","fixation","","","","","","","","","","","",""
"learning-instructions","289","1092902","0.0-4.0-0.1-0.2","spark_pilot_norest","9160","5","15","Male","","","","","","","3321.10000000149","<p> This time you are searching for treasure in the <b>ocean</b>.</p>","","instructions","","","","","","","","","","","",""
"learning-instructions","290","1111359","0.0-4.0-0.1-0.3","spark_pilot_norest","9160","5","15","Male","","","","","","","1198.5","<p><b>New</b> animals with <b>new</b> treasure chests live here. You need to explore to discover where the animal with the best treasure chest is.</p>
                    <p> Like before, once you figure out which animal has the chest with the most treasure, you should try to get to that animal and select that chest! </p>","","instructions","","","","","","","","","","","",""
"learning-instructions","291","1127971","0.0-4.0-1.1-0.1","spark_pilot_norest","9160","5","15","Male","","","","","","","1881.8000000044703","<p> Remember, when you see a picture of the place, use the up and down keys to <b>find an animal</b>.</p>
            <p> When you encounter an animal, you should use the left and right keys to <b>select a treasure chest</b>.</p>
            <p> Don't forget to look out for the robber! </p>","","instructions","","","","","","","","","","","",""
"revaluation","292","1133983","0.0-4.0-2.1-0.50","spark_pilot_norest","9160","5","15","Male","","false","","","","","[1374,585.8000000044703]","./assets/img/ocean/memory/3.jpg","[""ArrowUp"",""ArrowLeft""]","value training","ocean","23","{""ArrowUp,ArrowLeft"":23,""ArrowUp,ArrowRight"":10,""ArrowDown,ArrowLeft"":8,""ArrowDown,ArrowRight"":30}","false","ArrowUp,ArrowLeft","false","revaluation","2","0","","",""
"html-keyboard-response","293","1134486","0.0-4.0-2.1-1.50","spark_pilot_norest","9160","5","15","Male","","","","","","","null","<div style=""font-size:60px;"">+</div>","null","fixation","","","","","","","","","1","","",""
"revaluation","294","1140505","0.0-4.0-2.1-0.51","spark_pilot_norest","9160","5","15","Male","","false","","","","","[214.10000000149012,340.70000000298023]","./assets/img/ocean/memory/40.jpg","[""ArrowUp"",""ArrowRight""]","value training","ocean","10","{""ArrowUp,ArrowLeft"":23,""ArrowUp,ArrowRight"":10,""ArrowDown,ArrowLeft"":8,""ArrowDown,ArrowRight"":30}","false","ArrowUp,ArrowRight","false","revaluation","2","2","","",""
"html-keyboard-response","295","1141009","0.0-4.0-2.1-1.51","spark_pilot_norest","9160","5","15","Male","","","","","","","null","<div style=""font-size:60px;"">+</div>","null","fixation","","","","","","","","","3","","",""
"revaluation","296","1145023","0.0-4.0-2.1-0.52","spark_pilot_norest","9160","5","15","Male","","false","","","","","[726.3000000044703]","./assets/img/ocean/catch/3.jpg","[""ArrowDown""]","value training","ocean","-10","{""ArrowUp,ArrowLeft"":23,""ArrowUp,ArrowRight"":10,""ArrowDown,ArrowLeft"":8,""ArrowDown,ArrowRight"":30}","false","ArrowDown","true","revaluation","2","4","","",""
"html-keyboard-response","297","1145530","0.0-4.0-2.1-1.52","spark_pilot_norest","9160","5","15","Male","","","","","","","null","<div style=""font-size:60px;"">+</div>","null","fixation","","","","","","","","","5","","",""
"revaluation","298","1151552","0.0-4.0-2.1-0.53","spark_pilot_norest","9160","5","15","Male","","false","","","","","[756.8999999985099,831.8999999985099]","./assets/img/ocean/memory/7.jpg","[""ArrowDown"",""ArrowLeft""]","value training","ocean","8","{""ArrowUp,ArrowLeft"":23,""ArrowUp,ArrowRight"":10,""ArrowDown,ArrowLeft"":8,""ArrowDown,ArrowRight"":30}","false","ArrowDown,ArrowLeft","false","revaluation","2","6","","",""
"html-keyboard-response","299","1152056","0.0-4.0-2.1-1.53","spark_pilot_norest","9160","5","15","Male","","","","","","","null","<div style=""font-size:60px;"">+</div>","null","fixation","","","","","","","","","7","","",""
"revaluation","300","1158073","0.0-4.0-2.1-0.54","spark_pilot_norest","9160","5","15","Male","","false","","","","","[509.8999999985099,456.3999999985099]","./assets/img/ocean/memory/10.jpg","[""ArrowDown"",""ArrowRight""]","value training","ocean","30","{""ArrowUp,ArrowLeft"":23,""ArrowUp,ArrowRight"":10,""ArrowDown,ArrowLeft"":8,""ArrowDown,ArrowRight"":30}","true","ArrowDown,ArrowRight","false","revaluation","2","8","","",""
"html-keyboard-response","301","1158576","0.0-4.0-2.1-1.54","spark_pilot_norest","9160","5","15","Male","","","","","","","null","<div style=""font-size:60px;"">+</div>","null","fixation","","","","","","","","","9","","",""
"revaluation","302","1164600","0.0-4.0-2.1-0.55","spark_pilot_norest","9160","5","15","Male","","false","","","","","[539.3999999985099,414.8999999985099]","./assets/img/ocean/memory/40.jpg","[""ArrowDown"",""ArrowRight""]","value training","ocean","30","{""ArrowUp,ArrowLeft"":23,""ArrowUp,ArrowRight"":10,""ArrowDown,ArrowLeft"":8,""ArrowDown,ArrowRight"":30}","true","ArrowDown,ArrowRight","false","revaluation","2","10","","",""
"html-keyboard-response","303","1165103","0.0-4.0-2.1-1.55","spark_pilot_norest","9160","5","15","Male","","","","","","","null","<div style=""font-size:60px;"">+</div>","null","fixation","","","","","","","","","11","","",""
"revaluation","304","1171130","0.0-4.0-2.1-0.56","spark_pilot_norest","9160","5","15","Male","","false","","","","","[705.1999999955297,450.20000000298023]","./assets/img/ocean/memory/36.jpg","[""ArrowDown"",""ArrowRight""]","value training","ocean","30","{""ArrowUp,ArrowLeft"":23,""ArrowUp,ArrowRight"":10,""ArrowDown,ArrowLeft"":8,""ArrowDown,ArrowRight"":30}","true","ArrowDown,ArrowRight","false","revaluation","2","12","","",""
"html-keyboard-response","305","1171635","0.0-4.0-2.1-1.56","spark_pilot_norest","9160","5","15","Male","","","","","","","null","<div style=""font-size:60px;"">+</div>","null","fixation","","","","","","","","","13","","",""
"revaluation","306","1175647","0.0-4.0-2.1-0.57","spark_pilot_norest","9160","5","15","Male","","false","","","","","[941.6000000014901]","./assets/img/ocean/catch/4.jpg","[""spaceBar""]","value training","ocean","0","{""ArrowUp,ArrowLeft"":23,""ArrowUp,ArrowRight"":10,""ArrowDown,ArrowLeft"":8,""ArrowDown,ArrowRight"":30}","true","spaceBar","true","revaluation","2","14","","",""
"html-keyboard-response","307","1176152","0.0-4.0-2.1-1.57","spark_pilot_norest","9160","5","15","Male","","","","","","","null","<div style=""font-size:60px;"">+</div>","null","fixation","","","","","","","","","15","","",""
"revaluation","308","1182175","0.0-4.0-2.1-0.58","spark_pilot_norest","9160","5","15","Male","","false","","","","","[916.6999999955297,417.6000000014901]","./assets/img/ocean/memory/27.jpg","[""ArrowDown"",""ArrowRight""]","value training","ocean","30","{""ArrowUp,ArrowLeft"":23,""ArrowUp,ArrowRight"":10,""ArrowDown,ArrowLeft"":8,""ArrowDown,ArrowRight"":30}","true","ArrowDown,ArrowRight","false","revaluation","2","16","","",""
"html-keyboard-response","309","1182682","0.0-4.0-2.1-1.58","spark_pilot_norest","9160","5","15","Male","","","","","","","null","<div style=""font-size:60px;"">+</div>","null","fixation","","","","","","","","","17","","",""
"revaluation","310","1188705","0.0-4.0-2.1-0.59","spark_pilot_norest","9160","5","15","Male","","false","","","","","[635.2999999970198,1091.2999999970198]","./assets/img/ocean/memory/19.jpg","[""ArrowDown"",""ArrowRight""]","value training","ocean","30","{""ArrowUp,ArrowLeft"":23,""ArrowUp,ArrowRight"":10,""ArrowDown,ArrowLeft"":8,""ArrowDown,ArrowRight"":30}","true","ArrowDown,ArrowRight","false","revaluation","2","18","","",""
"html-keyboard-response","311","1189208","0.0-4.0-2.1-1.59","spark_pilot_norest","9160","5","15","Male","","","","","","","null","<div style=""font-size:60px;"">+</div>","null","fixation","","","","","","","","","19","","",""
"revaluation","312","1195233","0.0-4.0-2.1-0.60","spark_pilot_norest","9160","5","15","Male","","false","","","","","[620.6999999955297,611.7999999970198]","./assets/img/ocean/memory/10.jpg","[""ArrowDown"",""ArrowRight""]","value training","ocean","30","{""ArrowUp,ArrowLeft"":23,""ArrowUp,ArrowRight"":10,""ArrowDown,ArrowLeft"":8,""ArrowDown,ArrowRight"":30}","true","ArrowDown,ArrowRight","false","revaluation","2","20","","",""
"html-keyboard-response","313","1195737","0.0-4.0-2.1-1.60","spark_pilot_norest","9160","5","15","Male","","","","","","","null","<div style=""font-size:60px;"">+</div>","null","fixation","","","","","","","","","21","","",""
