"trial_type","trial_index","time_elapsed","internal_node_id","task_version","subject_id","assigned_condition","age","gender","success","timeout","failed_images","failed_audio","failed_video","browser_interaction","rt","stimulus","response","task_part","environment","score","rewardMap","correct","fullState","isCatch","condition","order","trial_num","key_press","ground_truth","bonus"
"pavlovia","0","2345","0.0-0.0","spark_pilot_norest","11003","7","7","Female","","","","","","","","","","","","","","","","","","","","","",""
"preload","1","46948","0.0-1.0","spark_pilot_norest","11003","7","7","Female","true","false","[]","[]","[]","[{""event"":""fullscreenenter"",""trial"":2,""time"":51044},{""event"":""blur"",""trial"":226,""time"":1033226},{""event"":""focus"",""trial"":228,""time"":1038456}]","","","","","","","","","","","","","","","",""
"fullscreen","2","52036","0.0-2.0","spark_pilot_norest","11003","7","7","Female","true","","","","","","","","","","","","","","","","","","","","",""
"audio-button-response","3","55071","0.0-3.0-0.0-0.0","spark_pilot_norest","11003","7","7","Female","","","","","","","3011","./assets/audio/audiotest/turtle.mp3","2","audio_test","","","","","","","","","","","",""
"learning-instructions","4","69514","0.0-3.0-1.0-0.0","spark_pilot_norest","11003","7","7","Female","","","","","","","7455.800000011921","<p> Welcome! Please remember to stay in fullscreen mode and don't click away from the experiment. </p>","","instructions","","","","","","","","","","","",""
"learning-instructions","5","79444","0.0-3.0-1.0-0.1","spark_pilot_norest","11003","7","7","Female","","","","","","","1531.300000011921","<p> Today you will be playing a game to earn treasure. </p>
            <p> At the end of the experiment, you will earn a bonus based on how much treasure you find. </p>
            <img src='./assets/img/instructions/treasure.jpg' class='instructions-image'>","","instructions","","","","","","","","","","","",""
"learning-instructions","6","88987","0.0-3.0-1.0-0.2","spark_pilot_norest","11003","7","7","Female","","","","","","","1283.199999988079","<p> Animals have hidden treasure in treasure chests. </p>
            <p> You need to first find an animal and then choose which of their treasure chests to search. </p>
            <img src='./assets/img/space/animals/cat.jpg' class='instructions-image'>","","instructions","","","","","","","","","","","",""
"learning-instructions","7","105756","0.0-3.0-1.0-0.3","spark_pilot_norest","11003","7","7","Female","","","","","","","3622.7999999523163","<p> In each round, you will search for treasure in a different place. In the real game, there will be two rounds. </p>
            <p> You will begin with a separate, practice round where you will search for treasure in outer space. </p>
            <img src='./assets/img/space/0.jpg' class='instructions-image'>","","instructions","","","","","","","","","","","",""
"learning-instructions","8","122111","0.0-3.0-1.0-0.4","spark_pilot_norest","11003","7","7","Female","","","","","","","4938.599999964237","<p> On every turn, you will see a picture of the place that you are in, but the specific image may be different each time. </p>
            <p> For example, both of these images mean you are in outer space. </p>
            <img src='./assets/img/instructions/outerspace.jpg' class='instructions-image'>","","instructions","","","","","","","","","","","",""
"learning-instructions","9","133754","0.0-3.0-1.0-0.5","spark_pilot_norest","11003","7","7","Female","","","","","","","3820.199999988079","<p> You need to decide which direction to travel in. </p>
            <p> You can choose between going <b>up or down</b> by using the arrow keys. </p>
            <img src='./assets/img/instructions/updown.jpg' class='instructions-image'>","","instructions","","","","","","","","","","","",""
"learning-instructions","10","144574","0.0-3.0-1.0-0.6","spark_pilot_norest","11003","7","7","Female","","","","","","","2020.8999999761581","<p> You will have <b>2 seconds</b> to make your choice. </p>
            <p> If you do not make a choice within 2 seconds, you will not find an animal or earn treasure. </p>
            <img src='./assets/img/instructions/2seconds.jpg' class='instructions-image'>","","instructions","","","","","","","","","","","",""
"learning-instructions","11","153152","0.0-3.0-1.0-0.7","spark_pilot_norest","11003","7","7","Female","","","","","","","1539.199999988079","<p> Let’s try practicing that now! </p>
            <p> When you see a picture of the place you are in, press the <b>up</b> key to travel up. </p>
            <img src='./assets/img/instructions/pressUp.jpg' class='instructions-image'>","","instructions","","","","","","","","","","","",""
"revaluation","12","157172","0.0-3.0-2.0-0.0","spark_pilot_norest","11003","7","7","Female","","false","","","","","[1438]","./assets/img/space/0.jpg","[""ArrowUp""]","first stage practice","space","0","null","null","ArrowUp","false","","","","","",""
"html-keyboard-response","13","157687","0.0-3.0-2.0-1.0","spark_pilot_norest","11003","7","7","Female","","","","","","","null","<div style=""font-size:60px;"">+</div>","null","fixation","","","","","","","","","","","",""
"revaluation","14","161700","0.0-3.0-2.0-0.1","spark_pilot_norest","11003","7","7","Female","","false","","","","","[1927.6000000238419]","./assets/img/space/1.jpg","[""ArrowUp""]","first stage practice","space","0","null","null","ArrowUp","false","","","","","",""
"html-keyboard-response","15","162215","0.0-3.0-2.0-1.1","spark_pilot_norest","11003","7","7","Female","","","","","","","null","<div style=""font-size:60px;"">+</div>","null","fixation","","","","","","","","","","","",""
"revaluation","16","166230","0.0-3.0-2.0-0.2","spark_pilot_norest","11003","7","7","Female","","true","","","","","[]","./assets/img/space/2.jpg","[]","first stage practice","space","-5","null","null","","false","","","","","",""
"html-keyboard-response","17","166745","0.0-3.0-2.0-1.2","spark_pilot_norest","11003","7","7","Female","","","","","","","null","<div style=""font-size:60px;"">+</div>","null","fixation","","","","","","","","","","","",""
"learning-instructions","18","177215","0.0-3.0-3.0-0.0","spark_pilot_norest","11003","7","7","Female","","","","","","","5772.699999988079","<p> Great job! Now try pressing the <b>down</b> key to travel down. </p>
            <img src='./assets/img/instructions/pressDown.jpg' class='instructions-image'>","","instructions","","","","","","","","","","","",""
"revaluation","19","181235","0.0-3.0-4.0-0.0","spark_pilot_norest","11003","7","7","Female","","false","","","","","[692.6999999880791]","./assets/img/space/3.jpg","[""ArrowDown""]","first stage practice","space","0","null","null","ArrowDown","false","","","","","",""
"html-keyboard-response","20","181748","0.0-3.0-4.0-1.0","spark_pilot_norest","11003","7","7","Female","","","","","","","null","<div style=""font-size:60px;"">+</div>","null","fixation","","","","","","","","","","","",""
"revaluation","21","185762","0.0-3.0-4.0-0.1","spark_pilot_norest","11003","7","7","Female","","false","","","","","[628.6999999880791]","./assets/img/space/4.jpg","[""ArrowDown""]","first stage practice","space","0","null","null","ArrowDown","false","","","","","",""
"html-keyboard-response","22","186273","0.0-3.0-4.0-1.1","spark_pilot_norest","11003","7","7","Female","","","","","","","null","<div style=""font-size:60px;"">+</div>","null","fixation","","","","","","","","","","","",""
"revaluation","23","190292","0.0-3.0-4.0-0.2","spark_pilot_norest","11003","7","7","Female","","false","","","","","[1063.1000000238419]","./assets/img/space/5.jpg","[""ArrowDown""]","first stage practice","space","0","null","null","ArrowDown","false","","","","","",""
"html-keyboard-response","24","190808","0.0-3.0-4.0-1.2","spark_pilot_norest","11003","7","7","Female","","","","","","","null","<div style=""font-size:60px;"">+</div>","null","fixation","","","","","","","","","","","",""
"learning-instructions","25","204721","0.0-3.0-5.0-0.0","spark_pilot_norest","11003","7","7","Female","","","","","","","4058.699999988079","<p> The animals don’t move, so the animal in the upper part of a place will stay in the upper part of a place, and the animal in the lower part of a place will stay in the lower part of a place. </p>","","instructions","","","","","","","","","","","",""
"learning-instructions","26","215145","0.0-3.0-5.0-0.1","spark_pilot_norest","11003","7","7","Female","","","","","","","1292.699999988079","<p> Each animal has two treasure chests for you to choose from. </p>
            <p> The amount of treasure in each chest can range from <b> 0 to 40 pieces.</b></p>","","instructions","","","","","","","","","","","",""
"learning-instructions","27","229202","0.0-3.0-5.0-0.2","spark_pilot_norest","11003","7","7","Female","","","","","","","2888.699999988079","<p> You should decide which chest to search for treasure by using the <b>left</b> and <b>right</b> arrow keys. </p>
            <p><b> Pay attention to which animal is on the screen, as the animals have different treasure chests. </b></p>
            <img src='./assets/img/instructions/leftright.jpg' class='instructions-image'>","","instructions","","","","","","","","","","","",""
"learning-instructions","28","236676","0.0-3.0-5.0-0.3","spark_pilot_norest","11003","7","7","Female","","","","","","","1124.300000011921","<p> Let’s try practicing that now. </p>
            <p> When you see an animal, choose which chest to search for treasure. </p>
            <img src='./assets/img/instructions/chooseChest.jpg' class='instructions-image'>","","instructions","","","","","","","","","","","",""
"revaluation","29","240705","0.0-3.0-6.0-0.0","spark_pilot_norest","11003","7","7","Female","","false","","","","","[399.2000000476837]","./assets/img/space/animals/rabbit.jpg","[""ArrowLeft""]","second stage practice","space","15","{""ArrowUp,ArrowLeft"":3,""ArrowUp,ArrowRight"":36,""ArrowDown,ArrowLeft"":15,""ArrowDown,ArrowRight"":23}","false","ArrowDown,ArrowLeft","","","","","","",""
"html-keyboard-response","30","241214","0.0-3.0-6.0-1.0","spark_pilot_norest","11003","7","7","Female","","","","","","","null","<div style=""font-size:60px;"">+</div>","null","fixation","","","","","","","","","","","",""
"revaluation","31","245227","0.0-3.0-6.0-0.1","spark_pilot_norest","11003","7","7","Female","","false","","","","","[893.8999999761581]","./assets/img/space/animals/rabbit.jpg","[""ArrowRight""]","second stage practice","space","23","{""ArrowUp,ArrowLeft"":3,""ArrowUp,ArrowRight"":36,""ArrowDown,ArrowLeft"":15,""ArrowDown,ArrowRight"":23}","true","ArrowDown,ArrowRight","","","","","","",""
"html-keyboard-response","32","245738","0.0-3.0-6.0-1.1","spark_pilot_norest","11003","7","7","Female","","","","","","","null","<div style=""font-size:60px;"">+</div>","null","fixation","","","","","","","","","","","",""
"revaluation","33","249757","0.0-3.0-6.0-0.2","spark_pilot_norest","11003","7","7","Female","","false","","","","","[376]","./assets/img/space/animals/cat.jpg","[""ArrowLeft""]","second stage practice","space","3","{""ArrowUp,ArrowLeft"":3,""ArrowUp,ArrowRight"":36,""ArrowDown,ArrowLeft"":15,""ArrowDown,ArrowRight"":23}","false","ArrowUp,ArrowLeft","","","","","","",""
"html-keyboard-response","34","250273","0.0-3.0-6.0-1.2","spark_pilot_norest","11003","7","7","Female","","","","","","","null","<div style=""font-size:60px;"">+</div>","null","fixation","","","","","","","","","","","",""
"revaluation","35","254295","0.0-3.0-6.0-0.3","spark_pilot_norest","11003","7","7","Female","","false","","","","","[684.3999999761581]","./assets/img/space/animals/cat.jpg","[""ArrowRight""]","second stage practice","space","36","{""ArrowUp,ArrowLeft"":3,""ArrowUp,ArrowRight"":36,""ArrowDown,ArrowLeft"":15,""ArrowDown,ArrowRight"":23}","true","ArrowUp,ArrowRight","","","","","","",""
"html-keyboard-response","36","254810","0.0-3.0-6.0-1.3","spark_pilot_norest","11003","7","7","Female","","","","","","","null","<div style=""font-size:60px;"">+</div>","null","fixation","","","","","","","","","","","",""
"learning-instructions","37","274376","0.0-3.0-7.0-0.0","spark_pilot_norest","11003","7","7","Female","","","","","","","2754.600000023842","<p> Great job. Now let’s try putting it together. </p>
            <p> On each turn, you will first see a picture to remind you of the place you are in, and you need to choose whether to go up or down. </p>
            <p> Then you will see an animal and choose which of its chests to search for treasure. </p>","","instructions","","","","","","","","","","","",""
"learning-instructions","38","283978","0.0-3.0-7.0-0.1","spark_pilot_norest","11003","7","7","Female","","","","","","","1346.300000011921","<p> When you choose whether to go up or down, try to go to the animal with the chest with the most treasure. </p>
            <p> Try practicing that now! </p>","","instructions","","","","","","","","","","","",""
"revaluation","39","290002","0.0-3.0-8.0-0.0","spark_pilot_norest","11003","7","7","Female","","false","","","","","[986.3999999761581,1173.1000000238419]","./assets/img/space/6.jpg","[""ArrowUp"",""ArrowRight""]","full practice","space","36","{""ArrowUp,ArrowLeft"":3,""ArrowUp,ArrowRight"":36,""ArrowDown,ArrowLeft"":15,""ArrowDown,ArrowRight"":23}","true","ArrowUp,ArrowRight","false","","","","","",""
"html-keyboard-response","40","290517","0.0-3.0-8.0-1.0","spark_pilot_norest","11003","7","7","Female","","","","","","","null","<div style=""font-size:60px;"">+</div>","null","fixation","","","","","","","","","","","",""
"revaluation","41","296550","0.0-3.0-8.0-0.1","spark_pilot_norest","11003","7","7","Female","","false","","","","","[1135.5,1162.699999988079]","./assets/img/space/7.jpg","[""ArrowDown"",""ArrowRight""]","full practice","space","23","{""ArrowUp,ArrowLeft"":3,""ArrowUp,ArrowRight"":36,""ArrowDown,ArrowLeft"":15,""ArrowDown,ArrowRight"":23}","false","ArrowDown,ArrowRight","false","","","","","",""
"html-keyboard-response","42","297065","0.0-3.0-8.0-1.1","spark_pilot_norest","11003","7","7","Female","","","","","","","null","<div style=""font-size:60px;"">+</div>","null","fixation","","","","","","","","","","","",""
"revaluation","43","303095","0.0-3.0-8.0-0.2","spark_pilot_norest","11003","7","7","Female","","false","","","","","[1114.0999999642372,928.2999999523163]","./assets/img/space/8.jpg","[""ArrowDown"",""ArrowRight""]","full practice","space","23","{""ArrowUp,ArrowLeft"":3,""ArrowUp,ArrowRight"":36,""ArrowDown,ArrowLeft"":15,""ArrowDown,ArrowRight"":23}","false","ArrowDown,ArrowRight","false","","","","","",""
"html-keyboard-response","44","303597","0.0-3.0-8.0-1.2","spark_pilot_norest","11003","7","7","Female","","","","","","","null","<div style=""font-size:60px;"">+</div>","null","fixation","","","","","","","","","","","",""
"revaluation","45","309623","0.0-3.0-8.0-0.3","spark_pilot_norest","11003","7","7","Female","","false","","","","","[1280.1000000238419,945.3000000119209]","./assets/img/space/9.jpg","[""ArrowDown"",""ArrowLeft""]","full practice","space","15","{""ArrowUp,ArrowLeft"":3,""ArrowUp,ArrowRight"":36,""ArrowDown,ArrowLeft"":15,""ArrowDown,ArrowRight"":23}","false","ArrowDown,ArrowLeft","false","","","","","",""
"html-keyboard-response","46","310137","0.0-3.0-8.0-1.3","spark_pilot_norest","11003","7","7","Female","","","","","","","null","<div style=""font-size:60px;"">+</div>","null","fixation","","","","","","","","","","","",""
"revaluation","47","316153","0.0-3.0-8.0-0.4","spark_pilot_norest","11003","7","7","Female","","false","","","","","[1083,1219.2999999523163]","./assets/img/space/10.jpg","[""ArrowUp"",""ArrowRight""]","full practice","space","36","{""ArrowUp,ArrowLeft"":3,""ArrowUp,ArrowRight"":36,""ArrowDown,ArrowLeft"":15,""ArrowDown,ArrowRight"":23}","true","ArrowUp,ArrowRight","false","","","","","",""
"html-keyboard-response","48","316655","0.0-3.0-8.0-1.4","spark_pilot_norest","11003","7","7","Female","","","","","","","null","<div style=""font-size:60px;"">+</div>","null","fixation","","","","","","","","","","","",""
"learning-instructions","49","328675","0.0-3.0-9.0-0.0","spark_pilot_norest","11003","7","7","Female","","","","","","","1712.3999999761581","<p> One last thing: sometimes, you will see a robber. The robber can be anywhere in the picture. </p>
            <p> If you do not stop them, you will lose treasure. </p>
            <img src='./assets/img/instructions/robber.jpg' class='instructions-image'>","","instructions","","","","","","","","","","","",""
"learning-instructions","50","337564","0.0-3.0-9.0-0.1","spark_pilot_norest","11003","7","7","Female","","","","","","","1711.5","<p> If you see the robber, you should <b>press the space bar</b> rather than using the arrow keys. </p>
            <p> Try practicing that now! </p>","","instructions","","","","","","","","","","","",""
"revaluation","51","341583","0.0-3.0-10.0-0.0","spark_pilot_norest","11003","7","7","Female","","false","","","","","[1188]","./assets/img/space/catch/0.jpg","[""spaceBar""]","catch practice","space","0","{""ArrowUp,ArrowLeft"":3,""ArrowUp,ArrowRight"":36,""ArrowDown,ArrowLeft"":15,""ArrowDown,ArrowRight"":23}","true","spaceBar","true","","","","","",""
"html-keyboard-response","52","342098","0.0-3.0-10.0-1.0","spark_pilot_norest","11003","7","7","Female","","","","","","","null","<div style=""font-size:60px;"">+</div>","null","fixation","","","","","","","","","","","",""
"revaluation","53","346118","0.0-3.0-10.0-0.1","spark_pilot_norest","11003","7","7","Female","","false","","","","","[1086.6000000238419]","./assets/img/space/catch/1.jpg","[""spaceBar""]","catch practice","space","0","{""ArrowUp,ArrowLeft"":3,""ArrowUp,ArrowRight"":36,""ArrowDown,ArrowLeft"":15,""ArrowDown,ArrowRight"":23}","true","spaceBar","true","","","","","",""
"html-keyboard-response","54","346631","0.0-3.0-10.0-1.1","spark_pilot_norest","11003","7","7","Female","","","","","","","null","<div style=""font-size:60px;"">+</div>","null","fixation","","","","","","","","","","","",""
"revaluation","55","350648","0.0-3.0-10.0-0.2","spark_pilot_norest","11003","7","7","Female","","false","","","","","[1016.1999999880791]","./assets/img/space/catch/2.jpg","[""spaceBar""]","catch practice","space","0","{""ArrowUp,ArrowLeft"":3,""ArrowUp,ArrowRight"":36,""ArrowDown,ArrowLeft"":15,""ArrowDown,ArrowRight"":23}","true","spaceBar","true","","","","","",""
"html-keyboard-response","56","351163","0.0-3.0-10.0-1.2","spark_pilot_norest","11003","7","7","Female","","","","","","","null","<div style=""font-size:60px;"">+</div>","null","fixation","","","","","","","","","","","",""
"learning-instructions","57","359446","0.0-3.0-11.0-0.0-0.0","spark_pilot_norest","11003","7","7","Female","","","","","","","3034.2000000476837","<p> Now, you will practice a shortened version of the game to get a sense of how it all fits together. </p>","","instructions","","","","","","","","","","","",""
"learning-instructions","58","364492","0.0-3.0-11.0-0.0-0.1","spark_pilot_norest","11003","7","7","Female","","","","","","","1849.8999999761581","<p>This time you are searching for treasure in outer space.</p>","","instructions","","","","","","","","","","","",""
"learning-instructions","59","381491","0.0-3.0-11.0-1.0-0.0","spark_pilot_norest","11003","7","7","Female","","","","","","","2229.699999988079","<p> Remember, when you see a picture of the place, use the up and down keys to <b>find an animal</b>.</p>
            <p> When you encounter an animal, you should use the left and right keys to <b>select a treasure chest</b>.</p>
            <p> Don't forget to look out for the robber! </p>","","instructions","","","","","","","","","","","",""
"revaluation","60","387514","0.0-3.0-11.0-2.0-0.0","spark_pilot_norest","11003","7","7","Female","","false","","","","","[1913.800000011921,1409.4000000357628]","./assets/img/space/11.jpg","[""ArrowUp"",""ArrowRight""]","practice block","space","36","{""ArrowUp,ArrowLeft"":3,""ArrowUp,ArrowRight"":36,""ArrowDown,ArrowLeft"":15,""ArrowDown,ArrowRight"":23}","true","ArrowUp,ArrowRight","false","","","","","",""
"html-keyboard-response","61","388029","0.0-3.0-11.0-2.0-1.0","spark_pilot_norest","11003","7","7","Female","","","","","","","null","<div style=""font-size:60px;"">+</div>","null","fixation","","","","","","","","","","","",""
"revaluation","62","394054","0.0-3.0-11.0-2.0-0.1","spark_pilot_norest","11003","7","7","Female","","false","","","","","[1647.800000011921,1160.7999999523163]","./assets/img/space/12.jpg","[""ArrowUp"",""ArrowLeft""]","practice block","space","3","{""ArrowUp,ArrowLeft"":3,""ArrowUp,ArrowRight"":36,""ArrowDown,ArrowLeft"":15,""ArrowDown,ArrowRight"":23}","false","ArrowUp,ArrowLeft","false","","","","","",""
"html-keyboard-response","63","394568","0.0-3.0-11.0-2.0-1.1","spark_pilot_norest","11003","7","7","Female","","","","","","","null","<div style=""font-size:60px;"">+</div>","null","fixation","","","","","","","","","","","",""
"revaluation","64","400605","0.0-3.0-11.0-2.0-0.2","spark_pilot_norest","11003","7","7","Female","","false","","","","","[1779.300000011921,892]","./assets/img/space/13.jpg","[""ArrowUp"",""ArrowRight""]","practice block","space","36","{""ArrowUp,ArrowLeft"":3,""ArrowUp,ArrowRight"":36,""ArrowDown,ArrowLeft"":15,""ArrowDown,ArrowRight"":23}","true","ArrowUp,ArrowRight","false","","","","","",""
"html-keyboard-response","65","401121","0.0-3.0-11.0-2.0-1.2","spark_pilot_norest","11003","7","7","Female","","","","","","","null","<div style=""font-size:60px;"">+</div>","null","fixation","","","","","","","","","","","",""
"revaluation","66","407154","0.0-3.0-11.0-2.0-0.3","spark_pilot_norest","11003","7","7","Female","","false","","","","","[1814,1099.300000011921]","./assets/img/space/14.jpg","[""ArrowUp"",""ArrowLeft""]","practice block","space","3","{""ArrowUp,ArrowLeft"":3,""ArrowUp,ArrowRight"":36,""ArrowDown,ArrowLeft"":15,""ArrowDown,ArrowRight"":23}","false","ArrowUp,ArrowLeft","false","","","","","",""
"html-keyboard-response","67","407669","0.0-3.0-11.0-2.0-1.3","spark_pilot_norest","11003","7","7","Female","","","","","","","null","<div style=""font-size:60px;"">+</div>","null","fixation","","","","","","","","","","","",""
"revaluation","68","411675","0.0-3.0-11.0-2.0-0.4","spark_pilot_norest","11003","7","7","Female","","true","","","","","[]","./assets/img/space/11.jpg","[]","practice block","space","-5","{""ArrowUp,ArrowLeft"":3,""ArrowUp,ArrowRight"":36,""ArrowDown,ArrowLeft"":15,""ArrowDown,ArrowRight"":23}","false","","false","","","","","",""
"html-keyboard-response","69","412178","0.0-3.0-11.0-2.0-1.4","spark_pilot_norest","11003","7","7","Female","","","","","","","null","<div style=""font-size:60px;"">+</div>","null","fixation","","","","","","","","","","","",""
"revaluation","70","418184","0.0-3.0-11.0-2.0-0.5","spark_pilot_norest","11003","7","7","Female","","true","","","","","[1258.5]","./assets/img/space/12.jpg","[""ArrowUp""]","practice block","space","-5","{""ArrowUp,ArrowLeft"":3,""ArrowUp,ArrowRight"":36,""ArrowDown,ArrowLeft"":15,""ArrowDown,ArrowRight"":23}","false","ArrowUp","false","","","","","",""
"html-keyboard-response","71","418685","0.0-3.0-11.0-2.0-1.5","spark_pilot_norest","11003","7","7","Female","","","","","","","null","<div style=""font-size:60px;"">+</div>","null","fixation","","","","","","","","","","","",""
"revaluation","72","422687","0.0-3.0-11.0-2.0-0.6","spark_pilot_norest","11003","7","7","Female","","true","","","","","[]","./assets/img/space/13.jpg","[]","practice block","space","-5","{""ArrowUp,ArrowLeft"":3,""ArrowUp,ArrowRight"":36,""ArrowDown,ArrowLeft"":15,""ArrowDown,ArrowRight"":23}","false","","false","","","","","",""
"html-keyboard-response","73","423189","0.0-3.0-11.0-2.0-1.6","spark_pilot_norest","11003","7","7","Female","","","","","","","null","<div style=""font-size:60px;"">+</div>","null","fixation","","","","","","","","","","","",""
"revaluation","74","429197","0.0-3.0-11.0-2.0-0.7","spark_pilot_norest","11003","7","7","Female","","false","","","","","[996.5999999642372,1053]","./assets/img/space/14.jpg","[""ArrowUp"",""ArrowLeft""]","practice block","space","3","{""ArrowUp,ArrowLeft"":3,""ArrowUp,ArrowRight"":36,""ArrowDown,ArrowLeft"":15,""ArrowDown,ArrowRight"":23}","false","ArrowUp,ArrowLeft","false","","","","","",""
"html-keyboard-response","75","429698","0.0-3.0-11.0-2.0-1.7","spark_pilot_norest","11003","7","7","Female","","","","","","","null","<div style=""font-size:60px;"">+</div>","null","fixation","","","","","","","","","","","",""
"revaluation","76","433704","0.0-3.0-11.0-2.0-0.8","spark_pilot_norest","11003","7","7","Female","","false","","","","","[1374.7999999523163]","./assets/img/space/catch/3.jpg","[""spaceBar""]","practice block","space","0","{""ArrowUp,ArrowLeft"":3,""ArrowUp,ArrowRight"":36,""ArrowDown,ArrowLeft"":15,""ArrowDown,ArrowRight"":23}","true","spaceBar","true","","","","","",""
"html-keyboard-response","77","434206","0.0-3.0-11.0-2.0-1.8","spark_pilot_norest","11003","7","7","Female","","","","","","","null","<div style=""font-size:60px;"">+</div>","null","fixation","","","","","","","","","","","",""
"learning-instructions","78","449983","0.0-3.0-11.0-3.0-0.0","spark_pilot_norest","11003","7","7","Female","","","","","","","2851.100000023842","<p> Now, you will travel with a friend who will choose whether you go up or down first. </p>
            <p> On these turns, you will just see the animal that they found. You will still get to choose which chest to search for treasure.</p>","","instructions","","","","","","","","","","","",""
"revaluation","79","453998","0.0-3.0-11.0-4.0-0.0","spark_pilot_norest","11003","7","7","Female","","false","","","","","[1564.699999988079]","./assets/img/space/animals/rabbit.jpg","[""ArrowRight""]","practice block","space","23","{""ArrowUp,ArrowLeft"":3,""ArrowUp,ArrowRight"":36,""ArrowDown,ArrowLeft"":15,""ArrowDown,ArrowRight"":23}","true","ArrowDown,ArrowRight","","","","","","",""
"html-keyboard-response","80","454512","0.0-3.0-11.0-4.0-1.0","spark_pilot_norest","11003","7","7","Female","","","","","","","null","<div style=""font-size:60px;"">+</div>","null","fixation","","","","","","","","","","","",""
"revaluation","81","458534","0.0-3.0-11.0-4.0-0.1","spark_pilot_norest","11003","7","7","Female","","false","","","","","[1230]","./assets/img/space/animals/cat.jpg","[""ArrowRight""]","practice block","space","36","{""ArrowUp,ArrowLeft"":3,""ArrowUp,ArrowRight"":36,""ArrowDown,ArrowLeft"":15,""ArrowDown,ArrowRight"":23}","true","ArrowUp,ArrowRight","","","","","","",""
"html-keyboard-response","82","459049","0.0-3.0-11.0-4.0-1.1","spark_pilot_norest","11003","7","7","Female","","","","","","","null","<div style=""font-size:60px;"">+</div>","null","fixation","","","","","","","","","","","",""
"revaluation","83","463069","0.0-3.0-11.0-4.0-0.2","spark_pilot_norest","11003","7","7","Female","","false","","","","","[415.69999998807907]","./assets/img/space/animals/cat.jpg","[""ArrowLeft""]","practice block","space","3","{""ArrowUp,ArrowLeft"":3,""ArrowUp,ArrowRight"":36,""ArrowDown,ArrowLeft"":15,""ArrowDown,ArrowRight"":23}","false","ArrowUp,ArrowLeft","","","","","","",""
"html-keyboard-response","84","463587","0.0-3.0-11.0-4.0-1.2","spark_pilot_norest","11003","7","7","Female","","","","","","","null","<div style=""font-size:60px;"">+</div>","null","fixation","","","","","","","","","","","",""
"revaluation","85","467606","0.0-3.0-11.0-4.0-0.3","spark_pilot_norest","11003","7","7","Female","","false","","","","","[831.3000000119209]","./assets/img/space/animals/rabbit.jpg","[""ArrowRight""]","practice block","space","23","{""ArrowUp,ArrowLeft"":3,""ArrowUp,ArrowRight"":36,""ArrowDown,ArrowLeft"":15,""ArrowDown,ArrowRight"":23}","true","ArrowDown,ArrowRight","","","","","","",""
"html-keyboard-response","86","468120","0.0-3.0-11.0-4.0-1.3","spark_pilot_norest","11003","7","7","Female","","","","","","","null","<div style=""font-size:60px;"">+</div>","null","fixation","","","","","","","","","","","",""
"learning-instructions","87","476262","0.0-3.0-11.0-5.0-0.0","spark_pilot_norest","11003","7","7","Female","","","","","","","null","<p> You have almost finished this part of the game! </p>
            <p> We are going to ask you to make a few more choices. </p>","","instructions","","","","","","","","","","","",""
"learning-instructions","88","492293","0.0-3.0-11.0-5.0-0.1","spark_pilot_norest","11003","7","7","Female","","","","","","","null","<p> First, you need to decide whether to go up or down. When you see each picture, use the arrow keys to make your choice. </p>
            <p><b>You will not see which animal you found, but try to get to the one that will give you the most treasure.</b></p>","","instructions","","","","","","","","","","","",""
"html-keyboard-response","89","493306","0.0-3.0-11.0-6.0-0.0","spark_pilot_norest","11003","7","7","Female","","","","","","","null","<div style=""font-size:100px;color:red;"">Starting in...</div>","null","","","","","","","","","","","","",""
"html-keyboard-response","90","494320","0.0-3.0-11.0-6.0-1.0","spark_pilot_norest","11003","7","7","Female","","","","","","","null","<div style=""font-size:200px;color:red;"">3</div>","null","","","","","","","","","","","","",""
"html-keyboard-response","91","495335","0.0-3.0-11.0-6.0-2.0","spark_pilot_norest","11003","7","7","Female","","","","","","","null","<div style=""font-size:200px;color:red;"">2</div>","null","","","","","","","","","","","","",""
"html-keyboard-response","92","496347","0.0-3.0-11.0-6.0-3.0","spark_pilot_norest","11003","7","7","Female","","","","","","","null","<div style=""font-size:200px;color:red;"">1</div>","null","","","","","","","","","","","","",""
"revaluation","93","497887","0.0-3.0-11.0-7.0","spark_pilot_norest","11003","7","7","Female","","false","","","","","[1536.5999999642372]","./assets/img/space/15.jpg","[""ArrowUp""]","practice block","space","0","{""ArrowUp,ArrowLeft"":3,""ArrowUp,ArrowRight"":36,""ArrowDown,ArrowLeft"":15,""ArrowDown,ArrowRight"":23}","true","ArrowUp","false","","","","","",""
"html-keyboard-response","94","498402","0.0-3.0-11.0-8.0","spark_pilot_norest","11003","7","7","Female","","","","","","","null","<div style=""font-size:60px;"">+</div>","null","fixation","","","","","","","","","","","",""
"learning-instructions","95","511791","0.0-3.0-11.0-9.0-0.0","spark_pilot_norest","11003","7","7","Female","","","","","","","null","<p> Now you will see the animals again and can search their chests for treasure. </p>
            <p> This time, you will not see how much treasure you earned, but you will earn more bonus money for making better choices. </p>","","instructions","","","","","","","","","","","",""
"html-keyboard-response","96","512799","0.0-3.0-11.0-10.0-0.0","spark_pilot_norest","11003","7","7","Female","","","","","","","null","<div style=""font-size:100px;color:red;"">Starting in...</div>","null","","","","","","","","","","","","",""
"html-keyboard-response","97","513812","0.0-3.0-11.0-10.0-1.0","spark_pilot_norest","11003","7","7","Female","","","","","","","null","<div style=""font-size:200px;color:red;"">3</div>","null","","","","","","","","","","","","",""
"html-keyboard-response","98","514821","0.0-3.0-11.0-10.0-2.0","spark_pilot_norest","11003","7","7","Female","","","","","","","null","<div style=""font-size:200px;color:red;"">2</div>","null","","","","","","","","","","","","",""
"html-keyboard-response","99","515834","0.0-3.0-11.0-10.0-3.0","spark_pilot_norest","11003","7","7","Female","","","","","","","null","<div style=""font-size:200px;color:red;"">1</div>","null","","","","","","","","","","","","",""
"revaluation","100","517076","0.0-3.0-11.0-11.0-0.0","spark_pilot_norest","11003","7","7","Female","","false","","","","","[1233.8999999761581]","./assets/img/space/animals/cat.jpg","[""ArrowRight""]","practice block","space","0","{""ArrowUp,ArrowLeft"":3,""ArrowUp,ArrowRight"":36,""ArrowDown,ArrowLeft"":15,""ArrowDown,ArrowRight"":23}","true","ArrowUp,ArrowRight","","","","","","",""
"html-keyboard-response","101","517592","0.0-3.0-11.0-11.0-1.0","spark_pilot_norest","11003","7","7","Female","","","","","","","null","<div style=""font-size:60px;"">+</div>","null","fixation","","","","","","","","","","","",""
"revaluation","102","518262","0.0-3.0-11.0-11.0-0.1","spark_pilot_norest","11003","7","7","Female","","false","","","","","[667.3999999761581]","./assets/img/space/animals/rabbit.jpg","[""ArrowLeft""]","practice block","space","0","{""ArrowUp,ArrowLeft"":3,""ArrowUp,ArrowRight"":36,""ArrowDown,ArrowLeft"":15,""ArrowDown,ArrowRight"":23}","false","ArrowDown,ArrowLeft","","","","","","",""
"html-keyboard-response","103","518765","0.0-3.0-11.0-11.0-1.1","spark_pilot_norest","11003","7","7","Female","","","","","","","null","<div style=""font-size:60px;"">+</div>","null","fixation","","","","","","","","","","","",""
"learning-instructions","104","530953","0.0-3.0-12.0-0.0","spark_pilot_norest","11003","7","7","Female","","","","","","","7601.600000023842","<p> Before you start, we're going to ask you a few questions about how the game works. </p>","","instructions","","","","","","","","","","","",""
"comp-q","105","540977","0.0-3.0-13.0-0.0-0.0","spark_pilot_norest","11003","7","7","Female","","","","","","","4440.699999988079","<p> <b> True or False? </b> </p>
            <p> There can be 50 pieces of treasure in a given animal's chest. </p>","1","comp_question","","","","true","","","","","","","",""
"comp-q","106","551392","0.0-3.0-13.0-0.0-1.0","spark_pilot_norest","11003","7","7","Female","","","","","","","3750.399999976158","<p> <b> That's right! </b> The amount of treasure in each chest can range from 0 to 40 pieces. </p>","0","comp_answer","","","","","","","","","","","",""
"comp-q","107","561209","0.0-3.0-13.0-0.1-0.1","spark_pilot_norest","11003","7","7","Female","","","","","","","2688.099999964237","<p> <b> True or False? </b> </p><p> In this game, all animals have the same amount of treasure in their left and right chests. </p>","1","comp_question","","","","true","","","","","","","",""
"comp-q","108","570937","0.0-3.0-13.0-0.1-1.1","spark_pilot_norest","11003","7","7","Female","","","","","","","4495.100000023842","<p> <b> That's right! </b> Animals have different amounts of treasure in their treasure chests. </p>","0","comp_answer","","","","","","","","","","","",""
"comp-q","109","578949","0.0-3.0-13.0-0.2-0.2","spark_pilot_norest","11003","7","7","Female","","","","","","","2167.600000023842","<p> <b> True or False? </b> </p><p> The same animal will always be there if you go up in the same place. </p>","1","comp_question","","","","false","","","","","","","",""
"comp-q","110","587483","0.0-3.0-13.0-0.2-1.2","spark_pilot_norest","11003","7","7","Female","","","","","","","2231.699999988079","<p> <b>Incorrect.</b> One animal lives in the upper part and one lives in the lower part of every place. </p>","0","comp_answer","","","","","","","","","","","",""
"comp-q","111","595920","0.0-3.0-13.0-0.3-0.3","spark_pilot_norest","11003","7","7","Female","","","","","","","2619.5","<p> <b> True or False? </b> </p><p> The same animal will always be there if you go up in the same place. </p>","0","comp_question","","","","true","","","","","","","",""
"comp-q","112","606189","0.0-3.0-13.0-0.3-1.3","spark_pilot_norest","11003","7","7","Female","","","","","","","3818.399999976158","<p> <b> That's right! </b> One animal lives in the upper part and one lives in the lower part of every place. </p>","0","comp_answer","","","","","","","","","","","",""
"comp-q","113","615398","0.0-3.0-13.0-0.4-0.4","spark_pilot_norest","11003","7","7","Female","","","","","","","3676.699999988079","<p> <b> True or False? </b> </p><p> If you see a different picture, it means you are in a new place. </p>","0","comp_question","","","","false","","","","","","","",""
"comp-q","114","627984","0.0-3.0-13.0-0.4-1.4","spark_pilot_norest","11003","7","7","Female","","","","","","","1491.8999999761581","<p> <b>Incorrect.</b> Lots of different images may show the same place. For example,  you may see three different images that all remind you that you are in outer space. </p>","0","comp_answer","","","","","","","","","","","",""
"comp-q","115","636697","0.0-3.0-13.0-0.5-0.5","spark_pilot_norest","11003","7","7","Female","","","","","","","3205","<p> <b> True or False? </b> </p><p> If you see a different picture, it means you are in a new place. </p>","1","comp_question","","","","true","","","","","","","",""
"comp-q","116","649878","0.0-3.0-13.0-0.5-1.5","spark_pilot_norest","11003","7","7","Female","","","","","","","1946.800000011921","<p> <b> That's right! </b> Lots of different images may show the same place. For example,  you may see three different images that all remind you that you are in outer space. </p>","0","comp_answer","","","","","","","","","","","",""
"learning-instructions","117","662385","0.0-3.0-14.0-0.0","spark_pilot_norest","11003","7","7","Female","","","","","","","2652.899999976158","<p> Good job. Remember to do your best because the amount of treasure you earn will be converted into bonus money. </p>
            <p> It’s time to start the real game! </p>","","instructions","","","","","","","","","","","",""
"learning-instructions","118","668876","0.0-4.0-0.0-0.0","spark_pilot_norest","11003","7","7","Female","","","","","","","3714.399999976158","<p> This time you are searching for treasure in the <b>canyon</b>.</p>","","instructions","","","","","","","","","","","",""
"learning-instructions","119","688135","0.0-4.0-0.0-0.1","spark_pilot_norest","11003","7","7","Female","","","","","","","1963.2000000476837","<p><b>New</b> animals with <b>new</b> treasure chests live here. You need to explore to discover where the animal with the best treasure chest is.</p>
                    <p> Like before, once you figure out which animal has the chest with the most treasure, you should try to get to that animal and select that chest! </p>","","instructions","","","","","","","","","","","",""
"learning-instructions","120","705194","0.0-4.0-1.0-0.0","spark_pilot_norest","11003","7","7","Female","","","","","","","2333.5","<p> Remember, when you see a picture of the place, use the up and down keys to <b>find an animal</b>.</p>
            <p> When you encounter an animal, you should use the left and right keys to <b>select a treasure chest</b>.</p>
            <p> Don't forget to look out for the robber! </p>","","instructions","","","","","","","","","","","",""
"revaluation","121","711213","0.0-4.0-2.0-0.0","spark_pilot_norest","11003","7","7","Female","","true","","","","","[1483.1000000238419]","./assets/img/canyon/memory/12.jpg","[""ArrowUp""]","value training","canyon","-5","{""ArrowUp,ArrowLeft"":23,""ArrowUp,ArrowRight"":10,""ArrowDown,ArrowLeft"":8,""ArrowDown,ArrowRight"":30}","false","ArrowUp","false","original","1","0","","",""
"html-keyboard-response","122","711726","0.0-4.0-2.0-1.0","spark_pilot_norest","11003","7","7","Female","","","","","","","null","<div style=""font-size:60px;"">+</div>","null","fixation","","","","","","","","","1","","",""
"revaluation","123","717760","0.0-4.0-2.0-0.1","spark_pilot_norest","11003","7","7","Female","","false","","","","","[1664.800000011921,1238.300000011921]","./assets/img/canyon/memory/3.jpg","[""ArrowUp"",""ArrowRight""]","value training","canyon","10","{""ArrowUp,ArrowLeft"":23,""ArrowUp,ArrowRight"":10,""ArrowDown,ArrowLeft"":8,""ArrowDown,ArrowRight"":30}","false","ArrowUp,ArrowRight","false","original","1","2","","",""
"html-keyboard-response","124","718273","0.0-4.0-2.0-1.1","spark_pilot_norest","11003","7","7","Female","","","","","","","null","<div style=""font-size:60px;"">+</div>","null","fixation","","","","","","","","","3","","",""
"revaluation","125","724303","0.0-4.0-2.0-0.2","spark_pilot_norest","11003","7","7","Female","","false","","","","","[1029.800000011921,909.3000000119209]","./assets/img/canyon/memory/31.jpg","[""ArrowUp"",""ArrowRight""]","value training","canyon","10","{""ArrowUp,ArrowLeft"":23,""ArrowUp,ArrowRight"":10,""ArrowDown,ArrowLeft"":8,""ArrowDown,ArrowRight"":30}","false","ArrowUp,ArrowRight","false","original","1","4","","",""
"html-keyboard-response","126","724816","0.0-4.0-2.0-1.2","spark_pilot_norest","11003","7","7","Female","","","","","","","null","<div style=""font-size:60px;"">+</div>","null","fixation","","","","","","","","","5","","",""
"revaluation","127","730846","0.0-4.0-2.0-0.3","spark_pilot_norest","11003","7","7","Female","","false","","","","","[1059.699999988079,1115.5]","./assets/img/canyon/memory/16.jpg","[""ArrowDown"",""ArrowRight""]","value training","canyon","30","{""ArrowUp,ArrowLeft"":23,""ArrowUp,ArrowRight"":10,""ArrowDown,ArrowLeft"":8,""ArrowDown,ArrowRight"":30}","true","ArrowDown,ArrowRight","false","original","1","6","","",""
"html-keyboard-response","128","731359","0.0-4.0-2.0-1.3","spark_pilot_norest","11003","7","7","Female","","","","","","","null","<div style=""font-size:60px;"">+</div>","null","fixation","","","","","","","","","7","","",""
"revaluation","129","737365","0.0-4.0-2.0-0.4","spark_pilot_norest","11003","7","7","Female","","false","","","","","[1042.5,1431.5]","./assets/img/canyon/memory/13.jpg","[""ArrowUp"",""ArrowLeft""]","value training","canyon","23","{""ArrowUp,ArrowLeft"":23,""ArrowUp,ArrowRight"":10,""ArrowDown,ArrowLeft"":8,""ArrowDown,ArrowRight"":30}","false","ArrowUp,ArrowLeft","false","original","1","8","","",""
"html-keyboard-response","130","737866","0.0-4.0-2.0-1.4","spark_pilot_norest","11003","7","7","Female","","","","","","","null","<div style=""font-size:60px;"">+</div>","null","fixation","","","","","","","","","9","","",""
"revaluation","131","743870","0.0-4.0-2.0-0.5","spark_pilot_norest","11003","7","7","Female","","false","","","","","[651,1364.5]","./assets/img/canyon/memory/0.jpg","[""ArrowDown"",""ArrowLeft""]","value training","canyon","8","{""ArrowUp,ArrowLeft"":23,""ArrowUp,ArrowRight"":10,""ArrowDown,ArrowLeft"":8,""ArrowDown,ArrowRight"":30}","false","ArrowDown,ArrowLeft","false","original","1","10","","",""
"html-keyboard-response","132","744372","0.0-4.0-2.0-1.5","spark_pilot_norest","11003","7","7","Female","","","","","","","null","<div style=""font-size:60px;"">+</div>","null","fixation","","","","","","","","","11","","",""
"revaluation","133","748374","0.0-4.0-2.0-0.6","spark_pilot_norest","11003","7","7","Female","","true","","","","","[]","./assets/img/canyon/memory/29.jpg","[]","value training","canyon","-5","{""ArrowUp,ArrowLeft"":23,""ArrowUp,ArrowRight"":10,""ArrowDown,ArrowLeft"":8,""ArrowDown,ArrowRight"":30}","false","","false","original","1","12","","",""
"html-keyboard-response","134","748875","0.0-4.0-2.0-1.6","spark_pilot_norest","11003","7","7","Female","","","","","","","null","<div style=""font-size:60px;"">+</div>","null","fixation","","","","","","","","","13","","",""
"revaluation","135","754882","0.0-4.0-2.0-0.7","spark_pilot_norest","11003","7","7","Female","","false","","","","","[691.5,924.3000000119209]","./assets/img/canyon/memory/1.jpg","[""ArrowDown"",""ArrowRight""]","value training","canyon","30","{""ArrowUp,ArrowLeft"":23,""ArrowUp,ArrowRight"":10,""ArrowDown,ArrowLeft"":8,""ArrowDown,ArrowRight"":30}","true","ArrowDown,ArrowRight","false","original","1","14","","",""
"html-keyboard-response","136","755383","0.0-4.0-2.0-1.7","spark_pilot_norest","11003","7","7","Female","","","","","","","null","<div style=""font-size:60px;"">+</div>","null","fixation","","","","","","","","","15","","",""
"revaluation","137","761391","0.0-4.0-2.0-0.8","spark_pilot_norest","11003","7","7","Female","","false","","","","","[1353.3999999761581,399.2999999523163]","./assets/img/canyon/memory/16.jpg","[""ArrowUp"",""ArrowRight""]","value training","canyon","10","{""ArrowUp,ArrowLeft"":23,""ArrowUp,ArrowRight"":10,""ArrowDown,ArrowLeft"":8,""ArrowDown,ArrowRight"":30}","false","ArrowUp,ArrowRight","false","original","1","16","","",""
"html-keyboard-response","138","761893","0.0-4.0-2.0-1.8","spark_pilot_norest","11003","7","7","Female","","","","","","","null","<div style=""font-size:60px;"">+</div>","null","fixation","","","","","","","","","17","","",""
"revaluation","139","765899","0.0-4.0-2.0-0.9","spark_pilot_norest","11003","7","7","Female","","false","","","","","[1926.199999988079]","./assets/img/canyon/catch/2.jpg","[""spaceBar""]","value training","canyon","0","{""ArrowUp,ArrowLeft"":23,""ArrowUp,ArrowRight"":10,""ArrowDown,ArrowLeft"":8,""ArrowDown,ArrowRight"":30}","true","spaceBar","true","original","1","18","","",""
"html-keyboard-response","140","766400","0.0-4.0-2.0-1.9","spark_pilot_norest","11003","7","7","Female","","","","","","","null","<div style=""font-size:60px;"">+</div>","null","fixation","","","","","","","","","19","","",""
"revaluation","141","770404","0.0-4.0-2.0-0.10","spark_pilot_norest","11003","7","7","Female","","true","","","","","[]","./assets/img/canyon/memory/31.jpg","[]","value training","canyon","-5","{""ArrowUp,ArrowLeft"":23,""ArrowUp,ArrowRight"":10,""ArrowDown,ArrowLeft"":8,""ArrowDown,ArrowRight"":30}","false","","false","original","1","20","","",""
"html-keyboard-response","142","770907","0.0-4.0-2.0-1.10","spark_pilot_norest","11003","7","7","Female","","","","","","","null","<div style=""font-size:60px;"">+</div>","null","fixation","","","","","","","","","21","","",""
"revaluation","143","776912","0.0-4.0-2.0-0.11","spark_pilot_norest","11003","7","7","Female","","false","","","","","[1037.4000000357628,1011.7999999523163]","./assets/img/canyon/memory/30.jpg","[""ArrowUp"",""ArrowRight""]","value training","canyon","10","{""ArrowUp,ArrowLeft"":23,""ArrowUp,ArrowRight"":10,""ArrowDown,ArrowLeft"":8,""ArrowDown,ArrowRight"":30}","false","ArrowUp,ArrowRight","false","original","1","22","","",""
"html-keyboard-response","144","777414","0.0-4.0-2.0-1.11","spark_pilot_norest","11003","7","7","Female","","","","","","","null","<div style=""font-size:60px;"">+</div>","null","fixation","","","","","","","","","23","","",""
"revaluation","145","781419","0.0-4.0-2.0-0.12","spark_pilot_norest","11003","7","7","Female","","false","","","","","[553.5]","./assets/img/canyon/catch/1.jpg","[""ArrowUp""]","value training","canyon","-10","{""ArrowUp,ArrowLeft"":23,""ArrowUp,ArrowRight"":10,""ArrowDown,ArrowLeft"":8,""ArrowDown,ArrowRight"":30}","false","ArrowUp","true","original","1","24","","",""
"html-keyboard-response","146","781922","0.0-4.0-2.0-1.12","spark_pilot_norest","11003","7","7","Female","","","","","","","null","<div style=""font-size:60px;"">+</div>","null","fixation","","","","","","","","","25","","",""
"revaluation","147","785925","0.0-4.0-2.0-0.13","spark_pilot_norest","11003","7","7","Female","","false","","","","","[1291]","./assets/img/canyon/catch/7.jpg","[""spaceBar""]","value training","canyon","0","{""ArrowUp,ArrowLeft"":23,""ArrowUp,ArrowRight"":10,""ArrowDown,ArrowLeft"":8,""ArrowDown,ArrowRight"":30}","true","spaceBar","true","original","1","26","","",""
"html-keyboard-response","148","786427","0.0-4.0-2.0-1.13","spark_pilot_norest","11003","7","7","Female","","","","","","","null","<div style=""font-size:60px;"">+</div>","null","fixation","","","","","","","","","27","","",""
"revaluation","149","792432","0.0-4.0-2.0-0.14","spark_pilot_norest","11003","7","7","Female","","false","","","","","[1940.8999999761581,1092.699999988079]","./assets/img/canyon/memory/39.jpg","[""ArrowUp"",""ArrowRight""]","value training","canyon","10","{""ArrowUp,ArrowLeft"":23,""ArrowUp,ArrowRight"":10,""ArrowDown,ArrowLeft"":8,""ArrowDown,ArrowRight"":30}","false","ArrowUp,ArrowRight","false","original","1","28","","",""
"html-keyboard-response","150","792935","0.0-4.0-2.0-1.14","spark_pilot_norest","11003","7","7","Female","","","","","","","null","<div style=""font-size:60px;"">+</div>","null","fixation","","","","","","","","","29","","",""
"revaluation","151","798940","0.0-4.0-2.0-0.15","spark_pilot_norest","11003","7","7","Female","","false","","","","","[1791.199999988079,1432.1000000238419]","./assets/img/canyon/memory/12.jpg","[""ArrowDown"",""ArrowLeft""]","value training","canyon","8","{""ArrowUp,ArrowLeft"":23,""ArrowUp,ArrowRight"":10,""ArrowDown,ArrowLeft"":8,""ArrowDown,ArrowRight"":30}","false","ArrowDown,ArrowLeft","false","original","1","30","","",""
"html-keyboard-response","152","799442","0.0-4.0-2.0-1.15","spark_pilot_norest","11003","7","7","Female","","","","","","","null","<div style=""font-size:60px;"">+</div>","null","fixation","","","","","","","","","31","","",""
"revaluation","153","803448","0.0-4.0-2.0-0.16","spark_pilot_norest","11003","7","7","Female","","false","","","","","[816.5]","./assets/img/canyon/catch/5.jpg","[""spaceBar""]","value training","canyon","0","{""ArrowUp,ArrowLeft"":23,""ArrowUp,ArrowRight"":10,""ArrowDown,ArrowLeft"":8,""ArrowDown,ArrowRight"":30}","true","spaceBar","true","original","1","32","","",""
"html-keyboard-response","154","803951","0.0-4.0-2.0-1.16","spark_pilot_norest","11003","7","7","Female","","","","","","","null","<div style=""font-size:60px;"">+</div>","null","fixation","","","","","","","","","33","","",""
"revaluation","155","807962","0.0-4.0-2.0-0.17","spark_pilot_norest","11003","7","7","Female","","true","","","","","[]","./assets/img/canyon/memory/14.jpg","[]","value training","canyon","-5","{""ArrowUp,ArrowLeft"":23,""ArrowUp,ArrowRight"":10,""ArrowDown,ArrowLeft"":8,""ArrowDown,ArrowRight"":30}","false","","false","original","1","34","","",""
"html-keyboard-response","156","808465","0.0-4.0-2.0-1.17","spark_pilot_norest","11003","7","7","Female","","","","","","","null","<div style=""font-size:60px;"">+</div>","null","fixation","","","","","","","","","35","","",""
"revaluation","157","814473","0.0-4.0-2.0-0.18","spark_pilot_norest","11003","7","7","Female","","false","","","","","[1262.5,751.8000000119209]","./assets/img/canyon/memory/29.jpg","[""ArrowUp"",""ArrowRight""]","value training","canyon","10","{""ArrowUp,ArrowLeft"":23,""ArrowUp,ArrowRight"":10,""ArrowDown,ArrowLeft"":8,""ArrowDown,ArrowRight"":30}","false","ArrowUp,ArrowRight","false","original","1","36","","",""
"html-keyboard-response","158","814974","0.0-4.0-2.0-1.18","spark_pilot_norest","11003","7","7","Female","","","","","","","null","<div style=""font-size:60px;"">+</div>","null","fixation","","","","","","","","","37","","",""
"revaluation","159","820981","0.0-4.0-2.0-0.19","spark_pilot_norest","11003","7","7","Female","","false","","","","","[1565.5999999642372,633.3000000119209]","./assets/img/canyon/memory/5.jpg","[""ArrowUp"",""ArrowRight""]","value training","canyon","10","{""ArrowUp,ArrowLeft"":23,""ArrowUp,ArrowRight"":10,""ArrowDown,ArrowLeft"":8,""ArrowDown,ArrowRight"":30}","false","ArrowUp,ArrowRight","false","original","1","38","","",""
"html-keyboard-response","160","821483","0.0-4.0-2.0-1.19","spark_pilot_norest","11003","7","7","Female","","","","","","","null","<div style=""font-size:60px;"">+</div>","null","fixation","","","","","","","","","39","","",""
"revaluation","161","827492","0.0-4.0-2.0-0.20","spark_pilot_norest","11003","7","7","Female","","false","","","","","[439.89999997615814,334.80000001192093]","./assets/img/canyon/memory/1.jpg","[""ArrowDown"",""ArrowLeft""]","value training","canyon","8","{""ArrowUp,ArrowLeft"":23,""ArrowUp,ArrowRight"":10,""ArrowDown,ArrowLeft"":8,""ArrowDown,ArrowRight"":30}","false","ArrowDown,ArrowLeft","false","original","1","40","","",""
"html-keyboard-response","162","827994","0.0-4.0-2.0-1.20","spark_pilot_norest","11003","7","7","Female","","","","","","","null","<div style=""font-size:60px;"">+</div>","null","fixation","","","","","","","","","41","","",""
"revaluation","163","834001","0.0-4.0-2.0-0.21","spark_pilot_norest","11003","7","7","Female","","false","","","","","[1835.3999999761581,690.1000000238419]","./assets/img/canyon/memory/15.jpg","[""ArrowUp"",""ArrowRight""]","value training","canyon","10","{""ArrowUp,ArrowLeft"":23,""ArrowUp,ArrowRight"":10,""ArrowDown,ArrowLeft"":8,""ArrowDown,ArrowRight"":30}","false","ArrowUp,ArrowRight","false","original","1","42","","",""
"html-keyboard-response","164","834503","0.0-4.0-2.0-1.21","spark_pilot_norest","11003","7","7","Female","","","","","","","null","<div style=""font-size:60px;"">+</div>","null","fixation","","","","","","","","","43","","",""
"revaluation","165","840511","0.0-4.0-2.0-0.22","spark_pilot_norest","11003","7","7","Female","","false","","","","","[652.5,695.0999999642372]","./assets/img/canyon/memory/15.jpg","[""ArrowUp"",""ArrowRight""]","value training","canyon","10","{""ArrowUp,ArrowLeft"":23,""ArrowUp,ArrowRight"":10,""ArrowDown,ArrowLeft"":8,""ArrowDown,ArrowRight"":30}","false","ArrowUp,ArrowRight","false","original","1","44","","",""
"html-keyboard-response","166","841013","0.0-4.0-2.0-1.22","spark_pilot_norest","11003","7","7","Female","","","","","","","null","<div style=""font-size:60px;"">+</div>","null","fixation","","","","","","","","","45","","",""
"revaluation","167","845018","0.0-4.0-2.0-0.23","spark_pilot_norest","11003","7","7","Female","","true","","","","","[]","./assets/img/canyon/memory/4.jpg","[]","value training","canyon","-5","{""ArrowUp,ArrowLeft"":23,""ArrowUp,ArrowRight"":10,""ArrowDown,ArrowLeft"":8,""ArrowDown,ArrowRight"":30}","false","","false","original","1","46","","",""
"html-keyboard-response","168","845519","0.0-4.0-2.0-1.23","spark_pilot_norest","11003","7","7","Female","","","","","","","null","<div style=""font-size:60px;"">+</div>","null","fixation","","","","","","","","","47","","",""
"revaluation","169","849533","0.0-4.0-2.0-0.24","spark_pilot_norest","11003","7","7","Female","","false","","","","","[1243.8999999761581]","./assets/img/canyon/catch/4.jpg","[""spaceBar""]","value training","canyon","0","{""ArrowUp,ArrowLeft"":23,""ArrowUp,ArrowRight"":10,""ArrowDown,ArrowLeft"":8,""ArrowDown,ArrowRight"":30}","true","spaceBar","true","original","1","48","","",""
"html-keyboard-response","170","850034","0.0-4.0-2.0-1.24","spark_pilot_norest","11003","7","7","Female","","","","","","","null","<div style=""font-size:60px;"">+</div>","null","fixation","","","","","","","","","49","","",""
"revaluation","171","856053","0.0-4.0-2.0-0.25","spark_pilot_norest","11003","7","7","Female","","false","","","","","[1508.3999999761581,710.3000000119209]","./assets/img/canyon/memory/37.jpg","[""ArrowUp"",""ArrowRight""]","value training","canyon","10","{""ArrowUp,ArrowLeft"":23,""ArrowUp,ArrowRight"":10,""ArrowDown,ArrowLeft"":8,""ArrowDown,ArrowRight"":30}","false","ArrowUp,ArrowRight","false","original","1","50","","",""
"html-keyboard-response","172","856555","0.0-4.0-2.0-1.25","spark_pilot_norest","11003","7","7","Female","","","","","","","null","<div style=""font-size:60px;"">+</div>","null","fixation","","","","","","","","","51","","",""
"revaluation","173","860559","0.0-4.0-2.0-0.26","spark_pilot_norest","11003","7","7","Female","","true","","","","","[]","./assets/img/canyon/memory/30.jpg","[]","value training","canyon","-5","{""ArrowUp,ArrowLeft"":23,""ArrowUp,ArrowRight"":10,""ArrowDown,ArrowLeft"":8,""ArrowDown,ArrowRight"":30}","false","","false","original","1","52","","",""
"html-keyboard-response","174","861061","0.0-4.0-2.0-1.26","spark_pilot_norest","11003","7","7","Female","","","","","","","null","<div style=""font-size:60px;"">+</div>","null","fixation","","","","","","","","","53","","",""
"revaluation","175","867068","0.0-4.0-2.0-0.27","spark_pilot_norest","11003","7","7","Female","","false","","","","","[480,45.30000001192093]","./assets/img/canyon/memory/24.jpg","[""ArrowUp"",""ArrowRight""]","value training","canyon","10","{""ArrowUp,ArrowLeft"":23,""ArrowUp,ArrowRight"":10,""ArrowDown,ArrowLeft"":8,""ArrowDown,ArrowRight"":30}","false","ArrowUp,ArrowRight","false","original","1","54","","",""
"html-keyboard-response","176","867570","0.0-4.0-2.0-1.27","spark_pilot_norest","11003","7","7","Female","","","","","","","null","<div style=""font-size:60px;"">+</div>","null","fixation","","","","","","","","","55","","",""
"revaluation","177","871576","0.0-4.0-2.0-0.28","spark_pilot_norest","11003","7","7","Female","","false","","","","","[186.79999995231628]","./assets/img/canyon/catch/0.jpg","[""ArrowUp""]","value training","canyon","-10","{""ArrowUp,ArrowLeft"":23,""ArrowUp,ArrowRight"":10,""ArrowDown,ArrowLeft"":8,""ArrowDown,ArrowRight"":30}","false","ArrowUp","true","original","1","56","","",""
"html-keyboard-response","178","872077","0.0-4.0-2.0-1.28","spark_pilot_norest","11003","7","7","Female","","","","","","","null","<div style=""font-size:60px;"">+</div>","null","fixation","","","","","","","","","57","","",""
"revaluation","179","878084","0.0-4.0-2.0-0.29","spark_pilot_norest","11003","7","7","Female","","false","","","","","[1752.199999988079,155.5999999642372]","./assets/img/canyon/memory/41.jpg","[""ArrowUp"",""ArrowRight""]","value training","canyon","10","{""ArrowUp,ArrowLeft"":23,""ArrowUp,ArrowRight"":10,""ArrowDown,ArrowLeft"":8,""ArrowDown,ArrowRight"":30}","false","ArrowUp,ArrowRight","false","original","1","58","","",""
"html-keyboard-response","180","878585","0.0-4.0-2.0-1.29","spark_pilot_norest","11003","7","7","Female","","","","","","","null","<div style=""font-size:60px;"">+</div>","null","fixation","","","","","","","","","59","","",""
"revaluation","181","884589","0.0-4.0-2.0-0.30","spark_pilot_norest","11003","7","7","Female","","false","","","","","[932.5,325.39999997615814]","./assets/img/canyon/memory/0.jpg","[""ArrowDown"",""ArrowRight""]","value training","canyon","30","{""ArrowUp,ArrowLeft"":23,""ArrowUp,ArrowRight"":10,""ArrowDown,ArrowLeft"":8,""ArrowDown,ArrowRight"":30}","true","ArrowDown,ArrowRight","false","original","1","60","","",""
"html-keyboard-response","182","885091","0.0-4.0-2.0-1.30","spark_pilot_norest","11003","7","7","Female","","","","","","","null","<div style=""font-size:60px;"">+</div>","null","fixation","","","","","","","","","61","","",""
"revaluation","183","891097","0.0-4.0-2.0-0.31","spark_pilot_norest","11003","7","7","Female","","false","","","","","[133.69999998807907,410.4000000357628]","./assets/img/canyon/memory/6.jpg","[""ArrowDown"",""ArrowRight""]","value training","canyon","30","{""ArrowUp,ArrowLeft"":23,""ArrowUp,ArrowRight"":10,""ArrowDown,ArrowLeft"":8,""ArrowDown,ArrowRight"":30}","true","ArrowDown,ArrowRight","false","original","1","62","","",""
"html-keyboard-response","184","891598","0.0-4.0-2.0-1.31","spark_pilot_norest","11003","7","7","Female","","","","","","","null","<div style=""font-size:60px;"">+</div>","null","fixation","","","","","","","","","63","","",""
"revaluation","185","897602","0.0-4.0-2.0-0.32","spark_pilot_norest","11003","7","7","Female","","false","","","","","[92.60000002384186,199.9000000357628]","./assets/img/canyon/memory/3.jpg","[""ArrowDown"",""ArrowLeft""]","value training","canyon","8","{""ArrowUp,ArrowLeft"":23,""ArrowUp,ArrowRight"":10,""ArrowDown,ArrowLeft"":8,""ArrowDown,ArrowRight"":30}","false","ArrowDown,ArrowLeft","false","original","1","64","","",""
"html-keyboard-response","186","898103","0.0-4.0-2.0-1.32","spark_pilot_norest","11003","7","7","Female","","","","","","","null","<div style=""font-size:60px;"">+</div>","null","fixation","","","","","","","","","65","","",""
"revaluation","187","902109","0.0-4.0-2.0-0.33","spark_pilot_norest","11003","7","7","Female","","false","","","","","[134.0999999642372]","./assets/img/canyon/catch/3.jpg","[""spaceBar""]","value training","canyon","0","{""ArrowUp,ArrowLeft"":23,""ArrowUp,ArrowRight"":10,""ArrowDown,ArrowLeft"":8,""ArrowDown,ArrowRight"":30}","true","spaceBar","true","original","1","66","","",""
"html-keyboard-response","188","902611","0.0-4.0-2.0-1.33","spark_pilot_norest","11003","7","7","Female","","","","","","","null","<div style=""font-size:60px;"">+</div>","null","fixation","","","","","","","","","67","","",""
"revaluation","189","908617","0.0-4.0-2.0-0.34","spark_pilot_norest","11003","7","7","Female","","false","","","","","[1432.1000000238419,345.5]","./assets/img/canyon/memory/13.jpg","[""ArrowUp"",""ArrowRight""]","value training","canyon","10","{""ArrowUp,ArrowLeft"":23,""ArrowUp,ArrowRight"":10,""ArrowDown,ArrowLeft"":8,""ArrowDown,ArrowRight"":30}","false","ArrowUp,ArrowRight","false","original","1","68","","",""
"html-keyboard-response","190","909118","0.0-4.0-2.0-1.34","spark_pilot_norest","11003","7","7","Female","","","","","","","null","<div style=""font-size:60px;"">+</div>","null","fixation","","","","","","","","","69","","",""
"revaluation","191","915138","0.0-4.0-2.0-0.35","spark_pilot_norest","11003","7","7","Female","","false","","","","","[289.60000002384186,11]","./assets/img/canyon/memory/41.jpg","[""ArrowUp"",""ArrowLeft""]","value training","canyon","23","{""ArrowUp,ArrowLeft"":23,""ArrowUp,ArrowRight"":10,""ArrowDown,ArrowLeft"":8,""ArrowDown,ArrowRight"":30}","false","ArrowUp,ArrowLeft","false","original","1","70","","",""
"html-keyboard-response","192","915639","0.0-4.0-2.0-1.35","spark_pilot_norest","11003","7","7","Female","","","","","","","null","<div style=""font-size:60px;"">+</div>","null","fixation","","","","","","","","","71","","",""
"revaluation","193","921643","0.0-4.0-2.0-0.36","spark_pilot_norest","11003","7","7","Female","","false","","","","","[692.3999999761581,69.90000003576279]","./assets/img/canyon/memory/9.jpg","[""ArrowUp"",""ArrowLeft""]","value training","canyon","23","{""ArrowUp,ArrowLeft"":23,""ArrowUp,ArrowRight"":10,""ArrowDown,ArrowLeft"":8,""ArrowDown,ArrowRight"":30}","false","ArrowUp,ArrowLeft","false","original","1","72","","",""
"html-keyboard-response","194","922145","0.0-4.0-2.0-1.36","spark_pilot_norest","11003","7","7","Female","","","","","","","null","<div style=""font-size:60px;"">+</div>","null","fixation","","","","","","","","","73","","",""
"revaluation","195","928151","0.0-4.0-2.0-0.37","spark_pilot_norest","11003","7","7","Female","","false","","","","","[256.69999998807907,789.5]","./assets/img/canyon/memory/6.jpg","[""ArrowUp"",""ArrowLeft""]","value training","canyon","23","{""ArrowUp,ArrowLeft"":23,""ArrowUp,ArrowRight"":10,""ArrowDown,ArrowLeft"":8,""ArrowDown,ArrowRight"":30}","false","ArrowUp,ArrowLeft","false","original","1","74","","",""
"html-keyboard-response","196","928652","0.0-4.0-2.0-1.37","spark_pilot_norest","11003","7","7","Female","","","","","","","null","<div style=""font-size:60px;"">+</div>","null","fixation","","","","","","","","","75","","",""
"revaluation","197","934659","0.0-4.0-2.0-0.38","spark_pilot_norest","11003","7","7","Female","","false","","","","","[31,701.3999999761581]","./assets/img/canyon/memory/2.jpg","[""ArrowUp"",""ArrowRight""]","value training","canyon","10","{""ArrowUp,ArrowLeft"":23,""ArrowUp,ArrowRight"":10,""ArrowDown,ArrowLeft"":8,""ArrowDown,ArrowRight"":30}","false","ArrowUp,ArrowRight","false","original","1","76","","",""
"html-keyboard-response","198","935161","0.0-4.0-2.0-1.38","spark_pilot_norest","11003","7","7","Female","","","","","","","null","<div style=""font-size:60px;"">+</div>","null","fixation","","","","","","","","","77","","",""
"revaluation","199","941166","0.0-4.0-2.0-0.39","spark_pilot_norest","11003","7","7","Female","","false","","","","","[28.099999964237213,748.6999999880791]","./assets/img/canyon/memory/2.jpg","[""ArrowUp"",""ArrowLeft""]","value training","canyon","23","{""ArrowUp,ArrowLeft"":23,""ArrowUp,ArrowRight"":10,""ArrowDown,ArrowLeft"":8,""ArrowDown,ArrowRight"":30}","false","ArrowUp,ArrowLeft","false","original","1","78","","",""
"html-keyboard-response","200","941667","0.0-4.0-2.0-1.39","spark_pilot_norest","11003","7","7","Female","","","","","","","null","<div style=""font-size:60px;"">+</div>","null","fixation","","","","","","","","","79","","",""
"revaluation","201","947674","0.0-4.0-2.0-0.40","spark_pilot_norest","11003","7","7","Female","","false","","","","","[12.699999988079071,719.6999999880791]","./assets/img/canyon/memory/5.jpg","[""ArrowUp"",""ArrowLeft""]","value training","canyon","23","{""ArrowUp,ArrowLeft"":23,""ArrowUp,ArrowRight"":10,""ArrowDown,ArrowLeft"":8,""ArrowDown,ArrowRight"":30}","false","ArrowUp,ArrowLeft","false","original","1","80","","",""
"html-keyboard-response","202","948176","0.0-4.0-2.0-1.40","spark_pilot_norest","11003","7","7","Female","","","","","","","null","<div style=""font-size:60px;"">+</div>","null","fixation","","","","","","","","","81","","",""
"revaluation","203","954184","0.0-4.0-2.0-0.41","spark_pilot_norest","11003","7","7","Female","","false","","","","","[1816.300000011921,1228.2999999523163]","./assets/img/canyon/memory/39.jpg","[""ArrowDown"",""ArrowRight""]","value training","canyon","30","{""ArrowUp,ArrowLeft"":23,""ArrowUp,ArrowRight"":10,""ArrowDown,ArrowLeft"":8,""ArrowDown,ArrowRight"":30}","true","ArrowDown,ArrowRight","false","original","1","82","","",""
"html-keyboard-response","204","954685","0.0-4.0-2.0-1.41","spark_pilot_norest","11003","7","7","Female","","","","","","","null","<div style=""font-size:60px;"">+</div>","null","fixation","","","","","","","","","83","","",""
"revaluation","205","960693","0.0-4.0-2.0-0.42","spark_pilot_norest","11003","7","7","Female","","false","","","","","[1189.3999999761581,1720.3999999761581]","./assets/img/canyon/memory/14.jpg","[""ArrowUp"",""ArrowRight""]","value training","canyon","10","{""ArrowUp,ArrowLeft"":23,""ArrowUp,ArrowRight"":10,""ArrowDown,ArrowLeft"":8,""ArrowDown,ArrowRight"":30}","false","ArrowUp,ArrowRight","false","original","1","84","","",""
"html-keyboard-response","206","961195","0.0-4.0-2.0-1.42","spark_pilot_norest","11003","7","7","Female","","","","","","","null","<div style=""font-size:60px;"">+</div>","null","fixation","","","","","","","","","85","","",""
"revaluation","207","967201","0.0-4.0-2.0-0.43","spark_pilot_norest","11003","7","7","Female","","true","","","","","[1316]","./assets/img/canyon/memory/24.jpg","[""ArrowUp""]","value training","canyon","-5","{""ArrowUp,ArrowLeft"":23,""ArrowUp,ArrowRight"":10,""ArrowDown,ArrowLeft"":8,""ArrowDown,ArrowRight"":30}","false","ArrowUp","false","original","1","86","","",""
"html-keyboard-response","208","967703","0.0-4.0-2.0-1.43","spark_pilot_norest","11003","7","7","Female","","","","","","","null","<div style=""font-size:60px;"">+</div>","null","fixation","","","","","","","","","87","","",""
"revaluation","209","973710","0.0-4.0-2.0-0.44","spark_pilot_norest","11003","7","7","Female","","false","","","","","[1817.7000000476837,42.5]","./assets/img/canyon/memory/9.jpg","[""ArrowDown"",""ArrowRight""]","value training","canyon","30","{""ArrowUp,ArrowLeft"":23,""ArrowUp,ArrowRight"":10,""ArrowDown,ArrowLeft"":8,""ArrowDown,ArrowRight"":30}","true","ArrowDown,ArrowRight","false","original","1","88","","",""
"html-keyboard-response","210","974211","0.0-4.0-2.0-1.44","spark_pilot_norest","11003","7","7","Female","","","","","","","null","<div style=""font-size:60px;"">+</div>","null","fixation","","","","","","","","","89","","",""
"revaluation","211","980216","0.0-4.0-2.0-0.45","spark_pilot_norest","11003","7","7","Female","","false","","","","","[425.39999997615814,256.69999998807907]","./assets/img/canyon/memory/37.jpg","[""ArrowUp"",""ArrowRight""]","value training","canyon","10","{""ArrowUp,ArrowLeft"":23,""ArrowUp,ArrowRight"":10,""ArrowDown,ArrowLeft"":8,""ArrowDown,ArrowRight"":30}","false","ArrowUp,ArrowRight","false","original","1","90","","",""
"html-keyboard-response","212","980718","0.0-4.0-2.0-1.45","spark_pilot_norest","11003","7","7","Female","","","","","","","null","<div style=""font-size:60px;"">+</div>","null","fixation","","","","","","","","","91","","",""
"revaluation","213","984722","0.0-4.0-2.0-0.46","spark_pilot_norest","11003","7","7","Female","","false","","","","","[116.59999996423721]","./assets/img/canyon/catch/6.jpg","[""ArrowUp""]","value training","canyon","-10","{""ArrowUp,ArrowLeft"":23,""ArrowUp,ArrowRight"":10,""ArrowDown,ArrowLeft"":8,""ArrowDown,ArrowRight"":30}","false","ArrowUp","true","original","1","92","","",""
"html-keyboard-response","214","985224","0.0-4.0-2.0-1.46","spark_pilot_norest","11003","7","7","Female","","","","","","","null","<div style=""font-size:60px;"">+</div>","null","fixation","","","","","","","","","93","","",""
"revaluation","215","991230","0.0-4.0-2.0-0.47","spark_pilot_norest","11003","7","7","Female","","false","","","","","[46.10000002384186,535.5999999642372]","./assets/img/canyon/memory/8.jpg","[""ArrowDown"",""ArrowRight""]","value training","canyon","30","{""ArrowUp,ArrowLeft"":23,""ArrowUp,ArrowRight"":10,""ArrowDown,ArrowLeft"":8,""ArrowDown,ArrowRight"":30}","true","ArrowDown,ArrowRight","false","original","1","94","","",""
"html-keyboard-response","216","991745","0.0-4.0-2.0-1.47","spark_pilot_norest","11003","7","7","Female","","","","","","","null","<div style=""font-size:60px;"">+</div>","null","fixation","","","","","","","","","95","","",""
"revaluation","217","997750","0.0-4.0-2.0-0.48","spark_pilot_norest","11003","7","7","Female","","false","","","","","[840.3999999761581,867.1999999880791]","./assets/img/canyon/memory/4.jpg","[""ArrowDown"",""ArrowRight""]","value training","canyon","30","{""ArrowUp,ArrowLeft"":23,""ArrowUp,ArrowRight"":10,""ArrowDown,ArrowLeft"":8,""ArrowDown,ArrowRight"":30}","true","ArrowDown,ArrowRight","false","original","1","96","","",""
"html-keyboard-response","218","998252","0.0-4.0-2.0-1.48","spark_pilot_norest","11003","7","7","Female","","","","","","","null","<div style=""font-size:60px;"">+</div>","null","fixation","","","","","","","","","97","","",""
"revaluation","219","1004260","0.0-4.0-2.0-0.49","spark_pilot_norest","11003","7","7","Female","","false","","","","","[134.69999998807907,48.80000001192093]","./assets/img/canyon/memory/8.jpg","[""ArrowUp"",""ArrowLeft""]","value training","canyon","23","{""ArrowUp,ArrowLeft"":23,""ArrowUp,ArrowRight"":10,""ArrowDown,ArrowLeft"":8,""ArrowDown,ArrowRight"":30}","false","ArrowUp,ArrowLeft","false","original","1","98","","",""
"html-keyboard-response","220","1004774","0.0-4.0-2.0-1.49","spark_pilot_norest","11003","7","7","Female","","","","","","","null","<div style=""font-size:60px;"">+</div>","null","fixation","","","","","","","","","99","","",""
"learning-instructions","221","1023862","0.0-4.0-3.0-0.0","spark_pilot_norest","11003","7","7","Female","","","","","","","6191","<p> Now, you will travel with a friend who will choose whether you go up or down first. </p>
            <p> On these turns, you will just see the animal that they found. You will still get to choose which chest to search for treasure.</p>","","instructions","","","","","","","","","","","",""
"revaluation","222","1027879","0.0-4.0-4.0-0.0","spark_pilot_norest","11003","7","7","Female","","true","","","","","[]","./assets/img/canyon/animals/lion.jpg","[]","revaluation","canyon","-5","{""ArrowUp,ArrowLeft"":23,""ArrowUp,ArrowRight"":10,""ArrowDown,ArrowLeft"":8,""ArrowDown,ArrowRight"":30}","false","ArrowUp","","original","1","0","","",""
"html-keyboard-response","223","1028392","0.0-4.0-4.0-1.0","spark_pilot_norest","11003","7","7","Female","","","","","","","null","<div style=""font-size:60px;"">+</div>","null","fixation","","","","","","","","","1","","",""
"revaluation","224","1032416","0.0-4.0-4.0-0.1","spark_pilot_norest","11003","7","7","Female","","true","","","","","[]","./assets/img/canyon/animals/lion.jpg","[]","revaluation","canyon","-5","{""ArrowUp,ArrowLeft"":23,""ArrowUp,ArrowRight"":10,""ArrowDown,ArrowLeft"":8,""ArrowDown,ArrowRight"":30}","false","ArrowUp","","original","1","2","","",""
"html-keyboard-response","225","1032928","0.0-4.0-4.0-1.1","spark_pilot_norest","11003","7","7","Female","","","","","","[{""event"":""fullscreenenter"",""trial"":2,""time"":51044},{""event"":""blur"",""trial"":226,""time"":1033226},{""event"":""focus"",""trial"":228,""time"":1038456}]","null","<div style=""font-size:60px;"">+</div>","null","fixation","","","","","","","","","3","","",""
"revaluation","226","1036949","0.0-4.0-4.0-0.2","spark_pilot_norest","11003","7","7","Female","","true","","","","","[]","./assets/img/canyon/animals/lion.jpg","[]","revaluation","canyon","-5","{""ArrowUp,ArrowLeft"":23,""ArrowUp,ArrowRight"":10,""ArrowDown,ArrowLeft"":8,""ArrowDown,ArrowRight"":30}","false","ArrowUp","","original","1","4","","",""
"html-keyboard-response","227","1037464","0.0-4.0-4.0-1.2","spark_pilot_norest","11003","7","7","Female","","","","","","[{""event"":""fullscreenenter"",""trial"":2,""time"":51044},{""event"":""blur"",""trial"":226,""time"":1033226},{""event"":""focus"",""trial"":228,""time"":1038456}]","null","<div style=""font-size:60px;"">+</div>","null","fixation","","","","","","","","","5","","",""
"revaluation","228","1041487","0.0-4.0-4.0-0.3","spark_pilot_norest","11003","7","7","Female","","true","","","","","[]","./assets/img/canyon/animals/giraffe.jpg","[]","revaluation","canyon","-5","{""ArrowUp,ArrowLeft"":23,""ArrowUp,ArrowRight"":10,""ArrowDown,ArrowLeft"":8,""ArrowDown,ArrowRight"":30}","false","ArrowDown","","original","1","6","","",""
"html-keyboard-response","229","1042003","0.0-4.0-4.0-1.3","spark_pilot_norest","11003","7","7","Female","","","","","","","null","<div style=""font-size:60px;"">+</div>","null","fixation","","","","","","","","","7","","",""
"revaluation","230","1046025","0.0-4.0-4.0-0.4","spark_pilot_norest","11003","7","7","Female","","false","","","","","[1752.800000011921]","./assets/img/canyon/animals/lion.jpg","[""ArrowRight""]","revaluation","canyon","10","{""ArrowUp,ArrowLeft"":23,""ArrowUp,ArrowRight"":10,""ArrowDown,ArrowLeft"":8,""ArrowDown,ArrowRight"":30}","false","ArrowUp,ArrowRight","","original","1","8","","",""
"html-keyboard-response","231","1046537","0.0-4.0-4.0-1.4","spark_pilot_norest","11003","7","7","Female","","","","","","","null","<div style=""font-size:60px;"">+</div>","null","fixation","","","","","","","","","9","","",""
"revaluation","232","1050541","0.0-4.0-4.0-0.5","spark_pilot_norest","11003","7","7","Female","","false","","","","","[115.40000003576279]","./assets/img/canyon/animals/giraffe.jpg","[""ArrowRight""]","revaluation","canyon","30","{""ArrowUp,ArrowLeft"":23,""ArrowUp,ArrowRight"":10,""ArrowDown,ArrowLeft"":8,""ArrowDown,ArrowRight"":30}","true","ArrowDown,ArrowRight","","original","1","10","","",""
"html-keyboard-response","233","1051043","0.0-4.0-4.0-1.5","spark_pilot_norest","11003","7","7","Female","","","","","","","null","<div style=""font-size:60px;"">+</div>","null","fixation","","","","","","","","","11","","",""
"revaluation","234","1055049","0.0-4.0-4.0-0.6","spark_pilot_norest","11003","7","7","Female","","false","","","","","[112.60000002384186]","./assets/img/canyon/animals/lion.jpg","[""ArrowLeft""]","revaluation","canyon","23","{""ArrowUp,ArrowLeft"":23,""ArrowUp,ArrowRight"":10,""ArrowDown,ArrowLeft"":8,""ArrowDown,ArrowRight"":30}","true","ArrowUp,ArrowLeft","","original","1","12","","",""
"html-keyboard-response","235","1055558","0.0-4.0-4.0-1.6","spark_pilot_norest","11003","7","7","Female","","","","","","","null","<div style=""font-size:60px;"">+</div>","null","fixation","","","","","","","","","13","","",""
"revaluation","236","1059563","0.0-4.0-4.0-0.7","spark_pilot_norest","11003","7","7","Female","","false","","","","","[58.30000001192093]","./assets/img/canyon/animals/giraffe.jpg","[""ArrowRight""]","revaluation","canyon","30","{""ArrowUp,ArrowLeft"":23,""ArrowUp,ArrowRight"":10,""ArrowDown,ArrowLeft"":8,""ArrowDown,ArrowRight"":30}","true","ArrowDown,ArrowRight","","original","1","14","","",""
"html-keyboard-response","237","1060065","0.0-4.0-4.0-1.7","spark_pilot_norest","11003","7","7","Female","","","","","","","null","<div style=""font-size:60px;"">+</div>","null","fixation","","","","","","","","","15","","",""
"revaluation","238","1064070","0.0-4.0-4.0-0.8","spark_pilot_norest","11003","7","7","Female","","false","","","","","[461.19999998807907]","./assets/img/canyon/animals/giraffe.jpg","[""ArrowRight""]","revaluation","canyon","30","{""ArrowUp,ArrowLeft"":23,""ArrowUp,ArrowRight"":10,""ArrowDown,ArrowLeft"":8,""ArrowDown,ArrowRight"":30}","true","ArrowDown,ArrowRight","","original","1","16","","",""
"html-keyboard-response","239","1064571","0.0-4.0-4.0-1.8","spark_pilot_norest","11003","7","7","Female","","","","","","","null","<div style=""font-size:60px;"">+</div>","null","fixation","","","","","","","","","17","","",""
"revaluation","240","1068575","0.0-4.0-4.0-0.9","spark_pilot_norest","11003","7","7","Female","","false","","","","","[718.8000000119209]","./assets/img/canyon/animals/lion.jpg","[""ArrowRight""]","revaluation","canyon","10","{""ArrowUp,ArrowLeft"":23,""ArrowUp,ArrowRight"":10,""ArrowDown,ArrowLeft"":8,""ArrowDown,ArrowRight"":30}","false","ArrowUp,ArrowRight","","original","1","18","","",""
"html-keyboard-response","241","1069076","0.0-4.0-4.0-1.9","spark_pilot_norest","11003","7","7","Female","","","","","","","null","<div style=""font-size:60px;"">+</div>","null","fixation","","","","","","","","","19","","",""
"revaluation","242","1073079","0.0-4.0-4.0-0.10","spark_pilot_norest","11003","7","7","Female","","false","","","","","[757]","./assets/img/canyon/animals/lion.jpg","[""ArrowRight""]","revaluation","canyon","10","{""ArrowUp,ArrowLeft"":23,""ArrowUp,ArrowRight"":10,""ArrowDown,ArrowLeft"":8,""ArrowDown,ArrowRight"":30}","false","ArrowUp,ArrowRight","","original","1","20","","",""
"html-keyboard-response","243","1073580","0.0-4.0-4.0-1.10","spark_pilot_norest","11003","7","7","Female","","","","","","","null","<div style=""font-size:60px;"">+</div>","null","fixation","","","","","","","","","21","","",""
"revaluation","244","1077586","0.0-4.0-4.0-0.11","spark_pilot_norest","11003","7","7","Female","","false","","","","","[99.69999998807907]","./assets/img/canyon/animals/giraffe.jpg","[""ArrowLeft""]","revaluation","canyon","8","{""ArrowUp,ArrowLeft"":23,""ArrowUp,ArrowRight"":10,""ArrowDown,ArrowLeft"":8,""ArrowDown,ArrowRight"":30}","false","ArrowDown,ArrowLeft","","original","1","22","","",""
"html-keyboard-response","245","1078087","0.0-4.0-4.0-1.11","spark_pilot_norest","11003","7","7","Female","","","","","","","null","<div style=""font-size:60px;"">+</div>","null","fixation","","","","","","","","","23","","",""
"revaluation","246","1082093","0.0-4.0-4.0-0.12","spark_pilot_norest","11003","7","7","Female","","false","","","","","[436.7000000476837]","./assets/img/canyon/animals/giraffe.jpg","[""ArrowRight""]","revaluation","canyon","30","{""ArrowUp,ArrowLeft"":23,""ArrowUp,ArrowRight"":10,""ArrowDown,ArrowLeft"":8,""ArrowDown,ArrowRight"":30}","true","ArrowDown,ArrowRight","","original","1","24","","",""
"html-keyboard-response","247","1082595","0.0-4.0-4.0-1.12","spark_pilot_norest","11003","7","7","Female","","","","","","","null","<div style=""font-size:60px;"">+</div>","null","fixation","","","","","","","","","25","","",""
"revaluation","248","1086600","0.0-4.0-4.0-0.13","spark_pilot_norest","11003","7","7","Female","","false","","","","","[592.3999999761581]","./assets/img/canyon/animals/lion.jpg","[""ArrowRight""]","revaluation","canyon","10","{""ArrowUp,ArrowLeft"":23,""ArrowUp,ArrowRight"":10,""ArrowDown,ArrowLeft"":8,""ArrowDown,ArrowRight"":30}","false","ArrowUp,ArrowRight","","original","1","26","","",""
"html-keyboard-response","249","1087102","0.0-4.0-4.0-1.13","spark_pilot_norest","11003","7","7","Female","","","","","","","null","<div style=""font-size:60px;"">+</div>","null","fixation","","","","","","","","","27","","",""
"revaluation","250","1091107","0.0-4.0-4.0-0.14","spark_pilot_norest","11003","7","7","Female","","false","","","","","[633.9000000357628]","./assets/img/canyon/animals/giraffe.jpg","[""ArrowRight""]","revaluation","canyon","30","{""ArrowUp,ArrowLeft"":23,""ArrowUp,ArrowRight"":10,""ArrowDown,ArrowLeft"":8,""ArrowDown,ArrowRight"":30}","true","ArrowDown,ArrowRight","","original","1","28","","",""
"html-keyboard-response","251","1091609","0.0-4.0-4.0-1.14","spark_pilot_norest","11003","7","7","Female","","","","","","","null","<div style=""font-size:60px;"">+</div>","null","fixation","","","","","","","","","29","","",""
"revaluation","252","1095616","0.0-4.0-4.0-0.15","spark_pilot_norest","11003","7","7","Female","","false","","","","","[95.30000001192093]","./assets/img/canyon/animals/giraffe.jpg","[""ArrowRight""]","revaluation","canyon","30","{""ArrowUp,ArrowLeft"":23,""ArrowUp,ArrowRight"":10,""ArrowDown,ArrowLeft"":8,""ArrowDown,ArrowRight"":30}","true","ArrowDown,ArrowRight","","original","1","30","","",""
"html-keyboard-response","253","1096118","0.0-4.0-4.0-1.15","spark_pilot_norest","11003","7","7","Female","","","","","","","null","<div style=""font-size:60px;"">+</div>","null","fixation","","","","","","","","","31","","",""
"revaluation","254","1100123","0.0-4.0-4.0-0.16","spark_pilot_norest","11003","7","7","Female","","false","","","","","[1536.800000011921]","./assets/img/canyon/animals/lion.jpg","[""ArrowRight""]","revaluation","canyon","10","{""ArrowUp,ArrowLeft"":23,""ArrowUp,ArrowRight"":10,""ArrowDown,ArrowLeft"":8,""ArrowDown,ArrowRight"":30}","false","ArrowUp,ArrowRight","","original","1","32","","",""
"html-keyboard-response","255","1100624","0.0-4.0-4.0-1.16","spark_pilot_norest","11003","7","7","Female","","","","","","","null","<div style=""font-size:60px;"">+</div>","null","fixation","","","","","","","","","33","","",""
"revaluation","256","1104628","0.0-4.0-4.0-0.17","spark_pilot_norest","11003","7","7","Female","","false","","","","","[1450.300000011921]","./assets/img/canyon/animals/giraffe.jpg","[""ArrowRight""]","revaluation","canyon","30","{""ArrowUp,ArrowLeft"":23,""ArrowUp,ArrowRight"":10,""ArrowDown,ArrowLeft"":8,""ArrowDown,ArrowRight"":30}","true","ArrowDown,ArrowRight","","original","1","34","","",""
"html-keyboard-response","257","1105129","0.0-4.0-4.0-1.17","spark_pilot_norest","11003","7","7","Female","","","","","","","null","<div style=""font-size:60px;"">+</div>","null","fixation","","","","","","","","","35","","",""
"learning-instructions","258","1113264","0.0-4.0-5.0-0.0","spark_pilot_norest","11003","7","7","Female","","","","","","","null","<p> You have almost finished this part of the game! </p>
            <p> We are going to ask you to make a few more choices. </p>","","instructions","","","","","","","","","","","",""
"learning-instructions","259","1129232","0.0-4.0-5.0-0.1","spark_pilot_norest","11003","7","7","Female","","","","","","","null","<p> First, you need to decide whether to go up or down. When you see each picture, use the arrow keys to make your choice. </p>
            <p><b>You will not see which animal you found, but try to get to the one that will give you the most treasure.</b></p>","","instructions","","","","","","","","","","","",""
"html-keyboard-response","260","1130246","0.0-4.0-6.0-0.0","spark_pilot_norest","11003","7","7","Female","","","","","","","null","<div style=""font-size:100px;color:red;"">Starting in...</div>","null","","","","","","","","","","","","",""
"html-keyboard-response","261","1131257","0.0-4.0-6.0-1.0","spark_pilot_norest","11003","7","7","Female","","","","","","","null","<div style=""font-size:200px;color:red;"">3</div>","null","","","","","","","","","","","","",""
"html-keyboard-response","262","1132270","0.0-4.0-6.0-2.0","spark_pilot_norest","11003","7","7","Female","","","","","","","null","<div style=""font-size:200px;color:red;"">2</div>","null","","","","","","","","","","","","",""
"html-keyboard-response","263","1133280","0.0-4.0-6.0-3.0","spark_pilot_norest","11003","7","7","Female","","","","","","","null","<div style=""font-size:200px;color:red;"">1</div>","null","","","","","","","","","","","","",""
"revaluation","264","1134175","0.0-4.0-7.0-0.0","spark_pilot_norest","11003","7","7","Female","","false","","","","","[890.5]","./assets/img/canyon/test/3.jpg","[""ArrowDown""]","first stage test","canyon","0","{""ArrowUp,ArrowLeft"":23,""ArrowUp,ArrowRight"":10,""ArrowDown,ArrowLeft"":8,""ArrowDown,ArrowRight"":30}","true","ArrowDown","false","original","1","","","",""
"html-keyboard-response","265","1134689","0.0-4.0-7.0-1.0","spark_pilot_norest","11003","7","7","Female","","","","","","","null","<div style=""font-size:60px;"">+</div>","null","fixation","","","","","","","","","","","",""
"revaluation","266","1135007","0.0-4.0-7.0-0.1","spark_pilot_norest","11003","7","7","Female","","false","","","","","[315.0999999642372]","./assets/img/canyon/test/1.jpg","[""ArrowDown""]","first stage test","canyon","0","{""ArrowUp,ArrowLeft"":23,""ArrowUp,ArrowRight"":10,""ArrowDown,ArrowLeft"":8,""ArrowDown,ArrowRight"":30}","true","ArrowDown","false","original","1","","","",""
"html-keyboard-response","267","1135514","0.0-4.0-7.0-1.1","spark_pilot_norest","11003","7","7","Female","","","","","","","null","<div style=""font-size:60px;"">+</div>","null","fixation","","","","","","","","","","","",""
"revaluation","268","1135520","0.0-4.0-7.0-0.2","spark_pilot_norest","11003","7","7","Female","","false","","","","","[3.599999964237213]","./assets/img/canyon/test/2.jpg","[""ArrowDown""]","first stage test","canyon","0","{""ArrowUp,ArrowLeft"":23,""ArrowUp,ArrowRight"":10,""ArrowDown,ArrowLeft"":8,""ArrowDown,ArrowRight"":30}","true","ArrowDown","false","original","1","","","",""
"html-keyboard-response","269","1136029","0.0-4.0-7.0-1.2","spark_pilot_norest","11003","7","7","Female","","","","","","","null","<div style=""font-size:60px;"">+</div>","null","fixation","","","","","","","","","","","",""
"revaluation","270","1136500","0.0-4.0-7.0-0.3","spark_pilot_norest","11003","7","7","Female","","false","","","","","[466.7999999523163]","./assets/img/canyon/test/0.jpg","[""ArrowDown""]","first stage test","canyon","0","{""ArrowUp,ArrowLeft"":23,""ArrowUp,ArrowRight"":10,""ArrowDown,ArrowLeft"":8,""ArrowDown,ArrowRight"":30}","true","ArrowDown","false","original","1","","","",""
"html-keyboard-response","271","1137011","0.0-4.0-7.0-1.3","spark_pilot_norest","11003","7","7","Female","","","","","","","null","<div style=""font-size:60px;"">+</div>","null","fixation","","","","","","","","","","","",""
"learning-instructions","272","1150366","0.0-4.0-8.0-0.0","spark_pilot_norest","11003","7","7","Female","","","","","","","null","<p> Now you will see the animals again and can search their chests for treasure. </p>
            <p> This time, you will not see how much treasure you earned, but you will earn more bonus money for making better choices. </p>","","instructions","","","","","","","","","","","",""
"html-keyboard-response","273","1151377","0.0-4.0-9.0-0.0","spark_pilot_norest","11003","7","7","Female","","","","","","","null","<div style=""font-size:100px;color:red;"">Starting in...</div>","null","","","","","","","","","","","","",""
"html-keyboard-response","274","1152389","0.0-4.0-9.0-1.0","spark_pilot_norest","11003","7","7","Female","","","","","","","null","<div style=""font-size:200px;color:red;"">3</div>","null","","","","","","","","","","","","",""
"html-keyboard-response","275","1153399","0.0-4.0-9.0-2.0","spark_pilot_norest","11003","7","7","Female","","","","","","","null","<div style=""font-size:200px;color:red;"">2</div>","null","","","","","","","","","","","","",""
"html-keyboard-response","276","1154413","0.0-4.0-9.0-3.0","spark_pilot_norest","11003","7","7","Female","","","","","","","null","<div style=""font-size:200px;color:red;"">1</div>","null","","","","","","","","","","","","",""
"revaluation","277","1154832","0.0-4.0-10.0-0.0","spark_pilot_norest","11003","7","7","Female","","false","","","","","[414.7000000476837]","./assets/img/canyon/animals/lion.jpg","[""ArrowLeft""]","second stage test","canyon","0","{""ArrowUp,ArrowLeft"":23,""ArrowUp,ArrowRight"":10,""ArrowDown,ArrowLeft"":8,""ArrowDown,ArrowRight"":30}","true","ArrowUp,ArrowLeft","","original","1","","","",""
"html-keyboard-response","278","1155340","0.0-4.0-10.0-1.0","spark_pilot_norest","11003","7","7","Female","","","","","","","null","<div style=""font-size:60px;"">+</div>","null","fixation","","","","","","","","","","","",""
"revaluation","279","1155356","0.0-4.0-10.0-0.1","spark_pilot_norest","11003","7","7","Female","","false","","","","","[13.399999976158142]","./assets/img/canyon/animals/lion.jpg","[""ArrowLeft""]","second stage test","canyon","0","{""ArrowUp,ArrowLeft"":23,""ArrowUp,ArrowRight"":10,""ArrowDown,ArrowLeft"":8,""ArrowDown,ArrowRight"":30}","true","ArrowUp,ArrowLeft","","original","1","","","",""
"html-keyboard-response","280","1155861","0.0-4.0-10.0-1.1","spark_pilot_norest","11003","7","7","Female","","","","","","","null","<div style=""font-size:60px;"">+</div>","null","fixation","","","","","","","","","","","",""
"revaluation","281","1155988","0.0-4.0-10.0-0.2","spark_pilot_norest","11003","7","7","Female","","false","","","","","[123]","./assets/img/canyon/animals/lion.jpg","[""ArrowRight""]","second stage test","canyon","0","{""ArrowUp,ArrowLeft"":23,""ArrowUp,ArrowRight"":10,""ArrowDown,ArrowLeft"":8,""ArrowDown,ArrowRight"":30}","false","ArrowUp,ArrowRight","","original","1","","","",""
"html-keyboard-response","282","1156499","0.0-4.0-10.0-1.2","spark_pilot_norest","11003","7","7","Female","","","","","","","null","<div style=""font-size:60px;"">+</div>","null","fixation","","","","","","","","","","","",""
"revaluation","283","1156552","0.0-4.0-10.0-0.3","spark_pilot_norest","11003","7","7","Female","","false","","","","","[49]","./assets/img/canyon/animals/lion.jpg","[""ArrowRight""]","second stage test","canyon","0","{""ArrowUp,ArrowLeft"":23,""ArrowUp,ArrowRight"":10,""ArrowDown,ArrowLeft"":8,""ArrowDown,ArrowRight"":30}","false","ArrowUp,ArrowRight","","original","1","","","",""
"html-keyboard-response","284","1157060","0.0-4.0-10.0-1.3","spark_pilot_norest","11003","7","7","Female","","","","","","","null","<div style=""font-size:60px;"">+</div>","null","fixation","","","","","","","","","","","",""
"revaluation","285","1157086","0.0-4.0-10.0-0.4","spark_pilot_norest","11003","7","7","Female","","false","","","","","[24.30000001192093]","./assets/img/canyon/animals/giraffe.jpg","[""ArrowRight""]","second stage test","canyon","0","{""ArrowUp,ArrowLeft"":23,""ArrowUp,ArrowRight"":10,""ArrowDown,ArrowLeft"":8,""ArrowDown,ArrowRight"":30}","true","ArrowDown,ArrowRight","","original","1","","","",""
"html-keyboard-response","286","1157587","0.0-4.0-10.0-1.4","spark_pilot_norest","11003","7","7","Female","","","","","","","null","<div style=""font-size:60px;"">+</div>","null","fixation","","","","","","","","","","","",""
"revaluation","287","1157689","0.0-4.0-10.0-0.5","spark_pilot_norest","11003","7","7","Female","","false","","","","","[98.90000003576279]","./assets/img/canyon/animals/giraffe.jpg","[""ArrowRight""]","second stage test","canyon","0","{""ArrowUp,ArrowLeft"":23,""ArrowUp,ArrowRight"":10,""ArrowDown,ArrowLeft"":8,""ArrowDown,ArrowRight"":30}","true","ArrowDown,ArrowRight","","original","1","","","",""
"html-keyboard-response","288","1158195","0.0-4.0-10.0-1.5","spark_pilot_norest","11003","7","7","Female","","","","","","","null","<div style=""font-size:60px;"">+</div>","null","fixation","","","","","","","","","","","",""
"revaluation","289","1158336","0.0-4.0-10.0-0.6","spark_pilot_norest","11003","7","7","Female","","false","","","","","[138.89999997615814]","./assets/img/canyon/animals/giraffe.jpg","[""ArrowLeft""]","second stage test","canyon","0","{""ArrowUp,ArrowLeft"":23,""ArrowUp,ArrowRight"":10,""ArrowDown,ArrowLeft"":8,""ArrowDown,ArrowRight"":30}","false","ArrowDown,ArrowLeft","","original","1","","","",""
"html-keyboard-response","290","1158842","0.0-4.0-10.0-1.6","spark_pilot_norest","11003","7","7","Female","","","","","","","null","<div style=""font-size:60px;"">+</div>","null","fixation","","","","","","","","","","","",""
"revaluation","291","1158950","0.0-4.0-10.0-0.7","spark_pilot_norest","11003","7","7","Female","","false","","","","","[105.69999998807907]","./assets/img/canyon/animals/giraffe.jpg","[""ArrowRight""]","second stage test","canyon","0","{""ArrowUp,ArrowLeft"":23,""ArrowUp,ArrowRight"":10,""ArrowDown,ArrowLeft"":8,""ArrowDown,ArrowRight"":30}","true","ArrowDown,ArrowRight","","original","1","","","",""
"html-keyboard-response","292","1159459","0.0-4.0-10.0-1.7","spark_pilot_norest","11003","7","7","Female","","","","","","","null","<div style=""font-size:60px;"">+</div>","null","fixation","","","","","","","","","","","",""
"learning-instructions","293","1168792","0.0-4.0-0.1-0.2","spark_pilot_norest","11003","7","7","Female","","","","","","","6620.800000011921","<p> This time you are searching for treasure in the <b>ocean</b>.</p>","","instructions","","","","","","","","","","","",""
"learning-instructions","294","1188536","0.0-4.0-0.1-0.3","spark_pilot_norest","11003","7","7","Female","","","","","","","2484.600000023842","<p><b>New</b> animals with <b>new</b> treasure chests live here. You need to explore to discover where the animal with the best treasure chest is.</p>
                    <p> Like before, once you figure out which animal has the chest with the most treasure, you should try to get to that animal and select that chest! </p>","","instructions","","","","","","","","","","","",""
"learning-instructions","295","1207531","0.0-4.0-1.1-0.1","spark_pilot_norest","11003","7","7","Female","","","","","","","4270.399999976158","<p> Remember, when you see a picture of the place, use the up and down keys to <b>find an animal</b>.</p>
            <p> When you encounter an animal, you should use the left and right keys to <b>select a treasure chest</b>.</p>
            <p> Don't forget to look out for the robber! </p>","","instructions","","","","","","","","","","","",""
"revaluation","296","1213550","0.0-4.0-2.1-0.50","spark_pilot_norest","11003","7","7","Female","","false","","","","","[1667.0999999642372,676.1000000238419]","./assets/img/ocean/memory/5.jpg","[""ArrowUp"",""ArrowLeft""]","value training","ocean","26","{""ArrowUp,ArrowLeft"":26,""ArrowUp,ArrowRight"":10,""ArrowDown,ArrowLeft"":5,""ArrowDown,ArrowRight"":17}","true","ArrowUp,ArrowLeft","false","revaluation","2","0","","",""
"html-keyboard-response","297","1214061","0.0-4.0-2.1-1.50","spark_pilot_norest","11003","7","7","Female","","","","","","","null","<div style=""font-size:60px;"">+</div>","null","fixation","","","","","","","","","1","","",""
"revaluation","298","1220092","0.0-4.0-2.1-0.51","spark_pilot_norest","11003","7","7","Female","","false","","","","","[49,210.79999995231628]","./assets/img/ocean/memory/39.jpg","[""ArrowDown"",""ArrowRight""]","value training","ocean","17","{""ArrowUp,ArrowLeft"":26,""ArrowUp,ArrowRight"":10,""ArrowDown,ArrowLeft"":5,""ArrowDown,ArrowRight"":17}","false","ArrowDown,ArrowRight","false","revaluation","2","2","","",""
"html-keyboard-response","299","1220606","0.0-4.0-2.1-1.51","spark_pilot_norest","11003","7","7","Female","","","","","","","null","<div style=""font-size:60px;"">+</div>","null","fixation","","","","","","","","","3","","",""
"revaluation","300","1226630","0.0-4.0-2.1-0.52","spark_pilot_norest","11003","7","7","Female","","false","","","","","[1007.0999999642372,20.900000035762787]","./assets/img/ocean/memory/14.jpg","[""ArrowUp"",""ArrowLeft""]","value training","ocean","26","{""ArrowUp,ArrowLeft"":26,""ArrowUp,ArrowRight"":10,""ArrowDown,ArrowLeft"":5,""ArrowDown,ArrowRight"":17}","true","ArrowUp,ArrowLeft","false","revaluation","2","4","","",""
"html-keyboard-response","301","1227143","0.0-4.0-2.1-1.52","spark_pilot_norest","11003","7","7","Female","","","","","","","null","<div style=""font-size:60px;"">+</div>","null","fixation","","","","","","","","","5","","",""
"revaluation","302","1233170","0.0-4.0-2.1-0.53","spark_pilot_norest","11003","7","7","Female","","false","","","","","[69.30000001192093,554.1999999880791]","./assets/img/ocean/memory/1.jpg","[""ArrowUp"",""ArrowLeft""]","value training","ocean","26","{""ArrowUp,ArrowLeft"":26,""ArrowUp,ArrowRight"":10,""ArrowDown,ArrowLeft"":5,""ArrowDown,ArrowRight"":17}","true","ArrowUp,ArrowLeft","false","revaluation","2","6","","",""
"html-keyboard-response","303","1233672","0.0-4.0-2.1-1.53","spark_pilot_norest","11003","7","7","Female","","","","","","","null","<div style=""font-size:60px;"">+</div>","null","fixation","","","","","","","","","7","","",""
"revaluation","304","1239678","0.0-4.0-2.1-0.54","spark_pilot_norest","11003","7","7","Female","","false","","","","","[335.19999998807907,197.4000000357628]","./assets/img/ocean/memory/13.jpg","[""ArrowDown"",""ArrowRight""]","value training","ocean","17","{""ArrowUp,ArrowLeft"":26,""ArrowUp,ArrowRight"":10,""ArrowDown,ArrowLeft"":5,""ArrowDown,ArrowRight"":17}","false","ArrowDown,ArrowRight","false","revaluation","2","8","","",""
"html-keyboard-response","305","1240179","0.0-4.0-2.1-1.54","spark_pilot_norest","11003","7","7","Female","","","","","","","null","<div style=""font-size:60px;"">+</div>","null","fixation","","","","","","","","","9","","",""
"revaluation","306","1244183","0.0-4.0-2.1-0.55","spark_pilot_norest","11003","7","7","Female","","false","","","","","[234.29999995231628]","./assets/img/ocean/catch/3.jpg","[""ArrowUp""]","value training","ocean","-10","{""ArrowUp,ArrowLeft"":26,""ArrowUp,ArrowRight"":10,""ArrowDown,ArrowLeft"":5,""ArrowDown,ArrowRight"":17}","false","ArrowUp","true","revaluation","2","10","","",""
"html-keyboard-response","307","1244684","0.0-4.0-2.1-1.55","spark_pilot_norest","11003","7","7","Female","","","","","","","null","<div style=""font-size:60px;"">+</div>","null","fixation","","","","","","","","","11","","",""
"revaluation","308","1248690","0.0-4.0-2.1-0.56","spark_pilot_norest","11003","7","7","Female","","true","","","","","[]","./assets/img/ocean/memory/2.jpg","[]","value training","ocean","-5","{""ArrowUp,ArrowLeft"":26,""ArrowUp,ArrowRight"":10,""ArrowDown,ArrowLeft"":5,""ArrowDown,ArrowRight"":17}","false","","false","revaluation","2","12","","",""
"html-keyboard-response","309","1249192","0.0-4.0-2.1-1.56","spark_pilot_norest","11003","7","7","Female","","","","","","","null","<div style=""font-size:60px;"">+</div>","null","fixation","","","","","","","","","13","","",""
"revaluation","310","1253197","0.0-4.0-2.1-0.57","spark_pilot_norest","11003","7","7","Female","","false","","","","","[1168.8999999761581]","./assets/img/ocean/catch/6.jpg","[""spaceBar""]","value training","ocean","0","{""ArrowUp,ArrowLeft"":26,""ArrowUp,ArrowRight"":10,""ArrowDown,ArrowLeft"":5,""ArrowDown,ArrowRight"":17}","true","spaceBar","true","revaluation","2","14","","",""
"html-keyboard-response","311","1253697","0.0-4.0-2.1-1.57","spark_pilot_norest","11003","7","7","Female","","","","","","","null","<div style=""font-size:60px;"">+</div>","null","fixation","","","","","","","","","15","","",""
"revaluation","312","1259713","0.0-4.0-2.1-0.58","spark_pilot_norest","11003","7","7","Female","","false","","","","","[1278.199999988079,861.3000000119209]","./assets/img/ocean/memory/14.jpg","[""ArrowDown"",""ArrowRight""]","value training","ocean","17","{""ArrowUp,ArrowLeft"":26,""ArrowUp,ArrowRight"":10,""ArrowDown,ArrowLeft"":5,""ArrowDown,ArrowRight"":17}","false","ArrowDown,ArrowRight","false","revaluation","2","16","","",""
