"trial_type","trial_index","time_elapsed","internal_node_id","task_version","subject_id","assigned_condition","age","gender","success","timeout","failed_images","failed_audio","failed_video","browser_interaction","rt","stimulus","response","task_part","environment","score","rewardMap","correct","fullState","isCatch","condition","order","trial_num","key_press","ground_truth","bonus"
"pavlovia","0","1772","0.0-0.0","spark_pilot_norest","8325","4","12","Female","","","","","","","","","","","","","","","","","","","","","",""
"preload","1","22803","0.0-1.0","spark_pilot_norest","8325","4","12","Female","true","false","[]","[]","[]","[{""event"":""fullscreenenter"",""trial"":2,""time"":40499}]","","","","","","","","","","","","","","","",""
"fullscreen","2","41091","0.0-2.0","spark_pilot_norest","8325","4","12","Female","true","","","","","","","","","","","","","","","","","","","","",""
"audio-button-response","3","45073","0.0-3.0-0.0-0.0","spark_pilot_norest","8325","4","12","Female","","","","","","","2440","./assets/audio/audiotest/turtle.mp3","2","audio_test","","","","","","","","","","","",""
"learning-instructions","4","56916","0.0-3.0-1.0-0.0","spark_pilot_norest","8325","4","12","Female","","","","","","","4688","<p> Welcome! Please remember to stay in fullscreen mode and don't click away from the experiment. </p>","","instructions","","","","","","","","","","","",""
"learning-instructions","5","68789","0.0-3.0-1.0-0.1","spark_pilot_norest","8325","4","12","Female","","","","","","","3288.5","<p> Today you will be playing a game to earn treasure. </p>
            <p> At the end of the experiment, you will earn a bonus based on how much treasure you find. </p>
            <img src='./assets/img/instructions/treasure.jpg' class='instructions-image'>","","instructions","","","","","","","","","","","",""
"learning-instructions","6","86290","0.0-3.0-1.0-0.2","spark_pilot_norest","8325","4","12","Female","","","","","","","9120.5","<p> Animals have hidden treasure in treasure chests. </p>
            <p> You need to first find an animal and then choose which of their treasure chests to search. </p>
            <img src='./assets/img/space/animals/cat.jpg' class='instructions-image'>","","instructions","","","","","","","","","","","",""
"learning-instructions","7","105178","0.0-3.0-1.0-0.3","spark_pilot_norest","8325","4","12","Female","","","","","","","4264.200000047684","<p> In each round, you will search for treasure in a different place. In the real game, there will be two rounds. </p>
            <p> You will begin with a separate, practice round where you will search for treasure in outer space. </p>
            <img src='./assets/img/space/0.jpg' class='instructions-image'>","","instructions","","","","","","","","","","","",""
"learning-instructions","8","119889","0.0-3.0-1.0-0.4","spark_pilot_norest","8325","4","12","Female","","","","","","","2089.5","<p> On every turn, you will see a picture of the place that you are in, but the specific image may be different each time. </p>
            <p> For example, both of these images mean you are in outer space. </p>
            <img src='./assets/img/instructions/outerspace.jpg' class='instructions-image'>","","instructions","","","","","","","","","","","",""
"learning-instructions","9","130839","0.0-3.0-1.0-0.5","spark_pilot_norest","8325","4","12","Female","","","","","","","3057.7999999523163","<p> You need to decide which direction to travel in. </p>
            <p> You can choose between going <b>up or down</b> by using the arrow keys. </p>
            <img src='./assets/img/instructions/updown.jpg' class='instructions-image'>","","instructions","","","","","","","","","","","",""
"learning-instructions","10","143368","0.0-3.0-1.0-0.6","spark_pilot_norest","8325","4","12","Female","","","","","","","3677.2999999523163","<p> You will have <b>2 seconds</b> to make your choice. </p>
            <p> If you do not make a choice within 2 seconds, you will not find an animal or earn treasure. </p>
            <img src='./assets/img/instructions/2seconds.jpg' class='instructions-image'>","","instructions","","","","","","","","","","","",""
"learning-instructions","11","152784","0.0-3.0-1.0-0.7","spark_pilot_norest","8325","4","12","Female","","","","","","","2305","<p> Let’s try practicing that now! </p>
            <p> When you see a picture of the place you are in, press the <b>up</b> key to travel up. </p>
            <img src='./assets/img/instructions/pressUp.jpg' class='instructions-image'>","","instructions","","","","","","","","","","","",""
"revaluation","12","156839","0.0-3.0-2.0-0.0","spark_pilot_norest","8325","4","12","Female","","false","","","","","[1909.3000001907349]","./assets/img/space/0.jpg","[""ArrowUp""]","first stage practice","space","0","null","null","ArrowUp","false","","","","","",""
"html-keyboard-response","13","157350","0.0-3.0-2.0-1.0","spark_pilot_norest","8325","4","12","Female","","","","","","","null","<div style=""font-size:60px;"">+</div>","null","fixation","","","","","","","","","","","",""
"revaluation","14","161396","0.0-3.0-2.0-0.1","spark_pilot_norest","8325","4","12","Female","","false","","","","","[1022.6999998092651]","./assets/img/space/1.jpg","[""ArrowUp""]","first stage practice","space","0","null","null","ArrowUp","false","","","","","",""
"html-keyboard-response","15","161918","0.0-3.0-2.0-1.1","spark_pilot_norest","8325","4","12","Female","","","","","","","null","<div style=""font-size:60px;"">+</div>","null","fixation","","","","","","","","","","","",""
"revaluation","16","165952","0.0-3.0-2.0-0.2","spark_pilot_norest","8325","4","12","Female","","false","","","","","[886.3999998569489]","./assets/img/space/2.jpg","[""ArrowUp""]","first stage practice","space","0","null","null","ArrowUp","false","","","","","",""
"html-keyboard-response","17","166463","0.0-3.0-2.0-1.2","spark_pilot_norest","8325","4","12","Female","","","","","","","null","<div style=""font-size:60px;"">+</div>","null","fixation","","","","","","","","","","","",""
"learning-instructions","18","172609","0.0-3.0-3.0-0.0","spark_pilot_norest","8325","4","12","Female","","","","","","","1409.7999999523163","<p> Great job! Now try pressing the <b>down</b> key to travel down. </p>
            <img src='./assets/img/instructions/pressDown.jpg' class='instructions-image'>","","instructions","","","","","","","","","","","",""
"revaluation","19","176648","0.0-3.0-4.0-0.0","spark_pilot_norest","8325","4","12","Female","","false","","","","","[766.7000000476837]","./assets/img/space/3.jpg","[""ArrowDown""]","first stage practice","space","0","null","null","ArrowDown","false","","","","","",""
"html-keyboard-response","20","177168","0.0-3.0-4.0-1.0","spark_pilot_norest","8325","4","12","Female","","","","","","","null","<div style=""font-size:60px;"">+</div>","null","fixation","","","","","","","","","","","",""
"revaluation","21","181207","0.0-3.0-4.0-0.1","spark_pilot_norest","8325","4","12","Female","","false","","","","","[294.19999980926514]","./assets/img/space/4.jpg","[""ArrowDown""]","first stage practice","space","0","null","null","ArrowDown","false","","","","","",""
"html-keyboard-response","22","181711","0.0-3.0-4.0-1.1","spark_pilot_norest","8325","4","12","Female","","","","","","","null","<div style=""font-size:60px;"">+</div>","null","fixation","","","","","","","","","","","",""
"revaluation","23","185737","0.0-3.0-4.0-0.2","spark_pilot_norest","8325","4","12","Female","","false","","","","","[628.2000000476837]","./assets/img/space/5.jpg","[""ArrowDown""]","first stage practice","space","0","null","null","ArrowDown","false","","","","","",""
"html-keyboard-response","24","186247","0.0-3.0-4.0-1.2","spark_pilot_norest","8325","4","12","Female","","","","","","","null","<div style=""font-size:60px;"">+</div>","null","fixation","","","","","","","","","","","",""
"learning-instructions","25","198055","0.0-3.0-5.0-0.0","spark_pilot_norest","8325","4","12","Female","","","","","","","1926.2000000476837","<p> The animals don’t move, so the animal in the upper part of a place will stay in the upper part of a place, and the animal in the lower part of a place will stay in the lower part of a place. </p>","","instructions","","","","","","","","","","","",""
"learning-instructions","26","208781","0.0-3.0-5.0-0.1","spark_pilot_norest","8325","4","12","Female","","","","","","","1531.6999998092651","<p> Each animal has two treasure chests for you to choose from. </p>
            <p> The amount of treasure in each chest can range from <b> 0 to 40 pieces.</b></p>","","instructions","","","","","","","","","","","",""
"learning-instructions","27","222194","0.0-3.0-5.0-0.2","spark_pilot_norest","8325","4","12","Female","","","","","","","2174.5","<p> You should decide which chest to search for treasure by using the <b>left</b> and <b>right</b> arrow keys. </p>
            <p><b> Pay attention to which animal is on the screen, as the animals have different treasure chests. </b></p>
            <img src='./assets/img/instructions/leftright.jpg' class='instructions-image'>","","instructions","","","","","","","","","","","",""
"learning-instructions","28","230442","0.0-3.0-5.0-0.3","spark_pilot_norest","8325","4","12","Female","","","","","","","1111.5","<p> Let’s try practicing that now. </p>
            <p> When you see an animal, choose which chest to search for treasure. </p>
            <img src='./assets/img/instructions/chooseChest.jpg' class='instructions-image'>","","instructions","","","","","","","","","","","",""
"revaluation","29","234479","0.0-3.0-6.0-0.0","spark_pilot_norest","8325","4","12","Female","","false","","","","","[573.8000001907349]","./assets/img/space/animals/cat.jpg","[""ArrowLeft""]","second stage practice","space","3","{""ArrowUp,ArrowLeft"":3,""ArrowUp,ArrowRight"":36,""ArrowDown,ArrowLeft"":15,""ArrowDown,ArrowRight"":23}","false","ArrowUp,ArrowLeft","","","","","","",""
"html-keyboard-response","30","234994","0.0-3.0-6.0-1.0","spark_pilot_norest","8325","4","12","Female","","","","","","","null","<div style=""font-size:60px;"">+</div>","null","fixation","","","","","","","","","","","",""
"revaluation","31","239032","0.0-3.0-6.0-0.1","spark_pilot_norest","8325","4","12","Female","","false","","","","","[634]","./assets/img/space/animals/rabbit.jpg","[""ArrowRight""]","second stage practice","space","23","{""ArrowUp,ArrowLeft"":3,""ArrowUp,ArrowRight"":36,""ArrowDown,ArrowLeft"":15,""ArrowDown,ArrowRight"":23}","true","ArrowDown,ArrowRight","","","","","","",""
"html-keyboard-response","32","239538","0.0-3.0-6.0-1.1","spark_pilot_norest","8325","4","12","Female","","","","","","","null","<div style=""font-size:60px;"">+</div>","null","fixation","","","","","","","","","","","",""
"revaluation","33","243578","0.0-3.0-6.0-0.2","spark_pilot_norest","8325","4","12","Female","","false","","","","","[621.5999999046326]","./assets/img/space/animals/cat.jpg","[""ArrowLeft""]","second stage practice","space","3","{""ArrowUp,ArrowLeft"":3,""ArrowUp,ArrowRight"":36,""ArrowDown,ArrowLeft"":15,""ArrowDown,ArrowRight"":23}","false","ArrowUp,ArrowLeft","","","","","","",""
"html-keyboard-response","34","244088","0.0-3.0-6.0-1.2","spark_pilot_norest","8325","4","12","Female","","","","","","","null","<div style=""font-size:60px;"">+</div>","null","fixation","","","","","","","","","","","",""
"revaluation","35","248118","0.0-3.0-6.0-0.3","spark_pilot_norest","8325","4","12","Female","","false","","","","","[833.3999998569489]","./assets/img/space/animals/rabbit.jpg","[""ArrowRight""]","second stage practice","space","23","{""ArrowUp,ArrowLeft"":3,""ArrowUp,ArrowRight"":36,""ArrowDown,ArrowLeft"":15,""ArrowDown,ArrowRight"":23}","true","ArrowDown,ArrowRight","","","","","","",""
"html-keyboard-response","36","248628","0.0-3.0-6.0-1.3","spark_pilot_norest","8325","4","12","Female","","","","","","","null","<div style=""font-size:60px;"">+</div>","null","fixation","","","","","","","","","","","",""
"learning-instructions","37","268880","0.0-3.0-7.0-0.0","spark_pilot_norest","8325","4","12","Female","","","","","","","3361.0999999046326","<p> Great job. Now let’s try putting it together. </p>
            <p> On each turn, you will first see a picture to remind you of the place you are in, and you need to choose whether to go up or down. </p>
            <p> Then you will see an animal and choose which of its chests to search for treasure. </p>","","instructions","","","","","","","","","","","",""
"learning-instructions","38","278770","0.0-3.0-7.0-0.1","spark_pilot_norest","8325","4","12","Female","","","","","","","1550.9000000953674","<p> When you choose whether to go up or down, try to go to the animal with the chest with the most treasure. </p>
            <p> Try practicing that now! </p>","","instructions","","","","","","","","","","","",""
"revaluation","39","284817","0.0-3.0-8.0-0.0","spark_pilot_norest","8325","4","12","Female","","false","","","","","[581.5999999046326,366.39999985694885]","./assets/img/space/6.jpg","[""ArrowDown"",""ArrowLeft""]","full practice","space","15","{""ArrowUp,ArrowLeft"":3,""ArrowUp,ArrowRight"":36,""ArrowDown,ArrowLeft"":15,""ArrowDown,ArrowRight"":23}","false","ArrowDown,ArrowLeft","false","","","","","",""
"html-keyboard-response","40","285337","0.0-3.0-8.0-1.0","spark_pilot_norest","8325","4","12","Female","","","","","","","null","<div style=""font-size:60px;"">+</div>","null","fixation","","","","","","","","","","","",""
"revaluation","41","291397","0.0-3.0-8.0-0.1","spark_pilot_norest","8325","4","12","Female","","false","","","","","[836,356.59999990463257]","./assets/img/space/7.jpg","[""ArrowDown"",""ArrowRight""]","full practice","space","23","{""ArrowUp,ArrowLeft"":3,""ArrowUp,ArrowRight"":36,""ArrowDown,ArrowLeft"":15,""ArrowDown,ArrowRight"":23}","false","ArrowDown,ArrowRight","false","","","","","",""
"html-keyboard-response","42","291906","0.0-3.0-8.0-1.1","spark_pilot_norest","8325","4","12","Female","","","","","","","null","<div style=""font-size:60px;"">+</div>","null","fixation","","","","","","","","","","","",""
"revaluation","43","295946","0.0-3.0-8.0-0.2","spark_pilot_norest","8325","4","12","Female","","true","","","","","[]","./assets/img/space/8.jpg","[]","full practice","space","-5","{""ArrowUp,ArrowLeft"":3,""ArrowUp,ArrowRight"":36,""ArrowDown,ArrowLeft"":15,""ArrowDown,ArrowRight"":23}","false","","false","","","","","",""
"html-keyboard-response","44","296451","0.0-3.0-8.0-1.2","spark_pilot_norest","8325","4","12","Female","","","","","","","null","<div style=""font-size:60px;"">+</div>","null","fixation","","","","","","","","","","","",""
"revaluation","45","302506","0.0-3.0-8.0-0.3","spark_pilot_norest","8325","4","12","Female","","false","","","","","[988.8000001907349,413.09999990463257]","./assets/img/space/9.jpg","[""ArrowUp"",""ArrowRight""]","full practice","space","36","{""ArrowUp,ArrowLeft"":3,""ArrowUp,ArrowRight"":36,""ArrowDown,ArrowLeft"":15,""ArrowDown,ArrowRight"":23}","true","ArrowUp,ArrowRight","false","","","","","",""
"html-keyboard-response","46","303027","0.0-3.0-8.0-1.3","spark_pilot_norest","8325","4","12","Female","","","","","","","null","<div style=""font-size:60px;"">+</div>","null","fixation","","","","","","","","","","","",""
"revaluation","47","309064","0.0-3.0-8.0-0.4","spark_pilot_norest","8325","4","12","Female","","false","","","","","[518,251.30000019073486]","./assets/img/space/10.jpg","[""ArrowUp"",""ArrowRight""]","full practice","space","36","{""ArrowUp,ArrowLeft"":3,""ArrowUp,ArrowRight"":36,""ArrowDown,ArrowLeft"":15,""ArrowDown,ArrowRight"":23}","true","ArrowUp,ArrowRight","false","","","","","",""
"html-keyboard-response","48","309568","0.0-3.0-8.0-1.4","spark_pilot_norest","8325","4","12","Female","","","","","","","null","<div style=""font-size:60px;"">+</div>","null","fixation","","","","","","","","","","","",""
"learning-instructions","49","321356","0.0-3.0-9.0-0.0","spark_pilot_norest","8325","4","12","Female","","","","","","","1461.6999998092651","<p> One last thing: sometimes, you will see a robber. The robber can be anywhere in the picture. </p>
            <p> If you do not stop them, you will lose treasure. </p>
            <img src='./assets/img/instructions/robber.jpg' class='instructions-image'>","","instructions","","","","","","","","","","","",""
"learning-instructions","50","331095","0.0-3.0-9.0-0.1","spark_pilot_norest","8325","4","12","Female","","","","","","","2532.5","<p> If you see the robber, you should <b>press the space bar</b> rather than using the arrow keys. </p>
            <p> Try practicing that now! </p>","","instructions","","","","","","","","","","","",""
"revaluation","51","335122","0.0-3.0-10.0-0.0","spark_pilot_norest","8325","4","12","Female","","false","","","","","[868.6000001430511]","./assets/img/space/catch/0.jpg","[""spaceBar""]","catch practice","space","0","{""ArrowUp,ArrowLeft"":3,""ArrowUp,ArrowRight"":36,""ArrowDown,ArrowLeft"":15,""ArrowDown,ArrowRight"":23}","true","spaceBar","true","","","","","",""
"html-keyboard-response","52","335640","0.0-3.0-10.0-1.0","spark_pilot_norest","8325","4","12","Female","","","","","","","null","<div style=""font-size:60px;"">+</div>","null","fixation","","","","","","","","","","","",""
"revaluation","53","339676","0.0-3.0-10.0-0.1","spark_pilot_norest","8325","4","12","Female","","false","","","","","[359.90000009536743]","./assets/img/space/catch/1.jpg","[""spaceBar""]","catch practice","space","0","{""ArrowUp,ArrowLeft"":3,""ArrowUp,ArrowRight"":36,""ArrowDown,ArrowLeft"":15,""ArrowDown,ArrowRight"":23}","true","spaceBar","true","","","","","",""
"html-keyboard-response","54","340186","0.0-3.0-10.0-1.1","spark_pilot_norest","8325","4","12","Female","","","","","","","null","<div style=""font-size:60px;"">+</div>","null","fixation","","","","","","","","","","","",""
"revaluation","55","344222","0.0-3.0-10.0-0.2","spark_pilot_norest","8325","4","12","Female","","false","","","","","[217.20000004768372]","./assets/img/space/catch/2.jpg","[""spaceBar""]","catch practice","space","0","{""ArrowUp,ArrowLeft"":3,""ArrowUp,ArrowRight"":36,""ArrowDown,ArrowLeft"":15,""ArrowDown,ArrowRight"":23}","true","spaceBar","true","","","","","",""
"html-keyboard-response","56","344741","0.0-3.0-10.0-1.2","spark_pilot_norest","8325","4","12","Female","","","","","","","null","<div style=""font-size:60px;"">+</div>","null","fixation","","","","","","","","","","","",""
"learning-instructions","57","352252","0.0-3.0-11.0-0.0-0.0","spark_pilot_norest","8325","4","12","Female","","","","","","","2215.800000190735","<p> Now, you will practice a shortened version of the game to get a sense of how it all fits together. </p>","","instructions","","","","","","","","","","","",""
"learning-instructions","58","356854","0.0-3.0-11.0-0.0-0.1","spark_pilot_norest","8325","4","12","Female","","","","","","","1351","<p>This time you are searching for treasure in outer space.</p>","","instructions","","","","","","","","","","","",""
"learning-instructions","59","372995","0.0-3.0-11.0-1.0-0.0","spark_pilot_norest","8325","4","12","Female","","","","","","","1311.8000001907349","<p> Remember, when you see a picture of the place, use the up and down keys to <b>find an animal</b>.</p>
            <p> When you encounter an animal, you should use the left and right keys to <b>select a treasure chest</b>.</p>
            <p> Don't forget to look out for the robber! </p>","","instructions","","","","","","","","","","","",""
"revaluation","60","379032","0.0-3.0-11.0-2.0-0.0","spark_pilot_norest","8325","4","12","Female","","false","","","","","[1317.7000000476837,855]","./assets/img/space/11.jpg","[""ArrowUp"",""ArrowRight""]","practice block","space","36","{""ArrowUp,ArrowLeft"":3,""ArrowUp,ArrowRight"":36,""ArrowDown,ArrowLeft"":15,""ArrowDown,ArrowRight"":23}","true","ArrowUp,ArrowRight","false","","","","","",""
"html-keyboard-response","61","379551","0.0-3.0-11.0-2.0-1.0","spark_pilot_norest","8325","4","12","Female","","","","","","","null","<div style=""font-size:60px;"">+</div>","null","fixation","","","","","","","","","","","",""
"revaluation","62","385602","0.0-3.0-11.0-2.0-0.1","spark_pilot_norest","8325","4","12","Female","","false","","","","","[911.7999999523163,339.2999999523163]","./assets/img/space/12.jpg","[""ArrowUp"",""ArrowRight""]","practice block","space","36","{""ArrowUp,ArrowLeft"":3,""ArrowUp,ArrowRight"":36,""ArrowDown,ArrowLeft"":15,""ArrowDown,ArrowRight"":23}","true","ArrowUp,ArrowRight","false","","","","","",""
"html-keyboard-response","63","386111","0.0-3.0-11.0-2.0-1.1","spark_pilot_norest","8325","4","12","Female","","","","","","","null","<div style=""font-size:60px;"">+</div>","null","fixation","","","","","","","","","","","",""
"revaluation","64","392142","0.0-3.0-11.0-2.0-0.2","spark_pilot_norest","8325","4","12","Female","","false","","","","","[707,264.89999985694885]","./assets/img/space/13.jpg","[""ArrowUp"",""ArrowRight""]","practice block","space","36","{""ArrowUp,ArrowLeft"":3,""ArrowUp,ArrowRight"":36,""ArrowDown,ArrowLeft"":15,""ArrowDown,ArrowRight"":23}","true","ArrowUp,ArrowRight","false","","","","","",""
"html-keyboard-response","65","392661","0.0-3.0-11.0-2.0-1.2","spark_pilot_norest","8325","4","12","Female","","","","","","","null","<div style=""font-size:60px;"">+</div>","null","fixation","","","","","","","","","","","",""
"revaluation","66","398714","0.0-3.0-11.0-2.0-0.3","spark_pilot_norest","8325","4","12","Female","","false","","","","","[651,327.2000000476837]","./assets/img/space/14.jpg","[""ArrowUp"",""ArrowRight""]","practice block","space","36","{""ArrowUp,ArrowLeft"":3,""ArrowUp,ArrowRight"":36,""ArrowDown,ArrowLeft"":15,""ArrowDown,ArrowRight"":23}","true","ArrowUp,ArrowRight","false","","","","","",""
"html-keyboard-response","67","399231","0.0-3.0-11.0-2.0-1.3","spark_pilot_norest","8325","4","12","Female","","","","","","","null","<div style=""font-size:60px;"">+</div>","null","fixation","","","","","","","","","","","",""
"revaluation","68","403267","0.0-3.0-11.0-2.0-0.4","spark_pilot_norest","8325","4","12","Female","","true","","","","","[]","./assets/img/space/11.jpg","[]","practice block","space","-5","{""ArrowUp,ArrowLeft"":3,""ArrowUp,ArrowRight"":36,""ArrowDown,ArrowLeft"":15,""ArrowDown,ArrowRight"":23}","false","","false","","","","","",""
"html-keyboard-response","69","403776","0.0-3.0-11.0-2.0-1.4","spark_pilot_norest","8325","4","12","Female","","","","","","","null","<div style=""font-size:60px;"">+</div>","null","fixation","","","","","","","","","","","",""
"revaluation","70","409798","0.0-3.0-11.0-2.0-0.5","spark_pilot_norest","8325","4","12","Female","","false","","","","","[1219.0999999046326,479.40000009536743]","./assets/img/space/12.jpg","[""ArrowUp"",""ArrowRight""]","practice block","space","36","{""ArrowUp,ArrowLeft"":3,""ArrowUp,ArrowRight"":36,""ArrowDown,ArrowLeft"":15,""ArrowDown,ArrowRight"":23}","true","ArrowUp,ArrowRight","false","","","","","",""
"html-keyboard-response","71","410306","0.0-3.0-11.0-2.0-1.5","spark_pilot_norest","8325","4","12","Female","","","","","","","null","<div style=""font-size:60px;"">+</div>","null","fixation","","","","","","","","","","","",""
"revaluation","72","416327","0.0-3.0-11.0-2.0-0.6","spark_pilot_norest","8325","4","12","Female","","false","","","","","[565.3999998569489,75.59999990463257]","./assets/img/space/13.jpg","[""ArrowUp"",""ArrowRight""]","practice block","space","36","{""ArrowUp,ArrowLeft"":3,""ArrowUp,ArrowRight"":36,""ArrowDown,ArrowLeft"":15,""ArrowDown,ArrowRight"":23}","true","ArrowUp,ArrowRight","false","","","","","",""
"html-keyboard-response","73","416835","0.0-3.0-11.0-2.0-1.6","spark_pilot_norest","8325","4","12","Female","","","","","","","null","<div style=""font-size:60px;"">+</div>","null","fixation","","","","","","","","","","","",""
"revaluation","74","422862","0.0-3.0-11.0-2.0-0.7","spark_pilot_norest","8325","4","12","Female","","false","","","","","[1202.6000001430511,291.69999980926514]","./assets/img/space/14.jpg","[""ArrowUp"",""ArrowRight""]","practice block","space","36","{""ArrowUp,ArrowLeft"":3,""ArrowUp,ArrowRight"":36,""ArrowDown,ArrowLeft"":15,""ArrowDown,ArrowRight"":23}","true","ArrowUp,ArrowRight","false","","","","","",""
"html-keyboard-response","75","423371","0.0-3.0-11.0-2.0-1.7","spark_pilot_norest","8325","4","12","Female","","","","","","","null","<div style=""font-size:60px;"">+</div>","null","fixation","","","","","","","","","","","",""
"revaluation","76","427388","0.0-3.0-11.0-2.0-0.8","spark_pilot_norest","8325","4","12","Female","","false","","","","","[553.5999999046326]","./assets/img/space/catch/3.jpg","[""ArrowUp""]","practice block","space","-10","{""ArrowUp,ArrowLeft"":3,""ArrowUp,ArrowRight"":36,""ArrowDown,ArrowLeft"":15,""ArrowDown,ArrowRight"":23}","false","ArrowUp","true","","","","","",""
"html-keyboard-response","77","427893","0.0-3.0-11.0-2.0-1.8","spark_pilot_norest","8325","4","12","Female","","","","","","","null","<div style=""font-size:60px;"">+</div>","null","fixation","","","","","","","","","","","",""
"learning-instructions","78","451666","0.0-3.0-11.0-3.0-0.0","spark_pilot_norest","8325","4","12","Female","","","","","","","10621.600000143051","<p> Now, you will travel with a friend who will choose whether you go up or down first. </p>
            <p> On these turns, you will just see the animal that they found. You will still get to choose which chest to search for treasure.</p>","","instructions","","","","","","","","","","","",""
"revaluation","79","455703","0.0-3.0-11.0-4.0-0.0","spark_pilot_norest","8325","4","12","Female","","false","","","","","[1141.2000000476837]","./assets/img/space/animals/rabbit.jpg","[""ArrowRight""]","practice block","space","23","{""ArrowUp,ArrowLeft"":3,""ArrowUp,ArrowRight"":36,""ArrowDown,ArrowLeft"":15,""ArrowDown,ArrowRight"":23}","true","ArrowDown,ArrowRight","","","","","","",""
"html-keyboard-response","80","456206","0.0-3.0-11.0-4.0-1.0","spark_pilot_norest","8325","4","12","Female","","","","","","","null","<div style=""font-size:60px;"">+</div>","null","fixation","","","","","","","","","","","",""
"revaluation","81","460233","0.0-3.0-11.0-4.0-0.1","spark_pilot_norest","8325","4","12","Female","","false","","","","","[657.1000001430511]","./assets/img/space/animals/rabbit.jpg","[""ArrowLeft""]","practice block","space","15","{""ArrowUp,ArrowLeft"":3,""ArrowUp,ArrowRight"":36,""ArrowDown,ArrowLeft"":15,""ArrowDown,ArrowRight"":23}","false","ArrowDown,ArrowLeft","","","","","","",""
"html-keyboard-response","82","460742","0.0-3.0-11.0-4.0-1.1","spark_pilot_norest","8325","4","12","Female","","","","","","","null","<div style=""font-size:60px;"">+</div>","null","fixation","","","","","","","","","","","",""
"revaluation","83","464773","0.0-3.0-11.0-4.0-0.2","spark_pilot_norest","8325","4","12","Female","","false","","","","","[437.69999980926514]","./assets/img/space/animals/cat.jpg","[""ArrowRight""]","practice block","space","36","{""ArrowUp,ArrowLeft"":3,""ArrowUp,ArrowRight"":36,""ArrowDown,ArrowLeft"":15,""ArrowDown,ArrowRight"":23}","true","ArrowUp,ArrowRight","","","","","","",""
"html-keyboard-response","84","465291","0.0-3.0-11.0-4.0-1.2","spark_pilot_norest","8325","4","12","Female","","","","","","","null","<div style=""font-size:60px;"">+</div>","null","fixation","","","","","","","","","","","",""
"revaluation","85","469312","0.0-3.0-11.0-4.0-0.3","spark_pilot_norest","8325","4","12","Female","","false","","","","","[541.5999999046326]","./assets/img/space/animals/cat.jpg","[""ArrowRight""]","practice block","space","36","{""ArrowUp,ArrowLeft"":3,""ArrowUp,ArrowRight"":36,""ArrowDown,ArrowLeft"":15,""ArrowDown,ArrowRight"":23}","true","ArrowUp,ArrowRight","","","","","","",""
"html-keyboard-response","86","469818","0.0-3.0-11.0-4.0-1.3","spark_pilot_norest","8325","4","12","Female","","","","","","","null","<div style=""font-size:60px;"">+</div>","null","fixation","","","","","","","","","","","",""
"learning-instructions","87","477981","0.0-3.0-11.0-5.0-0.0","spark_pilot_norest","8325","4","12","Female","","","","","","","null","<p> You have almost finished this part of the game! </p>
            <p> We are going to ask you to make a few more choices. </p>","","instructions","","","","","","","","","","","",""
"learning-instructions","88","494050","0.0-3.0-11.0-5.0-0.1","spark_pilot_norest","8325","4","12","Female","","","","","","","null","<p> First, you need to decide whether to go up or down. When you see each picture, use the arrow keys to make your choice. </p>
            <p><b>You will not see which animal you found, but try to get to the one that will give you the most treasure.</b></p>","","instructions","","","","","","","","","","","",""
"html-keyboard-response","89","495051","0.0-3.0-11.0-6.0-0.0","spark_pilot_norest","8325","4","12","Female","","","","","","","null","<div style=""font-size:100px;color:red;"">Starting in...</div>","null","","","","","","","","","","","","",""
"html-keyboard-response","90","496062","0.0-3.0-11.0-6.0-1.0","spark_pilot_norest","8325","4","12","Female","","","","","","","null","<div style=""font-size:200px;color:red;"">3</div>","null","","","","","","","","","","","","",""
"html-keyboard-response","91","497072","0.0-3.0-11.0-6.0-2.0","spark_pilot_norest","8325","4","12","Female","","","","","","","null","<div style=""font-size:200px;color:red;"">2</div>","null","","","","","","","","","","","","",""
"html-keyboard-response","92","498092","0.0-3.0-11.0-6.0-3.0","spark_pilot_norest","8325","4","12","Female","","","","","","","null","<div style=""font-size:200px;color:red;"">1</div>","null","","","","","","","","","","","","",""
"revaluation","93","498493","0.0-3.0-11.0-7.0","spark_pilot_norest","8325","4","12","Female","","false","","","","","[394.10000014305115]","./assets/img/space/15.jpg","[""ArrowUp""]","practice block","space","0","{""ArrowUp,ArrowLeft"":3,""ArrowUp,ArrowRight"":36,""ArrowDown,ArrowLeft"":15,""ArrowDown,ArrowRight"":23}","true","ArrowUp","false","","","","","",""
"html-keyboard-response","94","499002","0.0-3.0-11.0-8.0","spark_pilot_norest","8325","4","12","Female","","","","","","","null","<div style=""font-size:60px;"">+</div>","null","fixation","","","","","","","","","","","",""
"learning-instructions","95","512412","0.0-3.0-11.0-9.0-0.0","spark_pilot_norest","8325","4","12","Female","","","","","","","null","<p> Now you will see the animals again and can search their chests for treasure. </p>
            <p> This time, you will not see how much treasure you earned, but you will earn more bonus money for making better choices. </p>","","instructions","","","","","","","","","","","",""
"html-keyboard-response","96","513433","0.0-3.0-11.0-10.0-0.0","spark_pilot_norest","8325","4","12","Female","","","","","","","null","<div style=""font-size:100px;color:red;"">Starting in...</div>","null","","","","","","","","","","","","",""
"html-keyboard-response","97","514453","0.0-3.0-11.0-10.0-1.0","spark_pilot_norest","8325","4","12","Female","","","","","","","null","<div style=""font-size:200px;color:red;"">3</div>","null","","","","","","","","","","","","",""
"html-keyboard-response","98","515481","0.0-3.0-11.0-10.0-2.0","spark_pilot_norest","8325","4","12","Female","","","","","","","null","<div style=""font-size:200px;color:red;"">2</div>","null","","","","","","","","","","","","",""
"html-keyboard-response","99","516493","0.0-3.0-11.0-10.0-3.0","spark_pilot_norest","8325","4","12","Female","","","","","","","null","<div style=""font-size:200px;color:red;"">1</div>","null","","","","","","","","","","","","",""
"revaluation","100","517701","0.0-3.0-11.0-11.0-0.0","spark_pilot_norest","8325","4","12","Female","","false","","","","","[1199.9000000953674]","./assets/img/space/animals/cat.jpg","[""ArrowRight""]","practice block","space","0","{""ArrowUp,ArrowLeft"":3,""ArrowUp,ArrowRight"":36,""ArrowDown,ArrowLeft"":15,""ArrowDown,ArrowRight"":23}","true","ArrowUp,ArrowRight","","","","","","",""
"html-keyboard-response","101","518222","0.0-3.0-11.0-11.0-1.0","spark_pilot_norest","8325","4","12","Female","","","","","","","null","<div style=""font-size:60px;"">+</div>","null","fixation","","","","","","","","","","","",""
"revaluation","102","518864","0.0-3.0-11.0-11.0-0.1","spark_pilot_norest","8325","4","12","Female","","false","","","","","[633.5]","./assets/img/space/animals/rabbit.jpg","[""ArrowRight""]","practice block","space","0","{""ArrowUp,ArrowLeft"":3,""ArrowUp,ArrowRight"":36,""ArrowDown,ArrowLeft"":15,""ArrowDown,ArrowRight"":23}","true","ArrowDown,ArrowRight","","","","","","",""
"html-keyboard-response","103","519383","0.0-3.0-11.0-11.0-1.1","spark_pilot_norest","8325","4","12","Female","","","","","","","null","<div style=""font-size:60px;"">+</div>","null","fixation","","","","","","","","","","","",""
"learning-instructions","104","526655","0.0-3.0-12.0-0.0","spark_pilot_norest","8325","4","12","Female","","","","","","","2670.4000000953674","<p> Before you start, we're going to ask you a few questions about how the game works. </p>","","instructions","","","","","","","","","","","",""
"comp-q","105","534177","0.0-3.0-13.0-0.0-0.0","spark_pilot_norest","8325","4","12","Female","","","","","","","1877.9000000953674","<p> <b> True or False? </b> </p>
            <p> There can be 50 pieces of treasure in a given animal's chest. </p>","1","comp_question","","","","true","","","","","","","",""
"comp-q","106","543021","0.0-3.0-13.0-0.0-1.0","spark_pilot_norest","8325","4","12","Female","","","","","","","2136","<p> <b> That's right! </b> The amount of treasure in each chest can range from 0 to 40 pieces. </p>","0","comp_answer","","","","","","","","","","","",""
"comp-q","107","553308","0.0-3.0-13.0-0.1-0.1","spark_pilot_norest","8325","4","12","Female","","","","","","","3113.4000000953674","<p> <b> True or False? </b> </p><p> In this game, all animals have the same amount of treasure in their left and right chests. </p>","1","comp_question","","","","true","","","","","","","",""
"comp-q","108","559987","0.0-3.0-13.0-0.1-1.1","spark_pilot_norest","8325","4","12","Female","","","","","","","1391.2999999523163","<p> <b> That's right! </b> Animals have different amounts of treasure in their treasure chests. </p>","0","comp_answer","","","","","","","","","","","",""
"comp-q","109","567578","0.0-3.0-13.0-0.2-0.2","spark_pilot_norest","8325","4","12","Female","","","","","","","1703.0999999046326","<p> <b> True or False? </b> </p><p> The same animal will always be there if you go up in the same place. </p>","0","comp_question","","","","true","","","","","","","",""
"comp-q","110","578266","0.0-3.0-13.0-0.2-1.2","spark_pilot_norest","8325","4","12","Female","","","","","","","4192.5","<p> <b> That's right! </b> One animal lives in the upper part and one lives in the lower part of every place. </p>","0","comp_answer","","","","","","","","","","","",""
"comp-q","111","585685","0.0-3.0-13.0-0.3-0.3","spark_pilot_norest","8325","4","12","Female","","","","","","","1841.7000000476837","<p> <b> True or False? </b> </p><p> If you see a different picture, it means you are in a new place. </p>","0","comp_question","","","","false","","","","","","","",""
"comp-q","112","598415","0.0-3.0-13.0-0.3-1.3","spark_pilot_norest","8325","4","12","Female","","","","","","","1581.4000000953674","<p> <b>Incorrect.</b> Lots of different images may show the same place. For example,  you may see three different images that all remind you that you are in outer space. </p>","0","comp_answer","","","","","","","","","","","",""
"comp-q","113","606274","0.0-3.0-13.0-0.4-0.4","spark_pilot_norest","8325","4","12","Female","","","","","","","2351.5","<p> <b> True or False? </b> </p><p> If you see a different picture, it means you are in a new place. </p>","0","comp_question","","","","false","","","","","","","",""
"comp-q","114","621204","0.0-3.0-13.0-0.4-1.4","spark_pilot_norest","8325","4","12","Female","","","","","","","3870.899999856949","<p> <b>Incorrect.</b> Lots of different images may show the same place. For example,  you may see three different images that all remind you that you are in outer space. </p>","0","comp_answer","","","","","","","","","","","",""
"comp-q","115","627864","0.0-3.0-13.0-0.5-0.5","spark_pilot_norest","8325","4","12","Female","","","","","","","1151.2999999523163","<p> <b> True or False? </b> </p><p> If you see a different picture, it means you are in a new place. </p>","1","comp_question","","","","true","","","","","","","",""
"comp-q","116","643229","0.0-3.0-13.0-0.5-1.5","spark_pilot_norest","8325","4","12","Female","","","","","","","4074.9000000953674","<p> <b> That's right! </b> Lots of different images may show the same place. For example,  you may see three different images that all remind you that you are in outer space. </p>","0","comp_answer","","","","","","","","","","","",""
"learning-instructions","117","657136","0.0-3.0-14.0-0.0","spark_pilot_norest","8325","4","12","Female","","","","","","","3971.7000000476837","<p> Good job. Remember to do your best because the amount of treasure you earn will be converted into bonus money. </p>
            <p> It’s time to start the real game! </p>","","instructions","","","","","","","","","","","",""
"learning-instructions","118","662141","0.0-4.0-0.0-0.0","spark_pilot_norest","8325","4","12","Female","","","","","","","2266","<p> This time you are searching for treasure in the <b>ocean</b>.</p>","","instructions","","","","","","","","","","","",""
"learning-instructions","119","681286","0.0-4.0-0.0-0.1","spark_pilot_norest","8325","4","12","Female","","","","","","","1759.2999999523163","<p><b>New</b> animals with <b>new</b> treasure chests live here. You need to explore to discover where the animal with the best treasure chest is.</p>
                    <p> Like before, once you figure out which animal has the chest with the most treasure, you should try to get to that animal and select that chest! </p>","","instructions","","","","","","","","","","","",""
"learning-instructions","120","701500","0.0-4.0-1.0-0.0","spark_pilot_norest","8325","4","12","Female","","","","","","","5485.700000047684","<p> Remember, when you see a picture of the place, use the up and down keys to <b>find an animal</b>.</p>
            <p> When you encounter an animal, you should use the left and right keys to <b>select a treasure chest</b>.</p>
            <p> Don't forget to look out for the robber! </p>","","instructions","","","","","","","","","","","",""
"revaluation","121","707534","0.0-4.0-2.0-0.0","spark_pilot_norest","8325","4","12","Female","","false","","","","","[1600.2999999523163,672.4000000953674]","./assets/img/ocean/memory/9.jpg","[""ArrowUp"",""ArrowRight""]","value training","ocean","10","{""ArrowUp,ArrowLeft"":26,""ArrowUp,ArrowRight"":10,""ArrowDown,ArrowLeft"":5,""ArrowDown,ArrowRight"":17}","false","ArrowUp,ArrowRight","false","revaluation","1","0","","",""
"html-keyboard-response","122","708053","0.0-4.0-2.0-1.0","spark_pilot_norest","8325","4","12","Female","","","","","","","null","<div style=""font-size:60px;"">+</div>","null","fixation","","","","","","","","","1","","",""
"revaluation","123","714103","0.0-4.0-2.0-0.1","spark_pilot_norest","8325","4","12","Female","","false","","","","","[857.4000000953674,316.10000014305115]","./assets/img/ocean/memory/8.jpg","[""ArrowUp"",""ArrowLeft""]","value training","ocean","26","{""ArrowUp,ArrowLeft"":26,""ArrowUp,ArrowRight"":10,""ArrowDown,ArrowLeft"":5,""ArrowDown,ArrowRight"":17}","true","ArrowUp,ArrowLeft","false","revaluation","1","2","","",""
"html-keyboard-response","124","714622","0.0-4.0-2.0-1.1","spark_pilot_norest","8325","4","12","Female","","","","","","","null","<div style=""font-size:60px;"">+</div>","null","fixation","","","","","","","","","3","","",""
"revaluation","125","720663","0.0-4.0-2.0-0.2","spark_pilot_norest","8325","4","12","Female","","false","","","","","[749.2000000476837,428.30000019073486]","./assets/img/ocean/memory/3.jpg","[""ArrowDown"",""ArrowLeft""]","value training","ocean","5","{""ArrowUp,ArrowLeft"":26,""ArrowUp,ArrowRight"":10,""ArrowDown,ArrowLeft"":5,""ArrowDown,ArrowRight"":17}","false","ArrowDown,ArrowLeft","false","revaluation","1","4","","",""
"html-keyboard-response","126","721180","0.0-4.0-2.0-1.2","spark_pilot_norest","8325","4","12","Female","","","","","","","null","<div style=""font-size:60px;"">+</div>","null","fixation","","","","","","","","","5","","",""
"revaluation","127","727216","0.0-4.0-2.0-0.3","spark_pilot_norest","8325","4","12","Female","","false","","","","","[643.5999999046326,395.2999999523163]","./assets/img/ocean/memory/22.jpg","[""ArrowDown"",""ArrowRight""]","value training","ocean","17","{""ArrowUp,ArrowLeft"":26,""ArrowUp,ArrowRight"":10,""ArrowDown,ArrowLeft"":5,""ArrowDown,ArrowRight"":17}","false","ArrowDown,ArrowRight","false","revaluation","1","6","","",""
"html-keyboard-response","128","727724","0.0-4.0-2.0-1.3","spark_pilot_norest","8325","4","12","Female","","","","","","","null","<div style=""font-size:60px;"">+</div>","null","fixation","","","","","","","","","7","","",""
"revaluation","129","733754","0.0-4.0-2.0-0.4","spark_pilot_norest","8325","4","12","Female","","false","","","","","[789.7999999523163,337.2999999523163]","./assets/img/ocean/memory/3.jpg","[""ArrowUp"",""ArrowRight""]","value training","ocean","10","{""ArrowUp,ArrowLeft"":26,""ArrowUp,ArrowRight"":10,""ArrowDown,ArrowLeft"":5,""ArrowDown,ArrowRight"":17}","false","ArrowUp,ArrowRight","false","revaluation","1","8","","",""
"html-keyboard-response","130","734261","0.0-4.0-2.0-1.4","spark_pilot_norest","8325","4","12","Female","","","","","","","null","<div style=""font-size:60px;"">+</div>","null","fixation","","","","","","","","","9","","",""
"revaluation","131","740278","0.0-4.0-2.0-0.5","spark_pilot_norest","8325","4","12","Female","","false","","","","","[494.90000009536743,385]","./assets/img/ocean/memory/18.jpg","[""ArrowUp"",""ArrowLeft""]","value training","ocean","26","{""ArrowUp,ArrowLeft"":26,""ArrowUp,ArrowRight"":10,""ArrowDown,ArrowLeft"":5,""ArrowDown,ArrowRight"":17}","true","ArrowUp,ArrowLeft","false","revaluation","1","10","","",""
"html-keyboard-response","132","740785","0.0-4.0-2.0-1.5","spark_pilot_norest","8325","4","12","Female","","","","","","","null","<div style=""font-size:60px;"">+</div>","null","fixation","","","","","","","","","11","","",""
"revaluation","133","746802","0.0-4.0-2.0-0.6","spark_pilot_norest","8325","4","12","Female","","false","","","","","[422.39999985694885,822.0999999046326]","./assets/img/ocean/memory/5.jpg","[""ArrowUp"",""ArrowLeft""]","value training","ocean","26","{""ArrowUp,ArrowLeft"":26,""ArrowUp,ArrowRight"":10,""ArrowDown,ArrowLeft"":5,""ArrowDown,ArrowRight"":17}","true","ArrowUp,ArrowLeft","false","revaluation","1","12","","",""
"html-keyboard-response","134","747310","0.0-4.0-2.0-1.6","spark_pilot_norest","8325","4","12","Female","","","","","","","null","<div style=""font-size:60px;"">+</div>","null","fixation","","","","","","","","","13","","",""
"revaluation","135","753337","0.0-4.0-2.0-0.7","spark_pilot_norest","8325","4","12","Female","","false","","","","","[578.5,484.60000014305115]","./assets/img/ocean/memory/36.jpg","[""ArrowUp"",""ArrowLeft""]","value training","ocean","26","{""ArrowUp,ArrowLeft"":26,""ArrowUp,ArrowRight"":10,""ArrowDown,ArrowLeft"":5,""ArrowDown,ArrowRight"":17}","true","ArrowUp,ArrowLeft","false","revaluation","1","14","","",""
"html-keyboard-response","136","753846","0.0-4.0-2.0-1.7","spark_pilot_norest","8325","4","12","Female","","","","","","","null","<div style=""font-size:60px;"">+</div>","null","fixation","","","","","","","","","15","","",""
"revaluation","137","757869","0.0-4.0-2.0-0.8","spark_pilot_norest","8325","4","12","Female","","false","","","","","[870.1000001430511]","./assets/img/ocean/catch/1.jpg","[""spaceBar""]","value training","ocean","0","{""ArrowUp,ArrowLeft"":26,""ArrowUp,ArrowRight"":10,""ArrowDown,ArrowLeft"":5,""ArrowDown,ArrowRight"":17}","true","spaceBar","true","revaluation","1","16","","",""
"html-keyboard-response","138","758375","0.0-4.0-2.0-1.8","spark_pilot_norest","8325","4","12","Female","","","","","","","null","<div style=""font-size:60px;"">+</div>","null","fixation","","","","","","","","","17","","",""
"revaluation","139","764397","0.0-4.0-2.0-0.9","spark_pilot_norest","8325","4","12","Female","","false","","","","","[899.4000000953674,379.09999990463257]","./assets/img/ocean/memory/18.jpg","[""ArrowUp"",""ArrowLeft""]","value training","ocean","26","{""ArrowUp,ArrowLeft"":26,""ArrowUp,ArrowRight"":10,""ArrowDown,ArrowLeft"":5,""ArrowDown,ArrowRight"":17}","true","ArrowUp,ArrowLeft","false","revaluation","1","18","","",""
"html-keyboard-response","140","764907","0.0-4.0-2.0-1.9","spark_pilot_norest","8325","4","12","Female","","","","","","","null","<div style=""font-size:60px;"">+</div>","null","fixation","","","","","","","","","19","","",""
"revaluation","141","770922","0.0-4.0-2.0-0.10","spark_pilot_norest","8325","4","12","Female","","false","","","","","[646.3999998569489,366.09999990463257]","./assets/img/ocean/memory/37.jpg","[""ArrowUp"",""ArrowLeft""]","value training","ocean","26","{""ArrowUp,ArrowLeft"":26,""ArrowUp,ArrowRight"":10,""ArrowDown,ArrowLeft"":5,""ArrowDown,ArrowRight"":17}","true","ArrowUp,ArrowLeft","false","revaluation","1","20","","",""
"html-keyboard-response","142","771430","0.0-4.0-2.0-1.10","spark_pilot_norest","8325","4","12","Female","","","","","","","null","<div style=""font-size:60px;"">+</div>","null","fixation","","","","","","","","","21","","",""
"revaluation","143","777447","0.0-4.0-2.0-0.11","spark_pilot_norest","8325","4","12","Female","","false","","","","","[705.3999998569489,334.5]","./assets/img/ocean/memory/27.jpg","[""ArrowUp"",""ArrowLeft""]","value training","ocean","26","{""ArrowUp,ArrowLeft"":26,""ArrowUp,ArrowRight"":10,""ArrowDown,ArrowLeft"":5,""ArrowDown,ArrowRight"":17}","true","ArrowUp,ArrowLeft","false","revaluation","1","22","","",""
"html-keyboard-response","144","777955","0.0-4.0-2.0-1.11","spark_pilot_norest","8325","4","12","Female","","","","","","","null","<div style=""font-size:60px;"">+</div>","null","fixation","","","","","","","","","23","","",""
"revaluation","145","783980","0.0-4.0-2.0-0.12","spark_pilot_norest","8325","4","12","Female","","false","","","","","[617,472.5]","./assets/img/ocean/memory/4.jpg","[""ArrowUp"",""ArrowLeft""]","value training","ocean","26","{""ArrowUp,ArrowLeft"":26,""ArrowUp,ArrowRight"":10,""ArrowDown,ArrowLeft"":5,""ArrowDown,ArrowRight"":17}","true","ArrowUp,ArrowLeft","false","revaluation","1","24","","",""
"html-keyboard-response","146","784488","0.0-4.0-2.0-1.12","spark_pilot_norest","8325","4","12","Female","","","","","","","null","<div style=""font-size:60px;"">+</div>","null","fixation","","","","","","","","","25","","",""
"revaluation","147","790508","0.0-4.0-2.0-0.13","spark_pilot_norest","8325","4","12","Female","","false","","","","","[580.5,461]","./assets/img/ocean/memory/39.jpg","[""ArrowUp"",""ArrowLeft""]","value training","ocean","26","{""ArrowUp,ArrowLeft"":26,""ArrowUp,ArrowRight"":10,""ArrowDown,ArrowLeft"":5,""ArrowDown,ArrowRight"":17}","true","ArrowUp,ArrowLeft","false","revaluation","1","26","","",""
"html-keyboard-response","148","791017","0.0-4.0-2.0-1.13","spark_pilot_norest","8325","4","12","Female","","","","","","","null","<div style=""font-size:60px;"">+</div>","null","fixation","","","","","","","","","27","","",""
"revaluation","149","795031","0.0-4.0-2.0-0.14","spark_pilot_norest","8325","4","12","Female","","false","","","","","[793.3999998569489]","./assets/img/ocean/catch/2.jpg","[""spaceBar""]","value training","ocean","0","{""ArrowUp,ArrowLeft"":26,""ArrowUp,ArrowRight"":10,""ArrowDown,ArrowLeft"":5,""ArrowDown,ArrowRight"":17}","true","spaceBar","true","revaluation","1","28","","",""
"html-keyboard-response","150","795540","0.0-4.0-2.0-1.14","spark_pilot_norest","8325","4","12","Female","","","","","","","null","<div style=""font-size:60px;"">+</div>","null","fixation","","","","","","","","","29","","",""
"revaluation","151","801558","0.0-4.0-2.0-0.15","spark_pilot_norest","8325","4","12","Female","","false","","","","","[563,399.2000000476837]","./assets/img/ocean/memory/32.jpg","[""ArrowUp"",""ArrowLeft""]","value training","ocean","26","{""ArrowUp,ArrowLeft"":26,""ArrowUp,ArrowRight"":10,""ArrowDown,ArrowLeft"":5,""ArrowDown,ArrowRight"":17}","true","ArrowUp,ArrowLeft","false","revaluation","1","30","","",""
"html-keyboard-response","152","802065","0.0-4.0-2.0-1.15","spark_pilot_norest","8325","4","12","Female","","","","","","","null","<div style=""font-size:60px;"">+</div>","null","fixation","","","","","","","","","31","","",""
"revaluation","153","808096","0.0-4.0-2.0-0.16","spark_pilot_norest","8325","4","12","Female","","false","","","","","[564.8000001907349,390.59999990463257]","./assets/img/ocean/memory/36.jpg","[""ArrowUp"",""ArrowLeft""]","value training","ocean","26","{""ArrowUp,ArrowLeft"":26,""ArrowUp,ArrowRight"":10,""ArrowDown,ArrowLeft"":5,""ArrowDown,ArrowRight"":17}","true","ArrowUp,ArrowLeft","false","revaluation","1","32","","",""
"html-keyboard-response","154","808604","0.0-4.0-2.0-1.16","spark_pilot_norest","8325","4","12","Female","","","","","","","null","<div style=""font-size:60px;"">+</div>","null","fixation","","","","","","","","","33","","",""
"revaluation","155","812620","0.0-4.0-2.0-0.17","spark_pilot_norest","8325","4","12","Female","","false","","","","","[664.0999999046326]","./assets/img/ocean/catch/0.jpg","[""spaceBar""]","value training","ocean","0","{""ArrowUp,ArrowLeft"":26,""ArrowUp,ArrowRight"":10,""ArrowDown,ArrowLeft"":5,""ArrowDown,ArrowRight"":17}","true","spaceBar","true","revaluation","1","34","","",""
"html-keyboard-response","156","813130","0.0-4.0-2.0-1.17","spark_pilot_norest","8325","4","12","Female","","","","","","","null","<div style=""font-size:60px;"">+</div>","null","fixation","","","","","","","","","35","","",""
"revaluation","157","819153","0.0-4.0-2.0-0.18","spark_pilot_norest","8325","4","12","Female","","false","","","","","[973.3000001907349,512.0999999046326]","./assets/img/ocean/memory/7.jpg","[""ArrowUp"",""ArrowLeft""]","value training","ocean","26","{""ArrowUp,ArrowLeft"":26,""ArrowUp,ArrowRight"":10,""ArrowDown,ArrowLeft"":5,""ArrowDown,ArrowRight"":17}","true","ArrowUp,ArrowLeft","false","revaluation","1","36","","",""
"html-keyboard-response","158","819659","0.0-4.0-2.0-1.18","spark_pilot_norest","8325","4","12","Female","","","","","","","null","<div style=""font-size:60px;"">+</div>","null","fixation","","","","","","","","","37","","",""
"revaluation","159","823684","0.0-4.0-2.0-0.19","spark_pilot_norest","8325","4","12","Female","","false","","","","","[559.5]","./assets/img/ocean/catch/5.jpg","[""ArrowUp""]","value training","ocean","-10","{""ArrowUp,ArrowLeft"":26,""ArrowUp,ArrowRight"":10,""ArrowDown,ArrowLeft"":5,""ArrowDown,ArrowRight"":17}","false","ArrowUp","true","revaluation","1","38","","",""
"html-keyboard-response","160","824192","0.0-4.0-2.0-1.19","spark_pilot_norest","8325","4","12","Female","","","","","","","null","<div style=""font-size:60px;"">+</div>","null","fixation","","","","","","","","","39","","",""
"revaluation","161","830212","0.0-4.0-2.0-0.20","spark_pilot_norest","8325","4","12","Female","","false","","","","","[1059.5999999046326,492.5]","./assets/img/ocean/memory/35.jpg","[""ArrowUp"",""ArrowLeft""]","value training","ocean","26","{""ArrowUp,ArrowLeft"":26,""ArrowUp,ArrowRight"":10,""ArrowDown,ArrowLeft"":5,""ArrowDown,ArrowRight"":17}","true","ArrowUp,ArrowLeft","false","revaluation","1","40","","",""
"html-keyboard-response","162","830719","0.0-4.0-2.0-1.20","spark_pilot_norest","8325","4","12","Female","","","","","","","null","<div style=""font-size:60px;"">+</div>","null","fixation","","","","","","","","","41","","",""
"revaluation","163","834738","0.0-4.0-2.0-0.21","spark_pilot_norest","8325","4","12","Female","","false","","","","","[592.7000000476837]","./assets/img/ocean/catch/6.jpg","[""spaceBar""]","value training","ocean","0","{""ArrowUp,ArrowLeft"":26,""ArrowUp,ArrowRight"":10,""ArrowDown,ArrowLeft"":5,""ArrowDown,ArrowRight"":17}","true","spaceBar","true","revaluation","1","42","","",""
"html-keyboard-response","164","835253","0.0-4.0-2.0-1.21","spark_pilot_norest","8325","4","12","Female","","","","","","","null","<div style=""font-size:60px;"">+</div>","null","fixation","","","","","","","","","43","","",""
"revaluation","165","841281","0.0-4.0-2.0-0.22","spark_pilot_norest","8325","4","12","Female","","false","","","","","[541.7000000476837,981.2999999523163]","./assets/img/ocean/memory/35.jpg","[""ArrowUp"",""ArrowLeft""]","value training","ocean","26","{""ArrowUp,ArrowLeft"":26,""ArrowUp,ArrowRight"":10,""ArrowDown,ArrowLeft"":5,""ArrowDown,ArrowRight"":17}","true","ArrowUp,ArrowLeft","false","revaluation","1","44","","",""
"html-keyboard-response","166","841790","0.0-4.0-2.0-1.22","spark_pilot_norest","8325","4","12","Female","","","","","","","null","<div style=""font-size:60px;"">+</div>","null","fixation","","","","","","","","","45","","",""
"revaluation","167","845812","0.0-4.0-2.0-0.23","spark_pilot_norest","8325","4","12","Female","","false","","","","","[681.9000000953674]","./assets/img/ocean/catch/4.jpg","[""spaceBar""]","value training","ocean","0","{""ArrowUp,ArrowLeft"":26,""ArrowUp,ArrowRight"":10,""ArrowDown,ArrowLeft"":5,""ArrowDown,ArrowRight"":17}","true","spaceBar","true","revaluation","1","46","","",""
"html-keyboard-response","168","846321","0.0-4.0-2.0-1.23","spark_pilot_norest","8325","4","12","Female","","","","","","","null","<div style=""font-size:60px;"">+</div>","null","fixation","","","","","","","","","47","","",""
"revaluation","169","852351","0.0-4.0-2.0-0.24","spark_pilot_norest","8325","4","12","Female","","false","","","","","[574.7000000476837,392.09999990463257]","./assets/img/ocean/memory/39.jpg","[""ArrowUp"",""ArrowLeft""]","value training","ocean","26","{""ArrowUp,ArrowLeft"":26,""ArrowUp,ArrowRight"":10,""ArrowDown,ArrowLeft"":5,""ArrowDown,ArrowRight"":17}","true","ArrowUp,ArrowLeft","false","revaluation","1","48","","",""
"html-keyboard-response","170","852858","0.0-4.0-2.0-1.24","spark_pilot_norest","8325","4","12","Female","","","","","","","null","<div style=""font-size:60px;"">+</div>","null","fixation","","","","","","","","","49","","",""
"revaluation","171","858878","0.0-4.0-2.0-0.25","spark_pilot_norest","8325","4","12","Female","","false","","","","","[598.3999998569489,606.5]","./assets/img/ocean/memory/10.jpg","[""ArrowUp"",""ArrowLeft""]","value training","ocean","26","{""ArrowUp,ArrowLeft"":26,""ArrowUp,ArrowRight"":10,""ArrowDown,ArrowLeft"":5,""ArrowDown,ArrowRight"":17}","true","ArrowUp,ArrowLeft","false","revaluation","1","50","","",""
"html-keyboard-response","172","859387","0.0-4.0-2.0-1.25","spark_pilot_norest","8325","4","12","Female","","","","","","","null","<div style=""font-size:60px;"">+</div>","null","fixation","","","","","","","","","51","","",""
"revaluation","173","865411","0.0-4.0-2.0-0.26","spark_pilot_norest","8325","4","12","Female","","false","","","","","[620.8000001907349,518.7999999523163]","./assets/img/ocean/memory/22.jpg","[""ArrowUp"",""ArrowLeft""]","value training","ocean","26","{""ArrowUp,ArrowLeft"":26,""ArrowUp,ArrowRight"":10,""ArrowDown,ArrowLeft"":5,""ArrowDown,ArrowRight"":17}","true","ArrowUp,ArrowLeft","false","revaluation","1","52","","",""
"html-keyboard-response","174","865919","0.0-4.0-2.0-1.26","spark_pilot_norest","8325","4","12","Female","","","","","","","null","<div style=""font-size:60px;"">+</div>","null","fixation","","","","","","","","","53","","",""
"revaluation","175","869943","0.0-4.0-2.0-0.27","spark_pilot_norest","8325","4","12","Female","","false","","","","","[841.1999998092651]","./assets/img/ocean/catch/7.jpg","[""spaceBar""]","value training","ocean","0","{""ArrowUp,ArrowLeft"":26,""ArrowUp,ArrowRight"":10,""ArrowDown,ArrowLeft"":5,""ArrowDown,ArrowRight"":17}","true","spaceBar","true","revaluation","1","54","","",""
"html-keyboard-response","176","870448","0.0-4.0-2.0-1.27","spark_pilot_norest","8325","4","12","Female","","","","","","","null","<div style=""font-size:60px;"">+</div>","null","fixation","","","","","","","","","55","","",""
"revaluation","177","876466","0.0-4.0-2.0-0.28","spark_pilot_norest","8325","4","12","Female","","false","","","","","[903.7999999523163,1379.5]","./assets/img/ocean/memory/23.jpg","[""ArrowUp"",""ArrowLeft""]","value training","ocean","26","{""ArrowUp,ArrowLeft"":26,""ArrowUp,ArrowRight"":10,""ArrowDown,ArrowLeft"":5,""ArrowDown,ArrowRight"":17}","true","ArrowUp,ArrowLeft","false","revaluation","1","56","","",""
"html-keyboard-response","178","876977","0.0-4.0-2.0-1.28","spark_pilot_norest","8325","4","12","Female","","","","","","","null","<div style=""font-size:60px;"">+</div>","null","fixation","","","","","","","","","57","","",""
"revaluation","179","882992","0.0-4.0-2.0-0.29","spark_pilot_norest","8325","4","12","Female","","false","","","","","[666.2000000476837,640.9000000953674]","./assets/img/ocean/memory/32.jpg","[""ArrowUp"",""ArrowLeft""]","value training","ocean","26","{""ArrowUp,ArrowLeft"":26,""ArrowUp,ArrowRight"":10,""ArrowDown,ArrowLeft"":5,""ArrowDown,ArrowRight"":17}","true","ArrowUp,ArrowLeft","false","revaluation","1","58","","",""
"html-keyboard-response","180","883500","0.0-4.0-2.0-1.29","spark_pilot_norest","8325","4","12","Female","","","","","","","null","<div style=""font-size:60px;"">+</div>","null","fixation","","","","","","","","","59","","",""
"revaluation","181","889521","0.0-4.0-2.0-0.30","spark_pilot_norest","8325","4","12","Female","","false","","","","","[424.80000019073486,585.7000000476837]","./assets/img/ocean/memory/1.jpg","[""ArrowUp"",""ArrowLeft""]","value training","ocean","26","{""ArrowUp,ArrowLeft"":26,""ArrowUp,ArrowRight"":10,""ArrowDown,ArrowLeft"":5,""ArrowDown,ArrowRight"":17}","true","ArrowUp,ArrowLeft","false","revaluation","1","60","","",""
"html-keyboard-response","182","890028","0.0-4.0-2.0-1.30","spark_pilot_norest","8325","4","12","Female","","","","","","","null","<div style=""font-size:60px;"">+</div>","null","fixation","","","","","","","","","61","","",""
"revaluation","183","896056","0.0-4.0-2.0-0.31","spark_pilot_norest","8325","4","12","Female","","false","","","","","[407.7999999523163,576.7999999523163]","./assets/img/ocean/memory/16.jpg","[""ArrowUp"",""ArrowLeft""]","value training","ocean","26","{""ArrowUp,ArrowLeft"":26,""ArrowUp,ArrowRight"":10,""ArrowDown,ArrowLeft"":5,""ArrowDown,ArrowRight"":17}","true","ArrowUp,ArrowLeft","false","revaluation","1","62","","",""
"html-keyboard-response","184","896566","0.0-4.0-2.0-1.31","spark_pilot_norest","8325","4","12","Female","","","","","","","null","<div style=""font-size:60px;"">+</div>","null","fixation","","","","","","","","","63","","",""
"revaluation","185","902584","0.0-4.0-2.0-0.32","spark_pilot_norest","8325","4","12","Female","","false","","","","","[375.2999999523163,534.6000001430511]","./assets/img/ocean/memory/5.jpg","[""ArrowUp"",""ArrowLeft""]","value training","ocean","26","{""ArrowUp,ArrowLeft"":26,""ArrowUp,ArrowRight"":10,""ArrowDown,ArrowLeft"":5,""ArrowDown,ArrowRight"":17}","true","ArrowUp,ArrowLeft","false","revaluation","1","64","","",""
"html-keyboard-response","186","903092","0.0-4.0-2.0-1.32","spark_pilot_norest","8325","4","12","Female","","","","","","","null","<div style=""font-size:60px;"">+</div>","null","fixation","","","","","","","","","65","","",""
"revaluation","187","909108","0.0-4.0-2.0-0.33","spark_pilot_norest","8325","4","12","Female","","false","","","","","[437,555.8999998569489]","./assets/img/ocean/memory/34.jpg","[""ArrowUp"",""ArrowLeft""]","value training","ocean","26","{""ArrowUp,ArrowLeft"":26,""ArrowUp,ArrowRight"":10,""ArrowDown,ArrowLeft"":5,""ArrowDown,ArrowRight"":17}","true","ArrowUp,ArrowLeft","false","revaluation","1","66","","",""
"html-keyboard-response","188","909618","0.0-4.0-2.0-1.33","spark_pilot_norest","8325","4","12","Female","","","","","","","null","<div style=""font-size:60px;"">+</div>","null","fixation","","","","","","","","","67","","",""
"revaluation","189","915636","0.0-4.0-2.0-0.34","spark_pilot_norest","8325","4","12","Female","","false","","","","","[739.8999998569489,765.5999999046326]","./assets/img/ocean/memory/7.jpg","[""ArrowUp"",""ArrowLeft""]","value training","ocean","26","{""ArrowUp,ArrowLeft"":26,""ArrowUp,ArrowRight"":10,""ArrowDown,ArrowLeft"":5,""ArrowDown,ArrowRight"":17}","true","ArrowUp,ArrowLeft","false","revaluation","1","68","","",""
"html-keyboard-response","190","916144","0.0-4.0-2.0-1.34","spark_pilot_norest","8325","4","12","Female","","","","","","","null","<div style=""font-size:60px;"">+</div>","null","fixation","","","","","","","","","69","","",""
"revaluation","191","922170","0.0-4.0-2.0-0.35","spark_pilot_norest","8325","4","12","Female","","false","","","","","[546.9000000953674,690.1000001430511]","./assets/img/ocean/memory/10.jpg","[""ArrowUp"",""ArrowLeft""]","value training","ocean","26","{""ArrowUp,ArrowLeft"":26,""ArrowUp,ArrowRight"":10,""ArrowDown,ArrowLeft"":5,""ArrowDown,ArrowRight"":17}","true","ArrowUp,ArrowLeft","false","revaluation","1","70","","",""
"html-keyboard-response","192","922678","0.0-4.0-2.0-1.35","spark_pilot_norest","8325","4","12","Female","","","","","","","null","<div style=""font-size:60px;"">+</div>","null","fixation","","","","","","","","","71","","",""
"revaluation","193","928720","0.0-4.0-2.0-0.36","spark_pilot_norest","8325","4","12","Female","","false","","","","","[730.5,493.19999980926514]","./assets/img/ocean/memory/23.jpg","[""ArrowUp"",""ArrowLeft""]","value training","ocean","26","{""ArrowUp,ArrowLeft"":26,""ArrowUp,ArrowRight"":10,""ArrowDown,ArrowLeft"":5,""ArrowDown,ArrowRight"":17}","true","ArrowUp,ArrowLeft","false","revaluation","1","72","","",""
"html-keyboard-response","194","929229","0.0-4.0-2.0-1.36","spark_pilot_norest","8325","4","12","Female","","","","","","","null","<div style=""font-size:60px;"">+</div>","null","fixation","","","","","","","","","73","","",""
"revaluation","195","935248","0.0-4.0-2.0-0.37","spark_pilot_norest","8325","4","12","Female","","false","","","","","[410.7999999523163,424]","./assets/img/ocean/memory/34.jpg","[""ArrowUp"",""ArrowLeft""]","value training","ocean","26","{""ArrowUp,ArrowLeft"":26,""ArrowUp,ArrowRight"":10,""ArrowDown,ArrowLeft"":5,""ArrowDown,ArrowRight"":17}","true","ArrowUp,ArrowLeft","false","revaluation","1","74","","",""
"html-keyboard-response","196","935757","0.0-4.0-2.0-1.37","spark_pilot_norest","8325","4","12","Female","","","","","","","null","<div style=""font-size:60px;"">+</div>","null","fixation","","","","","","","","","75","","",""
"revaluation","197","941773","0.0-4.0-2.0-0.38","spark_pilot_norest","8325","4","12","Female","","false","","","","","[638.8000001907349,781.5]","./assets/img/ocean/memory/30.jpg","[""ArrowUp"",""ArrowLeft""]","value training","ocean","26","{""ArrowUp,ArrowLeft"":26,""ArrowUp,ArrowRight"":10,""ArrowDown,ArrowLeft"":5,""ArrowDown,ArrowRight"":17}","true","ArrowUp,ArrowLeft","false","revaluation","1","76","","",""
"html-keyboard-response","198","942281","0.0-4.0-2.0-1.38","spark_pilot_norest","8325","4","12","Female","","","","","","","null","<div style=""font-size:60px;"">+</div>","null","fixation","","","","","","","","","77","","",""
"revaluation","199","946300","0.0-4.0-2.0-0.39","spark_pilot_norest","8325","4","12","Female","","false","","","","","[718.8000001907349]","./assets/img/ocean/catch/3.jpg","[""spaceBar""]","value training","ocean","0","{""ArrowUp,ArrowLeft"":26,""ArrowUp,ArrowRight"":10,""ArrowDown,ArrowLeft"":5,""ArrowDown,ArrowRight"":17}","true","spaceBar","true","revaluation","1","78","","",""
"html-keyboard-response","200","946808","0.0-4.0-2.0-1.39","spark_pilot_norest","8325","4","12","Female","","","","","","","null","<div style=""font-size:60px;"">+</div>","null","fixation","","","","","","","","","79","","",""
"revaluation","201","952835","0.0-4.0-2.0-0.40","spark_pilot_norest","8325","4","12","Female","","false","","","","","[768.9000000953674,572.6000001430511]","./assets/img/ocean/memory/17.jpg","[""ArrowUp"",""ArrowLeft""]","value training","ocean","26","{""ArrowUp,ArrowLeft"":26,""ArrowUp,ArrowRight"":10,""ArrowDown,ArrowLeft"":5,""ArrowDown,ArrowRight"":17}","true","ArrowUp,ArrowLeft","false","revaluation","1","80","","",""
"html-keyboard-response","202","953345","0.0-4.0-2.0-1.40","spark_pilot_norest","8325","4","12","Female","","","","","","","null","<div style=""font-size:60px;"">+</div>","null","fixation","","","","","","","","","81","","",""
"revaluation","203","959364","0.0-4.0-2.0-0.41","spark_pilot_norest","8325","4","12","Female","","false","","","","","[942.2000000476837,1203.3000001907349]","./assets/img/ocean/memory/8.jpg","[""ArrowUp"",""ArrowLeft""]","value training","ocean","26","{""ArrowUp,ArrowLeft"":26,""ArrowUp,ArrowRight"":10,""ArrowDown,ArrowLeft"":5,""ArrowDown,ArrowRight"":17}","true","ArrowUp,ArrowLeft","false","revaluation","1","82","","",""
"html-keyboard-response","204","959874","0.0-4.0-2.0-1.41","spark_pilot_norest","8325","4","12","Female","","","","","","","null","<div style=""font-size:60px;"">+</div>","null","fixation","","","","","","","","","83","","",""
"revaluation","205","965900","0.0-4.0-2.0-0.42","spark_pilot_norest","8325","4","12","Female","","false","","","","","[747.7999999523163,443.30000019073486]","./assets/img/ocean/memory/30.jpg","[""ArrowDown"",""ArrowLeft""]","value training","ocean","5","{""ArrowUp,ArrowLeft"":26,""ArrowUp,ArrowRight"":10,""ArrowDown,ArrowLeft"":5,""ArrowDown,ArrowRight"":17}","false","ArrowDown,ArrowLeft","false","revaluation","1","84","","",""
"html-keyboard-response","206","966411","0.0-4.0-2.0-1.42","spark_pilot_norest","8325","4","12","Female","","","","","","","null","<div style=""font-size:60px;"">+</div>","null","fixation","","","","","","","","","85","","",""
"revaluation","207","972431","0.0-4.0-2.0-0.43","spark_pilot_norest","8325","4","12","Female","","false","","","","","[505,462.7000000476837]","./assets/img/ocean/memory/16.jpg","[""ArrowDown"",""ArrowRight""]","value training","ocean","17","{""ArrowUp,ArrowLeft"":26,""ArrowUp,ArrowRight"":10,""ArrowDown,ArrowLeft"":5,""ArrowDown,ArrowRight"":17}","false","ArrowDown,ArrowRight","false","revaluation","1","86","","",""
"html-keyboard-response","208","972940","0.0-4.0-2.0-1.43","spark_pilot_norest","8325","4","12","Female","","","","","","","null","<div style=""font-size:60px;"">+</div>","null","fixation","","","","","","","","","87","","",""
"revaluation","209","978962","0.0-4.0-2.0-0.44","spark_pilot_norest","8325","4","12","Female","","false","","","","","[625.2999999523163,543]","./assets/img/ocean/memory/27.jpg","[""ArrowUp"",""ArrowRight""]","value training","ocean","10","{""ArrowUp,ArrowLeft"":26,""ArrowUp,ArrowRight"":10,""ArrowDown,ArrowLeft"":5,""ArrowDown,ArrowRight"":17}","false","ArrowUp,ArrowRight","false","revaluation","1","88","","",""
"html-keyboard-response","210","979471","0.0-4.0-2.0-1.44","spark_pilot_norest","8325","4","12","Female","","","","","","","null","<div style=""font-size:60px;"">+</div>","null","fixation","","","","","","","","","89","","",""
"revaluation","211","985500","0.0-4.0-2.0-0.45","spark_pilot_norest","8325","4","12","Female","","false","","","","","[635,378.5]","./assets/img/ocean/memory/1.jpg","[""ArrowUp"",""ArrowLeft""]","value training","ocean","26","{""ArrowUp,ArrowLeft"":26,""ArrowUp,ArrowRight"":10,""ArrowDown,ArrowLeft"":5,""ArrowDown,ArrowRight"":17}","true","ArrowUp,ArrowLeft","false","revaluation","1","90","","",""
"html-keyboard-response","212","986003","0.0-4.0-2.0-1.45","spark_pilot_norest","8325","4","12","Female","","","","","","","null","<div style=""font-size:60px;"">+</div>","null","fixation","","","","","","","","","91","","",""
"revaluation","213","992024","0.0-4.0-2.0-0.46","spark_pilot_norest","8325","4","12","Female","","false","","","","","[907.8000001907349,441.40000009536743]","./assets/img/ocean/memory/9.jpg","[""ArrowUp"",""ArrowLeft""]","value training","ocean","26","{""ArrowUp,ArrowLeft"":26,""ArrowUp,ArrowRight"":10,""ArrowDown,ArrowLeft"":5,""ArrowDown,ArrowRight"":17}","true","ArrowUp,ArrowLeft","false","revaluation","1","92","","",""
"html-keyboard-response","214","992533","0.0-4.0-2.0-1.46","spark_pilot_norest","8325","4","12","Female","","","","","","","null","<div style=""font-size:60px;"">+</div>","null","fixation","","","","","","","","","93","","",""
"revaluation","215","998549","0.0-4.0-2.0-0.47","spark_pilot_norest","8325","4","12","Female","","false","","","","","[527.0999999046326,490.2000000476837]","./assets/img/ocean/memory/17.jpg","[""ArrowUp"",""ArrowLeft""]","value training","ocean","26","{""ArrowUp,ArrowLeft"":26,""ArrowUp,ArrowRight"":10,""ArrowDown,ArrowLeft"":5,""ArrowDown,ArrowRight"":17}","true","ArrowUp,ArrowLeft","false","revaluation","1","94","","",""
"html-keyboard-response","216","999057","0.0-4.0-2.0-1.47","spark_pilot_norest","8325","4","12","Female","","","","","","","null","<div style=""font-size:60px;"">+</div>","null","fixation","","","","","","","","","95","","",""
"revaluation","217","1005075","0.0-4.0-2.0-0.48","spark_pilot_norest","8325","4","12","Female","","false","","","","","[647.0999999046326,815.2000000476837]","./assets/img/ocean/memory/37.jpg","[""ArrowUp"",""ArrowLeft""]","value training","ocean","26","{""ArrowUp,ArrowLeft"":26,""ArrowUp,ArrowRight"":10,""ArrowDown,ArrowLeft"":5,""ArrowDown,ArrowRight"":17}","true","ArrowUp,ArrowLeft","false","revaluation","1","96","","",""
"html-keyboard-response","218","1005578","0.0-4.0-2.0-1.48","spark_pilot_norest","8325","4","12","Female","","","","","","","null","<div style=""font-size:60px;"">+</div>","null","fixation","","","","","","","","","97","","",""
"revaluation","219","1011595","0.0-4.0-2.0-0.49","spark_pilot_norest","8325","4","12","Female","","false","","","","","[551.1000001430511,498.5]","./assets/img/ocean/memory/4.jpg","[""ArrowUp"",""ArrowLeft""]","value training","ocean","26","{""ArrowUp,ArrowLeft"":26,""ArrowUp,ArrowRight"":10,""ArrowDown,ArrowLeft"":5,""ArrowDown,ArrowRight"":17}","true","ArrowUp,ArrowLeft","false","revaluation","1","98","","",""
"html-keyboard-response","220","1012104","0.0-4.0-2.0-1.49","spark_pilot_norest","8325","4","12","Female","","","","","","","null","<div style=""font-size:60px;"">+</div>","null","fixation","","","","","","","","","99","","",""
"learning-instructions","221","1029084","0.0-4.0-3.0-0.0","spark_pilot_norest","8325","4","12","Female","","","","","","","3921.7999999523163","<p> Now, you will travel with a friend who will choose whether you go up or down first. </p>
            <p> On these turns, you will just see the animal that they found. You will still get to choose which chest to search for treasure.</p>","","instructions","","","","","","","","","","","",""
"revaluation","222","1033119","0.0-4.0-4.0-0.0","spark_pilot_norest","8325","4","12","Female","","false","","","","","[1308.6999998092651]","./assets/img/ocean/animals/octopus.jpg","[""ArrowLeft""]","revaluation","ocean","2","{""ArrowUp,ArrowLeft"":2,""ArrowUp,ArrowRight"":11,""ArrowDown,ArrowLeft"":8,""ArrowDown,ArrowRight"":27}","false","ArrowUp,ArrowLeft","","revaluation","1","0","","",""
"html-keyboard-response","223","1033638","0.0-4.0-4.0-1.0","spark_pilot_norest","8325","4","12","Female","","","","","","","null","<div style=""font-size:60px;"">+</div>","null","fixation","","","","","","","","","1","","",""
"revaluation","224","1037670","0.0-4.0-4.0-0.1","spark_pilot_norest","8325","4","12","Female","","false","","","","","[605.7999999523163]","./assets/img/ocean/animals/octopus.jpg","[""ArrowRight""]","revaluation","ocean","11","{""ArrowUp,ArrowLeft"":2,""ArrowUp,ArrowRight"":11,""ArrowDown,ArrowLeft"":8,""ArrowDown,ArrowRight"":27}","true","ArrowUp,ArrowRight","","revaluation","1","2","","",""
"html-keyboard-response","225","1038189","0.0-4.0-4.0-1.1","spark_pilot_norest","8325","4","12","Female","","","","","","","null","<div style=""font-size:60px;"">+</div>","null","fixation","","","","","","","","","3","","",""
"revaluation","226","1042220","0.0-4.0-4.0-0.2","spark_pilot_norest","8325","4","12","Female","","false","","","","","[877]","./assets/img/ocean/animals/octopus.jpg","[""ArrowRight""]","revaluation","ocean","11","{""ArrowUp,ArrowLeft"":2,""ArrowUp,ArrowRight"":11,""ArrowDown,ArrowLeft"":8,""ArrowDown,ArrowRight"":27}","true","ArrowUp,ArrowRight","","revaluation","1","4","","",""
"html-keyboard-response","227","1042729","0.0-4.0-4.0-1.2","spark_pilot_norest","8325","4","12","Female","","","","","","","null","<div style=""font-size:60px;"">+</div>","null","fixation","","","","","","","","","5","","",""
"revaluation","228","1046770","0.0-4.0-4.0-0.3","spark_pilot_norest","8325","4","12","Female","","false","","","","","[1164.4000000953674]","./assets/img/ocean/animals/seahorse.jpg","[""ArrowLeft""]","revaluation","ocean","8","{""ArrowUp,ArrowLeft"":2,""ArrowUp,ArrowRight"":11,""ArrowDown,ArrowLeft"":8,""ArrowDown,ArrowRight"":27}","false","ArrowDown,ArrowLeft","","revaluation","1","6","","",""
"html-keyboard-response","229","1047290","0.0-4.0-4.0-1.3","spark_pilot_norest","8325","4","12","Female","","","","","","","null","<div style=""font-size:60px;"">+</div>","null","fixation","","","","","","","","","7","","",""
"revaluation","230","1051319","0.0-4.0-4.0-0.4","spark_pilot_norest","8325","4","12","Female","","false","","","","","[497.7000000476837]","./assets/img/ocean/animals/seahorse.jpg","[""ArrowRight""]","revaluation","ocean","27","{""ArrowUp,ArrowLeft"":2,""ArrowUp,ArrowRight"":11,""ArrowDown,ArrowLeft"":8,""ArrowDown,ArrowRight"":27}","true","ArrowDown,ArrowRight","","revaluation","1","8","","",""
"html-keyboard-response","231","1051829","0.0-4.0-4.0-1.4","spark_pilot_norest","8325","4","12","Female","","","","","","","null","<div style=""font-size:60px;"">+</div>","null","fixation","","","","","","","","","9","","",""
"revaluation","232","1055847","0.0-4.0-4.0-0.5","spark_pilot_norest","8325","4","12","Female","","false","","","","","[1504]","./assets/img/ocean/animals/seahorse.jpg","[""ArrowRight""]","revaluation","ocean","27","{""ArrowUp,ArrowLeft"":2,""ArrowUp,ArrowRight"":11,""ArrowDown,ArrowLeft"":8,""ArrowDown,ArrowRight"":27}","true","ArrowDown,ArrowRight","","revaluation","1","10","","",""
"html-keyboard-response","233","1056357","0.0-4.0-4.0-1.5","spark_pilot_norest","8325","4","12","Female","","","","","","","null","<div style=""font-size:60px;"">+</div>","null","fixation","","","","","","","","","11","","",""
"revaluation","234","1060375","0.0-4.0-4.0-0.6","spark_pilot_norest","8325","4","12","Female","","false","","","","","[867.5]","./assets/img/ocean/animals/octopus.jpg","[""ArrowRight""]","revaluation","ocean","11","{""ArrowUp,ArrowLeft"":2,""ArrowUp,ArrowRight"":11,""ArrowDown,ArrowLeft"":8,""ArrowDown,ArrowRight"":27}","true","ArrowUp,ArrowRight","","revaluation","1","12","","",""
"html-keyboard-response","235","1060886","0.0-4.0-4.0-1.6","spark_pilot_norest","8325","4","12","Female","","","","","","","null","<div style=""font-size:60px;"">+</div>","null","fixation","","","","","","","","","13","","",""
"revaluation","236","1064899","0.0-4.0-4.0-0.7","spark_pilot_norest","8325","4","12","Female","","false","","","","","[492.7999999523163]","./assets/img/ocean/animals/seahorse.jpg","[""ArrowRight""]","revaluation","ocean","27","{""ArrowUp,ArrowLeft"":2,""ArrowUp,ArrowRight"":11,""ArrowDown,ArrowLeft"":8,""ArrowDown,ArrowRight"":27}","true","ArrowDown,ArrowRight","","revaluation","1","14","","",""
"html-keyboard-response","237","1065407","0.0-4.0-4.0-1.7","spark_pilot_norest","8325","4","12","Female","","","","","","","null","<div style=""font-size:60px;"">+</div>","null","fixation","","","","","","","","","15","","",""
"revaluation","238","1069428","0.0-4.0-4.0-0.8","spark_pilot_norest","8325","4","12","Female","","false","","","","","[553]","./assets/img/ocean/animals/seahorse.jpg","[""ArrowRight""]","revaluation","ocean","27","{""ArrowUp,ArrowLeft"":2,""ArrowUp,ArrowRight"":11,""ArrowDown,ArrowLeft"":8,""ArrowDown,ArrowRight"":27}","true","ArrowDown,ArrowRight","","revaluation","1","16","","",""
"html-keyboard-response","239","1069938","0.0-4.0-4.0-1.8","spark_pilot_norest","8325","4","12","Female","","","","","","","null","<div style=""font-size:60px;"">+</div>","null","fixation","","","","","","","","","17","","",""
"revaluation","240","1073952","0.0-4.0-4.0-0.9","spark_pilot_norest","8325","4","12","Female","","false","","","","","[517.5]","./assets/img/ocean/animals/seahorse.jpg","[""ArrowRight""]","revaluation","ocean","27","{""ArrowUp,ArrowLeft"":2,""ArrowUp,ArrowRight"":11,""ArrowDown,ArrowLeft"":8,""ArrowDown,ArrowRight"":27}","true","ArrowDown,ArrowRight","","revaluation","1","18","","",""
"html-keyboard-response","241","1074460","0.0-4.0-4.0-1.9","spark_pilot_norest","8325","4","12","Female","","","","","","","null","<div style=""font-size:60px;"">+</div>","null","fixation","","","","","","","","","19","","",""
"revaluation","242","1078484","0.0-4.0-4.0-0.10","spark_pilot_norest","8325","4","12","Female","","false","","","","","[316.5]","./assets/img/ocean/animals/octopus.jpg","[""ArrowRight""]","revaluation","ocean","11","{""ArrowUp,ArrowLeft"":2,""ArrowUp,ArrowRight"":11,""ArrowDown,ArrowLeft"":8,""ArrowDown,ArrowRight"":27}","true","ArrowUp,ArrowRight","","revaluation","1","20","","",""
"html-keyboard-response","243","1078993","0.0-4.0-4.0-1.10","spark_pilot_norest","8325","4","12","Female","","","","","","","null","<div style=""font-size:60px;"">+</div>","null","fixation","","","","","","","","","21","","",""
"revaluation","244","1083010","0.0-4.0-4.0-0.11","spark_pilot_norest","8325","4","12","Female","","false","","","","","[522.2000000476837]","./assets/img/ocean/animals/octopus.jpg","[""ArrowRight""]","revaluation","ocean","11","{""ArrowUp,ArrowLeft"":2,""ArrowUp,ArrowRight"":11,""ArrowDown,ArrowLeft"":8,""ArrowDown,ArrowRight"":27}","true","ArrowUp,ArrowRight","","revaluation","1","22","","",""
"html-keyboard-response","245","1083515","0.0-4.0-4.0-1.11","spark_pilot_norest","8325","4","12","Female","","","","","","","null","<div style=""font-size:60px;"">+</div>","null","fixation","","","","","","","","","23","","",""
"revaluation","246","1087527","0.0-4.0-4.0-0.12","spark_pilot_norest","8325","4","12","Female","","false","","","","","[799.8999998569489]","./assets/img/ocean/animals/octopus.jpg","[""ArrowRight""]","revaluation","ocean","11","{""ArrowUp,ArrowLeft"":2,""ArrowUp,ArrowRight"":11,""ArrowDown,ArrowLeft"":8,""ArrowDown,ArrowRight"":27}","true","ArrowUp,ArrowRight","","revaluation","1","24","","",""
"html-keyboard-response","247","1088034","0.0-4.0-4.0-1.12","spark_pilot_norest","8325","4","12","Female","","","","","","","null","<div style=""font-size:60px;"">+</div>","null","fixation","","","","","","","","","25","","",""
"revaluation","248","1092052","0.0-4.0-4.0-0.13","spark_pilot_norest","8325","4","12","Female","","false","","","","","[555.7999999523163]","./assets/img/ocean/animals/seahorse.jpg","[""ArrowRight""]","revaluation","ocean","27","{""ArrowUp,ArrowLeft"":2,""ArrowUp,ArrowRight"":11,""ArrowDown,ArrowLeft"":8,""ArrowDown,ArrowRight"":27}","true","ArrowDown,ArrowRight","","revaluation","1","26","","",""
"html-keyboard-response","249","1092559","0.0-4.0-4.0-1.13","spark_pilot_norest","8325","4","12","Female","","","","","","","null","<div style=""font-size:60px;"">+</div>","null","fixation","","","","","","","","","27","","",""
"revaluation","250","1096574","0.0-4.0-4.0-0.14","spark_pilot_norest","8325","4","12","Female","","false","","","","","[467.10000014305115]","./assets/img/ocean/animals/octopus.jpg","[""ArrowRight""]","revaluation","ocean","11","{""ArrowUp,ArrowLeft"":2,""ArrowUp,ArrowRight"":11,""ArrowDown,ArrowLeft"":8,""ArrowDown,ArrowRight"":27}","true","ArrowUp,ArrowRight","","revaluation","1","28","","",""
"html-keyboard-response","251","1097082","0.0-4.0-4.0-1.14","spark_pilot_norest","8325","4","12","Female","","","","","","","null","<div style=""font-size:60px;"">+</div>","null","fixation","","","","","","","","","29","","",""
"revaluation","252","1101095","0.0-4.0-4.0-0.15","spark_pilot_norest","8325","4","12","Female","","false","","","","","[679.4000000953674]","./assets/img/ocean/animals/octopus.jpg","[""ArrowRight""]","revaluation","ocean","11","{""ArrowUp,ArrowLeft"":2,""ArrowUp,ArrowRight"":11,""ArrowDown,ArrowLeft"":8,""ArrowDown,ArrowRight"":27}","true","ArrowUp,ArrowRight","","revaluation","1","30","","",""
"html-keyboard-response","253","1101604","0.0-4.0-4.0-1.15","spark_pilot_norest","8325","4","12","Female","","","","","","","null","<div style=""font-size:60px;"">+</div>","null","fixation","","","","","","","","","31","","",""
"revaluation","254","1105628","0.0-4.0-4.0-0.16","spark_pilot_norest","8325","4","12","Female","","false","","","","","[461.10000014305115]","./assets/img/ocean/animals/seahorse.jpg","[""ArrowRight""]","revaluation","ocean","27","{""ArrowUp,ArrowLeft"":2,""ArrowUp,ArrowRight"":11,""ArrowDown,ArrowLeft"":8,""ArrowDown,ArrowRight"":27}","true","ArrowDown,ArrowRight","","revaluation","1","32","","",""
"html-keyboard-response","255","1106136","0.0-4.0-4.0-1.16","spark_pilot_norest","8325","4","12","Female","","","","","","","null","<div style=""font-size:60px;"">+</div>","null","fixation","","","","","","","","","33","","",""
"revaluation","256","1110149","0.0-4.0-4.0-0.17","spark_pilot_norest","8325","4","12","Female","","false","","","","","[538.2000000476837]","./assets/img/ocean/animals/seahorse.jpg","[""ArrowRight""]","revaluation","ocean","27","{""ArrowUp,ArrowLeft"":2,""ArrowUp,ArrowRight"":11,""ArrowDown,ArrowLeft"":8,""ArrowDown,ArrowRight"":27}","true","ArrowDown,ArrowRight","","revaluation","1","34","","",""
"html-keyboard-response","257","1110657","0.0-4.0-4.0-1.17","spark_pilot_norest","8325","4","12","Female","","","","","","","null","<div style=""font-size:60px;"">+</div>","null","fixation","","","","","","","","","35","","",""
"learning-instructions","258","1118931","0.0-4.0-5.0-0.0","spark_pilot_norest","8325","4","12","Female","","","","","","","null","<p> You have almost finished this part of the game! </p>
            <p> We are going to ask you to make a few more choices. </p>","","instructions","","","","","","","","","","","",""
"learning-instructions","259","1134935","0.0-4.0-5.0-0.1","spark_pilot_norest","8325","4","12","Female","","","","","","","null","<p> First, you need to decide whether to go up or down. When you see each picture, use the arrow keys to make your choice. </p>
            <p><b>You will not see which animal you found, but try to get to the one that will give you the most treasure.</b></p>","","instructions","","","","","","","","","","","",""
"html-keyboard-response","260","1135954","0.0-4.0-6.0-0.0","spark_pilot_norest","8325","4","12","Female","","","","","","","null","<div style=""font-size:100px;color:red;"">Starting in...</div>","null","","","","","","","","","","","","",""
"html-keyboard-response","261","1136966","0.0-4.0-6.0-1.0","spark_pilot_norest","8325","4","12","Female","","","","","","","null","<div style=""font-size:200px;color:red;"">3</div>","null","","","","","","","","","","","","",""
"html-keyboard-response","262","1137986","0.0-4.0-6.0-2.0","spark_pilot_norest","8325","4","12","Female","","","","","","","null","<div style=""font-size:200px;color:red;"">2</div>","null","","","","","","","","","","","","",""
"html-keyboard-response","263","1138996","0.0-4.0-6.0-3.0","spark_pilot_norest","8325","4","12","Female","","","","","","","null","<div style=""font-size:200px;color:red;"">1</div>","null","","","","","","","","","","","","",""
"revaluation","264","1139512","0.0-4.0-7.0-0.0","spark_pilot_norest","8325","4","12","Female","","false","","","","","[509.2999999523163]","./assets/img/ocean/test/0.jpg","[""ArrowUp""]","first stage test","ocean","0","{""ArrowUp,ArrowLeft"":2,""ArrowUp,ArrowRight"":11,""ArrowDown,ArrowLeft"":8,""ArrowDown,ArrowRight"":27}","false","ArrowUp","false","revaluation","1","","","",""
"html-keyboard-response","265","1140015","0.0-4.0-7.0-1.0","spark_pilot_norest","8325","4","12","Female","","","","","","","null","<div style=""font-size:60px;"">+</div>","null","fixation","","","","","","","","","","","",""
"revaluation","266","1141181","0.0-4.0-7.0-0.1","spark_pilot_norest","8325","4","12","Female","","false","","","","","[1158.6999998092651]","./assets/img/ocean/test/1.jpg","[""ArrowUp""]","first stage test","ocean","0","{""ArrowUp,ArrowLeft"":2,""ArrowUp,ArrowRight"":11,""ArrowDown,ArrowLeft"":8,""ArrowDown,ArrowRight"":27}","false","ArrowUp","false","revaluation","1","","","",""
"html-keyboard-response","267","1141685","0.0-4.0-7.0-1.1","spark_pilot_norest","8325","4","12","Female","","","","","","","null","<div style=""font-size:60px;"">+</div>","null","fixation","","","","","","","","","","","",""
"revaluation","268","1142896","0.0-4.0-7.0-0.2","spark_pilot_norest","8325","4","12","Female","","false","","","","","[1204.7000000476837]","./assets/img/ocean/test/3.jpg","[""ArrowUp""]","first stage test","ocean","0","{""ArrowUp,ArrowLeft"":2,""ArrowUp,ArrowRight"":11,""ArrowDown,ArrowLeft"":8,""ArrowDown,ArrowRight"":27}","false","ArrowUp","false","revaluation","1","","","",""
"html-keyboard-response","269","1143402","0.0-4.0-7.0-1.2","spark_pilot_norest","8325","4","12","Female","","","","","","","null","<div style=""font-size:60px;"">+</div>","null","fixation","","","","","","","","","","","",""
"revaluation","270","1144645","0.0-4.0-7.0-0.3","spark_pilot_norest","8325","4","12","Female","","false","","","","","[1234.7000000476837]","./assets/img/ocean/test/2.jpg","[""ArrowUp""]","first stage test","ocean","0","{""ArrowUp,ArrowLeft"":2,""ArrowUp,ArrowRight"":11,""ArrowDown,ArrowLeft"":8,""ArrowDown,ArrowRight"":27}","false","ArrowUp","false","revaluation","1","","","",""
"html-keyboard-response","271","1145165","0.0-4.0-7.0-1.3","spark_pilot_norest","8325","4","12","Female","","","","","","","null","<div style=""font-size:60px;"">+</div>","null","fixation","","","","","","","","","","","",""
"learning-instructions","272","1158533","0.0-4.0-8.0-0.0","spark_pilot_norest","8325","4","12","Female","","","","","","","null","<p> Now you will see the animals again and can search their chests for treasure. </p>
            <p> This time, you will not see how much treasure you earned, but you will earn more bonus money for making better choices. </p>","","instructions","","","","","","","","","","","",""
"html-keyboard-response","273","1159545","0.0-4.0-9.0-0.0","spark_pilot_norest","8325","4","12","Female","","","","","","","null","<div style=""font-size:100px;color:red;"">Starting in...</div>","null","","","","","","","","","","","","",""
"html-keyboard-response","274","1160555","0.0-4.0-9.0-1.0","spark_pilot_norest","8325","4","12","Female","","","","","","","null","<div style=""font-size:200px;color:red;"">3</div>","null","","","","","","","","","","","","",""
"html-keyboard-response","275","1161570","0.0-4.0-9.0-2.0","spark_pilot_norest","8325","4","12","Female","","","","","","","null","<div style=""font-size:200px;color:red;"">2</div>","null","","","","","","","","","","","","",""
"html-keyboard-response","276","1162575","0.0-4.0-9.0-3.0","spark_pilot_norest","8325","4","12","Female","","","","","","","null","<div style=""font-size:200px;color:red;"">1</div>","null","","","","","","","","","","","","",""
"revaluation","277","1163955","0.0-4.0-10.0-0.0","spark_pilot_norest","8325","4","12","Female","","false","","","","","[1372.2000000476837]","./assets/img/ocean/animals/octopus.jpg","[""ArrowRight""]","second stage test","ocean","0","{""ArrowUp,ArrowLeft"":2,""ArrowUp,ArrowRight"":11,""ArrowDown,ArrowLeft"":8,""ArrowDown,ArrowRight"":27}","true","ArrowUp,ArrowRight","","revaluation","1","","","",""
"html-keyboard-response","278","1164465","0.0-4.0-10.0-1.0","spark_pilot_norest","8325","4","12","Female","","","","","","","null","<div style=""font-size:60px;"">+</div>","null","fixation","","","","","","","","","","","",""
"revaluation","279","1165306","0.0-4.0-10.0-0.1","spark_pilot_norest","8325","4","12","Female","","false","","","","","[834.2999999523163]","./assets/img/ocean/animals/octopus.jpg","[""ArrowRight""]","second stage test","ocean","0","{""ArrowUp,ArrowLeft"":2,""ArrowUp,ArrowRight"":11,""ArrowDown,ArrowLeft"":8,""ArrowDown,ArrowRight"":27}","true","ArrowUp,ArrowRight","","revaluation","1","","","",""
"html-keyboard-response","280","1165815","0.0-4.0-10.0-1.1","spark_pilot_norest","8325","4","12","Female","","","","","","","null","<div style=""font-size:60px;"">+</div>","null","fixation","","","","","","","","","","","",""
"revaluation","281","1166657","0.0-4.0-10.0-0.2","spark_pilot_norest","8325","4","12","Female","","false","","","","","[837.2999999523163]","./assets/img/ocean/animals/octopus.jpg","[""ArrowRight""]","second stage test","ocean","0","{""ArrowUp,ArrowLeft"":2,""ArrowUp,ArrowRight"":11,""ArrowDown,ArrowLeft"":8,""ArrowDown,ArrowRight"":27}","true","ArrowUp,ArrowRight","","revaluation","1","","","",""
"html-keyboard-response","282","1167165","0.0-4.0-10.0-1.2","spark_pilot_norest","8325","4","12","Female","","","","","","","null","<div style=""font-size:60px;"">+</div>","null","fixation","","","","","","","","","","","",""
"revaluation","283","1167810","0.0-4.0-10.0-0.3","spark_pilot_norest","8325","4","12","Female","","false","","","","","[638.3000001907349]","./assets/img/ocean/animals/octopus.jpg","[""ArrowLeft""]","second stage test","ocean","0","{""ArrowUp,ArrowLeft"":2,""ArrowUp,ArrowRight"":11,""ArrowDown,ArrowLeft"":8,""ArrowDown,ArrowRight"":27}","false","ArrowUp,ArrowLeft","","revaluation","1","","","",""
"html-keyboard-response","284","1168325","0.0-4.0-10.0-1.3","spark_pilot_norest","8325","4","12","Female","","","","","","","null","<div style=""font-size:60px;"">+</div>","null","fixation","","","","","","","","","","","",""
"revaluation","285","1168873","0.0-4.0-10.0-0.4","spark_pilot_norest","8325","4","12","Female","","false","","","","","[540.8000001907349]","./assets/img/ocean/animals/seahorse.jpg","[""ArrowRight""]","second stage test","ocean","0","{""ArrowUp,ArrowLeft"":2,""ArrowUp,ArrowRight"":11,""ArrowDown,ArrowLeft"":8,""ArrowDown,ArrowRight"":27}","true","ArrowDown,ArrowRight","","revaluation","1","","","",""
"html-keyboard-response","286","1169375","0.0-4.0-10.0-1.4","spark_pilot_norest","8325","4","12","Female","","","","","","","null","<div style=""font-size:60px;"">+</div>","null","fixation","","","","","","","","","","","",""
"revaluation","287","1170223","0.0-4.0-10.0-0.5","spark_pilot_norest","8325","4","12","Female","","false","","","","","[840.5999999046326]","./assets/img/ocean/animals/seahorse.jpg","[""ArrowLeft""]","second stage test","ocean","0","{""ArrowUp,ArrowLeft"":2,""ArrowUp,ArrowRight"":11,""ArrowDown,ArrowLeft"":8,""ArrowDown,ArrowRight"":27}","false","ArrowDown,ArrowLeft","","revaluation","1","","","",""
"html-keyboard-response","288","1170735","0.0-4.0-10.0-1.5","spark_pilot_norest","8325","4","12","Female","","","","","","","null","<div style=""font-size:60px;"">+</div>","null","fixation","","","","","","","","","","","",""
"revaluation","289","1171413","0.0-4.0-10.0-0.6","spark_pilot_norest","8325","4","12","Female","","false","","","","","[670.8999998569489]","./assets/img/ocean/animals/seahorse.jpg","[""ArrowLeft""]","second stage test","ocean","0","{""ArrowUp,ArrowLeft"":2,""ArrowUp,ArrowRight"":11,""ArrowDown,ArrowLeft"":8,""ArrowDown,ArrowRight"":27}","false","ArrowDown,ArrowLeft","","revaluation","1","","","",""
"html-keyboard-response","290","1171935","0.0-4.0-10.0-1.6","spark_pilot_norest","8325","4","12","Female","","","","","","","null","<div style=""font-size:60px;"">+</div>","null","fixation","","","","","","","","","","","",""
"revaluation","291","1172360","0.0-4.0-10.0-0.7","spark_pilot_norest","8325","4","12","Female","","false","","","","","[419.19999980926514]","./assets/img/ocean/animals/seahorse.jpg","[""ArrowLeft""]","second stage test","ocean","0","{""ArrowUp,ArrowLeft"":2,""ArrowUp,ArrowRight"":11,""ArrowDown,ArrowLeft"":8,""ArrowDown,ArrowRight"":27}","false","ArrowDown,ArrowLeft","","revaluation","1","","","",""
"html-keyboard-response","292","1172865","0.0-4.0-10.0-1.7","spark_pilot_norest","8325","4","12","Female","","","","","","","null","<div style=""font-size:60px;"">+</div>","null","fixation","","","","","","","","","","","",""
"learning-instructions","293","1179299","0.0-4.0-0.1-0.2","spark_pilot_norest","8325","4","12","Female","","","","","","","3641.9000000953674","<p> This time you are searching for treasure in the <b>canyon</b>.</p>","","instructions","","","","","","","","","","","",""
"learning-instructions","294","1198158","0.0-4.0-0.1-0.3","spark_pilot_norest","8325","4","12","Female","","","","","","","1601.5","<p><b>New</b> animals with <b>new</b> treasure chests live here. You need to explore to discover where the animal with the best treasure chest is.</p>
                    <p> Like before, once you figure out which animal has the chest with the most treasure, you should try to get to that animal and select that chest! </p>","","instructions","","","","","","","","","","","",""
"learning-instructions","295","1214219","0.0-4.0-1.1-0.1","spark_pilot_norest","8325","4","12","Female","","","","","","","1332.5","<p> Remember, when you see a picture of the place, use the up and down keys to <b>find an animal</b>.</p>
            <p> When you encounter an animal, you should use the left and right keys to <b>select a treasure chest</b>.</p>
            <p> Don't forget to look out for the robber! </p>","","instructions","","","","","","","","","","","",""
"revaluation","296","1220275","0.0-4.0-2.1-0.50","spark_pilot_norest","8325","4","12","Female","","false","","","","","[1020.2999999523163,548.2999999523163]","./assets/img/canyon/memory/1.jpg","[""ArrowUp"",""ArrowRight""]","value training","canyon","10","{""ArrowUp,ArrowLeft"":23,""ArrowUp,ArrowRight"":10,""ArrowDown,ArrowLeft"":8,""ArrowDown,ArrowRight"":30}","false","ArrowUp,ArrowRight","false","original","2","0","","",""
"html-keyboard-response","297","1220780","0.0-4.0-2.1-1.50","spark_pilot_norest","8325","4","12","Female","","","","","","","null","<div style=""font-size:60px;"">+</div>","null","fixation","","","","","","","","","1","","",""
"revaluation","298","1224804","0.0-4.0-2.1-0.51","spark_pilot_norest","8325","4","12","Female","","false","","","","","[539.2000000476837]","./assets/img/canyon/catch/1.jpg","[""ArrowUp""]","value training","canyon","-10","{""ArrowUp,ArrowLeft"":23,""ArrowUp,ArrowRight"":10,""ArrowDown,ArrowLeft"":8,""ArrowDown,ArrowRight"":30}","false","ArrowUp","true","original","2","2","","",""
"html-keyboard-response","299","1225314","0.0-4.0-2.1-1.51","spark_pilot_norest","8325","4","12","Female","","","","","","","null","<div style=""font-size:60px;"">+</div>","null","fixation","","","","","","","","","3","","",""
"revaluation","300","1231365","0.0-4.0-2.1-0.52","spark_pilot_norest","8325","4","12","Female","","false","","","","","[694.1000001430511,443.7999999523163]","./assets/img/canyon/memory/4.jpg","[""ArrowUp"",""ArrowLeft""]","value training","canyon","23","{""ArrowUp,ArrowLeft"":23,""ArrowUp,ArrowRight"":10,""ArrowDown,ArrowLeft"":8,""ArrowDown,ArrowRight"":30}","false","ArrowUp,ArrowLeft","false","original","2","4","","",""
"html-keyboard-response","301","1231884","0.0-4.0-2.1-1.52","spark_pilot_norest","8325","4","12","Female","","","","","","","null","<div style=""font-size:60px;"">+</div>","null","fixation","","","","","","","","","5","","",""
"revaluation","302","1237936","0.0-4.0-2.1-0.53","spark_pilot_norest","8325","4","12","Female","","false","","","","","[627.6000001430511,516]","./assets/img/canyon/memory/32.jpg","[""ArrowDown"",""ArrowRight""]","value training","canyon","30","{""ArrowUp,ArrowLeft"":23,""ArrowUp,ArrowRight"":10,""ArrowDown,ArrowLeft"":8,""ArrowDown,ArrowRight"":30}","true","ArrowDown,ArrowRight","false","original","2","6","","",""
"html-keyboard-response","303","1238445","0.0-4.0-2.1-1.53","spark_pilot_norest","8325","4","12","Female","","","","","","","null","<div style=""font-size:60px;"">+</div>","null","fixation","","","","","","","","","7","","",""
"revaluation","304","1244465","0.0-4.0-2.1-0.54","spark_pilot_norest","8325","4","12","Female","","false","","","","","[687.5,355.90000009536743]","./assets/img/canyon/memory/7.jpg","[""ArrowDown"",""ArrowLeft""]","value training","canyon","8","{""ArrowUp,ArrowLeft"":23,""ArrowUp,ArrowRight"":10,""ArrowDown,ArrowLeft"":8,""ArrowDown,ArrowRight"":30}","false","ArrowDown,ArrowLeft","false","original","2","8","","",""
"html-keyboard-response","305","1244977","0.0-4.0-2.1-1.54","spark_pilot_norest","8325","4","12","Female","","","","","","","null","<div style=""font-size:60px;"">+</div>","null","fixation","","","","","","","","","9","","",""
"revaluation","306","1250999","0.0-4.0-2.1-0.55","spark_pilot_norest","8325","4","12","Female","","false","","","","","[641.5,689.3999998569489]","./assets/img/canyon/memory/7.jpg","[""ArrowDown"",""ArrowRight""]","value training","canyon","30","{""ArrowUp,ArrowLeft"":23,""ArrowUp,ArrowRight"":10,""ArrowDown,ArrowLeft"":8,""ArrowDown,ArrowRight"":30}","true","ArrowDown,ArrowRight","false","original","2","10","","",""
"html-keyboard-response","307","1251502","0.0-4.0-2.1-1.55","spark_pilot_norest","8325","4","12","Female","","","","","","","null","<div style=""font-size:60px;"">+</div>","null","fixation","","","","","","","","","11","","",""
"revaluation","308","1257518","0.0-4.0-2.1-0.56","spark_pilot_norest","8325","4","12","Female","","false","","","","","[883.7000000476837,404.7000000476837]","./assets/img/canyon/memory/23.jpg","[""ArrowDown"",""ArrowRight""]","value training","canyon","30","{""ArrowUp,ArrowLeft"":23,""ArrowUp,ArrowRight"":10,""ArrowDown,ArrowLeft"":8,""ArrowDown,ArrowRight"":30}","true","ArrowDown,ArrowRight","false","original","2","12","","",""
"html-keyboard-response","309","1258027","0.0-4.0-2.1-1.56","spark_pilot_norest","8325","4","12","Female","","","","","","","null","<div style=""font-size:60px;"">+</div>","null","fixation","","","","","","","","","13","","",""
"revaluation","310","1264048","0.0-4.0-2.1-0.57","spark_pilot_norest","8325","4","12","Female","","false","","","","","[647.5999999046326,647.2000000476837]","./assets/img/canyon/memory/36.jpg","[""ArrowDown"",""ArrowRight""]","value training","canyon","30","{""ArrowUp,ArrowLeft"":23,""ArrowUp,ArrowRight"":10,""ArrowDown,ArrowLeft"":8,""ArrowDown,ArrowRight"":30}","true","ArrowDown,ArrowRight","false","original","2","14","","",""
"html-keyboard-response","311","1264557","0.0-4.0-2.1-1.57","spark_pilot_norest","8325","4","12","Female","","","","","","","null","<div style=""font-size:60px;"">+</div>","null","fixation","","","","","","","","","15","","",""
