"trial_type","trial_index","time_elapsed","internal_node_id","task_version","subject_id","assigned_condition","age","gender","browser_interaction","success","timeout","failed_images","failed_audio","failed_video","rt","stimulus","response","task_part","environment","score","rewardMap","correct","fullState","isCatch","condition","order","trial_num","key_press","ground_truth","bonus"
"pavlovia","0","5020","0.0-0.0","spark_pilot_norest","8779","1","22","Female","[{""event"":""blur"",""trial"":1,""time"":39121},{""event"":""focus"",""trial"":1,""time"":61127},{""event"":""fullscreenenter"",""trial"":2,""time"":71053}]","","","","","","","","","","","","","","","","","","","","",""
"preload","1","66156","0.0-1.0","spark_pilot_norest","8779","1","22","Female","[{""event"":""blur"",""trial"":1,""time"":39121},{""event"":""focus"",""trial"":1,""time"":61127},{""event"":""fullscreenenter"",""trial"":2,""time"":71053}]","true","false","[]","[]","[]","","","","","","","","","","","","","","","",""
"fullscreen","2","71820","0.0-2.0","spark_pilot_norest","8779","1","22","Female","","true","","","","","","","","","","","","","","","","","","","",""
"audio-button-response","3","74273","0.0-3.0-0.0-0.0","spark_pilot_norest","8779","1","22","Female","","","","","","","2197","./assets/audio/audiotest/turtle.mp3","2","audio_test","","","","","","","","","","","",""
"learning-instructions","4","82911","0.0-3.0-1.0-0.0","spark_pilot_norest","8779","1","22","Female","","","","","","","1620.0999999940395","<p> Welcome! Please remember to stay in fullscreen mode and don't click away from the experiment. </p>","","instructions","","","","","","","","","","","",""
"learning-instructions","5","98847","0.0-3.0-1.0-0.1","spark_pilot_norest","8779","1","22","Female","","","","","","","7472.399999991059","<p> Today you will be playing a game to earn treasure. </p>
            <p> At the end of the experiment, you will earn a bonus based on how much treasure you find. </p>
            <img src='./assets/img/instructions/treasure.jpg' class='instructions-image'>","","instructions","","","","","","","","","","","",""
"learning-instructions","6","108034","0.0-3.0-1.0-0.2","spark_pilot_norest","8779","1","22","Female","","","","","","","855.6999999880791","<p> Animals have hidden treasure in treasure chests. </p>
            <p> You need to first find an animal and then choose which of their treasure chests to search. </p>
            <img src='./assets/img/space/animals/cat.jpg' class='instructions-image'>","","instructions","","","","","","","","","","","",""
"learning-instructions","7","121844","0.0-3.0-1.0-0.3","spark_pilot_norest","8779","1","22","Female","","","","","","","580","<p> In each round, you will search for treasure in a different place. In the real game, there will be two rounds. </p>
            <p> You will begin with a separate, practice round where you will search for treasure in outer space. </p>
            <img src='./assets/img/space/0.jpg' class='instructions-image'>","","instructions","","","","","","","","","","","",""
"learning-instructions","8","133875","0.0-3.0-1.0-0.4","spark_pilot_norest","8779","1","22","Female","","","","","","","563.3000000119209","<p> On every turn, you will see a picture of the place that you are in, but the specific image may be different each time. </p>
            <p> For example, both of these images mean you are in outer space. </p>
            <img src='./assets/img/instructions/outerspace.jpg' class='instructions-image'>","","instructions","","","","","","","","","","","",""
"learning-instructions","9","142223","0.0-3.0-1.0-0.5","spark_pilot_norest","8779","1","22","Female","","","","","","","474.5","<p> You need to decide which direction to travel in. </p>
            <p> You can choose between going <b>up or down</b> by using the arrow keys. </p>
            <img src='./assets/img/instructions/updown.jpg' class='instructions-image'>","","instructions","","","","","","","","","","","",""
"learning-instructions","10","151535","0.0-3.0-1.0-0.6","spark_pilot_norest","8779","1","22","Female","","","","","","","453","<p> You will have <b>2 seconds</b> to make your choice. </p>
            <p> If you do not make a choice within 2 seconds, you will not find an animal or earn treasure. </p>
            <img src='./assets/img/instructions/2seconds.jpg' class='instructions-image'>","","instructions","","","","","","","","","","","",""
"learning-instructions","11","160165","0.0-3.0-1.0-0.7","spark_pilot_norest","8779","1","22","Female","","","","","","","1556.5","<p> Let’s try practicing that now! </p>
            <p> When you see a picture of the place you are in, press the <b>up</b> key to travel up. </p>
            <img src='./assets/img/instructions/pressUp.jpg' class='instructions-image'>","","instructions","","","","","","","","","","","",""
"revaluation","12","164204","0.0-3.0-2.0-0.0","spark_pilot_norest","8779","1","22","Female","","","false","","","","[891]","./assets/img/space/0.jpg","[""ArrowUp""]","first stage practice","space","0","null","null","ArrowUp","false","","","","","",""
"html-keyboard-response","13","164711","0.0-3.0-2.0-1.0","spark_pilot_norest","8779","1","22","Female","","","","","","","null","<div style=""font-size:60px;"">+</div>","null","fixation","","","","","","","","","","","",""
"revaluation","14","168759","0.0-3.0-2.0-0.1","spark_pilot_norest","8779","1","22","Female","","","true","","","","[]","./assets/img/space/1.jpg","[]","first stage practice","space","-5","null","null","","false","","","","","",""
"html-keyboard-response","15","169263","0.0-3.0-2.0-1.1","spark_pilot_norest","8779","1","22","Female","","","","","","","null","<div style=""font-size:60px;"">+</div>","null","fixation","","","","","","","","","","","",""
"revaluation","16","173312","0.0-3.0-2.0-0.2","spark_pilot_norest","8779","1","22","Female","","","false","","","","[518.0999999940395]","./assets/img/space/2.jpg","[""ArrowUp""]","first stage practice","space","0","null","null","ArrowUp","false","","","","","",""
"html-keyboard-response","17","173815","0.0-3.0-2.0-1.2","spark_pilot_norest","8779","1","22","Female","","","","","","","null","<div style=""font-size:60px;"">+</div>","null","fixation","","","","","","","","","","","",""
"learning-instructions","18","179611","0.0-3.0-3.0-0.0","spark_pilot_norest","8779","1","22","Female","","","","","","","1055.4000000059605","<p> Great job! Now try pressing the <b>down</b> key to travel down. </p>
            <img src='./assets/img/instructions/pressDown.jpg' class='instructions-image'>","","instructions","","","","","","","","","","","",""
"revaluation","19","183624","0.0-3.0-4.0-0.0","spark_pilot_norest","8779","1","22","Female","","","false","","","","[550.2999999970198]","./assets/img/space/3.jpg","[""ArrowDown""]","first stage practice","space","0","null","null","ArrowDown","false","","","","","",""
"html-keyboard-response","20","184128","0.0-3.0-4.0-1.0","spark_pilot_norest","8779","1","22","Female","","","","","","","null","<div style=""font-size:60px;"">+</div>","null","fixation","","","","","","","","","","","",""
"revaluation","21","188171","0.0-3.0-4.0-0.1","spark_pilot_norest","8779","1","22","Female","","","false","","","","[531.4000000059605]","./assets/img/space/4.jpg","[""ArrowDown""]","first stage practice","space","0","null","null","ArrowDown","false","","","","","",""
"html-keyboard-response","22","188679","0.0-3.0-4.0-1.1","spark_pilot_norest","8779","1","22","Female","","","","","","","null","<div style=""font-size:60px;"">+</div>","null","fixation","","","","","","","","","","","",""
"revaluation","23","192720","0.0-3.0-4.0-0.2","spark_pilot_norest","8779","1","22","Female","","","false","","","","[1141.5999999940395]","./assets/img/space/5.jpg","[""ArrowDown""]","first stage practice","space","0","null","null","ArrowDown","false","","","","","",""
"html-keyboard-response","24","193224","0.0-3.0-4.0-1.2","spark_pilot_norest","8779","1","22","Female","","","","","","","null","<div style=""font-size:60px;"">+</div>","null","fixation","","","","","","","","","","","",""
"learning-instructions","25","215493","0.0-3.0-5.0-0.0","spark_pilot_norest","8779","1","22","Female","","","","","","","12370.79999999702","<p> The animals don’t move, so the animal in the upper part of a place will stay in the upper part of a place, and the animal in the lower part of a place will stay in the lower part of a place. </p>","","instructions","","","","","","","","","","","",""
"learning-instructions","26","226328","0.0-3.0-5.0-0.1","spark_pilot_norest","8779","1","22","Female","","","","","","","1573.7000000029802","<p> Each animal has two treasure chests for you to choose from. </p>
            <p> The amount of treasure in each chest can range from <b> 0 to 40 pieces.</b></p>","","instructions","","","","","","","","","","","",""
"learning-instructions","27","247479","0.0-3.0-5.0-0.2","spark_pilot_norest","8779","1","22","Female","","","","","","","9817.59999999404","<p> You should decide which chest to search for treasure by using the <b>left</b> and <b>right</b> arrow keys. </p>
            <p><b> Pay attention to which animal is on the screen, as the animals have different treasure chests. </b></p>
            <img src='./assets/img/instructions/leftright.jpg' class='instructions-image'>","","instructions","","","","","","","","","","","",""
"learning-instructions","28","254678","0.0-3.0-5.0-0.3","spark_pilot_norest","8779","1","22","Female","","","","","","","803.2999999970198","<p> Let’s try practicing that now. </p>
            <p> When you see an animal, choose which chest to search for treasure. </p>
            <img src='./assets/img/instructions/chooseChest.jpg' class='instructions-image'>","","instructions","","","","","","","","","","","",""
"revaluation","29","258700","0.0-3.0-6.0-0.0","spark_pilot_norest","8779","1","22","Female","","","false","","","","[1740.5]","./assets/img/space/animals/rabbit.jpg","[""ArrowRight""]","second stage practice","space","23","{""ArrowUp,ArrowLeft"":3,""ArrowUp,ArrowRight"":36,""ArrowDown,ArrowLeft"":15,""ArrowDown,ArrowRight"":23}","true","ArrowDown,ArrowRight","","","","","","",""
"html-keyboard-response","30","259213","0.0-3.0-6.0-1.0","spark_pilot_norest","8779","1","22","Female","","","","","","","null","<div style=""font-size:60px;"">+</div>","null","fixation","","","","","","","","","","","",""
"revaluation","31","263251","0.0-3.0-6.0-0.1","spark_pilot_norest","8779","1","22","Female","","","false","","","","[770.5999999940395]","./assets/img/space/animals/rabbit.jpg","[""ArrowLeft""]","second stage practice","space","15","{""ArrowUp,ArrowLeft"":3,""ArrowUp,ArrowRight"":36,""ArrowDown,ArrowLeft"":15,""ArrowDown,ArrowRight"":23}","false","ArrowDown,ArrowLeft","","","","","","",""
"html-keyboard-response","32","263753","0.0-3.0-6.0-1.1","spark_pilot_norest","8779","1","22","Female","","","","","","","null","<div style=""font-size:60px;"">+</div>","null","fixation","","","","","","","","","","","",""
"revaluation","33","267795","0.0-3.0-6.0-0.2","spark_pilot_norest","8779","1","22","Female","","","false","","","","[1046.6000000089407]","./assets/img/space/animals/cat.jpg","[""ArrowLeft""]","second stage practice","space","3","{""ArrowUp,ArrowLeft"":3,""ArrowUp,ArrowRight"":36,""ArrowDown,ArrowLeft"":15,""ArrowDown,ArrowRight"":23}","false","ArrowUp,ArrowLeft","","","","","","",""
"html-keyboard-response","34","268298","0.0-3.0-6.0-1.2","spark_pilot_norest","8779","1","22","Female","","","","","","","null","<div style=""font-size:60px;"">+</div>","null","fixation","","","","","","","","","","","",""
"revaluation","35","272339","0.0-3.0-6.0-0.3","spark_pilot_norest","8779","1","22","Female","","","false","","","","[666.2000000029802]","./assets/img/space/animals/cat.jpg","[""ArrowRight""]","second stage practice","space","36","{""ArrowUp,ArrowLeft"":3,""ArrowUp,ArrowRight"":36,""ArrowDown,ArrowLeft"":15,""ArrowDown,ArrowRight"":23}","true","ArrowUp,ArrowRight","","","","","","",""
"html-keyboard-response","36","272843","0.0-3.0-6.0-1.3","spark_pilot_norest","8779","1","22","Female","","","","","","","null","<div style=""font-size:60px;"">+</div>","null","fixation","","","","","","","","","","","",""
"learning-instructions","37","291250","0.0-3.0-7.0-0.0","spark_pilot_norest","8779","1","22","Female","","","","","","","1496.7999999970198","<p> Great job. Now let’s try putting it together. </p>
            <p> On each turn, you will first see a picture to remind you of the place you are in, and you need to choose whether to go up or down. </p>
            <p> Then you will see an animal and choose which of its chests to search for treasure. </p>","","instructions","","","","","","","","","","","",""
"learning-instructions","38","300318","0.0-3.0-7.0-0.1","spark_pilot_norest","8779","1","22","Female","","","","","","","724.7999999970198","<p> When you choose whether to go up or down, try to go to the animal with the chest with the most treasure. </p>
            <p> Try practicing that now! </p>","","instructions","","","","","","","","","","","",""
"revaluation","39","306343","0.0-3.0-8.0-0.0","spark_pilot_norest","8779","1","22","Female","","","false","","","","[1204.4000000059605,983]","./assets/img/space/6.jpg","[""ArrowUp"",""ArrowRight""]","full practice","space","36","{""ArrowUp,ArrowLeft"":3,""ArrowUp,ArrowRight"":36,""ArrowDown,ArrowLeft"":15,""ArrowDown,ArrowRight"":23}","true","ArrowUp,ArrowRight","false","","","","","",""
"html-keyboard-response","40","306851","0.0-3.0-8.0-1.0","spark_pilot_norest","8779","1","22","Female","","","","","","","null","<div style=""font-size:60px;"">+</div>","null","fixation","","","","","","","","","","","",""
"revaluation","41","312900","0.0-3.0-8.0-0.1","spark_pilot_norest","8779","1","22","Female","","","false","","","","[837.7999999970198,1216.0999999940395]","./assets/img/space/7.jpg","[""ArrowDown"",""ArrowRight""]","full practice","space","23","{""ArrowUp,ArrowLeft"":3,""ArrowUp,ArrowRight"":36,""ArrowDown,ArrowLeft"":15,""ArrowDown,ArrowRight"":23}","false","ArrowDown,ArrowRight","false","","","","","",""
"html-keyboard-response","42","313404","0.0-3.0-8.0-1.1","spark_pilot_norest","8779","1","22","Female","","","","","","","null","<div style=""font-size:60px;"">+</div>","null","fixation","","","","","","","","","","","",""
"revaluation","43","319453","0.0-3.0-8.0-0.2","spark_pilot_norest","8779","1","22","Female","","","false","","","","[765.1000000089407,671.4000000059605]","./assets/img/space/8.jpg","[""ArrowUp"",""ArrowRight""]","full practice","space","36","{""ArrowUp,ArrowLeft"":3,""ArrowUp,ArrowRight"":36,""ArrowDown,ArrowLeft"":15,""ArrowDown,ArrowRight"":23}","true","ArrowUp,ArrowRight","false","","","","","",""
"html-keyboard-response","44","319957","0.0-3.0-8.0-1.2","spark_pilot_norest","8779","1","22","Female","","","","","","","null","<div style=""font-size:60px;"">+</div>","null","fixation","","","","","","","","","","","",""
"revaluation","45","326005","0.0-3.0-8.0-0.3","spark_pilot_norest","8779","1","22","Female","","","false","","","","[686.3999999910593,454.70000000298023]","./assets/img/space/9.jpg","[""ArrowUp"",""ArrowRight""]","full practice","space","36","{""ArrowUp,ArrowLeft"":3,""ArrowUp,ArrowRight"":36,""ArrowDown,ArrowLeft"":15,""ArrowDown,ArrowRight"":23}","true","ArrowUp,ArrowRight","false","","","","","",""
"html-keyboard-response","46","326508","0.0-3.0-8.0-1.3","spark_pilot_norest","8779","1","22","Female","","","","","","","null","<div style=""font-size:60px;"">+</div>","null","fixation","","","","","","","","","","","",""
"revaluation","47","332557","0.0-3.0-8.0-0.4","spark_pilot_norest","8779","1","22","Female","","","false","","","","[482.5,822.7999999970198]","./assets/img/space/10.jpg","[""ArrowUp"",""ArrowRight""]","full practice","space","36","{""ArrowUp,ArrowLeft"":3,""ArrowUp,ArrowRight"":36,""ArrowDown,ArrowLeft"":15,""ArrowDown,ArrowRight"":23}","true","ArrowUp,ArrowRight","false","","","","","",""
"html-keyboard-response","48","333063","0.0-3.0-8.0-1.4","spark_pilot_norest","8779","1","22","Female","","","","","","","null","<div style=""font-size:60px;"">+</div>","null","fixation","","","","","","","","","","","",""
"learning-instructions","49","346032","0.0-3.0-9.0-0.0","spark_pilot_norest","8779","1","22","Female","","","","","","","2613.7999999970198","<p> One last thing: sometimes, you will see a robber. The robber can be anywhere in the picture. </p>
            <p> If you do not stop them, you will lose treasure. </p>
            <img src='./assets/img/instructions/robber.jpg' class='instructions-image'>","","instructions","","","","","","","","","","","",""
"learning-instructions","50","355531","0.0-3.0-9.0-0.1","spark_pilot_norest","8779","1","22","Female","","","","","","","2310.5","<p> If you see the robber, you should <b>press the space bar</b> rather than using the arrow keys. </p>
            <p> Try practicing that now! </p>","","instructions","","","","","","","","","","","",""
"revaluation","51","359551","0.0-3.0-10.0-0.0","spark_pilot_norest","8779","1","22","Female","","","false","","","","[1277.7999999970198]","./assets/img/space/catch/0.jpg","[""spaceBar""]","catch practice","space","0","{""ArrowUp,ArrowLeft"":3,""ArrowUp,ArrowRight"":36,""ArrowDown,ArrowLeft"":15,""ArrowDown,ArrowRight"":23}","true","spaceBar","true","","","","","",""
"html-keyboard-response","52","360053","0.0-3.0-10.0-1.0","spark_pilot_norest","8779","1","22","Female","","","","","","","null","<div style=""font-size:60px;"">+</div>","null","fixation","","","","","","","","","","","",""
"revaluation","53","364095","0.0-3.0-10.0-0.1","spark_pilot_norest","8779","1","22","Female","","","false","","","","[567.0999999940395]","./assets/img/space/catch/1.jpg","[""spaceBar""]","catch practice","space","0","{""ArrowUp,ArrowLeft"":3,""ArrowUp,ArrowRight"":36,""ArrowDown,ArrowLeft"":15,""ArrowDown,ArrowRight"":23}","true","spaceBar","true","","","","","",""
"html-keyboard-response","54","364599","0.0-3.0-10.0-1.1","spark_pilot_norest","8779","1","22","Female","","","","","","","null","<div style=""font-size:60px;"">+</div>","null","fixation","","","","","","","","","","","",""
"revaluation","55","368638","0.0-3.0-10.0-0.2","spark_pilot_norest","8779","1","22","Female","","","false","","","","[459.19999998807907]","./assets/img/space/catch/2.jpg","[""spaceBar""]","catch practice","space","0","{""ArrowUp,ArrowLeft"":3,""ArrowUp,ArrowRight"":36,""ArrowDown,ArrowLeft"":15,""ArrowDown,ArrowRight"":23}","true","spaceBar","true","","","","","",""
"html-keyboard-response","56","369141","0.0-3.0-10.0-1.2","spark_pilot_norest","8779","1","22","Female","","","","","","","null","<div style=""font-size:60px;"">+</div>","null","fixation","","","","","","","","","","","",""
"learning-instructions","57","375681","0.0-3.0-11.0-0.0-0.0","spark_pilot_norest","8779","1","22","Female","","","","","","","1260.2999999970198","<p> Now, you will practice a shortened version of the game to get a sense of how it all fits together. </p>","","instructions","","","","","","","","","","","",""
"learning-instructions","58","380365","0.0-3.0-11.0-0.0-0.1","spark_pilot_norest","8779","1","22","Female","","","","","","","1453.7999999970198","<p>This time you are searching for treasure in outer space.</p>","","instructions","","","","","","","","","","","",""
"learning-instructions","59","399631","0.0-3.0-11.0-1.0-0.0","spark_pilot_norest","8779","1","22","Female","","","","","","","4449.4000000059605","<p> Remember, when you see a picture of the place, use the up and down keys to <b>find an animal</b>.</p>
            <p> When you encounter an animal, you should use the left and right keys to <b>select a treasure chest</b>.</p>
            <p> Don't forget to look out for the robber! </p>","","instructions","","","","","","","","","","","",""
"revaluation","60","405654","0.0-3.0-11.0-2.0-0.0","spark_pilot_norest","8779","1","22","Female","","","false","","","","[1116.7999999970198,912.1999999880791]","./assets/img/space/11.jpg","[""ArrowUp"",""ArrowRight""]","practice block","space","36","{""ArrowUp,ArrowLeft"":3,""ArrowUp,ArrowRight"":36,""ArrowDown,ArrowLeft"":15,""ArrowDown,ArrowRight"":23}","true","ArrowUp,ArrowRight","false","","","","","",""
"html-keyboard-response","61","406159","0.0-3.0-11.0-2.0-1.0","spark_pilot_norest","8779","1","22","Female","","","","","","","null","<div style=""font-size:60px;"">+</div>","null","fixation","","","","","","","","","","","",""
"revaluation","62","412209","0.0-3.0-11.0-2.0-0.1","spark_pilot_norest","8779","1","22","Female","","","false","","","","[702.5,597.7999999970198]","./assets/img/space/12.jpg","[""ArrowDown"",""ArrowRight""]","practice block","space","23","{""ArrowUp,ArrowLeft"":3,""ArrowUp,ArrowRight"":36,""ArrowDown,ArrowLeft"":15,""ArrowDown,ArrowRight"":23}","false","ArrowDown,ArrowRight","false","","","","","",""
"html-keyboard-response","63","412715","0.0-3.0-11.0-2.0-1.1","spark_pilot_norest","8779","1","22","Female","","","","","","","null","<div style=""font-size:60px;"">+</div>","null","fixation","","","","","","","","","","","",""
"revaluation","64","418758","0.0-3.0-11.0-2.0-0.2","spark_pilot_norest","8779","1","22","Female","","","false","","","","[719.7000000029802,573.7999999970198]","./assets/img/space/13.jpg","[""ArrowUp"",""ArrowRight""]","practice block","space","36","{""ArrowUp,ArrowLeft"":3,""ArrowUp,ArrowRight"":36,""ArrowDown,ArrowLeft"":15,""ArrowDown,ArrowRight"":23}","true","ArrowUp,ArrowRight","false","","","","","",""
"html-keyboard-response","65","419264","0.0-3.0-11.0-2.0-1.2","spark_pilot_norest","8779","1","22","Female","","","","","","","null","<div style=""font-size:60px;"">+</div>","null","fixation","","","","","","","","","","","",""
"revaluation","66","425314","0.0-3.0-11.0-2.0-0.3","spark_pilot_norest","8779","1","22","Female","","","false","","","","[824.8999999910593,590.0999999940395]","./assets/img/space/14.jpg","[""ArrowDown"",""ArrowRight""]","practice block","space","23","{""ArrowUp,ArrowLeft"":3,""ArrowUp,ArrowRight"":36,""ArrowDown,ArrowLeft"":15,""ArrowDown,ArrowRight"":23}","false","ArrowDown,ArrowRight","false","","","","","",""
"html-keyboard-response","67","425826","0.0-3.0-11.0-2.0-1.3","spark_pilot_norest","8779","1","22","Female","","","","","","","null","<div style=""font-size:60px;"">+</div>","null","fixation","","","","","","","","","","","",""
"revaluation","68","431875","0.0-3.0-11.0-2.0-0.4","spark_pilot_norest","8779","1","22","Female","","","false","","","","[381,435.20000000298023]","./assets/img/space/11.jpg","[""ArrowUp"",""ArrowRight""]","practice block","space","36","{""ArrowUp,ArrowLeft"":3,""ArrowUp,ArrowRight"":36,""ArrowDown,ArrowLeft"":15,""ArrowDown,ArrowRight"":23}","true","ArrowUp,ArrowRight","false","","","","","",""
"html-keyboard-response","69","432386","0.0-3.0-11.0-2.0-1.4","spark_pilot_norest","8779","1","22","Female","","","","","","","null","<div style=""font-size:60px;"">+</div>","null","fixation","","","","","","","","","","","",""
"revaluation","70","438435","0.0-3.0-11.0-2.0-0.5","spark_pilot_norest","8779","1","22","Female","","","false","","","","[314,450]","./assets/img/space/12.jpg","[""ArrowUp"",""ArrowRight""]","practice block","space","36","{""ArrowUp,ArrowLeft"":3,""ArrowUp,ArrowRight"":36,""ArrowDown,ArrowLeft"":15,""ArrowDown,ArrowRight"":23}","true","ArrowUp,ArrowRight","false","","","","","",""
"html-keyboard-response","71","438947","0.0-3.0-11.0-2.0-1.5","spark_pilot_norest","8779","1","22","Female","","","","","","","null","<div style=""font-size:60px;"">+</div>","null","fixation","","","","","","","","","","","",""
"revaluation","72","444995","0.0-3.0-11.0-2.0-0.6","spark_pilot_norest","8779","1","22","Female","","","false","","","","[627.2999999970198,378.29999999701977]","./assets/img/space/13.jpg","[""ArrowUp"",""ArrowRight""]","practice block","space","36","{""ArrowUp,ArrowLeft"":3,""ArrowUp,ArrowRight"":36,""ArrowDown,ArrowLeft"":15,""ArrowDown,ArrowRight"":23}","true","ArrowUp,ArrowRight","false","","","","","",""
"html-keyboard-response","73","445507","0.0-3.0-11.0-2.0-1.6","spark_pilot_norest","8779","1","22","Female","","","","","","","null","<div style=""font-size:60px;"">+</div>","null","fixation","","","","","","","","","","","",""
"revaluation","74","451556","0.0-3.0-11.0-2.0-0.7","spark_pilot_norest","8779","1","22","Female","","","false","","","","[791.7000000029802,338]","./assets/img/space/14.jpg","[""ArrowUp"",""ArrowRight""]","practice block","space","36","{""ArrowUp,ArrowLeft"":3,""ArrowUp,ArrowRight"":36,""ArrowDown,ArrowLeft"":15,""ArrowDown,ArrowRight"":23}","true","ArrowUp,ArrowRight","false","","","","","",""
"html-keyboard-response","75","452067","0.0-3.0-11.0-2.0-1.7","spark_pilot_norest","8779","1","22","Female","","","","","","","null","<div style=""font-size:60px;"">+</div>","null","fixation","","","","","","","","","","","",""
"revaluation","76","456105","0.0-3.0-11.0-2.0-0.8","spark_pilot_norest","8779","1","22","Female","","","false","","","","[597.4000000059605]","./assets/img/space/catch/3.jpg","[""spaceBar""]","practice block","space","0","{""ArrowUp,ArrowLeft"":3,""ArrowUp,ArrowRight"":36,""ArrowDown,ArrowLeft"":15,""ArrowDown,ArrowRight"":23}","true","spaceBar","true","","","","","",""
"html-keyboard-response","77","456611","0.0-3.0-11.0-2.0-1.8","spark_pilot_norest","8779","1","22","Female","","","","","","","null","<div style=""font-size:60px;"">+</div>","null","fixation","","","","","","","","","","","",""
"learning-instructions","78","475780","0.0-3.0-11.0-3.0-0.0","spark_pilot_norest","8779","1","22","Female","","","","","","","5970.29999999702","<p> Now, you will travel with a friend who will choose whether you go up or down first. </p>
            <p> On these turns, you will just see the animal that they found. You will still get to choose which chest to search for treasure.</p>","","instructions","","","","","","","","","","","",""
"revaluation","79","479793","0.0-3.0-11.0-4.0-0.0","spark_pilot_norest","8779","1","22","Female","","","false","","","","[1091.5999999940395]","./assets/img/space/animals/rabbit.jpg","[""ArrowRight""]","practice block","space","23","{""ArrowUp,ArrowLeft"":3,""ArrowUp,ArrowRight"":36,""ArrowDown,ArrowLeft"":15,""ArrowDown,ArrowRight"":23}","true","ArrowDown,ArrowRight","","","","","","",""
"html-keyboard-response","80","480297","0.0-3.0-11.0-4.0-1.0","spark_pilot_norest","8779","1","22","Female","","","","","","","null","<div style=""font-size:60px;"">+</div>","null","fixation","","","","","","","","","","","",""
"revaluation","81","484337","0.0-3.0-11.0-4.0-0.1","spark_pilot_norest","8779","1","22","Female","","","false","","","","[1251.300000011921]","./assets/img/space/animals/cat.jpg","[""ArrowLeft""]","practice block","space","3","{""ArrowUp,ArrowLeft"":3,""ArrowUp,ArrowRight"":36,""ArrowDown,ArrowLeft"":15,""ArrowDown,ArrowRight"":23}","false","ArrowUp,ArrowLeft","","","","","","",""
"html-keyboard-response","82","484842","0.0-3.0-11.0-4.0-1.1","spark_pilot_norest","8779","1","22","Female","","","","","","","null","<div style=""font-size:60px;"">+</div>","null","fixation","","","","","","","","","","","",""
"revaluation","83","488881","0.0-3.0-11.0-4.0-0.2","spark_pilot_norest","8779","1","22","Female","","","false","","","","[402.29999999701977]","./assets/img/space/animals/cat.jpg","[""ArrowRight""]","practice block","space","36","{""ArrowUp,ArrowLeft"":3,""ArrowUp,ArrowRight"":36,""ArrowDown,ArrowLeft"":15,""ArrowDown,ArrowRight"":23}","true","ArrowUp,ArrowRight","","","","","","",""
"html-keyboard-response","84","489388","0.0-3.0-11.0-4.0-1.2","spark_pilot_norest","8779","1","22","Female","","","","","","","null","<div style=""font-size:60px;"">+</div>","null","fixation","","","","","","","","","","","",""
"revaluation","85","493482","0.0-3.0-11.0-4.0-0.3","spark_pilot_norest","8779","1","22","Female","","","false","","","","[635.8999999910593]","./assets/img/space/animals/rabbit.jpg","[""ArrowRight""]","practice block","space","23","{""ArrowUp,ArrowLeft"":3,""ArrowUp,ArrowRight"":36,""ArrowDown,ArrowLeft"":15,""ArrowDown,ArrowRight"":23}","true","ArrowDown,ArrowRight","","","","","","",""
"html-keyboard-response","86","493985","0.0-3.0-11.0-4.0-1.3","spark_pilot_norest","8779","1","22","Female","","","","","","","null","<div style=""font-size:60px;"">+</div>","null","fixation","","","","","","","","","","","",""
"learning-instructions","87","502154","0.0-3.0-11.0-5.0-0.0","spark_pilot_norest","8779","1","22","Female","","","","","","","null","<p> You have almost finished this part of the game! </p>
            <p> We are going to ask you to make a few more choices. </p>","","instructions","","","","","","","","","","","",""
"learning-instructions","88","518225","0.0-3.0-11.0-5.0-0.1","spark_pilot_norest","8779","1","22","Female","","","","","","","null","<p> First, you need to decide whether to go up or down. When you see each picture, use the arrow keys to make your choice. </p>
            <p><b>You will not see which animal you found, but try to get to the one that will give you the most treasure.</b></p>","","instructions","","","","","","","","","","","",""
"html-keyboard-response","89","519234","0.0-3.0-11.0-6.0-0.0","spark_pilot_norest","8779","1","22","Female","","","","","","","null","<div style=""font-size:100px;color:red;"">Starting in...</div>","null","","","","","","","","","","","","",""
"html-keyboard-response","90","520242","0.0-3.0-11.0-6.0-1.0","spark_pilot_norest","8779","1","22","Female","","","","","","","null","<div style=""font-size:200px;color:red;"">3</div>","null","","","","","","","","","","","","",""
"html-keyboard-response","91","521250","0.0-3.0-11.0-6.0-2.0","spark_pilot_norest","8779","1","22","Female","","","","","","","null","<div style=""font-size:200px;color:red;"">2</div>","null","","","","","","","","","","","","",""
"html-keyboard-response","92","522259","0.0-3.0-11.0-6.0-3.0","spark_pilot_norest","8779","1","22","Female","","","","","","","null","<div style=""font-size:200px;color:red;"">1</div>","null","","","","","","","","","","","","",""
"revaluation","93","523389","0.0-3.0-11.0-7.0","spark_pilot_norest","8779","1","22","Female","","","false","","","","[1104.2000000029802]","./assets/img/space/15.jpg","[""ArrowUp""]","practice block","space","0","{""ArrowUp,ArrowLeft"":3,""ArrowUp,ArrowRight"":36,""ArrowDown,ArrowLeft"":15,""ArrowDown,ArrowRight"":23}","true","ArrowUp","false","","","","","",""
"html-keyboard-response","94","523898","0.0-3.0-11.0-8.0","spark_pilot_norest","8779","1","22","Female","","","","","","","null","<div style=""font-size:60px;"">+</div>","null","fixation","","","","","","","","","","","",""
"learning-instructions","95","537354","0.0-3.0-11.0-9.0-0.0","spark_pilot_norest","8779","1","22","Female","","","","","","","null","<p> Now you will see the animals again and can search their chests for treasure. </p>
            <p> This time, you will not see how much treasure you earned, but you will earn more bonus money for making better choices. </p>","","instructions","","","","","","","","","","","",""
"html-keyboard-response","96","538364","0.0-3.0-11.0-10.0-0.0","spark_pilot_norest","8779","1","22","Female","","","","","","","null","<div style=""font-size:100px;color:red;"">Starting in...</div>","null","","","","","","","","","","","","",""
"html-keyboard-response","97","539370","0.0-3.0-11.0-10.0-1.0","spark_pilot_norest","8779","1","22","Female","","","","","","","null","<div style=""font-size:200px;color:red;"">3</div>","null","","","","","","","","","","","","",""
"html-keyboard-response","98","540381","0.0-3.0-11.0-10.0-2.0","spark_pilot_norest","8779","1","22","Female","","","","","","","null","<div style=""font-size:200px;color:red;"">2</div>","null","","","","","","","","","","","","",""
"html-keyboard-response","99","541390","0.0-3.0-11.0-10.0-3.0","spark_pilot_norest","8779","1","22","Female","","","","","","","null","<div style=""font-size:200px;color:red;"">1</div>","null","","","","","","","","","","","","",""
"revaluation","100","542011","0.0-3.0-11.0-11.0-0.0","spark_pilot_norest","8779","1","22","Female","","","false","","","","[594.2000000029802]","./assets/img/space/animals/cat.jpg","[""ArrowRight""]","practice block","space","0","{""ArrowUp,ArrowLeft"":3,""ArrowUp,ArrowRight"":36,""ArrowDown,ArrowLeft"":15,""ArrowDown,ArrowRight"":23}","true","ArrowUp,ArrowRight","","","","","","",""
"html-keyboard-response","101","542515","0.0-3.0-11.0-11.0-1.0","spark_pilot_norest","8779","1","22","Female","","","","","","","null","<div style=""font-size:60px;"">+</div>","null","fixation","","","","","","","","","","","",""
"revaluation","102","543182","0.0-3.0-11.0-11.0-0.1","spark_pilot_norest","8779","1","22","Female","","","false","","","","[640.5999999940395]","./assets/img/space/animals/rabbit.jpg","[""ArrowRight""]","practice block","space","0","{""ArrowUp,ArrowLeft"":3,""ArrowUp,ArrowRight"":36,""ArrowDown,ArrowLeft"":15,""ArrowDown,ArrowRight"":23}","true","ArrowDown,ArrowRight","","","","","","",""
"html-keyboard-response","103","543692","0.0-3.0-11.0-11.0-1.1","spark_pilot_norest","8779","1","22","Female","","","","","","","null","<div style=""font-size:60px;"">+</div>","null","fixation","","","","","","","","","","","",""
"learning-instructions","104","549927","0.0-3.0-12.0-0.0","spark_pilot_norest","8779","1","22","Female","","","","","","","1624.4000000059605","<p> Before you start, we're going to ask you a few questions about how the game works. </p>","","instructions","","","","","","","","","","","",""
"comp-q","105","558104","0.0-3.0-13.0-0.0-0.0","spark_pilot_norest","8779","1","22","Female","","","","","","","2550","<p> <b> True or False? </b> </p>
            <p> There can be 50 pieces of treasure in a given animal's chest. </p>","0","comp_question","","","","false","","","","","","","",""
"comp-q","106","565903","0.0-3.0-13.0-0.0-1.0","spark_pilot_norest","8779","1","22","Female","","","","","","","1257.5","<p> <b>Incorrect.</b> The amount of treasure in each chest can range from 0 to 40 pieces. </p>","0","comp_answer","","","","","","","","","","","",""
"comp-q","107","572439","0.0-3.0-13.0-0.1-0.1","spark_pilot_norest","8779","1","22","Female","","","","","","","960.5999999940395","<p> <b> True or False? </b> </p>
            <p> There can be 50 pieces of treasure in a given animal's chest. </p>","1","comp_question","","","","true","","","","","","","",""
"comp-q","108","580883","0.0-3.0-13.0-0.1-1.1","spark_pilot_norest","8779","1","22","Female","","","","","","","1744.2999999970198","<p> <b> That's right! </b> The amount of treasure in each chest can range from 0 to 40 pieces. </p>","0","comp_answer","","","","","","","","","","","",""
"comp-q","109","590265","0.0-3.0-13.0-0.2-0.2","spark_pilot_norest","8779","1","22","Female","","","","","","","2233.2999999970198","<p> <b> True or False? </b> </p><p> In this game, all animals have the same amount of treasure in their left and right chests. </p>","1","comp_question","","","","true","","","","","","","",""
"comp-q","110","597831","0.0-3.0-13.0-0.2-1.2","spark_pilot_norest","8779","1","22","Female","","","","","","","2295.2000000029802","<p> <b> That's right! </b> Animals have different amounts of treasure in their treasure chests. </p>","0","comp_answer","","","","","","","","","","","",""
"comp-q","111","605354","0.0-3.0-13.0-0.3-0.3","spark_pilot_norest","8779","1","22","Female","","","","","","","1619.9000000059605","<p> <b> True or False? </b> </p><p> The same animal will always be there if you go up in the same place. </p>","1","comp_question","","","","false","","","","","","","",""
"comp-q","112","612771","0.0-3.0-13.0-0.3-1.3","spark_pilot_norest","8779","1","22","Female","","","","","","","1074.7999999970198","<p> <b>Incorrect.</b> One animal lives in the upper part and one lives in the lower part of every place. </p>","0","comp_answer","","","","","","","","","","","",""
"comp-q","113","619570","0.0-3.0-13.0-0.4-0.4","spark_pilot_norest","8779","1","22","Female","","","","","","","977.7000000029802","<p> <b> True or False? </b> </p><p> The same animal will always be there if you go up in the same place. </p>","0","comp_question","","","","true","","","","","","","",""
"comp-q","114","627048","0.0-3.0-13.0-0.4-1.4","spark_pilot_norest","8779","1","22","Female","","","","","","","977.8999999910593","<p> <b> That's right! </b> One animal lives in the upper part and one lives in the lower part of every place. </p>","0","comp_answer","","","","","","","","","","","",""
"comp-q","115","633614","0.0-3.0-13.0-0.5-0.5","spark_pilot_norest","8779","1","22","Female","","","","","","","1010.1000000089407","<p> <b> True or False? </b> </p><p> If you see a different picture, it means you are in a new place. </p>","0","comp_question","","","","false","","","","","","","",""
"comp-q","116","645657","0.0-3.0-13.0-0.5-1.5","spark_pilot_norest","8779","1","22","Female","","","","","","","909.7999999970198","<p> <b>Incorrect.</b> Lots of different images may show the same place. For example,  you may see three different images that all remind you that you are in outer space. </p>","0","comp_answer","","","","","","","","","","","",""
"comp-q","117","651989","0.0-3.0-13.0-0.6-0.6","spark_pilot_norest","8779","1","22","Female","","","","","","","826.2999999970198","<p> <b> True or False? </b> </p><p> If you see a different picture, it means you are in a new place. </p>","1","comp_question","","","","true","","","","","","","",""
"comp-q","118","664357","0.0-3.0-13.0-0.6-1.6","spark_pilot_norest","8779","1","22","Female","","","","","","","963.3999999910593","<p> <b> That's right! </b> Lots of different images may show the same place. For example,  you may see three different images that all remind you that you are in outer space. </p>","0","comp_answer","","","","","","","","","","","",""
"learning-instructions","119","675862","0.0-3.0-14.0-0.0","spark_pilot_norest","8779","1","22","Female","","","","","","","1582.4000000059605","<p> Good job. Remember to do your best because the amount of treasure you earn will be converted into bonus money. </p>
            <p> It’s time to start the real game! </p>","","instructions","","","","","","","","","","","",""
"learning-instructions","120","680365","0.0-4.0-0.0-0.0","spark_pilot_norest","8779","1","22","Female","","","","","","","1760.5999999940395","<p> This time you are searching for treasure in the <b>ocean</b>.</p>","","instructions","","","","","","","","","","","",""
"learning-instructions","121","698722","0.0-4.0-0.0-0.1","spark_pilot_norest","8779","1","22","Female","","","","","","","1011.1999999880791","<p><b>New</b> animals with <b>new</b> treasure chests live here. You need to explore to discover where the animal with the best treasure chest is.</p>
                    <p> Like before, once you figure out which animal has the chest with the most treasure, you should try to get to that animal and select that chest! </p>","","instructions","","","","","","","","","","","",""
"learning-instructions","122","714621","0.0-4.0-1.0-0.0","spark_pilot_norest","8779","1","22","Female","","","","","","","1168","<p> Remember, when you see a picture of the place, use the up and down keys to <b>find an animal</b>.</p>
            <p> When you encounter an animal, you should use the left and right keys to <b>select a treasure chest</b>.</p>
            <p> Don't forget to look out for the robber! </p>","","instructions","","","","","","","","","","","",""
"revaluation","123","720647","0.0-4.0-2.0-0.0","spark_pilot_norest","8779","1","22","Female","","","false","","","","[1023.6000000089407,579]","./assets/img/ocean/memory/1.jpg","[""ArrowUp"",""ArrowRight""]","value training","ocean","10","{""ArrowUp,ArrowLeft"":26,""ArrowUp,ArrowRight"":10,""ArrowDown,ArrowLeft"":5,""ArrowDown,ArrowRight"":17}","false","ArrowUp,ArrowRight","false","original","1","0","","",""
"html-keyboard-response","124","721159","0.0-4.0-2.0-1.0","spark_pilot_norest","8779","1","22","Female","","","","","","","null","<div style=""font-size:60px;"">+</div>","null","fixation","","","","","","","","","1","","",""
"revaluation","125","727209","0.0-4.0-2.0-0.1","spark_pilot_norest","8779","1","22","Female","","","false","","","","[519.2000000029802,462.09999999403954]","./assets/img/ocean/memory/35.jpg","[""ArrowUp"",""ArrowLeft""]","value training","ocean","26","{""ArrowUp,ArrowLeft"":26,""ArrowUp,ArrowRight"":10,""ArrowDown,ArrowLeft"":5,""ArrowDown,ArrowRight"":17}","true","ArrowUp,ArrowLeft","false","original","1","2","","",""
"html-keyboard-response","126","727714","0.0-4.0-2.0-1.1","spark_pilot_norest","8779","1","22","Female","","","","","","","null","<div style=""font-size:60px;"">+</div>","null","fixation","","","","","","","","","3","","",""
"revaluation","127","731752","0.0-4.0-2.0-0.2","spark_pilot_norest","8779","1","22","Female","","","false","","","","[1711.8999999910593]","./assets/img/ocean/catch/3.jpg","[""ArrowDown""]","value training","ocean","-10","{""ArrowUp,ArrowLeft"":26,""ArrowUp,ArrowRight"":10,""ArrowDown,ArrowLeft"":5,""ArrowDown,ArrowRight"":17}","false","ArrowDown","true","original","1","4","","",""
"html-keyboard-response","128","732263","0.0-4.0-2.0-1.2","spark_pilot_norest","8779","1","22","Female","","","","","","","null","<div style=""font-size:60px;"">+</div>","null","fixation","","","","","","","","","5","","",""
"revaluation","129","738309","0.0-4.0-2.0-0.3","spark_pilot_norest","8779","1","22","Female","","","false","","","","[715.5,917.3000000119209]","./assets/img/ocean/memory/33.jpg","[""ArrowUp"",""ArrowLeft""]","value training","ocean","26","{""ArrowUp,ArrowLeft"":26,""ArrowUp,ArrowRight"":10,""ArrowDown,ArrowLeft"":5,""ArrowDown,ArrowRight"":17}","true","ArrowUp,ArrowLeft","false","original","1","6","","",""
"html-keyboard-response","130","738813","0.0-4.0-2.0-1.3","spark_pilot_norest","8779","1","22","Female","","","","","","","null","<div style=""font-size:60px;"">+</div>","null","fixation","","","","","","","","","7","","",""
"revaluation","131","744858","0.0-4.0-2.0-0.4","spark_pilot_norest","8779","1","22","Female","","","false","","","","[880,948.4000000059605]","./assets/img/ocean/memory/32.jpg","[""ArrowDown"",""ArrowRight""]","value training","ocean","17","{""ArrowUp,ArrowLeft"":26,""ArrowUp,ArrowRight"":10,""ArrowDown,ArrowLeft"":5,""ArrowDown,ArrowRight"":17}","false","ArrowDown,ArrowRight","false","original","1","8","","",""
"html-keyboard-response","132","745359","0.0-4.0-2.0-1.4","spark_pilot_norest","8779","1","22","Female","","","","","","","null","<div style=""font-size:60px;"">+</div>","null","fixation","","","","","","","","","9","","",""
"revaluation","133","751405","0.0-4.0-2.0-0.5","spark_pilot_norest","8779","1","22","Female","","","false","","","","[674.8999999910593,427.5]","./assets/img/ocean/memory/4.jpg","[""ArrowDown"",""ArrowRight""]","value training","ocean","17","{""ArrowUp,ArrowLeft"":26,""ArrowUp,ArrowRight"":10,""ArrowDown,ArrowLeft"":5,""ArrowDown,ArrowRight"":17}","false","ArrowDown,ArrowRight","false","original","1","10","","",""
"html-keyboard-response","134","751909","0.0-4.0-2.0-1.5","spark_pilot_norest","8779","1","22","Female","","","","","","","null","<div style=""font-size:60px;"">+</div>","null","fixation","","","","","","","","","11","","",""
"revaluation","135","757956","0.0-4.0-2.0-0.6","spark_pilot_norest","8779","1","22","Female","","","false","","","","[523.9000000059605,457.3999999910593]","./assets/img/ocean/memory/17.jpg","[""ArrowDown"",""ArrowLeft""]","value training","ocean","5","{""ArrowUp,ArrowLeft"":26,""ArrowUp,ArrowRight"":10,""ArrowDown,ArrowLeft"":5,""ArrowDown,ArrowRight"":17}","false","ArrowDown,ArrowLeft","false","original","1","12","","",""
"html-keyboard-response","136","758460","0.0-4.0-2.0-1.6","spark_pilot_norest","8779","1","22","Female","","","","","","","null","<div style=""font-size:60px;"">+</div>","null","fixation","","","","","","","","","13","","",""
"revaluation","137","764513","0.0-4.0-2.0-0.7","spark_pilot_norest","8779","1","22","Female","","","true","","","","[978.8999999910593]","./assets/img/ocean/memory/5.jpg","[""ArrowDown""]","value training","ocean","-5","{""ArrowUp,ArrowLeft"":26,""ArrowUp,ArrowRight"":10,""ArrowDown,ArrowLeft"":5,""ArrowDown,ArrowRight"":17}","false","ArrowDown","false","original","1","14","","",""
"html-keyboard-response","138","765020","0.0-4.0-2.0-1.7","spark_pilot_norest","8779","1","22","Female","","","","","","","null","<div style=""font-size:60px;"">+</div>","null","fixation","","","","","","","","","15","","",""
"revaluation","139","771067","0.0-4.0-2.0-0.8","spark_pilot_norest","8779","1","22","Female","","","false","","","","[770.6999999880791,489]","./assets/img/ocean/memory/29.jpg","[""ArrowDown"",""ArrowRight""]","value training","ocean","17","{""ArrowUp,ArrowLeft"":26,""ArrowUp,ArrowRight"":10,""ArrowDown,ArrowLeft"":5,""ArrowDown,ArrowRight"":17}","false","ArrowDown,ArrowRight","false","original","1","16","","",""
"html-keyboard-response","140","771575","0.0-4.0-2.0-1.8","spark_pilot_norest","8779","1","22","Female","","","","","","","null","<div style=""font-size:60px;"">+</div>","null","fixation","","","","","","","","","17","","",""
"revaluation","141","777623","0.0-4.0-2.0-0.9","spark_pilot_norest","8779","1","22","Female","","","false","","","","[501.30000001192093,829.2999999970198]","./assets/img/ocean/memory/16.jpg","[""ArrowUp"",""ArrowLeft""]","value training","ocean","26","{""ArrowUp,ArrowLeft"":26,""ArrowUp,ArrowRight"":10,""ArrowDown,ArrowLeft"":5,""ArrowDown,ArrowRight"":17}","true","ArrowUp,ArrowLeft","false","original","1","18","","",""
"html-keyboard-response","142","778128","0.0-4.0-2.0-1.9","spark_pilot_norest","8779","1","22","Female","","","","","","","null","<div style=""font-size:60px;"">+</div>","null","fixation","","","","","","","","","19","","",""
"revaluation","143","784176","0.0-4.0-2.0-0.10","spark_pilot_norest","8779","1","22","Female","","","false","","","","[905.5999999940395,655.2999999970198]","./assets/img/ocean/memory/17.jpg","[""ArrowDown"",""ArrowRight""]","value training","ocean","17","{""ArrowUp,ArrowLeft"":26,""ArrowUp,ArrowRight"":10,""ArrowDown,ArrowLeft"":5,""ArrowDown,ArrowRight"":17}","false","ArrowDown,ArrowRight","false","original","1","20","","",""
"html-keyboard-response","144","784679","0.0-4.0-2.0-1.10","spark_pilot_norest","8779","1","22","Female","","","","","","","null","<div style=""font-size:60px;"">+</div>","null","fixation","","","","","","","","","21","","",""
"revaluation","145","790726","0.0-4.0-2.0-0.11","spark_pilot_norest","8779","1","22","Female","","","false","","","","[455.40000000596046,342.6000000089407]","./assets/img/ocean/memory/34.jpg","[""ArrowUp"",""ArrowLeft""]","value training","ocean","26","{""ArrowUp,ArrowLeft"":26,""ArrowUp,ArrowRight"":10,""ArrowDown,ArrowLeft"":5,""ArrowDown,ArrowRight"":17}","true","ArrowUp,ArrowLeft","false","original","1","22","","",""
"html-keyboard-response","146","791232","0.0-4.0-2.0-1.11","spark_pilot_norest","8779","1","22","Female","","","","","","","null","<div style=""font-size:60px;"">+</div>","null","fixation","","","","","","","","","23","","",""
"revaluation","147","797280","0.0-4.0-2.0-0.12","spark_pilot_norest","8779","1","22","Female","","","false","","","","[693.2999999970198,455.19999998807907]","./assets/img/ocean/memory/11.jpg","[""ArrowUp"",""ArrowLeft""]","value training","ocean","26","{""ArrowUp,ArrowLeft"":26,""ArrowUp,ArrowRight"":10,""ArrowDown,ArrowLeft"":5,""ArrowDown,ArrowRight"":17}","true","ArrowUp,ArrowLeft","false","original","1","24","","",""
"html-keyboard-response","148","797782","0.0-4.0-2.0-1.12","spark_pilot_norest","8779","1","22","Female","","","","","","","null","<div style=""font-size:60px;"">+</div>","null","fixation","","","","","","","","","25","","",""
"revaluation","149","803823","0.0-4.0-2.0-0.13","spark_pilot_norest","8779","1","22","Female","","","false","","","","[820,359.59999999403954]","./assets/img/ocean/memory/41.jpg","[""ArrowUp"",""ArrowLeft""]","value training","ocean","26","{""ArrowUp,ArrowLeft"":26,""ArrowUp,ArrowRight"":10,""ArrowDown,ArrowLeft"":5,""ArrowDown,ArrowRight"":17}","true","ArrowUp,ArrowLeft","false","original","1","26","","",""
"html-keyboard-response","150","804327","0.0-4.0-2.0-1.13","spark_pilot_norest","8779","1","22","Female","","","","","","","null","<div style=""font-size:60px;"">+</div>","null","fixation","","","","","","","","","27","","",""
"revaluation","151","810374","0.0-4.0-2.0-0.14","spark_pilot_norest","8779","1","22","Female","","","false","","","","[558.3000000119209,348.79999999701977]","./assets/img/ocean/memory/32.jpg","[""ArrowUp"",""ArrowLeft""]","value training","ocean","26","{""ArrowUp,ArrowLeft"":26,""ArrowUp,ArrowRight"":10,""ArrowDown,ArrowLeft"":5,""ArrowDown,ArrowRight"":17}","true","ArrowUp,ArrowLeft","false","original","1","28","","",""
"html-keyboard-response","152","810880","0.0-4.0-2.0-1.14","spark_pilot_norest","8779","1","22","Female","","","","","","","null","<div style=""font-size:60px;"">+</div>","null","fixation","","","","","","","","","29","","",""
"revaluation","153","816929","0.0-4.0-2.0-0.15","spark_pilot_norest","8779","1","22","Female","","","false","","","","[499,485]","./assets/img/ocean/memory/4.jpg","[""ArrowUp"",""ArrowLeft""]","value training","ocean","26","{""ArrowUp,ArrowLeft"":26,""ArrowUp,ArrowRight"":10,""ArrowDown,ArrowLeft"":5,""ArrowDown,ArrowRight"":17}","true","ArrowUp,ArrowLeft","false","original","1","30","","",""
"html-keyboard-response","154","817439","0.0-4.0-2.0-1.15","spark_pilot_norest","8779","1","22","Female","","","","","","","null","<div style=""font-size:60px;"">+</div>","null","fixation","","","","","","","","","31","","",""
"revaluation","155","821481","0.0-4.0-2.0-0.16","spark_pilot_norest","8779","1","22","Female","","","false","","","","[683]","./assets/img/ocean/catch/1.jpg","[""spaceBar""]","value training","ocean","0","{""ArrowUp,ArrowLeft"":26,""ArrowUp,ArrowRight"":10,""ArrowDown,ArrowLeft"":5,""ArrowDown,ArrowRight"":17}","true","spaceBar","true","original","1","32","","",""
"html-keyboard-response","156","821992","0.0-4.0-2.0-1.16","spark_pilot_norest","8779","1","22","Female","","","","","","","null","<div style=""font-size:60px;"">+</div>","null","fixation","","","","","","","","","33","","",""
"revaluation","157","828041","0.0-4.0-2.0-0.17","spark_pilot_norest","8779","1","22","Female","","","false","","","","[470.3999999910593,415.5]","./assets/img/ocean/memory/10.jpg","[""ArrowUp"",""ArrowLeft""]","value training","ocean","26","{""ArrowUp,ArrowLeft"":26,""ArrowUp,ArrowRight"":10,""ArrowDown,ArrowLeft"":5,""ArrowDown,ArrowRight"":17}","true","ArrowUp,ArrowLeft","false","original","1","34","","",""
"html-keyboard-response","158","828554","0.0-4.0-2.0-1.17","spark_pilot_norest","8779","1","22","Female","","","","","","","null","<div style=""font-size:60px;"">+</div>","null","fixation","","","","","","","","","35","","",""
"revaluation","159","834600","0.0-4.0-2.0-0.18","spark_pilot_norest","8779","1","22","Female","","","false","","","","[498.79999999701977,371.09999999403954]","./assets/img/ocean/memory/33.jpg","[""ArrowUp"",""ArrowLeft""]","value training","ocean","26","{""ArrowUp,ArrowLeft"":26,""ArrowUp,ArrowRight"":10,""ArrowDown,ArrowLeft"":5,""ArrowDown,ArrowRight"":17}","true","ArrowUp,ArrowLeft","false","original","1","36","","",""
"html-keyboard-response","160","835104","0.0-4.0-2.0-1.18","spark_pilot_norest","8779","1","22","Female","","","","","","","null","<div style=""font-size:60px;"">+</div>","null","fixation","","","","","","","","","37","","",""
"revaluation","161","841152","0.0-4.0-2.0-0.19","spark_pilot_norest","8779","1","22","Female","","","false","","","","[565.3999999910593,231.29999999701977]","./assets/img/ocean/memory/23.jpg","[""ArrowUp"",""ArrowLeft""]","value training","ocean","26","{""ArrowUp,ArrowLeft"":26,""ArrowUp,ArrowRight"":10,""ArrowDown,ArrowLeft"":5,""ArrowDown,ArrowRight"":17}","true","ArrowUp,ArrowLeft","false","original","1","38","","",""
"html-keyboard-response","162","841654","0.0-4.0-2.0-1.19","spark_pilot_norest","8779","1","22","Female","","","","","","","null","<div style=""font-size:60px;"">+</div>","null","fixation","","","","","","","","","39","","",""
"revaluation","163","845687","0.0-4.0-2.0-0.20","spark_pilot_norest","8779","1","22","Female","","","false","","","","[606.5]","./assets/img/ocean/catch/0.jpg","[""spaceBar""]","value training","ocean","0","{""ArrowUp,ArrowLeft"":26,""ArrowUp,ArrowRight"":10,""ArrowDown,ArrowLeft"":5,""ArrowDown,ArrowRight"":17}","true","spaceBar","true","original","1","40","","",""
"html-keyboard-response","164","846192","0.0-4.0-2.0-1.20","spark_pilot_norest","8779","1","22","Female","","","","","","","null","<div style=""font-size:60px;"">+</div>","null","fixation","","","","","","","","","41","","",""
"revaluation","165","852241","0.0-4.0-2.0-0.21","spark_pilot_norest","8779","1","22","Female","","","false","","","","[872.3000000119209,390.79999999701977]","./assets/img/ocean/memory/21.jpg","[""ArrowUp"",""ArrowLeft""]","value training","ocean","26","{""ArrowUp,ArrowLeft"":26,""ArrowUp,ArrowRight"":10,""ArrowDown,ArrowLeft"":5,""ArrowDown,ArrowRight"":17}","true","ArrowUp,ArrowLeft","false","original","1","42","","",""
"html-keyboard-response","166","852752","0.0-4.0-2.0-1.21","spark_pilot_norest","8779","1","22","Female","","","","","","","null","<div style=""font-size:60px;"">+</div>","null","fixation","","","","","","","","","43","","",""
"revaluation","167","858800","0.0-4.0-2.0-0.22","spark_pilot_norest","8779","1","22","Female","","","false","","","","[705.8000000119209,362.09999999403954]","./assets/img/ocean/memory/13.jpg","[""ArrowUp"",""ArrowLeft""]","value training","ocean","26","{""ArrowUp,ArrowLeft"":26,""ArrowUp,ArrowRight"":10,""ArrowDown,ArrowLeft"":5,""ArrowDown,ArrowRight"":17}","true","ArrowUp,ArrowLeft","false","original","1","44","","",""
"html-keyboard-response","168","859307","0.0-4.0-2.0-1.22","spark_pilot_norest","8779","1","22","Female","","","","","","","null","<div style=""font-size:60px;"">+</div>","null","fixation","","","","","","","","","45","","",""
"revaluation","169","865351","0.0-4.0-2.0-0.23","spark_pilot_norest","8779","1","22","Female","","","false","","","","[744.7000000029802,344.09999999403954]","./assets/img/ocean/memory/10.jpg","[""ArrowUp"",""ArrowLeft""]","value training","ocean","26","{""ArrowUp,ArrowLeft"":26,""ArrowUp,ArrowRight"":10,""ArrowDown,ArrowLeft"":5,""ArrowDown,ArrowRight"":17}","true","ArrowUp,ArrowLeft","false","original","1","46","","",""
"html-keyboard-response","170","865855","0.0-4.0-2.0-1.23","spark_pilot_norest","8779","1","22","Female","","","","","","","null","<div style=""font-size:60px;"">+</div>","null","fixation","","","","","","","","","47","","",""
"revaluation","171","871907","0.0-4.0-2.0-0.24","spark_pilot_norest","8779","1","22","Female","","","false","","","","[578.9000000059605,307.1000000089407]","./assets/img/ocean/memory/40.jpg","[""ArrowUp"",""ArrowLeft""]","value training","ocean","26","{""ArrowUp,ArrowLeft"":26,""ArrowUp,ArrowRight"":10,""ArrowDown,ArrowLeft"":5,""ArrowDown,ArrowRight"":17}","true","ArrowUp,ArrowLeft","false","original","1","48","","",""
"html-keyboard-response","172","872416","0.0-4.0-2.0-1.24","spark_pilot_norest","8779","1","22","Female","","","","","","","null","<div style=""font-size:60px;"">+</div>","null","fixation","","","","","","","","","49","","",""
"revaluation","173","878458","0.0-4.0-2.0-0.25","spark_pilot_norest","8779","1","22","Female","","","false","","","","[696.5999999940395,596.3000000119209]","./assets/img/ocean/memory/24.jpg","[""ArrowUp"",""ArrowLeft""]","value training","ocean","26","{""ArrowUp,ArrowLeft"":26,""ArrowUp,ArrowRight"":10,""ArrowDown,ArrowLeft"":5,""ArrowDown,ArrowRight"":17}","true","ArrowUp,ArrowLeft","false","original","1","50","","",""
"html-keyboard-response","174","878967","0.0-4.0-2.0-1.25","spark_pilot_norest","8779","1","22","Female","","","","","","","null","<div style=""font-size:60px;"">+</div>","null","fixation","","","","","","","","","51","","",""
"revaluation","175","885014","0.0-4.0-2.0-0.26","spark_pilot_norest","8779","1","22","Female","","","false","","","","[532,481.3999999910593]","./assets/img/ocean/memory/23.jpg","[""ArrowUp"",""ArrowLeft""]","value training","ocean","26","{""ArrowUp,ArrowLeft"":26,""ArrowUp,ArrowRight"":10,""ArrowDown,ArrowLeft"":5,""ArrowDown,ArrowRight"":17}","true","ArrowUp,ArrowLeft","false","original","1","52","","",""
"html-keyboard-response","176","885521","0.0-4.0-2.0-1.26","spark_pilot_norest","8779","1","22","Female","","","","","","","null","<div style=""font-size:60px;"">+</div>","null","fixation","","","","","","","","","53","","",""
"revaluation","177","889559","0.0-4.0-2.0-0.27","spark_pilot_norest","8779","1","22","Female","","","false","","","","[714.2000000029802]","./assets/img/ocean/catch/4.jpg","[""spaceBar""]","value training","ocean","0","{""ArrowUp,ArrowLeft"":26,""ArrowUp,ArrowRight"":10,""ArrowDown,ArrowLeft"":5,""ArrowDown,ArrowRight"":17}","true","spaceBar","true","original","1","54","","",""
"html-keyboard-response","178","890064","0.0-4.0-2.0-1.27","spark_pilot_norest","8779","1","22","Female","","","","","","","null","<div style=""font-size:60px;"">+</div>","null","fixation","","","","","","","","","55","","",""
"revaluation","179","896114","0.0-4.0-2.0-0.28","spark_pilot_norest","8779","1","22","Female","","","false","","","","[758.0999999940395,461.59999999403954]","./assets/img/ocean/memory/31.jpg","[""ArrowUp"",""ArrowLeft""]","value training","ocean","26","{""ArrowUp,ArrowLeft"":26,""ArrowUp,ArrowRight"":10,""ArrowDown,ArrowLeft"":5,""ArrowDown,ArrowRight"":17}","true","ArrowUp,ArrowLeft","false","original","1","56","","",""
"html-keyboard-response","180","896624","0.0-4.0-2.0-1.28","spark_pilot_norest","8779","1","22","Female","","","","","","","null","<div style=""font-size:60px;"">+</div>","null","fixation","","","","","","","","","57","","",""
"revaluation","181","902673","0.0-4.0-2.0-0.29","spark_pilot_norest","8779","1","22","Female","","","false","","","","[517.6999999880791,332.29999999701977]","./assets/img/ocean/memory/41.jpg","[""ArrowUp"",""ArrowLeft""]","value training","ocean","26","{""ArrowUp,ArrowLeft"":26,""ArrowUp,ArrowRight"":10,""ArrowDown,ArrowLeft"":5,""ArrowDown,ArrowRight"":17}","true","ArrowUp,ArrowLeft","false","original","1","58","","",""
"html-keyboard-response","182","903174","0.0-4.0-2.0-1.29","spark_pilot_norest","8779","1","22","Female","","","","","","","null","<div style=""font-size:60px;"">+</div>","null","fixation","","","","","","","","","59","","",""
"revaluation","183","907207","0.0-4.0-2.0-0.30","spark_pilot_norest","8779","1","22","Female","","","false","","","","[746.5999999940395]","./assets/img/ocean/catch/5.jpg","[""spaceBar""]","value training","ocean","0","{""ArrowUp,ArrowLeft"":26,""ArrowUp,ArrowRight"":10,""ArrowDown,ArrowLeft"":5,""ArrowDown,ArrowRight"":17}","true","spaceBar","true","original","1","60","","",""
"html-keyboard-response","184","907713","0.0-4.0-2.0-1.30","spark_pilot_norest","8779","1","22","Female","","","","","","","null","<div style=""font-size:60px;"">+</div>","null","fixation","","","","","","","","","61","","",""
"revaluation","185","913761","0.0-4.0-2.0-0.31","spark_pilot_norest","8779","1","22","Female","","","false","","","","[680,347.20000000298023]","./assets/img/ocean/memory/21.jpg","[""ArrowUp"",""ArrowLeft""]","value training","ocean","26","{""ArrowUp,ArrowLeft"":26,""ArrowUp,ArrowRight"":10,""ArrowDown,ArrowLeft"":5,""ArrowDown,ArrowRight"":17}","true","ArrowUp,ArrowLeft","false","original","1","62","","",""
"html-keyboard-response","186","914263","0.0-4.0-2.0-1.31","spark_pilot_norest","8779","1","22","Female","","","","","","","null","<div style=""font-size:60px;"">+</div>","null","fixation","","","","","","","","","63","","",""
"revaluation","187","920312","0.0-4.0-2.0-0.32","spark_pilot_norest","8779","1","22","Female","","","false","","","","[671.7999999970198,558.7000000029802]","./assets/img/ocean/memory/5.jpg","[""ArrowUp"",""ArrowLeft""]","value training","ocean","26","{""ArrowUp,ArrowLeft"":26,""ArrowUp,ArrowRight"":10,""ArrowDown,ArrowLeft"":5,""ArrowDown,ArrowRight"":17}","true","ArrowUp,ArrowLeft","false","original","1","64","","",""
"html-keyboard-response","188","920816","0.0-4.0-2.0-1.32","spark_pilot_norest","8779","1","22","Female","","","","","","","null","<div style=""font-size:60px;"">+</div>","null","fixation","","","","","","","","","65","","",""
"revaluation","189","924855","0.0-4.0-2.0-0.33","spark_pilot_norest","8779","1","22","Female","","","false","","","","[736.3000000119209]","./assets/img/ocean/catch/6.jpg","[""spaceBar""]","value training","ocean","0","{""ArrowUp,ArrowLeft"":26,""ArrowUp,ArrowRight"":10,""ArrowDown,ArrowLeft"":5,""ArrowDown,ArrowRight"":17}","true","spaceBar","true","original","1","66","","",""
"html-keyboard-response","190","925361","0.0-4.0-2.0-1.33","spark_pilot_norest","8779","1","22","Female","","","","","","","null","<div style=""font-size:60px;"">+</div>","null","fixation","","","","","","","","","67","","",""
"revaluation","191","931408","0.0-4.0-2.0-0.34","spark_pilot_norest","8779","1","22","Female","","","false","","","","[1309.7000000029802,600.5999999940395]","./assets/img/ocean/memory/24.jpg","[""ArrowUp"",""ArrowLeft""]","value training","ocean","26","{""ArrowUp,ArrowLeft"":26,""ArrowUp,ArrowRight"":10,""ArrowDown,ArrowLeft"":5,""ArrowDown,ArrowRight"":17}","true","ArrowUp,ArrowLeft","false","original","1","68","","",""
"html-keyboard-response","192","931910","0.0-4.0-2.0-1.34","spark_pilot_norest","8779","1","22","Female","","","","","","","null","<div style=""font-size:60px;"">+</div>","null","fixation","","","","","","","","","69","","",""
"revaluation","193","937953","0.0-4.0-2.0-0.35","spark_pilot_norest","8779","1","22","Female","","","false","","","","[584.6000000089407,311.1000000089407]","./assets/img/ocean/memory/13.jpg","[""ArrowUp"",""ArrowLeft""]","value training","ocean","26","{""ArrowUp,ArrowLeft"":26,""ArrowUp,ArrowRight"":10,""ArrowDown,ArrowLeft"":5,""ArrowDown,ArrowRight"":17}","true","ArrowUp,ArrowLeft","false","original","1","70","","",""
"html-keyboard-response","194","938457","0.0-4.0-2.0-1.35","spark_pilot_norest","8779","1","22","Female","","","","","","","null","<div style=""font-size:60px;"">+</div>","null","fixation","","","","","","","","","71","","",""
"revaluation","195","944504","0.0-4.0-2.0-0.36","spark_pilot_norest","8779","1","22","Female","","","false","","","","[461.59999999403954,346.6000000089407]","./assets/img/ocean/memory/40.jpg","[""ArrowUp"",""ArrowLeft""]","value training","ocean","26","{""ArrowUp,ArrowLeft"":26,""ArrowUp,ArrowRight"":10,""ArrowDown,ArrowLeft"":5,""ArrowDown,ArrowRight"":17}","true","ArrowUp,ArrowLeft","false","original","1","72","","",""
"html-keyboard-response","196","945008","0.0-4.0-2.0-1.36","spark_pilot_norest","8779","1","22","Female","","","","","","","null","<div style=""font-size:60px;"">+</div>","null","fixation","","","","","","","","","73","","",""
"revaluation","197","951057","0.0-4.0-2.0-0.37","spark_pilot_norest","8779","1","22","Female","","","false","","","","[459.59999999403954,333.90000000596046]","./assets/img/ocean/memory/30.jpg","[""ArrowUp"",""ArrowLeft""]","value training","ocean","26","{""ArrowUp,ArrowLeft"":26,""ArrowUp,ArrowRight"":10,""ArrowDown,ArrowLeft"":5,""ArrowDown,ArrowRight"":17}","true","ArrowUp,ArrowLeft","false","original","1","74","","",""
"html-keyboard-response","198","951560","0.0-4.0-2.0-1.37","spark_pilot_norest","8779","1","22","Female","","","","","","","null","<div style=""font-size:60px;"">+</div>","null","fixation","","","","","","","","","75","","",""
"revaluation","199","957609","0.0-4.0-2.0-0.38","spark_pilot_norest","8779","1","22","Female","","","false","","","","[472.59999999403954,277.19999998807907]","./assets/img/ocean/memory/11.jpg","[""ArrowUp"",""ArrowLeft""]","value training","ocean","26","{""ArrowUp,ArrowLeft"":26,""ArrowUp,ArrowRight"":10,""ArrowDown,ArrowLeft"":5,""ArrowDown,ArrowRight"":17}","true","ArrowUp,ArrowLeft","false","original","1","76","","",""
"html-keyboard-response","200","958113","0.0-4.0-2.0-1.38","spark_pilot_norest","8779","1","22","Female","","","","","","","null","<div style=""font-size:60px;"">+</div>","null","fixation","","","","","","","","","77","","",""
"revaluation","201","964162","0.0-4.0-2.0-0.39","spark_pilot_norest","8779","1","22","Female","","","false","","","","[716.9000000059605,276.09999999403954]","./assets/img/ocean/memory/34.jpg","[""ArrowUp"",""ArrowLeft""]","value training","ocean","26","{""ArrowUp,ArrowLeft"":26,""ArrowUp,ArrowRight"":10,""ArrowDown,ArrowLeft"":5,""ArrowDown,ArrowRight"":17}","true","ArrowUp,ArrowLeft","false","original","1","78","","",""
"html-keyboard-response","202","964673","0.0-4.0-2.0-1.39","spark_pilot_norest","8779","1","22","Female","","","","","","","null","<div style=""font-size:60px;"">+</div>","null","fixation","","","","","","","","","79","","",""
"revaluation","203","970722","0.0-4.0-2.0-0.40","spark_pilot_norest","8779","1","22","Female","","","false","","","","[593.5999999940395,147.79999999701977]","./assets/img/ocean/memory/31.jpg","[""ArrowUp"",""ArrowLeft""]","value training","ocean","26","{""ArrowUp,ArrowLeft"":26,""ArrowUp,ArrowRight"":10,""ArrowDown,ArrowLeft"":5,""ArrowDown,ArrowRight"":17}","true","ArrowUp,ArrowLeft","false","original","1","80","","",""
"html-keyboard-response","204","971233","0.0-4.0-2.0-1.40","spark_pilot_norest","8779","1","22","Female","","","","","","","null","<div style=""font-size:60px;"">+</div>","null","fixation","","","","","","","","","81","","",""
"revaluation","205","977290","0.0-4.0-2.0-0.41","spark_pilot_norest","8779","1","22","Female","","","false","","","","[644.7000000029802,350.90000000596046]","./assets/img/ocean/memory/28.jpg","[""ArrowUp"",""ArrowLeft""]","value training","ocean","26","{""ArrowUp,ArrowLeft"":26,""ArrowUp,ArrowRight"":10,""ArrowDown,ArrowLeft"":5,""ArrowDown,ArrowRight"":17}","true","ArrowUp,ArrowLeft","false","original","1","82","","",""
"html-keyboard-response","206","977803","0.0-4.0-2.0-1.41","spark_pilot_norest","8779","1","22","Female","","","","","","","null","<div style=""font-size:60px;"">+</div>","null","fixation","","","","","","","","","83","","",""
"revaluation","207","983843","0.0-4.0-2.0-0.42","spark_pilot_norest","8779","1","22","Female","","","false","","","","[748.5999999940395,468.40000000596046]","./assets/img/ocean/memory/35.jpg","[""ArrowUp"",""ArrowLeft""]","value training","ocean","26","{""ArrowUp,ArrowLeft"":26,""ArrowUp,ArrowRight"":10,""ArrowDown,ArrowLeft"":5,""ArrowDown,ArrowRight"":17}","true","ArrowUp,ArrowLeft","false","original","1","84","","",""
"html-keyboard-response","208","984353","0.0-4.0-2.0-1.42","spark_pilot_norest","8779","1","22","Female","","","","","","","null","<div style=""font-size:60px;"">+</div>","null","fixation","","","","","","","","","85","","",""
"revaluation","209","990396","0.0-4.0-2.0-0.43","spark_pilot_norest","8779","1","22","Female","","","false","","","","[671.5,455.5]","./assets/img/ocean/memory/29.jpg","[""ArrowUp"",""ArrowLeft""]","value training","ocean","26","{""ArrowUp,ArrowLeft"":26,""ArrowUp,ArrowRight"":10,""ArrowDown,ArrowLeft"":5,""ArrowDown,ArrowRight"":17}","true","ArrowUp,ArrowLeft","false","original","1","86","","",""
"html-keyboard-response","210","990903","0.0-4.0-2.0-1.43","spark_pilot_norest","8779","1","22","Female","","","","","","","null","<div style=""font-size:60px;"">+</div>","null","fixation","","","","","","","","","87","","",""
"revaluation","211","996945","0.0-4.0-2.0-0.44","spark_pilot_norest","8779","1","22","Female","","","false","","","","[520.7000000029802,404.80000001192093]","./assets/img/ocean/memory/28.jpg","[""ArrowUp"",""ArrowLeft""]","value training","ocean","26","{""ArrowUp,ArrowLeft"":26,""ArrowUp,ArrowRight"":10,""ArrowDown,ArrowLeft"":5,""ArrowDown,ArrowRight"":17}","true","ArrowUp,ArrowLeft","false","original","1","88","","",""
"html-keyboard-response","212","997451","0.0-4.0-2.0-1.44","spark_pilot_norest","8779","1","22","Female","","","","","","","null","<div style=""font-size:60px;"">+</div>","null","fixation","","","","","","","","","89","","",""
"revaluation","213","1003495","0.0-4.0-2.0-0.45","spark_pilot_norest","8779","1","22","Female","","","false","","","","[477.5,412.90000000596046]","./assets/img/ocean/memory/1.jpg","[""ArrowUp"",""ArrowLeft""]","value training","ocean","26","{""ArrowUp,ArrowLeft"":26,""ArrowUp,ArrowRight"":10,""ArrowDown,ArrowLeft"":5,""ArrowDown,ArrowRight"":17}","true","ArrowUp,ArrowLeft","false","original","1","90","","",""
"html-keyboard-response","214","1004000","0.0-4.0-2.0-1.45","spark_pilot_norest","8779","1","22","Female","","","","","","","null","<div style=""font-size:60px;"">+</div>","null","fixation","","","","","","","","","91","","",""
"revaluation","215","1010049","0.0-4.0-2.0-0.46","spark_pilot_norest","8779","1","22","Female","","","false","","","","[563.3000000119209,462.5]","./assets/img/ocean/memory/16.jpg","[""ArrowUp"",""ArrowLeft""]","value training","ocean","26","{""ArrowUp,ArrowLeft"":26,""ArrowUp,ArrowRight"":10,""ArrowDown,ArrowLeft"":5,""ArrowDown,ArrowRight"":17}","true","ArrowUp,ArrowLeft","false","original","1","92","","",""
"html-keyboard-response","216","1010552","0.0-4.0-2.0-1.46","spark_pilot_norest","8779","1","22","Female","","","","","","","null","<div style=""font-size:60px;"">+</div>","null","fixation","","","","","","","","","93","","",""
"revaluation","217","1014595","0.0-4.0-2.0-0.47","spark_pilot_norest","8779","1","22","Female","","","false","","","","[724.5999999940395]","./assets/img/ocean/catch/7.jpg","[""spaceBar""]","value training","ocean","0","{""ArrowUp,ArrowLeft"":26,""ArrowUp,ArrowRight"":10,""ArrowDown,ArrowLeft"":5,""ArrowDown,ArrowRight"":17}","true","spaceBar","true","original","1","94","","",""
"html-keyboard-response","218","1015105","0.0-4.0-2.0-1.47","spark_pilot_norest","8779","1","22","Female","","","","","","","null","<div style=""font-size:60px;"">+</div>","null","fixation","","","","","","","","","95","","",""
"revaluation","219","1021154","0.0-4.0-2.0-0.48","spark_pilot_norest","8779","1","22","Female","","","false","","","","[697.1000000089407,318.79999999701977]","./assets/img/ocean/memory/30.jpg","[""ArrowUp"",""ArrowLeft""]","value training","ocean","26","{""ArrowUp,ArrowLeft"":26,""ArrowUp,ArrowRight"":10,""ArrowDown,ArrowLeft"":5,""ArrowDown,ArrowRight"":17}","true","ArrowUp,ArrowLeft","false","original","1","96","","",""
"html-keyboard-response","220","1021664","0.0-4.0-2.0-1.48","spark_pilot_norest","8779","1","22","Female","","","","","","","null","<div style=""font-size:60px;"">+</div>","null","fixation","","","","","","","","","97","","",""
"revaluation","221","1025705","0.0-4.0-2.0-0.49","spark_pilot_norest","8779","1","22","Female","","","false","","","","[661.7999999970198]","./assets/img/ocean/catch/2.jpg","[""spaceBar""]","value training","ocean","0","{""ArrowUp,ArrowLeft"":26,""ArrowUp,ArrowRight"":10,""ArrowDown,ArrowLeft"":5,""ArrowDown,ArrowRight"":17}","true","spaceBar","true","original","1","98","","",""
"html-keyboard-response","222","1026209","0.0-4.0-2.0-1.49","spark_pilot_norest","8779","1","22","Female","","","","","","","null","<div style=""font-size:60px;"">+</div>","null","fixation","","","","","","","","","99","","",""
"learning-instructions","223","1042398","0.0-4.0-3.0-0.0","spark_pilot_norest","8779","1","22","Female","","","","","","","3091.5999999940395","<p> Now, you will travel with a friend who will choose whether you go up or down first. </p>
            <p> On these turns, you will just see the animal that they found. You will still get to choose which chest to search for treasure.</p>","","instructions","","","","","","","","","","","",""
"revaluation","224","1046415","0.0-4.0-4.0-0.0","spark_pilot_norest","8779","1","22","Female","","","false","","","","[1338.1000000089407]","./assets/img/ocean/animals/octopus.jpg","[""ArrowRight""]","revaluation","ocean","10","{""ArrowUp,ArrowLeft"":26,""ArrowUp,ArrowRight"":10,""ArrowDown,ArrowLeft"":5,""ArrowDown,ArrowRight"":17}","false","ArrowUp,ArrowRight","","original","1","0","","",""
"html-keyboard-response","225","1046919","0.0-4.0-4.0-1.0","spark_pilot_norest","8779","1","22","Female","","","","","","","null","<div style=""font-size:60px;"">+</div>","null","fixation","","","","","","","","","1","","",""
"revaluation","226","1050960","0.0-4.0-4.0-0.1","spark_pilot_norest","8779","1","22","Female","","","false","","","","[1398]","./assets/img/ocean/animals/seahorse.jpg","[""ArrowLeft""]","revaluation","ocean","5","{""ArrowUp,ArrowLeft"":26,""ArrowUp,ArrowRight"":10,""ArrowDown,ArrowLeft"":5,""ArrowDown,ArrowRight"":17}","false","ArrowDown,ArrowLeft","","original","1","2","","",""
"html-keyboard-response","227","1051467","0.0-4.0-4.0-1.1","spark_pilot_norest","8779","1","22","Female","","","","","","","null","<div style=""font-size:60px;"">+</div>","null","fixation","","","","","","","","","3","","",""
"revaluation","228","1055504","0.0-4.0-4.0-0.2","spark_pilot_norest","8779","1","22","Female","","","false","","","","[1006]","./assets/img/ocean/animals/octopus.jpg","[""ArrowLeft""]","revaluation","ocean","26","{""ArrowUp,ArrowLeft"":26,""ArrowUp,ArrowRight"":10,""ArrowDown,ArrowLeft"":5,""ArrowDown,ArrowRight"":17}","true","ArrowUp,ArrowLeft","","original","1","4","","",""
"html-keyboard-response","229","1056007","0.0-4.0-4.0-1.2","spark_pilot_norest","8779","1","22","Female","","","","","","","null","<div style=""font-size:60px;"">+</div>","null","fixation","","","","","","","","","5","","",""
"revaluation","230","1060048","0.0-4.0-4.0-0.3","spark_pilot_norest","8779","1","22","Female","","","false","","","","[771]","./assets/img/ocean/animals/octopus.jpg","[""ArrowLeft""]","revaluation","ocean","26","{""ArrowUp,ArrowLeft"":26,""ArrowUp,ArrowRight"":10,""ArrowDown,ArrowLeft"":5,""ArrowDown,ArrowRight"":17}","true","ArrowUp,ArrowLeft","","original","1","6","","",""
"html-keyboard-response","231","1060552","0.0-4.0-4.0-1.3","spark_pilot_norest","8779","1","22","Female","","","","","","","null","<div style=""font-size:60px;"">+</div>","null","fixation","","","","","","","","","7","","",""
"revaluation","232","1064592","0.0-4.0-4.0-0.4","spark_pilot_norest","8779","1","22","Female","","","false","","","","[505.6000000089407]","./assets/img/ocean/animals/seahorse.jpg","[""ArrowRight""]","revaluation","ocean","17","{""ArrowUp,ArrowLeft"":26,""ArrowUp,ArrowRight"":10,""ArrowDown,ArrowLeft"":5,""ArrowDown,ArrowRight"":17}","true","ArrowDown,ArrowRight","","original","1","8","","",""
"html-keyboard-response","233","1065097","0.0-4.0-4.0-1.4","spark_pilot_norest","8779","1","22","Female","","","","","","","null","<div style=""font-size:60px;"">+</div>","null","fixation","","","","","","","","","9","","",""
"revaluation","234","1069145","0.0-4.0-4.0-0.5","spark_pilot_norest","8779","1","22","Female","","","false","","","","[797.8999999910593]","./assets/img/ocean/animals/octopus.jpg","[""ArrowLeft""]","revaluation","ocean","26","{""ArrowUp,ArrowLeft"":26,""ArrowUp,ArrowRight"":10,""ArrowDown,ArrowLeft"":5,""ArrowDown,ArrowRight"":17}","true","ArrowUp,ArrowLeft","","original","1","10","","",""
"html-keyboard-response","235","1069648","0.0-4.0-4.0-1.5","spark_pilot_norest","8779","1","22","Female","","","","","","","null","<div style=""font-size:60px;"">+</div>","null","fixation","","","","","","","","","11","","",""
"revaluation","236","1073691","0.0-4.0-4.0-0.6","spark_pilot_norest","8779","1","22","Female","","","false","","","","[779.2000000029802]","./assets/img/ocean/animals/octopus.jpg","[""ArrowLeft""]","revaluation","ocean","26","{""ArrowUp,ArrowLeft"":26,""ArrowUp,ArrowRight"":10,""ArrowDown,ArrowLeft"":5,""ArrowDown,ArrowRight"":17}","true","ArrowUp,ArrowLeft","","original","1","12","","",""
"html-keyboard-response","237","1074203","0.0-4.0-4.0-1.6","spark_pilot_norest","8779","1","22","Female","","","","","","","null","<div style=""font-size:60px;"">+</div>","null","fixation","","","","","","","","","13","","",""
"revaluation","238","1078243","0.0-4.0-4.0-0.7","spark_pilot_norest","8779","1","22","Female","","","false","","","","[561.3000000119209]","./assets/img/ocean/animals/seahorse.jpg","[""ArrowRight""]","revaluation","ocean","17","{""ArrowUp,ArrowLeft"":26,""ArrowUp,ArrowRight"":10,""ArrowDown,ArrowLeft"":5,""ArrowDown,ArrowRight"":17}","true","ArrowDown,ArrowRight","","original","1","14","","",""
"html-keyboard-response","239","1078751","0.0-4.0-4.0-1.7","spark_pilot_norest","8779","1","22","Female","","","","","","","null","<div style=""font-size:60px;"">+</div>","null","fixation","","","","","","","","","15","","",""
"revaluation","240","1082795","0.0-4.0-4.0-0.8","spark_pilot_norest","8779","1","22","Female","","","false","","","","[637.1000000089407]","./assets/img/ocean/animals/octopus.jpg","[""ArrowLeft""]","revaluation","ocean","26","{""ArrowUp,ArrowLeft"":26,""ArrowUp,ArrowRight"":10,""ArrowDown,ArrowLeft"":5,""ArrowDown,ArrowRight"":17}","true","ArrowUp,ArrowLeft","","original","1","16","","",""
"html-keyboard-response","241","1083308","0.0-4.0-4.0-1.8","spark_pilot_norest","8779","1","22","Female","","","","","","","null","<div style=""font-size:60px;"">+</div>","null","fixation","","","","","","","","","17","","",""
"revaluation","242","1087344","0.0-4.0-4.0-0.9","spark_pilot_norest","8779","1","22","Female","","","false","","","","[629.2000000029802]","./assets/img/ocean/animals/octopus.jpg","[""ArrowLeft""]","revaluation","ocean","26","{""ArrowUp,ArrowLeft"":26,""ArrowUp,ArrowRight"":10,""ArrowDown,ArrowLeft"":5,""ArrowDown,ArrowRight"":17}","true","ArrowUp,ArrowLeft","","original","1","18","","",""
"html-keyboard-response","243","1087850","0.0-4.0-4.0-1.9","spark_pilot_norest","8779","1","22","Female","","","","","","","null","<div style=""font-size:60px;"">+</div>","null","fixation","","","","","","","","","19","","",""
"revaluation","244","1091888","0.0-4.0-4.0-0.10","spark_pilot_norest","8779","1","22","Female","","","false","","","","[594.0999999940395]","./assets/img/ocean/animals/seahorse.jpg","[""ArrowRight""]","revaluation","ocean","17","{""ArrowUp,ArrowLeft"":26,""ArrowUp,ArrowRight"":10,""ArrowDown,ArrowLeft"":5,""ArrowDown,ArrowRight"":17}","true","ArrowDown,ArrowRight","","original","1","20","","",""
"html-keyboard-response","245","1092394","0.0-4.0-4.0-1.10","spark_pilot_norest","8779","1","22","Female","","","","","","","null","<div style=""font-size:60px;"">+</div>","null","fixation","","","","","","","","","21","","",""
"revaluation","246","1096434","0.0-4.0-4.0-0.11","spark_pilot_norest","8779","1","22","Female","","","false","","","","[403.90000000596046]","./assets/img/ocean/animals/seahorse.jpg","[""ArrowRight""]","revaluation","ocean","17","{""ArrowUp,ArrowLeft"":26,""ArrowUp,ArrowRight"":10,""ArrowDown,ArrowLeft"":5,""ArrowDown,ArrowRight"":17}","true","ArrowDown,ArrowRight","","original","1","22","","",""
"html-keyboard-response","247","1096938","0.0-4.0-4.0-1.11","spark_pilot_norest","8779","1","22","Female","","","","","","","null","<div style=""font-size:60px;"">+</div>","null","fixation","","","","","","","","","23","","",""
"revaluation","248","1100978","0.0-4.0-4.0-0.12","spark_pilot_norest","8779","1","22","Female","","","false","","","","[708.3999999910593]","./assets/img/ocean/animals/octopus.jpg","[""ArrowLeft""]","revaluation","ocean","26","{""ArrowUp,ArrowLeft"":26,""ArrowUp,ArrowRight"":10,""ArrowDown,ArrowLeft"":5,""ArrowDown,ArrowRight"":17}","true","ArrowUp,ArrowLeft","","original","1","24","","",""
"html-keyboard-response","249","1101483","0.0-4.0-4.0-1.12","spark_pilot_norest","8779","1","22","Female","","","","","","","null","<div style=""font-size:60px;"">+</div>","null","fixation","","","","","","","","","25","","",""
"revaluation","250","1105520","0.0-4.0-4.0-0.13","spark_pilot_norest","8779","1","22","Female","","","false","","","","[720.3999999910593]","./assets/img/ocean/animals/octopus.jpg","[""ArrowLeft""]","revaluation","ocean","26","{""ArrowUp,ArrowLeft"":26,""ArrowUp,ArrowRight"":10,""ArrowDown,ArrowLeft"":5,""ArrowDown,ArrowRight"":17}","true","ArrowUp,ArrowLeft","","original","1","26","","",""
"html-keyboard-response","251","1106027","0.0-4.0-4.0-1.13","spark_pilot_norest","8779","1","22","Female","","","","","","","null","<div style=""font-size:60px;"">+</div>","null","fixation","","","","","","","","","27","","",""
"revaluation","252","1110064","0.0-4.0-4.0-0.14","spark_pilot_norest","8779","1","22","Female","","","false","","","","[759.4000000059605]","./assets/img/ocean/animals/seahorse.jpg","[""ArrowRight""]","revaluation","ocean","17","{""ArrowUp,ArrowLeft"":26,""ArrowUp,ArrowRight"":10,""ArrowDown,ArrowLeft"":5,""ArrowDown,ArrowRight"":17}","true","ArrowDown,ArrowRight","","original","1","28","","",""
"html-keyboard-response","253","1110569","0.0-4.0-4.0-1.14","spark_pilot_norest","8779","1","22","Female","","","","","","","null","<div style=""font-size:60px;"">+</div>","null","fixation","","","","","","","","","29","","",""
"revaluation","254","1114609","0.0-4.0-4.0-0.15","spark_pilot_norest","8779","1","22","Female","","","false","","","","[535.2000000029802]","./assets/img/ocean/animals/seahorse.jpg","[""ArrowRight""]","revaluation","ocean","17","{""ArrowUp,ArrowLeft"":26,""ArrowUp,ArrowRight"":10,""ArrowDown,ArrowLeft"":5,""ArrowDown,ArrowRight"":17}","true","ArrowDown,ArrowRight","","original","1","30","","",""
"html-keyboard-response","255","1115114","0.0-4.0-4.0-1.15","spark_pilot_norest","8779","1","22","Female","","","","","","","null","<div style=""font-size:60px;"">+</div>","null","fixation","","","","","","","","","31","","",""
"revaluation","256","1119153","0.0-4.0-4.0-0.16","spark_pilot_norest","8779","1","22","Female","","","false","","","","[552.1000000089407]","./assets/img/ocean/animals/seahorse.jpg","[""ArrowRight""]","revaluation","ocean","17","{""ArrowUp,ArrowLeft"":26,""ArrowUp,ArrowRight"":10,""ArrowDown,ArrowLeft"":5,""ArrowDown,ArrowRight"":17}","true","ArrowDown,ArrowRight","","original","1","32","","",""
"html-keyboard-response","257","1119661","0.0-4.0-4.0-1.16","spark_pilot_norest","8779","1","22","Female","","","","","","","null","<div style=""font-size:60px;"">+</div>","null","fixation","","","","","","","","","33","","",""
"revaluation","258","1123696","0.0-4.0-4.0-0.17","spark_pilot_norest","8779","1","22","Female","","","false","","","","[533.2000000029802]","./assets/img/ocean/animals/seahorse.jpg","[""ArrowRight""]","revaluation","ocean","17","{""ArrowUp,ArrowLeft"":26,""ArrowUp,ArrowRight"":10,""ArrowDown,ArrowLeft"":5,""ArrowDown,ArrowRight"":17}","true","ArrowDown,ArrowRight","","original","1","34","","",""
"html-keyboard-response","259","1124203","0.0-4.0-4.0-1.17","spark_pilot_norest","8779","1","22","Female","","","","","","","null","<div style=""font-size:60px;"">+</div>","null","fixation","","","","","","","","","35","","",""
"learning-instructions","260","1132504","0.0-4.0-5.0-0.0","spark_pilot_norest","8779","1","22","Female","","","","","","","null","<p> You have almost finished this part of the game! </p>
            <p> We are going to ask you to make a few more choices. </p>","","instructions","","","","","","","","","","","",""
"learning-instructions","261","1148492","0.0-4.0-5.0-0.1","spark_pilot_norest","8779","1","22","Female","","","","","","","null","<p> First, you need to decide whether to go up or down. When you see each picture, use the arrow keys to make your choice. </p>
            <p><b>You will not see which animal you found, but try to get to the one that will give you the most treasure.</b></p>","","instructions","","","","","","","","","","","",""
"html-keyboard-response","262","1149499","0.0-4.0-6.0-0.0","spark_pilot_norest","8779","1","22","Female","","","","","","","null","<div style=""font-size:100px;color:red;"">Starting in...</div>","null","","","","","","","","","","","","",""
"html-keyboard-response","263","1150505","0.0-4.0-6.0-1.0","spark_pilot_norest","8779","1","22","Female","","","","","","","null","<div style=""font-size:200px;color:red;"">3</div>","null","","","","","","","","","","","","",""
"html-keyboard-response","264","1151512","0.0-4.0-6.0-2.0","spark_pilot_norest","8779","1","22","Female","","","","","","","null","<div style=""font-size:200px;color:red;"">2</div>","null","","","","","","","","","","","","",""
"html-keyboard-response","265","1152521","0.0-4.0-6.0-3.0","spark_pilot_norest","8779","1","22","Female","","","","","","","null","<div style=""font-size:200px;color:red;"">1</div>","null","","","","","","","","","","","","",""
"revaluation","266","1153205","0.0-4.0-7.0-0.0","spark_pilot_norest","8779","1","22","Female","","","false","","","","[656.9000000059605]","./assets/img/ocean/test/2.jpg","[""ArrowUp""]","first stage test","ocean","0","{""ArrowUp,ArrowLeft"":26,""ArrowUp,ArrowRight"":10,""ArrowDown,ArrowLeft"":5,""ArrowDown,ArrowRight"":17}","true","ArrowUp","false","original","1","","","",""
"html-keyboard-response","267","1153713","0.0-4.0-7.0-1.0","spark_pilot_norest","8779","1","22","Female","","","","","","","null","<div style=""font-size:60px;"">+</div>","null","fixation","","","","","","","","","","","",""
"revaluation","268","1155175","0.0-4.0-7.0-0.1","spark_pilot_norest","8779","1","22","Female","","","false","","","","[1437.7000000029802]","./assets/img/ocean/test/1.jpg","[""ArrowUp""]","first stage test","ocean","0","{""ArrowUp,ArrowLeft"":26,""ArrowUp,ArrowRight"":10,""ArrowDown,ArrowLeft"":5,""ArrowDown,ArrowRight"":17}","true","ArrowUp","false","original","1","","","",""
"html-keyboard-response","269","1155681","0.0-4.0-7.0-1.1","spark_pilot_norest","8779","1","22","Female","","","","","","","null","<div style=""font-size:60px;"">+</div>","null","fixation","","","","","","","","","","","",""
"revaluation","270","1156524","0.0-4.0-7.0-0.2","spark_pilot_norest","8779","1","22","Female","","","false","","","","[818.5]","./assets/img/ocean/test/3.jpg","[""ArrowUp""]","first stage test","ocean","0","{""ArrowUp,ArrowLeft"":26,""ArrowUp,ArrowRight"":10,""ArrowDown,ArrowLeft"":5,""ArrowDown,ArrowRight"":17}","true","ArrowUp","false","original","1","","","",""
"html-keyboard-response","271","1157035","0.0-4.0-7.0-1.2","spark_pilot_norest","8779","1","22","Female","","","","","","","null","<div style=""font-size:60px;"">+</div>","null","fixation","","","","","","","","","","","",""
"revaluation","272","1158623","0.0-4.0-7.0-0.3","spark_pilot_norest","8779","1","22","Female","","","false","","","","[1564.2999999970198]","./assets/img/ocean/test/0.jpg","[""ArrowUp""]","first stage test","ocean","0","{""ArrowUp,ArrowLeft"":26,""ArrowUp,ArrowRight"":10,""ArrowDown,ArrowLeft"":5,""ArrowDown,ArrowRight"":17}","true","ArrowUp","false","original","1","","","",""
"html-keyboard-response","273","1159125","0.0-4.0-7.0-1.3","spark_pilot_norest","8779","1","22","Female","","","","","","","null","<div style=""font-size:60px;"">+</div>","null","fixation","","","","","","","","","","","",""
"learning-instructions","274","1172481","0.0-4.0-8.0-0.0","spark_pilot_norest","8779","1","22","Female","","","","","","","null","<p> Now you will see the animals again and can search their chests for treasure. </p>
            <p> This time, you will not see how much treasure you earned, but you will earn more bonus money for making better choices. </p>","","instructions","","","","","","","","","","","",""
"html-keyboard-response","275","1173489","0.0-4.0-9.0-0.0","spark_pilot_norest","8779","1","22","Female","","","","","","","null","<div style=""font-size:100px;color:red;"">Starting in...</div>","null","","","","","","","","","","","","",""
"html-keyboard-response","276","1174499","0.0-4.0-9.0-1.0","spark_pilot_norest","8779","1","22","Female","","","","","","","null","<div style=""font-size:200px;color:red;"">3</div>","null","","","","","","","","","","","","",""
"html-keyboard-response","277","1175505","0.0-4.0-9.0-2.0","spark_pilot_norest","8779","1","22","Female","","","","","","","null","<div style=""font-size:200px;color:red;"">2</div>","null","","","","","","","","","","","","",""
"html-keyboard-response","278","1176514","0.0-4.0-9.0-3.0","spark_pilot_norest","8779","1","22","Female","","","","","","","null","<div style=""font-size:200px;color:red;"">1</div>","null","","","","","","","","","","","","",""
"revaluation","279","1178132","0.0-4.0-10.0-0.0","spark_pilot_norest","8779","1","22","Female","","","false","","","","[1590.2999999970198]","./assets/img/ocean/animals/octopus.jpg","[""ArrowLeft""]","second stage test","ocean","0","{""ArrowUp,ArrowLeft"":26,""ArrowUp,ArrowRight"":10,""ArrowDown,ArrowLeft"":5,""ArrowDown,ArrowRight"":17}","true","ArrowUp,ArrowLeft","","original","1","","","",""
"html-keyboard-response","280","1178643","0.0-4.0-10.0-1.0","spark_pilot_norest","8779","1","22","Female","","","","","","","null","<div style=""font-size:60px;"">+</div>","null","fixation","","","","","","","","","","","",""
"revaluation","281","1179835","0.0-4.0-10.0-0.1","spark_pilot_norest","8779","1","22","Female","","","false","","","","[1166.7999999970198]","./assets/img/ocean/animals/octopus.jpg","[""ArrowLeft""]","second stage test","ocean","0","{""ArrowUp,ArrowLeft"":26,""ArrowUp,ArrowRight"":10,""ArrowDown,ArrowLeft"":5,""ArrowDown,ArrowRight"":17}","true","ArrowUp,ArrowLeft","","original","1","","","",""
"html-keyboard-response","282","1180337","0.0-4.0-10.0-1.1","spark_pilot_norest","8779","1","22","Female","","","","","","","null","<div style=""font-size:60px;"">+</div>","null","fixation","","","","","","","","","","","",""
"revaluation","283","1181121","0.0-4.0-10.0-0.2","spark_pilot_norest","8779","1","22","Female","","","false","","","","[759.7999999970198]","./assets/img/ocean/animals/octopus.jpg","[""ArrowLeft""]","second stage test","ocean","0","{""ArrowUp,ArrowLeft"":26,""ArrowUp,ArrowRight"":10,""ArrowDown,ArrowLeft"":5,""ArrowDown,ArrowRight"":17}","true","ArrowUp,ArrowLeft","","original","1","","","",""
"html-keyboard-response","284","1181626","0.0-4.0-10.0-1.2","spark_pilot_norest","8779","1","22","Female","","","","","","","null","<div style=""font-size:60px;"">+</div>","null","fixation","","","","","","","","","","","",""
"revaluation","285","1182445","0.0-4.0-10.0-0.3","spark_pilot_norest","8779","1","22","Female","","","false","","","","[795.1000000089407]","./assets/img/ocean/animals/octopus.jpg","[""ArrowLeft""]","second stage test","ocean","0","{""ArrowUp,ArrowLeft"":26,""ArrowUp,ArrowRight"":10,""ArrowDown,ArrowLeft"":5,""ArrowDown,ArrowRight"":17}","true","ArrowUp,ArrowLeft","","original","1","","","",""
"html-keyboard-response","286","1182947","0.0-4.0-10.0-1.3","spark_pilot_norest","8779","1","22","Female","","","","","","","null","<div style=""font-size:60px;"">+</div>","null","fixation","","","","","","","","","","","",""
"revaluation","287","1183561","0.0-4.0-10.0-0.4","spark_pilot_norest","8779","1","22","Female","","","false","","","","[589.4000000059605]","./assets/img/ocean/animals/seahorse.jpg","[""ArrowRight""]","second stage test","ocean","0","{""ArrowUp,ArrowLeft"":26,""ArrowUp,ArrowRight"":10,""ArrowDown,ArrowLeft"":5,""ArrowDown,ArrowRight"":17}","true","ArrowDown,ArrowRight","","original","1","","","",""
"html-keyboard-response","288","1184065","0.0-4.0-10.0-1.4","spark_pilot_norest","8779","1","22","Female","","","","","","","null","<div style=""font-size:60px;"">+</div>","null","fixation","","","","","","","","","","","",""
"revaluation","289","1184508","0.0-4.0-10.0-0.5","spark_pilot_norest","8779","1","22","Female","","","false","","","","[419.1000000089407]","./assets/img/ocean/animals/seahorse.jpg","[""ArrowRight""]","second stage test","ocean","0","{""ArrowUp,ArrowLeft"":26,""ArrowUp,ArrowRight"":10,""ArrowDown,ArrowLeft"":5,""ArrowDown,ArrowRight"":17}","true","ArrowDown,ArrowRight","","original","1","","","",""
"html-keyboard-response","290","1185018","0.0-4.0-10.0-1.5","spark_pilot_norest","8779","1","22","Female","","","","","","","null","<div style=""font-size:60px;"">+</div>","null","fixation","","","","","","","","","","","",""
"revaluation","291","1185445","0.0-4.0-10.0-0.6","spark_pilot_norest","8779","1","22","Female","","","false","","","","[403.5]","./assets/img/ocean/animals/seahorse.jpg","[""ArrowRight""]","second stage test","ocean","0","{""ArrowUp,ArrowLeft"":26,""ArrowUp,ArrowRight"":10,""ArrowDown,ArrowLeft"":5,""ArrowDown,ArrowRight"":17}","true","ArrowDown,ArrowRight","","original","1","","","",""
"html-keyboard-response","292","1185953","0.0-4.0-10.0-1.6","spark_pilot_norest","8779","1","22","Female","","","","","","","null","<div style=""font-size:60px;"">+</div>","null","fixation","","","","","","","","","","","",""
"revaluation","293","1186406","0.0-4.0-10.0-0.7","spark_pilot_norest","8779","1","22","Female","","","false","","","","[427.70000000298023]","./assets/img/ocean/animals/seahorse.jpg","[""ArrowRight""]","second stage test","ocean","0","{""ArrowUp,ArrowLeft"":26,""ArrowUp,ArrowRight"":10,""ArrowDown,ArrowLeft"":5,""ArrowDown,ArrowRight"":17}","true","ArrowDown,ArrowRight","","original","1","","","",""
"html-keyboard-response","294","1186908","0.0-4.0-10.0-1.7","spark_pilot_norest","8779","1","22","Female","","","","","","","null","<div style=""font-size:60px;"">+</div>","null","fixation","","","","","","","","","","","",""
"learning-instructions","295","1191291","0.0-4.0-0.1-0.2","spark_pilot_norest","8779","1","22","Female","","","","","","","1587.800000011921","<p> This time you are searching for treasure in the <b>canyon</b>.</p>","","instructions","","","","","","","","","","","",""
"learning-instructions","296","1213242","0.0-4.0-0.1-0.3","spark_pilot_norest","8779","1","22","Female","","","","","","","4696.20000000298","<p><b>New</b> animals with <b>new</b> treasure chests live here. You need to explore to discover where the animal with the best treasure chest is.</p>
                    <p> Like before, once you figure out which animal has the chest with the most treasure, you should try to get to that animal and select that chest! </p>","","instructions","","","","","","","","","","","",""
"learning-instructions","297","1229525","0.0-4.0-1.1-0.1","spark_pilot_norest","8779","1","22","Female","","","","","","","1555.4000000059605","<p> Remember, when you see a picture of the place, use the up and down keys to <b>find an animal</b>.</p>
            <p> When you encounter an animal, you should use the left and right keys to <b>select a treasure chest</b>.</p>
            <p> Don't forget to look out for the robber! </p>","","instructions","","","","","","","","","","","",""
"revaluation","298","1235545","0.0-4.0-2.1-0.50","spark_pilot_norest","8779","1","22","Female","","","false","","","","[1631.9000000059605,1284.6000000089407]","./assets/img/canyon/memory/16.jpg","[""ArrowUp"",""ArrowLeft""]","value training","canyon","23","{""ArrowUp,ArrowLeft"":23,""ArrowUp,ArrowRight"":10,""ArrowDown,ArrowLeft"":8,""ArrowDown,ArrowRight"":30}","false","ArrowUp,ArrowLeft","false","revaluation","2","0","","",""
"html-keyboard-response","299","1236050","0.0-4.0-2.1-1.50","spark_pilot_norest","8779","1","22","Female","","","","","","","null","<div style=""font-size:60px;"">+</div>","null","fixation","","","","","","","","","1","","",""
"revaluation","300","1240089","0.0-4.0-2.1-0.51","spark_pilot_norest","8779","1","22","Female","","","false","","","","[584.2999999970198]","./assets/img/canyon/catch/1.jpg","[""spaceBar""]","value training","canyon","0","{""ArrowUp,ArrowLeft"":23,""ArrowUp,ArrowRight"":10,""ArrowDown,ArrowLeft"":8,""ArrowDown,ArrowRight"":30}","true","spaceBar","true","revaluation","2","2","","",""
"html-keyboard-response","301","1240594","0.0-4.0-2.1-1.51","spark_pilot_norest","8779","1","22","Female","","","","","","","null","<div style=""font-size:60px;"">+</div>","null","fixation","","","","","","","","","3","","",""
"revaluation","302","1246651","0.0-4.0-2.1-0.52","spark_pilot_norest","8779","1","22","Female","","","false","","","","[619.1999999880791,515.1000000089407]","./assets/img/canyon/memory/1.jpg","[""ArrowUp"",""ArrowRight""]","value training","canyon","10","{""ArrowUp,ArrowLeft"":23,""ArrowUp,ArrowRight"":10,""ArrowDown,ArrowLeft"":8,""ArrowDown,ArrowRight"":30}","false","ArrowUp,ArrowRight","false","revaluation","2","4","","",""
"html-keyboard-response","303","1247153","0.0-4.0-2.1-1.52","spark_pilot_norest","8779","1","22","Female","","","","","","","null","<div style=""font-size:60px;"">+</div>","null","fixation","","","","","","","","","5","","",""
"revaluation","304","1253202","0.0-4.0-2.1-0.53","spark_pilot_norest","8779","1","22","Female","","","false","","","","[667.4000000059605,483.79999999701977]","./assets/img/canyon/memory/31.jpg","[""ArrowUp"",""ArrowLeft""]","value training","canyon","23","{""ArrowUp,ArrowLeft"":23,""ArrowUp,ArrowRight"":10,""ArrowDown,ArrowLeft"":8,""ArrowDown,ArrowRight"":30}","false","ArrowUp,ArrowLeft","false","revaluation","2","6","","",""
"html-keyboard-response","305","1253707","0.0-4.0-2.1-1.53","spark_pilot_norest","8779","1","22","Female","","","","","","","null","<div style=""font-size:60px;"">+</div>","null","fixation","","","","","","","","","7","","",""
"revaluation","306","1257746","0.0-4.0-2.1-0.54","spark_pilot_norest","8779","1","22","Female","","","false","","","","[724.8999999910593]","./assets/img/canyon/catch/6.jpg","[""spaceBar""]","value training","canyon","0","{""ArrowUp,ArrowLeft"":23,""ArrowUp,ArrowRight"":10,""ArrowDown,ArrowLeft"":8,""ArrowDown,ArrowRight"":30}","true","spaceBar","true","revaluation","2","8","","",""
"html-keyboard-response","307","1258253","0.0-4.0-2.1-1.54","spark_pilot_norest","8779","1","22","Female","","","","","","","null","<div style=""font-size:60px;"">+</div>","null","fixation","","","","","","","","","9","","",""
"revaluation","308","1264302","0.0-4.0-2.1-0.55","spark_pilot_norest","8779","1","22","Female","","","false","","","","[829.9000000059605,1026.7000000029802]","./assets/img/canyon/memory/35.jpg","[""ArrowDown"",""ArrowRight""]","value training","canyon","30","{""ArrowUp,ArrowLeft"":23,""ArrowUp,ArrowRight"":10,""ArrowDown,ArrowLeft"":8,""ArrowDown,ArrowRight"":30}","true","ArrowDown,ArrowRight","false","revaluation","2","10","","",""
"html-keyboard-response","309","1264814","0.0-4.0-2.1-1.55","spark_pilot_norest","8779","1","22","Female","","","","","","","null","<div style=""font-size:60px;"">+</div>","null","fixation","","","","","","","","","11","","",""
"revaluation","310","1270862","0.0-4.0-2.1-0.56","spark_pilot_norest","8779","1","22","Female","","","false","","","","[541.9000000059605,374.09999999403954]","./assets/img/canyon/memory/35.jpg","[""ArrowDown"",""ArrowLeft""]","value training","canyon","8","{""ArrowUp,ArrowLeft"":23,""ArrowUp,ArrowRight"":10,""ArrowDown,ArrowLeft"":8,""ArrowDown,ArrowRight"":30}","false","ArrowDown,ArrowLeft","false","revaluation","2","12","","",""
"html-keyboard-response","311","1271373","0.0-4.0-2.1-1.56","spark_pilot_norest","8779","1","22","Female","","","","","","","null","<div style=""font-size:60px;"">+</div>","null","fixation","","","","","","","","","13","","",""
