"trial_type","trial_index","time_elapsed","internal_node_id","task_version","subject_id","assigned_condition","age","gender","success","timeout","failed_images","failed_audio","failed_video","browser_interaction","rt","stimulus","response","task_part","environment","score","rewardMap","correct","fullState","isCatch","condition","order","trial_num","key_press","ground_truth","bonus"
"pavlovia","0","1545","0.0-0.0","spark_pilot_norest","8324","8","12","Female","","","","","","","","","","","","","","","","","","","","","",""
"preload","1","21392","0.0-1.0","spark_pilot_norest","8324","8","12","Female","true","false","[]","[]","[]","[{""event"":""fullscreenenter"",""trial"":2,""time"":24984}]","","","","","","","","","","","","","","","",""
"fullscreen","2","25931","0.0-2.0","spark_pilot_norest","8324","8","12","Female","true","","","","","","","","","","","","","","","","","","","","",""
"audio-button-response","3","27726","0.0-3.0-0.0-0.0","spark_pilot_norest","8324","8","12","Female","","","","","","","1389","./assets/audio/audiotest/turtle.mp3","2","audio_test","","","","","","","","","","","",""
"learning-instructions","4","36799","0.0-3.0-1.0-0.0","spark_pilot_norest","8324","8","12","Female","","","","","","","1410.0999999046326","<p> Welcome! Please remember to stay in fullscreen mode and don't click away from the experiment. </p>","","instructions","","","","","","","","","","","",""
"learning-instructions","5","46557","0.0-3.0-1.0-0.1","spark_pilot_norest","8324","8","12","Female","","","","","","","588","<p> Today you will be playing a game to earn treasure. </p>
            <p> At the end of the experiment, you will earn a bonus based on how much treasure you find. </p>
            <img src='./assets/img/instructions/treasure.jpg' class='instructions-image'>","","instructions","","","","","","","","","","","",""
"learning-instructions","6","56527","0.0-3.0-1.0-0.2","spark_pilot_norest","8324","8","12","Female","","","","","","","957.8999998569489","<p> Animals have hidden treasure in treasure chests. </p>
            <p> You need to first find an animal and then choose which of their treasure chests to search. </p>
            <img src='./assets/img/space/animals/cat.jpg' class='instructions-image'>","","instructions","","","","","","","","","","","",""
"learning-instructions","7","71775","0.0-3.0-1.0-0.3","spark_pilot_norest","8324","8","12","Female","","","","","","","1065.7000000476837","<p> In each round, you will search for treasure in a different place. In the real game, there will be two rounds. </p>
            <p> You will begin with a separate, practice round where you will search for treasure in outer space. </p>
            <img src='./assets/img/space/0.jpg' class='instructions-image'>","","instructions","","","","","","","","","","","",""
"learning-instructions","8","85014","0.0-3.0-1.0-0.4","spark_pilot_norest","8324","8","12","Female","","","","","","","874.4000000953674","<p> On every turn, you will see a picture of the place that you are in, but the specific image may be different each time. </p>
            <p> For example, both of these images mean you are in outer space. </p>
            <img src='./assets/img/instructions/outerspace.jpg' class='instructions-image'>","","instructions","","","","","","","","","","","",""
"learning-instructions","9","94809","0.0-3.0-1.0-0.5","spark_pilot_norest","8324","8","12","Female","","","","","","","1188.7000000476837","<p> You need to decide which direction to travel in. </p>
            <p> You can choose between going <b>up or down</b> by using the arrow keys. </p>
            <img src='./assets/img/instructions/updown.jpg' class='instructions-image'>","","instructions","","","","","","","","","","","",""
"learning-instructions","10","105518","0.0-3.0-1.0-0.6","spark_pilot_norest","8324","8","12","Female","","","","","","","1028","<p> You will have <b>2 seconds</b> to make your choice. </p>
            <p> If you do not make a choice within 2 seconds, you will not find an animal or earn treasure. </p>
            <img src='./assets/img/instructions/2seconds.jpg' class='instructions-image'>","","instructions","","","","","","","","","","","",""
"learning-instructions","11","114512","0.0-3.0-1.0-0.7","spark_pilot_norest","8324","8","12","Female","","","","","","","851.5","<p> Let’s try practicing that now! </p>
            <p> When you see a picture of the place you are in, press the <b>up</b> key to travel up. </p>
            <img src='./assets/img/instructions/pressUp.jpg' class='instructions-image'>","","instructions","","","","","","","","","","","",""
"revaluation","12","118542","0.0-3.0-2.0-0.0","spark_pilot_norest","8324","8","12","Female","","false","","","","","[1071.0999999046326]","./assets/img/space/0.jpg","[""ArrowUp""]","first stage practice","space","0","null","null","ArrowUp","false","","","","","",""
"html-keyboard-response","13","119052","0.0-3.0-2.0-1.0","spark_pilot_norest","8324","8","12","Female","","","","","","","null","<div style=""font-size:60px;"">+</div>","null","fixation","","","","","","","","","","","",""
"revaluation","14","123079","0.0-3.0-2.0-0.1","spark_pilot_norest","8324","8","12","Female","","false","","","","","[703.2999999523163]","./assets/img/space/1.jpg","[""ArrowUp""]","first stage practice","space","0","null","null","ArrowUp","false","","","","","",""
"html-keyboard-response","15","123589","0.0-3.0-2.0-1.1","spark_pilot_norest","8324","8","12","Female","","","","","","","null","<div style=""font-size:60px;"">+</div>","null","fixation","","","","","","","","","","","",""
"revaluation","16","127617","0.0-3.0-2.0-0.2","spark_pilot_norest","8324","8","12","Female","","false","","","","","[619.9000000953674]","./assets/img/space/2.jpg","[""ArrowUp""]","first stage practice","space","0","null","null","ArrowUp","false","","","","","",""
"html-keyboard-response","17","128130","0.0-3.0-2.0-1.2","spark_pilot_norest","8324","8","12","Female","","","","","","","null","<div style=""font-size:60px;"">+</div>","null","fixation","","","","","","","","","","","",""
"learning-instructions","18","134740","0.0-3.0-3.0-0.0","spark_pilot_norest","8324","8","12","Female","","","","","","","1109.9000000953674","<p> Great job! Now try pressing the <b>down</b> key to travel down. </p>
            <img src='./assets/img/instructions/pressDown.jpg' class='instructions-image'>","","instructions","","","","","","","","","","","",""
"revaluation","19","138766","0.0-3.0-4.0-0.0","spark_pilot_norest","8324","8","12","Female","","false","","","","","[619]","./assets/img/space/3.jpg","[""ArrowDown""]","first stage practice","space","0","null","null","ArrowDown","false","","","","","",""
"html-keyboard-response","20","139279","0.0-3.0-4.0-1.0","spark_pilot_norest","8324","8","12","Female","","","","","","","null","<div style=""font-size:60px;"">+</div>","null","fixation","","","","","","","","","","","",""
"revaluation","21","143290","0.0-3.0-4.0-0.1","spark_pilot_norest","8324","8","12","Female","","false","","","","","[648]","./assets/img/space/4.jpg","[""ArrowDown""]","first stage practice","space","0","null","null","ArrowDown","false","","","","","",""
"html-keyboard-response","22","143801","0.0-3.0-4.0-1.1","spark_pilot_norest","8324","8","12","Female","","","","","","","null","<div style=""font-size:60px;"">+</div>","null","fixation","","","","","","","","","","","",""
"revaluation","23","147818","0.0-3.0-4.0-0.2","spark_pilot_norest","8324","8","12","Female","","false","","","","","[564.6000001430511]","./assets/img/space/5.jpg","[""ArrowDown""]","first stage practice","space","0","null","null","ArrowDown","false","","","","","",""
"html-keyboard-response","24","148330","0.0-3.0-4.0-1.2","spark_pilot_norest","8324","8","12","Female","","","","","","","null","<div style=""font-size:60px;"">+</div>","null","fixation","","","","","","","","","","","",""
"learning-instructions","25","160072","0.0-3.0-5.0-0.0","spark_pilot_norest","8324","8","12","Female","","","","","","","1102.2999999523163","<p> The animals don’t move, so the animal in the upper part of a place will stay in the upper part of a place, and the animal in the lower part of a place will stay in the lower part of a place. </p>","","instructions","","","","","","","","","","","",""
"learning-instructions","26","171426","0.0-3.0-5.0-0.1","spark_pilot_norest","8324","8","12","Female","","","","","","","1446.3000001907349","<p> Each animal has two treasure chests for you to choose from. </p>
            <p> The amount of treasure in each chest can range from <b> 0 to 40 pieces.</b></p>","","instructions","","","","","","","","","","","",""
"learning-instructions","27","184521","0.0-3.0-5.0-0.2","spark_pilot_norest","8324","8","12","Female","","","","","","","1070.7000000476837","<p> You should decide which chest to search for treasure by using the <b>left</b> and <b>right</b> arrow keys. </p>
            <p><b> Pay attention to which animal is on the screen, as the animals have different treasure chests. </b></p>
            <img src='./assets/img/instructions/leftright.jpg' class='instructions-image'>","","instructions","","","","","","","","","","","",""
"learning-instructions","28","192213","0.0-3.0-5.0-0.3","spark_pilot_norest","8324","8","12","Female","","","","","","","623","<p> Let’s try practicing that now. </p>
            <p> When you see an animal, choose which chest to search for treasure. </p>
            <img src='./assets/img/instructions/chooseChest.jpg' class='instructions-image'>","","instructions","","","","","","","","","","","",""
"revaluation","29","196226","0.0-3.0-6.0-0.0","spark_pilot_norest","8324","8","12","Female","","false","","","","","[785.5]","./assets/img/space/animals/rabbit.jpg","[""ArrowRight""]","second stage practice","space","23","{""ArrowUp,ArrowLeft"":3,""ArrowUp,ArrowRight"":36,""ArrowDown,ArrowLeft"":15,""ArrowDown,ArrowRight"":23}","true","ArrowDown,ArrowRight","","","","","","",""
"html-keyboard-response","30","196737","0.0-3.0-6.0-1.0","spark_pilot_norest","8324","8","12","Female","","","","","","","null","<div style=""font-size:60px;"">+</div>","null","fixation","","","","","","","","","","","",""
"revaluation","31","200745","0.0-3.0-6.0-0.1","spark_pilot_norest","8324","8","12","Female","","false","","","","","[649.7999999523163]","./assets/img/space/animals/cat.jpg","[""ArrowLeft""]","second stage practice","space","3","{""ArrowUp,ArrowLeft"":3,""ArrowUp,ArrowRight"":36,""ArrowDown,ArrowLeft"":15,""ArrowDown,ArrowRight"":23}","false","ArrowUp,ArrowLeft","","","","","","",""
"html-keyboard-response","32","201257","0.0-3.0-6.0-1.1","spark_pilot_norest","8324","8","12","Female","","","","","","","null","<div style=""font-size:60px;"">+</div>","null","fixation","","","","","","","","","","","",""
"revaluation","33","205279","0.0-3.0-6.0-0.2","spark_pilot_norest","8324","8","12","Female","","false","","","","","[580]","./assets/img/space/animals/rabbit.jpg","[""ArrowRight""]","second stage practice","space","23","{""ArrowUp,ArrowLeft"":3,""ArrowUp,ArrowRight"":36,""ArrowDown,ArrowLeft"":15,""ArrowDown,ArrowRight"":23}","true","ArrowDown,ArrowRight","","","","","","",""
"html-keyboard-response","34","205789","0.0-3.0-6.0-1.2","spark_pilot_norest","8324","8","12","Female","","","","","","","null","<div style=""font-size:60px;"">+</div>","null","fixation","","","","","","","","","","","",""
"revaluation","35","209809","0.0-3.0-6.0-0.3","spark_pilot_norest","8324","8","12","Female","","false","","","","","[977.5999999046326]","./assets/img/space/animals/cat.jpg","[""ArrowRight""]","second stage practice","space","36","{""ArrowUp,ArrowLeft"":3,""ArrowUp,ArrowRight"":36,""ArrowDown,ArrowLeft"":15,""ArrowDown,ArrowRight"":23}","true","ArrowUp,ArrowRight","","","","","","",""
"html-keyboard-response","36","210322","0.0-3.0-6.0-1.3","spark_pilot_norest","8324","8","12","Female","","","","","","","null","<div style=""font-size:60px;"">+</div>","null","fixation","","","","","","","","","","","",""
"learning-instructions","37","228755","0.0-3.0-7.0-0.0","spark_pilot_norest","8324","8","12","Female","","","","","","","644.9000000953674","<p> Great job. Now let’s try putting it together. </p>
            <p> On each turn, you will first see a picture to remind you of the place you are in, and you need to choose whether to go up or down. </p>
            <p> Then you will see an animal and choose which of its chests to search for treasure. </p>","","instructions","","","","","","","","","","","",""
"learning-instructions","38","238335","0.0-3.0-7.0-0.1","spark_pilot_norest","8324","8","12","Female","","","","","","","484.90000009536743","<p> When you choose whether to go up or down, try to go to the animal with the chest with the most treasure. </p>
            <p> Try practicing that now! </p>","","instructions","","","","","","","","","","","",""
"revaluation","39","244364","0.0-3.0-8.0-0.0","spark_pilot_norest","8324","8","12","Female","","false","","","","","[563.1000001430511,609.1000001430511]","./assets/img/space/6.jpg","[""ArrowUp"",""ArrowRight""]","full practice","space","36","{""ArrowUp,ArrowLeft"":3,""ArrowUp,ArrowRight"":36,""ArrowDown,ArrowLeft"":15,""ArrowDown,ArrowRight"":23}","true","ArrowUp,ArrowRight","false","","","","","",""
"html-keyboard-response","40","244876","0.0-3.0-8.0-1.0","spark_pilot_norest","8324","8","12","Female","","","","","","","null","<div style=""font-size:60px;"">+</div>","null","fixation","","","","","","","","","","","",""
"revaluation","41","250902","0.0-3.0-8.0-0.1","spark_pilot_norest","8324","8","12","Female","","false","","","","","[642.2999999523163,944.9000000953674]","./assets/img/space/7.jpg","[""ArrowDown"",""ArrowLeft""]","full practice","space","15","{""ArrowUp,ArrowLeft"":3,""ArrowUp,ArrowRight"":36,""ArrowDown,ArrowLeft"":15,""ArrowDown,ArrowRight"":23}","false","ArrowDown,ArrowLeft","false","","","","","",""
"html-keyboard-response","42","251413","0.0-3.0-8.0-1.1","spark_pilot_norest","8324","8","12","Female","","","","","","","null","<div style=""font-size:60px;"">+</div>","null","fixation","","","","","","","","","","","",""
"revaluation","43","257443","0.0-3.0-8.0-0.2","spark_pilot_norest","8324","8","12","Female","","false","","","","","[614.7999999523163,368]","./assets/img/space/8.jpg","[""ArrowUp"",""ArrowRight""]","full practice","space","36","{""ArrowUp,ArrowLeft"":3,""ArrowUp,ArrowRight"":36,""ArrowDown,ArrowLeft"":15,""ArrowDown,ArrowRight"":23}","true","ArrowUp,ArrowRight","false","","","","","",""
"html-keyboard-response","44","257952","0.0-3.0-8.0-1.2","spark_pilot_norest","8324","8","12","Female","","","","","","","null","<div style=""font-size:60px;"">+</div>","null","fixation","","","","","","","","","","","",""
"revaluation","45","263974","0.0-3.0-8.0-0.3","spark_pilot_norest","8324","8","12","Female","","false","","","","","[845.9000000953674,361.90000009536743]","./assets/img/space/9.jpg","[""ArrowUp"",""ArrowRight""]","full practice","space","36","{""ArrowUp,ArrowLeft"":3,""ArrowUp,ArrowRight"":36,""ArrowDown,ArrowLeft"":15,""ArrowDown,ArrowRight"":23}","true","ArrowUp,ArrowRight","false","","","","","",""
"html-keyboard-response","46","264489","0.0-3.0-8.0-1.3","spark_pilot_norest","8324","8","12","Female","","","","","","","null","<div style=""font-size:60px;"">+</div>","null","fixation","","","","","","","","","","","",""
"revaluation","47","270495","0.0-3.0-8.0-0.4","spark_pilot_norest","8324","8","12","Female","","false","","","","","[918.9000000953674,338.40000009536743]","./assets/img/space/10.jpg","[""ArrowUp"",""ArrowRight""]","full practice","space","36","{""ArrowUp,ArrowLeft"":3,""ArrowUp,ArrowRight"":36,""ArrowDown,ArrowLeft"":15,""ArrowDown,ArrowRight"":23}","true","ArrowUp,ArrowRight","false","","","","","",""
"html-keyboard-response","48","270997","0.0-3.0-8.0-1.4","spark_pilot_norest","8324","8","12","Female","","","","","","","null","<div style=""font-size:60px;"">+</div>","null","fixation","","","","","","","","","","","",""
"learning-instructions","49","283486","0.0-3.0-9.0-0.0","spark_pilot_norest","8324","8","12","Female","","","","","","","1098.4000000953674","<p> One last thing: sometimes, you will see a robber. The robber can be anywhere in the picture. </p>
            <p> If you do not stop them, you will lose treasure. </p>
            <img src='./assets/img/instructions/robber.jpg' class='instructions-image'>","","instructions","","","","","","","","","","","",""
"learning-instructions","50","291990","0.0-3.0-9.0-0.1","spark_pilot_norest","8324","8","12","Female","","","","","","","562.7999999523163","<p> If you see the robber, you should <b>press the space bar</b> rather than using the arrow keys. </p>
            <p> Try practicing that now! </p>","","instructions","","","","","","","","","","","",""
"revaluation","51","296015","0.0-3.0-10.0-0.0","spark_pilot_norest","8324","8","12","Female","","false","","","","","[868.7999999523163]","./assets/img/space/catch/0.jpg","[""spaceBar""]","catch practice","space","0","{""ArrowUp,ArrowLeft"":3,""ArrowUp,ArrowRight"":36,""ArrowDown,ArrowLeft"":15,""ArrowDown,ArrowRight"":23}","true","spaceBar","true","","","","","",""
"html-keyboard-response","52","296529","0.0-3.0-10.0-1.0","spark_pilot_norest","8324","8","12","Female","","","","","","","null","<div style=""font-size:60px;"">+</div>","null","fixation","","","","","","","","","","","",""
"revaluation","53","300547","0.0-3.0-10.0-0.1","spark_pilot_norest","8324","8","12","Female","","false","","","","","[548.7000000476837]","./assets/img/space/catch/1.jpg","[""spaceBar""]","catch practice","space","0","{""ArrowUp,ArrowLeft"":3,""ArrowUp,ArrowRight"":36,""ArrowDown,ArrowLeft"":15,""ArrowDown,ArrowRight"":23}","true","spaceBar","true","","","","","",""
"html-keyboard-response","54","301062","0.0-3.0-10.0-1.1","spark_pilot_norest","8324","8","12","Female","","","","","","","null","<div style=""font-size:60px;"">+</div>","null","fixation","","","","","","","","","","","",""
"revaluation","55","305075","0.0-3.0-10.0-0.2","spark_pilot_norest","8324","8","12","Female","","false","","","","","[556.7999999523163]","./assets/img/space/catch/2.jpg","[""spaceBar""]","catch practice","space","0","{""ArrowUp,ArrowLeft"":3,""ArrowUp,ArrowRight"":36,""ArrowDown,ArrowLeft"":15,""ArrowDown,ArrowRight"":23}","true","spaceBar","true","","","","","",""
"html-keyboard-response","56","305590","0.0-3.0-10.0-1.2","spark_pilot_norest","8324","8","12","Female","","","","","","","null","<div style=""font-size:60px;"">+</div>","null","fixation","","","","","","","","","","","",""
"learning-instructions","57","323656","0.0-3.0-11.0-0.0-0.0","spark_pilot_norest","8324","8","12","Female","","","","","","","1278.2999999523163","<p> Now, you will practice a shortened version of the game to get a sense of how it all fits together. </p>","","instructions","","","","","","","","","","","",""
"learning-instructions","58","328473","0.0-3.0-11.0-0.0-0.1","spark_pilot_norest","8324","8","12","Female","","","","","","","894.5","<p>This time you are searching for treasure in outer space.</p>","","instructions","","","","","","","","","","","",""
"learning-instructions","59","345014","0.0-3.0-11.0-1.0-0.0","spark_pilot_norest","8324","8","12","Female","","","","","","","885.9000000953674","<p> Remember, when you see a picture of the place, use the up and down keys to <b>find an animal</b>.</p>
            <p> When you encounter an animal, you should use the left and right keys to <b>select a treasure chest</b>.</p>
            <p> Don't forget to look out for the robber! </p>","","instructions","","","","","","","","","","","",""
"revaluation","60","351044","0.0-3.0-11.0-2.0-0.0","spark_pilot_norest","8324","8","12","Female","","false","","","","","[835.6000001430511,472.89999985694885]","./assets/img/space/11.jpg","[""ArrowUp"",""ArrowLeft""]","practice block","space","3","{""ArrowUp,ArrowLeft"":3,""ArrowUp,ArrowRight"":36,""ArrowDown,ArrowLeft"":15,""ArrowDown,ArrowRight"":23}","false","ArrowUp,ArrowLeft","false","","","","","",""
"html-keyboard-response","61","351560","0.0-3.0-11.0-2.0-1.0","spark_pilot_norest","8324","8","12","Female","","","","","","","null","<div style=""font-size:60px;"">+</div>","null","fixation","","","","","","","","","","","",""
"revaluation","62","357589","0.0-3.0-11.0-2.0-0.1","spark_pilot_norest","8324","8","12","Female","","false","","","","","[628.6000001430511,425.7999999523163]","./assets/img/space/12.jpg","[""ArrowUp"",""ArrowRight""]","practice block","space","36","{""ArrowUp,ArrowLeft"":3,""ArrowUp,ArrowRight"":36,""ArrowDown,ArrowLeft"":15,""ArrowDown,ArrowRight"":23}","true","ArrowUp,ArrowRight","false","","","","","",""
"html-keyboard-response","63","358103","0.0-3.0-11.0-2.0-1.1","spark_pilot_norest","8324","8","12","Female","","","","","","","null","<div style=""font-size:60px;"">+</div>","null","fixation","","","","","","","","","","","",""
"revaluation","64","364125","0.0-3.0-11.0-2.0-0.2","spark_pilot_norest","8324","8","12","Female","","false","","","","","[827.2000000476837,406.59999990463257]","./assets/img/space/13.jpg","[""ArrowUp"",""ArrowRight""]","practice block","space","36","{""ArrowUp,ArrowLeft"":3,""ArrowUp,ArrowRight"":36,""ArrowDown,ArrowLeft"":15,""ArrowDown,ArrowRight"":23}","true","ArrowUp,ArrowRight","false","","","","","",""
"html-keyboard-response","65","364638","0.0-3.0-11.0-2.0-1.2","spark_pilot_norest","8324","8","12","Female","","","","","","","null","<div style=""font-size:60px;"">+</div>","null","fixation","","","","","","","","","","","",""
"revaluation","66","370663","0.0-3.0-11.0-2.0-0.3","spark_pilot_norest","8324","8","12","Female","","false","","","","","[969.7000000476837,316.5]","./assets/img/space/14.jpg","[""ArrowUp"",""ArrowRight""]","practice block","space","36","{""ArrowUp,ArrowLeft"":3,""ArrowUp,ArrowRight"":36,""ArrowDown,ArrowLeft"":15,""ArrowDown,ArrowRight"":23}","true","ArrowUp,ArrowRight","false","","","","","",""
"html-keyboard-response","67","371176","0.0-3.0-11.0-2.0-1.3","spark_pilot_norest","8324","8","12","Female","","","","","","","null","<div style=""font-size:60px;"">+</div>","null","fixation","","","","","","","","","","","",""
"revaluation","68","377192","0.0-3.0-11.0-2.0-0.4","spark_pilot_norest","8324","8","12","Female","","false","","","","","[562,383.2999999523163]","./assets/img/space/11.jpg","[""ArrowUp"",""ArrowRight""]","practice block","space","36","{""ArrowUp,ArrowLeft"":3,""ArrowUp,ArrowRight"":36,""ArrowDown,ArrowLeft"":15,""ArrowDown,ArrowRight"":23}","true","ArrowUp,ArrowRight","false","","","","","",""
"html-keyboard-response","69","377694","0.0-3.0-11.0-2.0-1.4","spark_pilot_norest","8324","8","12","Female","","","","","","","null","<div style=""font-size:60px;"">+</div>","null","fixation","","","","","","","","","","","",""
"revaluation","70","383700","0.0-3.0-11.0-2.0-0.5","spark_pilot_norest","8324","8","12","Female","","false","","","","","[1045.1000001430511,353.90000009536743]","./assets/img/space/12.jpg","[""ArrowUp"",""ArrowRight""]","practice block","space","36","{""ArrowUp,ArrowLeft"":3,""ArrowUp,ArrowRight"":36,""ArrowDown,ArrowLeft"":15,""ArrowDown,ArrowRight"":23}","true","ArrowUp,ArrowRight","false","","","","","",""
"html-keyboard-response","71","384202","0.0-3.0-11.0-2.0-1.5","spark_pilot_norest","8324","8","12","Female","","","","","","","null","<div style=""font-size:60px;"">+</div>","null","fixation","","","","","","","","","","","",""
"revaluation","72","390210","0.0-3.0-11.0-2.0-0.6","spark_pilot_norest","8324","8","12","Female","","false","","","","","[835.6000001430511,634.5]","./assets/img/space/13.jpg","[""ArrowUp"",""ArrowRight""]","practice block","space","36","{""ArrowUp,ArrowLeft"":3,""ArrowUp,ArrowRight"":36,""ArrowDown,ArrowLeft"":15,""ArrowDown,ArrowRight"":23}","true","ArrowUp,ArrowRight","false","","","","","",""
"html-keyboard-response","73","390713","0.0-3.0-11.0-2.0-1.6","spark_pilot_norest","8324","8","12","Female","","","","","","","null","<div style=""font-size:60px;"">+</div>","null","fixation","","","","","","","","","","","",""
"revaluation","74","396719","0.0-3.0-11.0-2.0-0.7","spark_pilot_norest","8324","8","12","Female","","false","","","","","[664.5,363.2000000476837]","./assets/img/space/14.jpg","[""ArrowUp"",""ArrowRight""]","practice block","space","36","{""ArrowUp,ArrowLeft"":3,""ArrowUp,ArrowRight"":36,""ArrowDown,ArrowLeft"":15,""ArrowDown,ArrowRight"":23}","true","ArrowUp,ArrowRight","false","","","","","",""
"html-keyboard-response","75","397223","0.0-3.0-11.0-2.0-1.7","spark_pilot_norest","8324","8","12","Female","","","","","","","null","<div style=""font-size:60px;"">+</div>","null","fixation","","","","","","","","","","","",""
"revaluation","76","401228","0.0-3.0-11.0-2.0-0.8","spark_pilot_norest","8324","8","12","Female","","false","","","","","[748.2999999523163]","./assets/img/space/catch/3.jpg","[""spaceBar""]","practice block","space","0","{""ArrowUp,ArrowLeft"":3,""ArrowUp,ArrowRight"":36,""ArrowDown,ArrowLeft"":15,""ArrowDown,ArrowRight"":23}","true","spaceBar","true","","","","","",""
"html-keyboard-response","77","401731","0.0-3.0-11.0-2.0-1.8","spark_pilot_norest","8324","8","12","Female","","","","","","","null","<div style=""font-size:60px;"">+</div>","null","fixation","","","","","","","","","","","",""
"learning-instructions","78","417115","0.0-3.0-11.0-3.0-0.0","spark_pilot_norest","8324","8","12","Female","","","","","","","1112.2000000476837","<p> Now, you will travel with a friend who will choose whether you go up or down first. </p>
            <p> On these turns, you will just see the animal that they found. You will still get to choose which chest to search for treasure.</p>","","instructions","","","","","","","","","","","",""
"revaluation","79","421131","0.0-3.0-11.0-4.0-0.0","spark_pilot_norest","8324","8","12","Female","","false","","","","","[934.5]","./assets/img/space/animals/cat.jpg","[""ArrowRight""]","practice block","space","36","{""ArrowUp,ArrowLeft"":3,""ArrowUp,ArrowRight"":36,""ArrowDown,ArrowLeft"":15,""ArrowDown,ArrowRight"":23}","true","ArrowUp,ArrowRight","","","","","","",""
"html-keyboard-response","80","421643","0.0-3.0-11.0-4.0-1.0","spark_pilot_norest","8324","8","12","Female","","","","","","","null","<div style=""font-size:60px;"">+</div>","null","fixation","","","","","","","","","","","",""
"revaluation","81","425668","0.0-3.0-11.0-4.0-0.1","spark_pilot_norest","8324","8","12","Female","","false","","","","","[565.2000000476837]","./assets/img/space/animals/cat.jpg","[""ArrowRight""]","practice block","space","36","{""ArrowUp,ArrowLeft"":3,""ArrowUp,ArrowRight"":36,""ArrowDown,ArrowLeft"":15,""ArrowDown,ArrowRight"":23}","true","ArrowUp,ArrowRight","","","","","","",""
"html-keyboard-response","82","426180","0.0-3.0-11.0-4.0-1.1","spark_pilot_norest","8324","8","12","Female","","","","","","","null","<div style=""font-size:60px;"">+</div>","null","fixation","","","","","","","","","","","",""
"revaluation","83","430206","0.0-3.0-11.0-4.0-0.2","spark_pilot_norest","8324","8","12","Female","","false","","","","","[619.1999998092651]","./assets/img/space/animals/rabbit.jpg","[""ArrowRight""]","practice block","space","23","{""ArrowUp,ArrowLeft"":3,""ArrowUp,ArrowRight"":36,""ArrowDown,ArrowLeft"":15,""ArrowDown,ArrowRight"":23}","true","ArrowDown,ArrowRight","","","","","","",""
"html-keyboard-response","84","430718","0.0-3.0-11.0-4.0-1.2","spark_pilot_norest","8324","8","12","Female","","","","","","","null","<div style=""font-size:60px;"">+</div>","null","fixation","","","","","","","","","","","",""
"revaluation","85","434747","0.0-3.0-11.0-4.0-0.3","spark_pilot_norest","8324","8","12","Female","","false","","","","","[600]","./assets/img/space/animals/rabbit.jpg","[""ArrowLeft""]","practice block","space","15","{""ArrowUp,ArrowLeft"":3,""ArrowUp,ArrowRight"":36,""ArrowDown,ArrowLeft"":15,""ArrowDown,ArrowRight"":23}","false","ArrowDown,ArrowLeft","","","","","","",""
"html-keyboard-response","86","435258","0.0-3.0-11.0-4.0-1.3","spark_pilot_norest","8324","8","12","Female","","","","","","","null","<div style=""font-size:60px;"">+</div>","null","fixation","","","","","","","","","","","",""
"learning-instructions","87","444188","0.0-3.0-11.0-5.0-0.0","spark_pilot_norest","8324","8","12","Female","","","","","","","null","<p> You have almost finished this part of the game! </p>
            <p> We are going to ask you to make a few more choices. </p>","","instructions","","","","","","","","","","","",""
"learning-instructions","88","461117","0.0-3.0-11.0-5.0-0.1","spark_pilot_norest","8324","8","12","Female","","","","","","","null","<p> First, you need to decide whether to go up or down. When you see each picture, use the arrow keys to make your choice. </p>
            <p><b>You will not see which animal you found, but try to get to the one that will give you the most treasure.</b></p>","","instructions","","","","","","","","","","","",""
"html-keyboard-response","89","462131","0.0-3.0-11.0-6.0-0.0","spark_pilot_norest","8324","8","12","Female","","","","","","","null","<div style=""font-size:100px;color:red;"">Starting in...</div>","null","","","","","","","","","","","","",""
"html-keyboard-response","90","463141","0.0-3.0-11.0-6.0-1.0","spark_pilot_norest","8324","8","12","Female","","","","","","","null","<div style=""font-size:200px;color:red;"">3</div>","null","","","","","","","","","","","","",""
"html-keyboard-response","91","464143","0.0-3.0-11.0-6.0-2.0","spark_pilot_norest","8324","8","12","Female","","","","","","","null","<div style=""font-size:200px;color:red;"">2</div>","null","","","","","","","","","","","","",""
"html-keyboard-response","92","465145","0.0-3.0-11.0-6.0-3.0","spark_pilot_norest","8324","8","12","Female","","","","","","","null","<div style=""font-size:200px;color:red;"">1</div>","null","","","","","","","","","","","","",""
"revaluation","93","465522","0.0-3.0-11.0-7.0","spark_pilot_norest","8324","8","12","Female","","false","","","","","[372.7000000476837]","./assets/img/space/15.jpg","[""ArrowUp""]","practice block","space","0","{""ArrowUp,ArrowLeft"":3,""ArrowUp,ArrowRight"":36,""ArrowDown,ArrowLeft"":15,""ArrowDown,ArrowRight"":23}","true","ArrowUp","false","","","","","",""
"html-keyboard-response","94","466037","0.0-3.0-11.0-8.0","spark_pilot_norest","8324","8","12","Female","","","","","","","null","<div style=""font-size:60px;"">+</div>","null","fixation","","","","","","","","","","","",""
"learning-instructions","95","480528","0.0-3.0-11.0-9.0-0.0","spark_pilot_norest","8324","8","12","Female","","","","","","","null","<p> Now you will see the animals again and can search their chests for treasure. </p>
            <p> This time, you will not see how much treasure you earned, but you will earn more bonus money for making better choices. </p>","","instructions","","","","","","","","","","","",""
"html-keyboard-response","96","481540","0.0-3.0-11.0-10.0-0.0","spark_pilot_norest","8324","8","12","Female","","","","","","","null","<div style=""font-size:100px;color:red;"">Starting in...</div>","null","","","","","","","","","","","","",""
"html-keyboard-response","97","482554","0.0-3.0-11.0-10.0-1.0","spark_pilot_norest","8324","8","12","Female","","","","","","","null","<div style=""font-size:200px;color:red;"">3</div>","null","","","","","","","","","","","","",""
"html-keyboard-response","98","483566","0.0-3.0-11.0-10.0-2.0","spark_pilot_norest","8324","8","12","Female","","","","","","","null","<div style=""font-size:200px;color:red;"">2</div>","null","","","","","","","","","","","","",""
"html-keyboard-response","99","484568","0.0-3.0-11.0-10.0-3.0","spark_pilot_norest","8324","8","12","Female","","","","","","","null","<div style=""font-size:200px;color:red;"">1</div>","null","","","","","","","","","","","","",""
"revaluation","100","485203","0.0-3.0-11.0-11.0-0.0","spark_pilot_norest","8324","8","12","Female","","false","","","","","[630.5]","./assets/img/space/animals/cat.jpg","[""ArrowRight""]","practice block","space","0","{""ArrowUp,ArrowLeft"":3,""ArrowUp,ArrowRight"":36,""ArrowDown,ArrowLeft"":15,""ArrowDown,ArrowRight"":23}","true","ArrowUp,ArrowRight","","","","","","",""
"html-keyboard-response","101","485718","0.0-3.0-11.0-11.0-1.0","spark_pilot_norest","8324","8","12","Female","","","","","","","null","<div style=""font-size:60px;"">+</div>","null","fixation","","","","","","","","","","","",""
"revaluation","102","485863","0.0-3.0-11.0-11.0-0.1","spark_pilot_norest","8324","8","12","Female","","false","","","","","[139.60000014305115]","./assets/img/space/animals/rabbit.jpg","[""ArrowRight""]","practice block","space","0","{""ArrowUp,ArrowLeft"":3,""ArrowUp,ArrowRight"":36,""ArrowDown,ArrowLeft"":15,""ArrowDown,ArrowRight"":23}","true","ArrowDown,ArrowRight","","","","","","",""
"html-keyboard-response","103","486372","0.0-3.0-11.0-11.0-1.1","spark_pilot_norest","8324","8","12","Female","","","","","","","null","<div style=""font-size:60px;"">+</div>","null","fixation","","","","","","","","","","","",""
"learning-instructions","104","494077","0.0-3.0-12.0-0.0","spark_pilot_norest","8324","8","12","Female","","","","","","","1302.7999999523163","<p> Before you start, we're going to ask you a few questions about how the game works. </p>","","instructions","","","","","","","","","","","",""
"comp-q","105","501326","0.0-3.0-13.0-0.0-0.0","spark_pilot_norest","8324","8","12","Female","","","","","","","985.8999998569489","<p> <b> True or False? </b> </p>
            <p> There can be 50 pieces of treasure in a given animal's chest. </p>","1","comp_question","","","","true","","","","","","","",""
"comp-q","106","509718","0.0-3.0-13.0-0.0-1.0","spark_pilot_norest","8324","8","12","Female","","","","","","","783.2000000476837","<p> <b> That's right! </b> The amount of treasure in each chest can range from 0 to 40 pieces. </p>","0","comp_answer","","","","","","","","","","","",""
"comp-q","107","518371","0.0-3.0-13.0-0.1-0.1","spark_pilot_norest","8324","8","12","Female","","","","","","","736","<p> <b> True or False? </b> </p><p> In this game, all animals have the same amount of treasure in their left and right chests. </p>","1","comp_question","","","","true","","","","","","","",""
"comp-q","108","525471","0.0-3.0-13.0-0.1-1.1","spark_pilot_norest","8324","8","12","Female","","","","","","","1116","<p> <b> That's right! </b> Animals have different amounts of treasure in their treasure chests. </p>","0","comp_answer","","","","","","","","","","","",""
"comp-q","109","532834","0.0-3.0-13.0-0.2-0.2","spark_pilot_norest","8324","8","12","Female","","","","","","","788.2999999523163","<p> <b> True or False? </b> </p><p> The same animal will always be there if you go up in the same place. </p>","0","comp_question","","","","true","","","","","","","",""
"comp-q","110","540654","0.0-3.0-13.0-0.2-1.2","spark_pilot_norest","8324","8","12","Female","","","","","","","678.9000000953674","<p> <b> That's right! </b> One animal lives in the upper part and one lives in the lower part of every place. </p>","0","comp_answer","","","","","","","","","","","",""
"comp-q","111","547652","0.0-3.0-13.0-0.3-0.3","spark_pilot_norest","8324","8","12","Female","","","","","","","686.2000000476837","<p> <b> True or False? </b> </p><p> If you see a different picture, it means you are in a new place. </p>","1","comp_question","","","","true","","","","","","","",""
"comp-q","112","560442","0.0-3.0-13.0-0.3-1.3","spark_pilot_norest","8324","8","12","Female","","","","","","","746.5","<p> <b> That's right! </b> Lots of different images may show the same place. For example,  you may see three different images that all remind you that you are in outer space. </p>","0","comp_answer","","","","","","","","","","","",""
"learning-instructions","113","572060","0.0-3.0-14.0-0.0","spark_pilot_norest","8324","8","12","Female","","","","","","","974.0999999046326","<p> Good job. Remember to do your best because the amount of treasure you earn will be converted into bonus money. </p>
            <p> It’s time to start the real game! </p>","","instructions","","","","","","","","","","","",""
"learning-instructions","114","575951","0.0-4.0-0.0-0.0","spark_pilot_norest","8324","8","12","Female","","","","","","","515.1999998092651","<p> This time you are searching for treasure in the <b>canyon</b>.</p>","","instructions","","","","","","","","","","","",""
"learning-instructions","115","595386","0.0-4.0-0.0-0.1","spark_pilot_norest","8324","8","12","Female","","","","","","","1210.3999998569489","<p><b>New</b> animals with <b>new</b> treasure chests live here. You need to explore to discover where the animal with the best treasure chest is.</p>
                    <p> Like before, once you figure out which animal has the chest with the most treasure, you should try to get to that animal and select that chest! </p>","","instructions","","","","","","","","","","","",""
"learning-instructions","116","611556","0.0-4.0-1.0-0.0","spark_pilot_norest","8324","8","12","Female","","","","","","","1440.0999999046326","<p> Remember, when you see a picture of the place, use the up and down keys to <b>find an animal</b>.</p>
            <p> When you encounter an animal, you should use the left and right keys to <b>select a treasure chest</b>.</p>
            <p> Don't forget to look out for the robber! </p>","","instructions","","","","","","","","","","","",""
"revaluation","117","617588","0.0-4.0-2.0-0.0","spark_pilot_norest","8324","8","12","Female","","false","","","","","[1015.2000000476837,350.2999999523163]","./assets/img/canyon/memory/11.jpg","[""ArrowUp"",""ArrowRight""]","value training","canyon","10","{""ArrowUp,ArrowLeft"":26,""ArrowUp,ArrowRight"":10,""ArrowDown,ArrowLeft"":5,""ArrowDown,ArrowRight"":17}","false","ArrowUp,ArrowRight","false","revaluation","1","0","","",""
"html-keyboard-response","118","618102","0.0-4.0-2.0-1.0","spark_pilot_norest","8324","8","12","Female","","","","","","","null","<div style=""font-size:60px;"">+</div>","null","fixation","","","","","","","","","1","","",""
"revaluation","119","624123","0.0-4.0-2.0-0.1","spark_pilot_norest","8324","8","12","Female","","false","","","","","[338.39999985694885,403.5]","./assets/img/canyon/memory/37.jpg","[""ArrowUp"",""ArrowLeft""]","value training","canyon","26","{""ArrowUp,ArrowLeft"":26,""ArrowUp,ArrowRight"":10,""ArrowDown,ArrowLeft"":5,""ArrowDown,ArrowRight"":17}","true","ArrowUp,ArrowLeft","false","revaluation","1","2","","",""
"html-keyboard-response","120","624638","0.0-4.0-2.0-1.1","spark_pilot_norest","8324","8","12","Female","","","","","","","null","<div style=""font-size:60px;"">+</div>","null","fixation","","","","","","","","","3","","",""
"revaluation","121","628649","0.0-4.0-2.0-0.2","spark_pilot_norest","8324","8","12","Female","","false","","","","","[420.7999999523163]","./assets/img/canyon/catch/0.jpg","[""ArrowDown""]","value training","canyon","-10","{""ArrowUp,ArrowLeft"":26,""ArrowUp,ArrowRight"":10,""ArrowDown,ArrowLeft"":5,""ArrowDown,ArrowRight"":17}","false","ArrowDown","true","revaluation","1","4","","",""
"html-keyboard-response","122","629162","0.0-4.0-2.0-1.2","spark_pilot_norest","8324","8","12","Female","","","","","","","null","<div style=""font-size:60px;"">+</div>","null","fixation","","","","","","","","","5","","",""
"revaluation","123","635206","0.0-4.0-2.0-0.3","spark_pilot_norest","8324","8","12","Female","","false","","","","","[812.2999999523163,539.8999998569489]","./assets/img/canyon/memory/31.jpg","[""ArrowDown"",""ArrowRight""]","value training","canyon","17","{""ArrowUp,ArrowLeft"":26,""ArrowUp,ArrowRight"":10,""ArrowDown,ArrowLeft"":5,""ArrowDown,ArrowRight"":17}","false","ArrowDown,ArrowRight","false","revaluation","1","6","","",""
"html-keyboard-response","124","635718","0.0-4.0-2.0-1.3","spark_pilot_norest","8324","8","12","Female","","","","","","","null","<div style=""font-size:60px;"">+</div>","null","fixation","","","","","","","","","7","","",""
"revaluation","125","641733","0.0-4.0-2.0-0.4","spark_pilot_norest","8324","8","12","Female","","false","","","","","[721.4000000953674,565.0999999046326]","./assets/img/canyon/memory/24.jpg","[""ArrowDown"",""ArrowLeft""]","value training","canyon","5","{""ArrowUp,ArrowLeft"":26,""ArrowUp,ArrowRight"":10,""ArrowDown,ArrowLeft"":5,""ArrowDown,ArrowRight"":17}","false","ArrowDown,ArrowLeft","false","revaluation","1","8","","",""
"html-keyboard-response","126","642235","0.0-4.0-2.0-1.4","spark_pilot_norest","8324","8","12","Female","","","","","","","null","<div style=""font-size:60px;"">+</div>","null","fixation","","","","","","","","","9","","",""
"revaluation","127","648242","0.0-4.0-2.0-0.5","spark_pilot_norest","8324","8","12","Female","","false","","","","","[504.5,733.0999999046326]","./assets/img/canyon/memory/19.jpg","[""ArrowUp"",""ArrowRight""]","value training","canyon","10","{""ArrowUp,ArrowLeft"":26,""ArrowUp,ArrowRight"":10,""ArrowDown,ArrowLeft"":5,""ArrowDown,ArrowRight"":17}","false","ArrowUp,ArrowRight","false","revaluation","1","10","","",""
"html-keyboard-response","128","648743","0.0-4.0-2.0-1.5","spark_pilot_norest","8324","8","12","Female","","","","","","","null","<div style=""font-size:60px;"">+</div>","null","fixation","","","","","","","","","11","","",""
"revaluation","129","654750","0.0-4.0-2.0-0.6","spark_pilot_norest","8324","8","12","Female","","false","","","","","[817.7999999523163,344.5]","./assets/img/canyon/memory/9.jpg","[""ArrowUp"",""ArrowLeft""]","value training","canyon","26","{""ArrowUp,ArrowLeft"":26,""ArrowUp,ArrowRight"":10,""ArrowDown,ArrowLeft"":5,""ArrowDown,ArrowRight"":17}","true","ArrowUp,ArrowLeft","false","revaluation","1","12","","",""
"html-keyboard-response","130","655253","0.0-4.0-2.0-1.6","spark_pilot_norest","8324","8","12","Female","","","","","","","null","<div style=""font-size:60px;"">+</div>","null","fixation","","","","","","","","","13","","",""
"revaluation","131","661257","0.0-4.0-2.0-0.7","spark_pilot_norest","8324","8","12","Female","","false","","","","","[498.09999990463257,319.7999999523163]","./assets/img/canyon/memory/5.jpg","[""ArrowUp"",""ArrowLeft""]","value training","canyon","26","{""ArrowUp,ArrowLeft"":26,""ArrowUp,ArrowRight"":10,""ArrowDown,ArrowLeft"":5,""ArrowDown,ArrowRight"":17}","true","ArrowUp,ArrowLeft","false","revaluation","1","14","","",""
"html-keyboard-response","132","661758","0.0-4.0-2.0-1.7","spark_pilot_norest","8324","8","12","Female","","","","","","","null","<div style=""font-size:60px;"">+</div>","null","fixation","","","","","","","","","15","","",""
"revaluation","133","667765","0.0-4.0-2.0-0.8","spark_pilot_norest","8324","8","12","Female","","false","","","","","[522.2000000476837,369.40000009536743]","./assets/img/canyon/memory/25.jpg","[""ArrowUp"",""ArrowLeft""]","value training","canyon","26","{""ArrowUp,ArrowLeft"":26,""ArrowUp,ArrowRight"":10,""ArrowDown,ArrowLeft"":5,""ArrowDown,ArrowRight"":17}","true","ArrowUp,ArrowLeft","false","revaluation","1","16","","",""
"html-keyboard-response","134","668267","0.0-4.0-2.0-1.8","spark_pilot_norest","8324","8","12","Female","","","","","","","null","<div style=""font-size:60px;"">+</div>","null","fixation","","","","","","","","","17","","",""
"revaluation","135","672273","0.0-4.0-2.0-0.9","spark_pilot_norest","8324","8","12","Female","","false","","","","","[614]","./assets/img/canyon/catch/7.jpg","[""spaceBar""]","value training","canyon","0","{""ArrowUp,ArrowLeft"":26,""ArrowUp,ArrowRight"":10,""ArrowDown,ArrowLeft"":5,""ArrowDown,ArrowRight"":17}","true","spaceBar","true","revaluation","1","18","","",""
"html-keyboard-response","136","672774","0.0-4.0-2.0-1.9","spark_pilot_norest","8324","8","12","Female","","","","","","","null","<div style=""font-size:60px;"">+</div>","null","fixation","","","","","","","","","19","","",""
"revaluation","137","678781","0.0-4.0-2.0-0.10","spark_pilot_norest","8324","8","12","Female","","false","","","","","[486.5,478.5]","./assets/img/canyon/memory/1.jpg","[""ArrowUp"",""ArrowLeft""]","value training","canyon","26","{""ArrowUp,ArrowLeft"":26,""ArrowUp,ArrowRight"":10,""ArrowDown,ArrowLeft"":5,""ArrowDown,ArrowRight"":17}","true","ArrowUp,ArrowLeft","false","revaluation","1","20","","",""
"html-keyboard-response","138","679283","0.0-4.0-2.0-1.10","spark_pilot_norest","8324","8","12","Female","","","","","","","null","<div style=""font-size:60px;"">+</div>","null","fixation","","","","","","","","","21","","",""
"revaluation","139","685290","0.0-4.0-2.0-0.11","spark_pilot_norest","8324","8","12","Female","","false","","","","","[636.6000001430511,475.7000000476837]","./assets/img/canyon/memory/30.jpg","[""ArrowUp"",""ArrowLeft""]","value training","canyon","26","{""ArrowUp,ArrowLeft"":26,""ArrowUp,ArrowRight"":10,""ArrowDown,ArrowLeft"":5,""ArrowDown,ArrowRight"":17}","true","ArrowUp,ArrowLeft","false","revaluation","1","22","","",""
"html-keyboard-response","140","685792","0.0-4.0-2.0-1.11","spark_pilot_norest","8324","8","12","Female","","","","","","","null","<div style=""font-size:60px;"">+</div>","null","fixation","","","","","","","","","23","","",""
"revaluation","141","691801","0.0-4.0-2.0-0.12","spark_pilot_norest","8324","8","12","Female","","false","","","","","[828.9000000953674,506]","./assets/img/canyon/memory/12.jpg","[""ArrowUp"",""ArrowLeft""]","value training","canyon","26","{""ArrowUp,ArrowLeft"":26,""ArrowUp,ArrowRight"":10,""ArrowDown,ArrowLeft"":5,""ArrowDown,ArrowRight"":17}","true","ArrowUp,ArrowLeft","false","revaluation","1","24","","",""
"html-keyboard-response","142","692302","0.0-4.0-2.0-1.12","spark_pilot_norest","8324","8","12","Female","","","","","","","null","<div style=""font-size:60px;"">+</div>","null","fixation","","","","","","","","","25","","",""
"revaluation","143","696308","0.0-4.0-2.0-0.13","spark_pilot_norest","8324","8","12","Female","","false","","","","","[886.5999999046326]","./assets/img/canyon/catch/1.jpg","[""spaceBar""]","value training","canyon","0","{""ArrowUp,ArrowLeft"":26,""ArrowUp,ArrowRight"":10,""ArrowDown,ArrowLeft"":5,""ArrowDown,ArrowRight"":17}","true","spaceBar","true","revaluation","1","26","","",""
"html-keyboard-response","144","696810","0.0-4.0-2.0-1.13","spark_pilot_norest","8324","8","12","Female","","","","","","","null","<div style=""font-size:60px;"">+</div>","null","fixation","","","","","","","","","27","","",""
"revaluation","145","702816","0.0-4.0-2.0-0.14","spark_pilot_norest","8324","8","12","Female","","false","","","","","[499.2000000476837,285.89999985694885]","./assets/img/canyon/memory/0.jpg","[""ArrowUp"",""ArrowLeft""]","value training","canyon","26","{""ArrowUp,ArrowLeft"":26,""ArrowUp,ArrowRight"":10,""ArrowDown,ArrowLeft"":5,""ArrowDown,ArrowRight"":17}","true","ArrowUp,ArrowLeft","false","revaluation","1","28","","",""
"html-keyboard-response","146","703318","0.0-4.0-2.0-1.14","spark_pilot_norest","8324","8","12","Female","","","","","","","null","<div style=""font-size:60px;"">+</div>","null","fixation","","","","","","","","","29","","",""
"revaluation","147","709324","0.0-4.0-2.0-0.15","spark_pilot_norest","8324","8","12","Female","","false","","","","","[551.2000000476837,409.5]","./assets/img/canyon/memory/2.jpg","[""ArrowUp"",""ArrowLeft""]","value training","canyon","26","{""ArrowUp,ArrowLeft"":26,""ArrowUp,ArrowRight"":10,""ArrowDown,ArrowLeft"":5,""ArrowDown,ArrowRight"":17}","true","ArrowUp,ArrowLeft","false","revaluation","1","30","","",""
"html-keyboard-response","148","709827","0.0-4.0-2.0-1.15","spark_pilot_norest","8324","8","12","Female","","","","","","","null","<div style=""font-size:60px;"">+</div>","null","fixation","","","","","","","","","31","","",""
"revaluation","149","713832","0.0-4.0-2.0-0.16","spark_pilot_norest","8324","8","12","Female","","false","","","","","[570.7999999523163]","./assets/img/canyon/catch/4.jpg","[""spaceBar""]","value training","canyon","0","{""ArrowUp,ArrowLeft"":26,""ArrowUp,ArrowRight"":10,""ArrowDown,ArrowLeft"":5,""ArrowDown,ArrowRight"":17}","true","spaceBar","true","revaluation","1","32","","",""
"html-keyboard-response","150","714334","0.0-4.0-2.0-1.16","spark_pilot_norest","8324","8","12","Female","","","","","","","null","<div style=""font-size:60px;"">+</div>","null","fixation","","","","","","","","","33","","",""
"revaluation","151","718339","0.0-4.0-2.0-0.17","spark_pilot_norest","8324","8","12","Female","","false","","","","","[515.7000000476837]","./assets/img/canyon/catch/2.jpg","[""ArrowUp""]","value training","canyon","-10","{""ArrowUp,ArrowLeft"":26,""ArrowUp,ArrowRight"":10,""ArrowDown,ArrowLeft"":5,""ArrowDown,ArrowRight"":17}","false","ArrowUp","true","revaluation","1","34","","",""
"html-keyboard-response","152","718841","0.0-4.0-2.0-1.17","spark_pilot_norest","8324","8","12","Female","","","","","","","null","<div style=""font-size:60px;"">+</div>","null","fixation","","","","","","","","","35","","",""
"revaluation","153","724845","0.0-4.0-2.0-0.18","spark_pilot_norest","8324","8","12","Female","","false","","","","","[589.2999999523163,448.2999999523163]","./assets/img/canyon/memory/33.jpg","[""ArrowUp"",""ArrowLeft""]","value training","canyon","26","{""ArrowUp,ArrowLeft"":26,""ArrowUp,ArrowRight"":10,""ArrowDown,ArrowLeft"":5,""ArrowDown,ArrowRight"":17}","true","ArrowUp,ArrowLeft","false","revaluation","1","36","","",""
"html-keyboard-response","154","725346","0.0-4.0-2.0-1.18","spark_pilot_norest","8324","8","12","Female","","","","","","","null","<div style=""font-size:60px;"">+</div>","null","fixation","","","","","","","","","37","","",""
"revaluation","155","731354","0.0-4.0-2.0-0.19","spark_pilot_norest","8324","8","12","Female","","false","","","","","[730.9000000953674,450.5]","./assets/img/canyon/memory/19.jpg","[""ArrowUp"",""ArrowLeft""]","value training","canyon","26","{""ArrowUp,ArrowLeft"":26,""ArrowUp,ArrowRight"":10,""ArrowDown,ArrowLeft"":5,""ArrowDown,ArrowRight"":17}","true","ArrowUp,ArrowLeft","false","revaluation","1","38","","",""
"html-keyboard-response","156","731855","0.0-4.0-2.0-1.19","spark_pilot_norest","8324","8","12","Female","","","","","","","null","<div style=""font-size:60px;"">+</div>","null","fixation","","","","","","","","","39","","",""
"revaluation","157","737861","0.0-4.0-2.0-0.20","spark_pilot_norest","8324","8","12","Female","","false","","","","","[483.5,508]","./assets/img/canyon/memory/5.jpg","[""ArrowUp"",""ArrowLeft""]","value training","canyon","26","{""ArrowUp,ArrowLeft"":26,""ArrowUp,ArrowRight"":10,""ArrowDown,ArrowLeft"":5,""ArrowDown,ArrowRight"":17}","true","ArrowUp,ArrowLeft","false","revaluation","1","40","","",""
"html-keyboard-response","158","738364","0.0-4.0-2.0-1.20","spark_pilot_norest","8324","8","12","Female","","","","","","","null","<div style=""font-size:60px;"">+</div>","null","fixation","","","","","","","","","41","","",""
"revaluation","159","742369","0.0-4.0-2.0-0.21","spark_pilot_norest","8324","8","12","Female","","false","","","","","[495.2999999523163]","./assets/img/canyon/catch/5.jpg","[""spaceBar""]","value training","canyon","0","{""ArrowUp,ArrowLeft"":26,""ArrowUp,ArrowRight"":10,""ArrowDown,ArrowLeft"":5,""ArrowDown,ArrowRight"":17}","true","spaceBar","true","revaluation","1","42","","",""
"html-keyboard-response","160","742871","0.0-4.0-2.0-1.21","spark_pilot_norest","8324","8","12","Female","","","","","","","null","<div style=""font-size:60px;"">+</div>","null","fixation","","","","","","","","","43","","",""
"revaluation","161","748878","0.0-4.0-2.0-0.22","spark_pilot_norest","8324","8","12","Female","","false","","","","","[557.7999999523163,487]","./assets/img/canyon/memory/28.jpg","[""ArrowUp"",""ArrowLeft""]","value training","canyon","26","{""ArrowUp,ArrowLeft"":26,""ArrowUp,ArrowRight"":10,""ArrowDown,ArrowLeft"":5,""ArrowDown,ArrowRight"":17}","true","ArrowUp,ArrowLeft","false","revaluation","1","44","","",""
"html-keyboard-response","162","749380","0.0-4.0-2.0-1.22","spark_pilot_norest","8324","8","12","Female","","","","","","","null","<div style=""font-size:60px;"">+</div>","null","fixation","","","","","","","","","45","","",""
"revaluation","163","755387","0.0-4.0-2.0-0.23","spark_pilot_norest","8324","8","12","Female","","false","","","","","[589,416.89999985694885]","./assets/img/canyon/memory/41.jpg","[""ArrowUp"",""ArrowLeft""]","value training","canyon","26","{""ArrowUp,ArrowLeft"":26,""ArrowUp,ArrowRight"":10,""ArrowDown,ArrowLeft"":5,""ArrowDown,ArrowRight"":17}","true","ArrowUp,ArrowLeft","false","revaluation","1","46","","",""
"html-keyboard-response","164","755888","0.0-4.0-2.0-1.23","spark_pilot_norest","8324","8","12","Female","","","","","","","null","<div style=""font-size:60px;"">+</div>","null","fixation","","","","","","","","","47","","",""
"revaluation","165","761905","0.0-4.0-2.0-0.24","spark_pilot_norest","8324","8","12","Female","","false","","","","","[451,440.09999990463257]","./assets/img/canyon/memory/31.jpg","[""ArrowUp"",""ArrowLeft""]","value training","canyon","26","{""ArrowUp,ArrowLeft"":26,""ArrowUp,ArrowRight"":10,""ArrowDown,ArrowLeft"":5,""ArrowDown,ArrowRight"":17}","true","ArrowUp,ArrowLeft","false","revaluation","1","48","","",""
"html-keyboard-response","166","762407","0.0-4.0-2.0-1.24","spark_pilot_norest","8324","8","12","Female","","","","","","","null","<div style=""font-size:60px;"">+</div>","null","fixation","","","","","","","","","49","","",""
"revaluation","167","768413","0.0-4.0-2.0-0.25","spark_pilot_norest","8324","8","12","Female","","false","","","","","[513.8000001907349,452.10000014305115]","./assets/img/canyon/memory/0.jpg","[""ArrowUp"",""ArrowLeft""]","value training","canyon","26","{""ArrowUp,ArrowLeft"":26,""ArrowUp,ArrowRight"":10,""ArrowDown,ArrowLeft"":5,""ArrowDown,ArrowRight"":17}","true","ArrowUp,ArrowLeft","false","revaluation","1","50","","",""
"html-keyboard-response","168","768924","0.0-4.0-2.0-1.25","spark_pilot_norest","8324","8","12","Female","","","","","","","null","<div style=""font-size:60px;"">+</div>","null","fixation","","","","","","","","","51","","",""
"revaluation","169","774932","0.0-4.0-2.0-0.26","spark_pilot_norest","8324","8","12","Female","","false","","","","","[585.2999999523163,363.2999999523163]","./assets/img/canyon/memory/7.jpg","[""ArrowUp"",""ArrowLeft""]","value training","canyon","26","{""ArrowUp,ArrowLeft"":26,""ArrowUp,ArrowRight"":10,""ArrowDown,ArrowLeft"":5,""ArrowDown,ArrowRight"":17}","true","ArrowUp,ArrowLeft","false","revaluation","1","52","","",""
"html-keyboard-response","170","775433","0.0-4.0-2.0-1.26","spark_pilot_norest","8324","8","12","Female","","","","","","","null","<div style=""font-size:60px;"">+</div>","null","fixation","","","","","","","","","53","","",""
"revaluation","171","781440","0.0-4.0-2.0-0.27","spark_pilot_norest","8324","8","12","Female","","false","","","","","[814.1000001430511,404.5]","./assets/img/canyon/memory/41.jpg","[""ArrowUp"",""ArrowLeft""]","value training","canyon","26","{""ArrowUp,ArrowLeft"":26,""ArrowUp,ArrowRight"":10,""ArrowDown,ArrowLeft"":5,""ArrowDown,ArrowRight"":17}","true","ArrowUp,ArrowLeft","false","revaluation","1","54","","",""
"html-keyboard-response","172","781943","0.0-4.0-2.0-1.27","spark_pilot_norest","8324","8","12","Female","","","","","","","null","<div style=""font-size:60px;"">+</div>","null","fixation","","","","","","","","","55","","",""
"revaluation","173","787949","0.0-4.0-2.0-0.28","spark_pilot_norest","8324","8","12","Female","","false","","","","","[856,438.2999999523163]","./assets/img/canyon/memory/26.jpg","[""ArrowUp"",""ArrowLeft""]","value training","canyon","26","{""ArrowUp,ArrowLeft"":26,""ArrowUp,ArrowRight"":10,""ArrowDown,ArrowLeft"":5,""ArrowDown,ArrowRight"":17}","true","ArrowUp,ArrowLeft","false","revaluation","1","56","","",""
"html-keyboard-response","174","788451","0.0-4.0-2.0-1.28","spark_pilot_norest","8324","8","12","Female","","","","","","","null","<div style=""font-size:60px;"">+</div>","null","fixation","","","","","","","","","57","","",""
"revaluation","175","794458","0.0-4.0-2.0-0.29","spark_pilot_norest","8324","8","12","Female","","false","","","","","[637.7000000476837,247.09999990463257]","./assets/img/canyon/memory/37.jpg","[""ArrowUp"",""ArrowLeft""]","value training","canyon","26","{""ArrowUp,ArrowLeft"":26,""ArrowUp,ArrowRight"":10,""ArrowDown,ArrowLeft"":5,""ArrowDown,ArrowRight"":17}","true","ArrowUp,ArrowLeft","false","revaluation","1","58","","",""
"html-keyboard-response","176","794960","0.0-4.0-2.0-1.29","spark_pilot_norest","8324","8","12","Female","","","","","","","null","<div style=""font-size:60px;"">+</div>","null","fixation","","","","","","","","","59","","",""
"revaluation","177","800968","0.0-4.0-2.0-0.30","spark_pilot_norest","8324","8","12","Female","","false","","","","","[661.2000000476837,578]","./assets/img/canyon/memory/24.jpg","[""ArrowUp"",""ArrowLeft""]","value training","canyon","26","{""ArrowUp,ArrowLeft"":26,""ArrowUp,ArrowRight"":10,""ArrowDown,ArrowLeft"":5,""ArrowDown,ArrowRight"":17}","true","ArrowUp,ArrowLeft","false","revaluation","1","60","","",""
"html-keyboard-response","178","801470","0.0-4.0-2.0-1.30","spark_pilot_norest","8324","8","12","Female","","","","","","","null","<div style=""font-size:60px;"">+</div>","null","fixation","","","","","","","","","61","","",""
"revaluation","179","805476","0.0-4.0-2.0-0.31","spark_pilot_norest","8324","8","12","Female","","false","","","","","[668.8000001907349]","./assets/img/canyon/catch/6.jpg","[""spaceBar""]","value training","canyon","0","{""ArrowUp,ArrowLeft"":26,""ArrowUp,ArrowRight"":10,""ArrowDown,ArrowLeft"":5,""ArrowDown,ArrowRight"":17}","true","spaceBar","true","revaluation","1","62","","",""
"html-keyboard-response","180","805978","0.0-4.0-2.0-1.31","spark_pilot_norest","8324","8","12","Female","","","","","","","null","<div style=""font-size:60px;"">+</div>","null","fixation","","","","","","","","","63","","",""
"revaluation","181","811986","0.0-4.0-2.0-0.32","spark_pilot_norest","8324","8","12","Female","","false","","","","","[781.7000000476837,439.69999980926514]","./assets/img/canyon/memory/1.jpg","[""ArrowUp"",""ArrowLeft""]","value training","canyon","26","{""ArrowUp,ArrowLeft"":26,""ArrowUp,ArrowRight"":10,""ArrowDown,ArrowLeft"":5,""ArrowDown,ArrowRight"":17}","true","ArrowUp,ArrowLeft","false","revaluation","1","64","","",""
"html-keyboard-response","182","812488","0.0-4.0-2.0-1.32","spark_pilot_norest","8324","8","12","Female","","","","","","","null","<div style=""font-size:60px;"">+</div>","null","fixation","","","","","","","","","65","","",""
"revaluation","183","818492","0.0-4.0-2.0-0.33","spark_pilot_norest","8324","8","12","Female","","false","","","","","[893,492.5]","./assets/img/canyon/memory/7.jpg","[""ArrowUp"",""ArrowLeft""]","value training","canyon","26","{""ArrowUp,ArrowLeft"":26,""ArrowUp,ArrowRight"":10,""ArrowDown,ArrowLeft"":5,""ArrowDown,ArrowRight"":17}","true","ArrowUp,ArrowLeft","false","revaluation","1","66","","",""
"html-keyboard-response","184","818994","0.0-4.0-2.0-1.33","spark_pilot_norest","8324","8","12","Female","","","","","","","null","<div style=""font-size:60px;"">+</div>","null","fixation","","","","","","","","","67","","",""
"revaluation","185","825001","0.0-4.0-2.0-0.34","spark_pilot_norest","8324","8","12","Female","","false","","","","","[795.7000000476837,422.7000000476837]","./assets/img/canyon/memory/32.jpg","[""ArrowUp"",""ArrowLeft""]","value training","canyon","26","{""ArrowUp,ArrowLeft"":26,""ArrowUp,ArrowRight"":10,""ArrowDown,ArrowLeft"":5,""ArrowDown,ArrowRight"":17}","true","ArrowUp,ArrowLeft","false","revaluation","1","68","","",""
"html-keyboard-response","186","825502","0.0-4.0-2.0-1.34","spark_pilot_norest","8324","8","12","Female","","","","","","","null","<div style=""font-size:60px;"">+</div>","null","fixation","","","","","","","","","69","","",""
"revaluation","187","831509","0.0-4.0-2.0-0.35","spark_pilot_norest","8324","8","12","Female","","false","","","","","[688,407.2999999523163]","./assets/img/canyon/memory/33.jpg","[""ArrowUp"",""ArrowLeft""]","value training","canyon","26","{""ArrowUp,ArrowLeft"":26,""ArrowUp,ArrowRight"":10,""ArrowDown,ArrowLeft"":5,""ArrowDown,ArrowRight"":17}","true","ArrowUp,ArrowLeft","false","revaluation","1","70","","",""
"html-keyboard-response","188","832010","0.0-4.0-2.0-1.35","spark_pilot_norest","8324","8","12","Female","","","","","","","null","<div style=""font-size:60px;"">+</div>","null","fixation","","","","","","","","","71","","",""
"revaluation","189","838017","0.0-4.0-2.0-0.36","spark_pilot_norest","8324","8","12","Female","","false","","","","","[499.30000019073486,359.2999999523163]","./assets/img/canyon/memory/26.jpg","[""ArrowUp"",""ArrowLeft""]","value training","canyon","26","{""ArrowUp,ArrowLeft"":26,""ArrowUp,ArrowRight"":10,""ArrowDown,ArrowLeft"":5,""ArrowDown,ArrowRight"":17}","true","ArrowUp,ArrowLeft","false","revaluation","1","72","","",""
"html-keyboard-response","190","838518","0.0-4.0-2.0-1.36","spark_pilot_norest","8324","8","12","Female","","","","","","","null","<div style=""font-size:60px;"">+</div>","null","fixation","","","","","","","","","73","","",""
"revaluation","191","844525","0.0-4.0-2.0-0.37","spark_pilot_norest","8324","8","12","Female","","false","","","","","[761.3999998569489,510.2999999523163]","./assets/img/canyon/memory/22.jpg","[""ArrowUp"",""ArrowLeft""]","value training","canyon","26","{""ArrowUp,ArrowLeft"":26,""ArrowUp,ArrowRight"":10,""ArrowDown,ArrowLeft"":5,""ArrowDown,ArrowRight"":17}","true","ArrowUp,ArrowLeft","false","revaluation","1","74","","",""
"html-keyboard-response","192","845036","0.0-4.0-2.0-1.37","spark_pilot_norest","8324","8","12","Female","","","","","","","null","<div style=""font-size:60px;"">+</div>","null","fixation","","","","","","","","","75","","",""
"revaluation","193","849041","0.0-4.0-2.0-0.38","spark_pilot_norest","8324","8","12","Female","","false","","","","","[753.8000001907349]","./assets/img/canyon/catch/3.jpg","[""spaceBar""]","value training","canyon","0","{""ArrowUp,ArrowLeft"":26,""ArrowUp,ArrowRight"":10,""ArrowDown,ArrowLeft"":5,""ArrowDown,ArrowRight"":17}","true","spaceBar","true","revaluation","1","76","","",""
"html-keyboard-response","194","849543","0.0-4.0-2.0-1.38","spark_pilot_norest","8324","8","12","Female","","","","","","","null","<div style=""font-size:60px;"">+</div>","null","fixation","","","","","","","","","77","","",""
"revaluation","195","855608","0.0-4.0-2.0-0.39","spark_pilot_norest","8324","8","12","Female","","false","","","","","[697.5999999046326,996.7999999523163]","./assets/img/canyon/memory/9.jpg","[""ArrowUp"",""ArrowLeft""]","value training","canyon","26","{""ArrowUp,ArrowLeft"":26,""ArrowUp,ArrowRight"":10,""ArrowDown,ArrowLeft"":5,""ArrowDown,ArrowRight"":17}","true","ArrowUp,ArrowLeft","false","revaluation","1","78","","",""
"html-keyboard-response","196","856110","0.0-4.0-2.0-1.39","spark_pilot_norest","8324","8","12","Female","","","","","","","null","<div style=""font-size:60px;"">+</div>","null","fixation","","","","","","","","","79","","",""
"revaluation","197","862116","0.0-4.0-2.0-0.40","spark_pilot_norest","8324","8","12","Female","","false","","","","","[570.5,508.90000009536743]","./assets/img/canyon/memory/22.jpg","[""ArrowUp"",""ArrowLeft""]","value training","canyon","26","{""ArrowUp,ArrowLeft"":26,""ArrowUp,ArrowRight"":10,""ArrowDown,ArrowLeft"":5,""ArrowDown,ArrowRight"":17}","true","ArrowUp,ArrowLeft","false","revaluation","1","80","","",""
"html-keyboard-response","198","862618","0.0-4.0-2.0-1.40","spark_pilot_norest","8324","8","12","Female","","","","","","","null","<div style=""font-size:60px;"">+</div>","null","fixation","","","","","","","","","81","","",""
"revaluation","199","868626","0.0-4.0-2.0-0.41","spark_pilot_norest","8324","8","12","Female","","false","","","","","[642.6999998092651,651.8000001907349]","./assets/img/canyon/memory/12.jpg","[""ArrowUp"",""ArrowLeft""]","value training","canyon","26","{""ArrowUp,ArrowLeft"":26,""ArrowUp,ArrowRight"":10,""ArrowDown,ArrowLeft"":5,""ArrowDown,ArrowRight"":17}","true","ArrowUp,ArrowLeft","false","revaluation","1","82","","",""
"html-keyboard-response","200","869129","0.0-4.0-2.0-1.41","spark_pilot_norest","8324","8","12","Female","","","","","","","null","<div style=""font-size:60px;"">+</div>","null","fixation","","","","","","","","","83","","",""
"revaluation","201","875150","0.0-4.0-2.0-0.42","spark_pilot_norest","8324","8","12","Female","","false","","","","","[871.3999998569489,536.7000000476837]","./assets/img/canyon/memory/11.jpg","[""ArrowUp"",""ArrowLeft""]","value training","canyon","26","{""ArrowUp,ArrowLeft"":26,""ArrowUp,ArrowRight"":10,""ArrowDown,ArrowLeft"":5,""ArrowDown,ArrowRight"":17}","true","ArrowUp,ArrowLeft","false","revaluation","1","84","","",""
"html-keyboard-response","202","875653","0.0-4.0-2.0-1.42","spark_pilot_norest","8324","8","12","Female","","","","","","","null","<div style=""font-size:60px;"">+</div>","null","fixation","","","","","","","","","85","","",""
"revaluation","203","881659","0.0-4.0-2.0-0.43","spark_pilot_norest","8324","8","12","Female","","false","","","","","[567.2999999523163,506.2000000476837]","./assets/img/canyon/memory/32.jpg","[""ArrowUp"",""ArrowLeft""]","value training","canyon","26","{""ArrowUp,ArrowLeft"":26,""ArrowUp,ArrowRight"":10,""ArrowDown,ArrowLeft"":5,""ArrowDown,ArrowRight"":17}","true","ArrowUp,ArrowLeft","false","revaluation","1","86","","",""
"html-keyboard-response","204","882161","0.0-4.0-2.0-1.43","spark_pilot_norest","8324","8","12","Female","","","","","","","null","<div style=""font-size:60px;"">+</div>","null","fixation","","","","","","","","","87","","",""
"revaluation","205","888168","0.0-4.0-2.0-0.44","spark_pilot_norest","8324","8","12","Female","","false","","","","","[760.2000000476837,507.89999985694885]","./assets/img/canyon/memory/25.jpg","[""ArrowUp"",""ArrowLeft""]","value training","canyon","26","{""ArrowUp,ArrowLeft"":26,""ArrowUp,ArrowRight"":10,""ArrowDown,ArrowLeft"":5,""ArrowDown,ArrowRight"":17}","true","ArrowUp,ArrowLeft","false","revaluation","1","88","","",""
"html-keyboard-response","206","888670","0.0-4.0-2.0-1.44","spark_pilot_norest","8324","8","12","Female","","","","","","","null","<div style=""font-size:60px;"">+</div>","null","fixation","","","","","","","","","89","","",""
"revaluation","207","894677","0.0-4.0-2.0-0.45","spark_pilot_norest","8324","8","12","Female","","false","","","","","[519.3999998569489,678.9000000953674]","./assets/img/canyon/memory/28.jpg","[""ArrowUp"",""ArrowLeft""]","value training","canyon","26","{""ArrowUp,ArrowLeft"":26,""ArrowUp,ArrowRight"":10,""ArrowDown,ArrowLeft"":5,""ArrowDown,ArrowRight"":17}","true","ArrowUp,ArrowLeft","false","revaluation","1","90","","",""
"html-keyboard-response","208","895179","0.0-4.0-2.0-1.45","spark_pilot_norest","8324","8","12","Female","","","","","","","null","<div style=""font-size:60px;"">+</div>","null","fixation","","","","","","","","","91","","",""
"revaluation","209","901184","0.0-4.0-2.0-0.46","spark_pilot_norest","8324","8","12","Female","","false","","","","","[701.3999998569489,393.59999990463257]","./assets/img/canyon/memory/2.jpg","[""ArrowUp"",""ArrowLeft""]","value training","canyon","26","{""ArrowUp,ArrowLeft"":26,""ArrowUp,ArrowRight"":10,""ArrowDown,ArrowLeft"":5,""ArrowDown,ArrowRight"":17}","true","ArrowUp,ArrowLeft","false","revaluation","1","92","","",""
"html-keyboard-response","210","901687","0.0-4.0-2.0-1.46","spark_pilot_norest","8324","8","12","Female","","","","","","","null","<div style=""font-size:60px;"">+</div>","null","fixation","","","","","","","","","93","","",""
"revaluation","211","907694","0.0-4.0-2.0-0.47","spark_pilot_norest","8324","8","12","Female","","false","","","","","[692.7000000476837,601.9000000953674]","./assets/img/canyon/memory/30.jpg","[""ArrowUp"",""ArrowLeft""]","value training","canyon","26","{""ArrowUp,ArrowLeft"":26,""ArrowUp,ArrowRight"":10,""ArrowDown,ArrowLeft"":5,""ArrowDown,ArrowRight"":17}","true","ArrowUp,ArrowLeft","false","revaluation","1","94","","",""
"html-keyboard-response","212","908196","0.0-4.0-2.0-1.47","spark_pilot_norest","8324","8","12","Female","","","","","","","null","<div style=""font-size:60px;"">+</div>","null","fixation","","","","","","","","","95","","",""
"revaluation","213","914203","0.0-4.0-2.0-0.48","spark_pilot_norest","8324","8","12","Female","","false","","","","","[634.7000000476837,303.39999985694885]","./assets/img/canyon/memory/40.jpg","[""ArrowUp"",""ArrowLeft""]","value training","canyon","26","{""ArrowUp,ArrowLeft"":26,""ArrowUp,ArrowRight"":10,""ArrowDown,ArrowLeft"":5,""ArrowDown,ArrowRight"":17}","true","ArrowUp,ArrowLeft","false","revaluation","1","96","","",""
"html-keyboard-response","214","914705","0.0-4.0-2.0-1.48","spark_pilot_norest","8324","8","12","Female","","","","","","","null","<div style=""font-size:60px;"">+</div>","null","fixation","","","","","","","","","97","","",""
"revaluation","215","920710","0.0-4.0-2.0-0.49","spark_pilot_norest","8324","8","12","Female","","false","","","","","[505.90000009536743,564.7999999523163]","./assets/img/canyon/memory/40.jpg","[""ArrowUp"",""ArrowLeft""]","value training","canyon","26","{""ArrowUp,ArrowLeft"":26,""ArrowUp,ArrowRight"":10,""ArrowDown,ArrowLeft"":5,""ArrowDown,ArrowRight"":17}","true","ArrowUp,ArrowLeft","false","revaluation","1","98","","",""
"html-keyboard-response","216","921212","0.0-4.0-2.0-1.49","spark_pilot_norest","8324","8","12","Female","","","","","","","null","<div style=""font-size:60px;"">+</div>","null","fixation","","","","","","","","","99","","",""
"learning-instructions","217","935170","0.0-4.0-3.0-0.0","spark_pilot_norest","8324","8","12","Female","","","","","","","651.3999998569489","<p> Now, you will travel with a friend who will choose whether you go up or down first. </p>
            <p> On these turns, you will just see the animal that they found. You will still get to choose which chest to search for treasure.</p>","","instructions","","","","","","","","","","","",""
"revaluation","218","939186","0.0-4.0-4.0-0.0","spark_pilot_norest","8324","8","12","Female","","false","","","","","[565.5]","./assets/img/canyon/animals/lion.jpg","[""ArrowRight""]","revaluation","canyon","27","{""ArrowUp,ArrowLeft"":2,""ArrowUp,ArrowRight"":11,""ArrowDown,ArrowLeft"":8,""ArrowDown,ArrowRight"":27}","true","ArrowDown,ArrowRight","","revaluation","1","0","","",""
"html-keyboard-response","219","939696","0.0-4.0-4.0-1.0","spark_pilot_norest","8324","8","12","Female","","","","","","","null","<div style=""font-size:60px;"">+</div>","null","fixation","","","","","","","","","1","","",""
"revaluation","220","943712","0.0-4.0-4.0-0.1","spark_pilot_norest","8324","8","12","Female","","false","","","","","[874.6000001430511]","./assets/img/canyon/animals/lion.jpg","[""ArrowLeft""]","revaluation","canyon","8","{""ArrowUp,ArrowLeft"":2,""ArrowUp,ArrowRight"":11,""ArrowDown,ArrowLeft"":8,""ArrowDown,ArrowRight"":27}","false","ArrowDown,ArrowLeft","","revaluation","1","2","","",""
"html-keyboard-response","221","944226","0.0-4.0-4.0-1.1","spark_pilot_norest","8324","8","12","Female","","","","","","","null","<div style=""font-size:60px;"">+</div>","null","fixation","","","","","","","","","3","","",""
"revaluation","222","948236","0.0-4.0-4.0-0.2","spark_pilot_norest","8324","8","12","Female","","false","","","","","[1118.2000000476837]","./assets/img/canyon/animals/giraffe.jpg","[""ArrowRight""]","revaluation","canyon","11","{""ArrowUp,ArrowLeft"":2,""ArrowUp,ArrowRight"":11,""ArrowDown,ArrowLeft"":8,""ArrowDown,ArrowRight"":27}","true","ArrowUp,ArrowRight","","revaluation","1","4","","",""
"html-keyboard-response","223","948748","0.0-4.0-4.0-1.2","spark_pilot_norest","8324","8","12","Female","","","","","","","null","<div style=""font-size:60px;"">+</div>","null","fixation","","","","","","","","","5","","",""
"revaluation","224","952768","0.0-4.0-4.0-0.3","spark_pilot_norest","8324","8","12","Female","","false","","","","","[715.5999999046326]","./assets/img/canyon/animals/giraffe.jpg","[""ArrowLeft""]","revaluation","canyon","2","{""ArrowUp,ArrowLeft"":2,""ArrowUp,ArrowRight"":11,""ArrowDown,ArrowLeft"":8,""ArrowDown,ArrowRight"":27}","false","ArrowUp,ArrowLeft","","revaluation","1","6","","",""
"html-keyboard-response","225","953284","0.0-4.0-4.0-1.3","spark_pilot_norest","8324","8","12","Female","","","","","","","null","<div style=""font-size:60px;"">+</div>","null","fixation","","","","","","","","","7","","",""
"revaluation","226","957306","0.0-4.0-4.0-0.4","spark_pilot_norest","8324","8","12","Female","","false","","","","","[647.3000001907349]","./assets/img/canyon/animals/lion.jpg","[""ArrowRight""]","revaluation","canyon","27","{""ArrowUp,ArrowLeft"":2,""ArrowUp,ArrowRight"":11,""ArrowDown,ArrowLeft"":8,""ArrowDown,ArrowRight"":27}","true","ArrowDown,ArrowRight","","revaluation","1","8","","",""
"html-keyboard-response","227","957820","0.0-4.0-4.0-1.4","spark_pilot_norest","8324","8","12","Female","","","","","","","null","<div style=""font-size:60px;"">+</div>","null","fixation","","","","","","","","","9","","",""
"revaluation","228","961833","0.0-4.0-4.0-0.5","spark_pilot_norest","8324","8","12","Female","","false","","","","","[512.8999998569489]","./assets/img/canyon/animals/giraffe.jpg","[""ArrowRight""]","revaluation","canyon","11","{""ArrowUp,ArrowLeft"":2,""ArrowUp,ArrowRight"":11,""ArrowDown,ArrowLeft"":8,""ArrowDown,ArrowRight"":27}","true","ArrowUp,ArrowRight","","revaluation","1","10","","",""
"html-keyboard-response","229","962346","0.0-4.0-4.0-1.5","spark_pilot_norest","8324","8","12","Female","","","","","","","null","<div style=""font-size:60px;"">+</div>","null","fixation","","","","","","","","","11","","",""
"revaluation","230","966357","0.0-4.0-4.0-0.6","spark_pilot_norest","8324","8","12","Female","","false","","","","","[524]","./assets/img/canyon/animals/lion.jpg","[""ArrowRight""]","revaluation","canyon","27","{""ArrowUp,ArrowLeft"":2,""ArrowUp,ArrowRight"":11,""ArrowDown,ArrowLeft"":8,""ArrowDown,ArrowRight"":27}","true","ArrowDown,ArrowRight","","revaluation","1","12","","",""
"html-keyboard-response","231","966859","0.0-4.0-4.0-1.6","spark_pilot_norest","8324","8","12","Female","","","","","","","null","<div style=""font-size:60px;"">+</div>","null","fixation","","","","","","","","","13","","",""
"revaluation","232","970865","0.0-4.0-4.0-0.7","spark_pilot_norest","8324","8","12","Female","","false","","","","","[471.40000009536743]","./assets/img/canyon/animals/giraffe.jpg","[""ArrowRight""]","revaluation","canyon","11","{""ArrowUp,ArrowLeft"":2,""ArrowUp,ArrowRight"":11,""ArrowDown,ArrowLeft"":8,""ArrowDown,ArrowRight"":27}","true","ArrowUp,ArrowRight","","revaluation","1","14","","",""
"html-keyboard-response","233","971367","0.0-4.0-4.0-1.7","spark_pilot_norest","8324","8","12","Female","","","","","","","null","<div style=""font-size:60px;"">+</div>","null","fixation","","","","","","","","","15","","",""
"revaluation","234","975388","0.0-4.0-4.0-0.8","spark_pilot_norest","8324","8","12","Female","","false","","","","","[954]","./assets/img/canyon/animals/giraffe.jpg","[""ArrowLeft""]","revaluation","canyon","2","{""ArrowUp,ArrowLeft"":2,""ArrowUp,ArrowRight"":11,""ArrowDown,ArrowLeft"":8,""ArrowDown,ArrowRight"":27}","false","ArrowUp,ArrowLeft","","revaluation","1","16","","",""
"html-keyboard-response","235","975890","0.0-4.0-4.0-1.8","spark_pilot_norest","8324","8","12","Female","","","","","","","null","<div style=""font-size:60px;"">+</div>","null","fixation","","","","","","","","","17","","",""
"revaluation","236","979896","0.0-4.0-4.0-0.9","spark_pilot_norest","8324","8","12","Female","","false","","","","","[583.7999999523163]","./assets/img/canyon/animals/giraffe.jpg","[""ArrowRight""]","revaluation","canyon","11","{""ArrowUp,ArrowLeft"":2,""ArrowUp,ArrowRight"":11,""ArrowDown,ArrowLeft"":8,""ArrowDown,ArrowRight"":27}","true","ArrowUp,ArrowRight","","revaluation","1","18","","",""
"html-keyboard-response","237","980399","0.0-4.0-4.0-1.9","spark_pilot_norest","8324","8","12","Female","","","","","","","null","<div style=""font-size:60px;"">+</div>","null","fixation","","","","","","","","","19","","",""
"revaluation","238","984404","0.0-4.0-4.0-0.10","spark_pilot_norest","8324","8","12","Female","","false","","","","","[353.59999990463257]","./assets/img/canyon/animals/giraffe.jpg","[""ArrowRight""]","revaluation","canyon","11","{""ArrowUp,ArrowLeft"":2,""ArrowUp,ArrowRight"":11,""ArrowDown,ArrowLeft"":8,""ArrowDown,ArrowRight"":27}","true","ArrowUp,ArrowRight","","revaluation","1","20","","",""
"html-keyboard-response","239","984906","0.0-4.0-4.0-1.10","spark_pilot_norest","8324","8","12","Female","","","","","","","null","<div style=""font-size:60px;"">+</div>","null","fixation","","","","","","","","","21","","",""
"revaluation","240","988913","0.0-4.0-4.0-0.11","spark_pilot_norest","8324","8","12","Female","","false","","","","","[415.40000009536743]","./assets/img/canyon/animals/giraffe.jpg","[""ArrowRight""]","revaluation","canyon","11","{""ArrowUp,ArrowLeft"":2,""ArrowUp,ArrowRight"":11,""ArrowDown,ArrowLeft"":8,""ArrowDown,ArrowRight"":27}","true","ArrowUp,ArrowRight","","revaluation","1","22","","",""
"html-keyboard-response","241","989416","0.0-4.0-4.0-1.11","spark_pilot_norest","8324","8","12","Female","","","","","","","null","<div style=""font-size:60px;"">+</div>","null","fixation","","","","","","","","","23","","",""
"revaluation","242","993422","0.0-4.0-4.0-0.12","spark_pilot_norest","8324","8","12","Female","","false","","","","","[655.8999998569489]","./assets/img/canyon/animals/lion.jpg","[""ArrowRight""]","revaluation","canyon","27","{""ArrowUp,ArrowLeft"":2,""ArrowUp,ArrowRight"":11,""ArrowDown,ArrowLeft"":8,""ArrowDown,ArrowRight"":27}","true","ArrowDown,ArrowRight","","revaluation","1","24","","",""
"html-keyboard-response","243","993924","0.0-4.0-4.0-1.12","spark_pilot_norest","8324","8","12","Female","","","","","","","null","<div style=""font-size:60px;"">+</div>","null","fixation","","","","","","","","","25","","",""
"revaluation","244","997930","0.0-4.0-4.0-0.13","spark_pilot_norest","8324","8","12","Female","","false","","","","","[857]","./assets/img/canyon/animals/giraffe.jpg","[""ArrowRight""]","revaluation","canyon","11","{""ArrowUp,ArrowLeft"":2,""ArrowUp,ArrowRight"":11,""ArrowDown,ArrowLeft"":8,""ArrowDown,ArrowRight"":27}","true","ArrowUp,ArrowRight","","revaluation","1","26","","",""
"html-keyboard-response","245","998431","0.0-4.0-4.0-1.13","spark_pilot_norest","8324","8","12","Female","","","","","","","null","<div style=""font-size:60px;"">+</div>","null","fixation","","","","","","","","","27","","",""
"revaluation","246","1002436","0.0-4.0-4.0-0.14","spark_pilot_norest","8324","8","12","Female","","false","","","","","[479.59999990463257]","./assets/img/canyon/animals/lion.jpg","[""ArrowRight""]","revaluation","canyon","27","{""ArrowUp,ArrowLeft"":2,""ArrowUp,ArrowRight"":11,""ArrowDown,ArrowLeft"":8,""ArrowDown,ArrowRight"":27}","true","ArrowDown,ArrowRight","","revaluation","1","28","","",""
"html-keyboard-response","247","1002939","0.0-4.0-4.0-1.14","spark_pilot_norest","8324","8","12","Female","","","","","","","null","<div style=""font-size:60px;"">+</div>","null","fixation","","","","","","","","","29","","",""
"revaluation","248","1006941","0.0-4.0-4.0-0.15","spark_pilot_norest","8324","8","12","Female","","false","","","","","[494.2000000476837]","./assets/img/canyon/animals/lion.jpg","[""ArrowRight""]","revaluation","canyon","27","{""ArrowUp,ArrowLeft"":2,""ArrowUp,ArrowRight"":11,""ArrowDown,ArrowLeft"":8,""ArrowDown,ArrowRight"":27}","true","ArrowDown,ArrowRight","","revaluation","1","30","","",""
"html-keyboard-response","249","1007443","0.0-4.0-4.0-1.15","spark_pilot_norest","8324","8","12","Female","","","","","","","null","<div style=""font-size:60px;"">+</div>","null","fixation","","","","","","","","","31","","",""
"revaluation","250","1011449","0.0-4.0-4.0-0.16","spark_pilot_norest","8324","8","12","Female","","false","","","","","[398.59999990463257]","./assets/img/canyon/animals/lion.jpg","[""ArrowRight""]","revaluation","canyon","27","{""ArrowUp,ArrowLeft"":2,""ArrowUp,ArrowRight"":11,""ArrowDown,ArrowLeft"":8,""ArrowDown,ArrowRight"":27}","true","ArrowDown,ArrowRight","","revaluation","1","32","","",""
"html-keyboard-response","251","1011951","0.0-4.0-4.0-1.16","spark_pilot_norest","8324","8","12","Female","","","","","","","null","<div style=""font-size:60px;"">+</div>","null","fixation","","","","","","","","","33","","",""
"revaluation","252","1015958","0.0-4.0-4.0-0.17","spark_pilot_norest","8324","8","12","Female","","false","","","","","[499]","./assets/img/canyon/animals/lion.jpg","[""ArrowRight""]","revaluation","canyon","27","{""ArrowUp,ArrowLeft"":2,""ArrowUp,ArrowRight"":11,""ArrowDown,ArrowLeft"":8,""ArrowDown,ArrowRight"":27}","true","ArrowDown,ArrowRight","","revaluation","1","34","","",""
"html-keyboard-response","253","1016460","0.0-4.0-4.0-1.17","spark_pilot_norest","8324","8","12","Female","","","","","","","null","<div style=""font-size:60px;"">+</div>","null","fixation","","","","","","","","","35","","",""
"learning-instructions","254","1024972","0.0-4.0-5.0-0.0","spark_pilot_norest","8324","8","12","Female","","","","","","","null","<p> You have almost finished this part of the game! </p>
            <p> We are going to ask you to make a few more choices. </p>","","instructions","","","","","","","","","","","",""
"learning-instructions","255","1040943","0.0-4.0-5.0-0.1","spark_pilot_norest","8324","8","12","Female","","","","","","","null","<p> First, you need to decide whether to go up or down. When you see each picture, use the arrow keys to make your choice. </p>
            <p><b>You will not see which animal you found, but try to get to the one that will give you the most treasure.</b></p>","","instructions","","","","","","","","","","","",""
"html-keyboard-response","256","1041958","0.0-4.0-6.0-0.0","spark_pilot_norest","8324","8","12","Female","","","","","","","null","<div style=""font-size:100px;color:red;"">Starting in...</div>","null","","","","","","","","","","","","",""
"html-keyboard-response","257","1042965","0.0-4.0-6.0-1.0","spark_pilot_norest","8324","8","12","Female","","","","","","","null","<div style=""font-size:200px;color:red;"">3</div>","null","","","","","","","","","","","","",""
"html-keyboard-response","258","1043967","0.0-4.0-6.0-2.0","spark_pilot_norest","8324","8","12","Female","","","","","","","null","<div style=""font-size:200px;color:red;"">2</div>","null","","","","","","","","","","","","",""
"html-keyboard-response","259","1044968","0.0-4.0-6.0-3.0","spark_pilot_norest","8324","8","12","Female","","","","","","","null","<div style=""font-size:200px;color:red;"">1</div>","null","","","","","","","","","","","","",""
"revaluation","260","1045395","0.0-4.0-7.0-0.0","spark_pilot_norest","8324","8","12","Female","","false","","","","","[423.09999990463257]","./assets/img/canyon/test/1.jpg","[""ArrowUp""]","first stage test","canyon","0","{""ArrowUp,ArrowLeft"":2,""ArrowUp,ArrowRight"":11,""ArrowDown,ArrowLeft"":8,""ArrowDown,ArrowRight"":27}","false","ArrowUp","false","revaluation","1","","","",""
"html-keyboard-response","261","1045900","0.0-4.0-7.0-1.0","spark_pilot_norest","8324","8","12","Female","","","","","","","null","<div style=""font-size:60px;"">+</div>","null","fixation","","","","","","","","","","","",""
"revaluation","262","1046515","0.0-4.0-7.0-0.1","spark_pilot_norest","8324","8","12","Female","","false","","","","","[611.2000000476837]","./assets/img/canyon/test/3.jpg","[""ArrowUp""]","first stage test","canyon","0","{""ArrowUp,ArrowLeft"":2,""ArrowUp,ArrowRight"":11,""ArrowDown,ArrowLeft"":8,""ArrowDown,ArrowRight"":27}","false","ArrowUp","false","revaluation","1","","","",""
"html-keyboard-response","263","1047022","0.0-4.0-7.0-1.1","spark_pilot_norest","8324","8","12","Female","","","","","","","null","<div style=""font-size:60px;"">+</div>","null","fixation","","","","","","","","","","","",""
"revaluation","264","1047824","0.0-4.0-7.0-0.2","spark_pilot_norest","8324","8","12","Female","","false","","","","","[799.1000001430511]","./assets/img/canyon/test/0.jpg","[""ArrowUp""]","first stage test","canyon","0","{""ArrowUp,ArrowLeft"":2,""ArrowUp,ArrowRight"":11,""ArrowDown,ArrowLeft"":8,""ArrowDown,ArrowRight"":27}","false","ArrowUp","false","revaluation","1","","","",""
"html-keyboard-response","265","1048332","0.0-4.0-7.0-1.2","spark_pilot_norest","8324","8","12","Female","","","","","","","null","<div style=""font-size:60px;"">+</div>","null","fixation","","","","","","","","","","","",""
"revaluation","266","1048786","0.0-4.0-7.0-0.3","spark_pilot_norest","8324","8","12","Female","","false","","","","","[452.09999990463257]","./assets/img/canyon/test/2.jpg","[""ArrowDown""]","first stage test","canyon","0","{""ArrowUp,ArrowLeft"":2,""ArrowUp,ArrowRight"":11,""ArrowDown,ArrowLeft"":8,""ArrowDown,ArrowRight"":27}","true","ArrowDown","false","revaluation","1","","","",""
"html-keyboard-response","267","1049299","0.0-4.0-7.0-1.3","spark_pilot_norest","8324","8","12","Female","","","","","","","null","<div style=""font-size:60px;"">+</div>","null","fixation","","","","","","","","","","","",""
"learning-instructions","268","1062659","0.0-4.0-8.0-0.0","spark_pilot_norest","8324","8","12","Female","","","","","","","null","<p> Now you will see the animals again and can search their chests for treasure. </p>
            <p> This time, you will not see how much treasure you earned, but you will earn more bonus money for making better choices. </p>","","instructions","","","","","","","","","","","",""
"html-keyboard-response","269","1063664","0.0-4.0-9.0-0.0","spark_pilot_norest","8324","8","12","Female","","","","","","","null","<div style=""font-size:100px;color:red;"">Starting in...</div>","null","","","","","","","","","","","","",""
"html-keyboard-response","270","1064678","0.0-4.0-9.0-1.0","spark_pilot_norest","8324","8","12","Female","","","","","","","null","<div style=""font-size:200px;color:red;"">3</div>","null","","","","","","","","","","","","",""
"html-keyboard-response","271","1065692","0.0-4.0-9.0-2.0","spark_pilot_norest","8324","8","12","Female","","","","","","","null","<div style=""font-size:200px;color:red;"">2</div>","null","","","","","","","","","","","","",""
"html-keyboard-response","272","1066706","0.0-4.0-9.0-3.0","spark_pilot_norest","8324","8","12","Female","","","","","","","null","<div style=""font-size:200px;color:red;"">1</div>","null","","","","","","","","","","","","",""
"revaluation","273","1067344","0.0-4.0-10.0-0.0","spark_pilot_norest","8324","8","12","Female","","false","","","","","[635.5]","./assets/img/canyon/animals/giraffe.jpg","[""ArrowRight""]","second stage test","canyon","0","{""ArrowUp,ArrowLeft"":2,""ArrowUp,ArrowRight"":11,""ArrowDown,ArrowLeft"":8,""ArrowDown,ArrowRight"":27}","true","ArrowUp,ArrowRight","","revaluation","1","","","",""
"html-keyboard-response","274","1067860","0.0-4.0-10.0-1.0","spark_pilot_norest","8324","8","12","Female","","","","","","","null","<div style=""font-size:60px;"">+</div>","null","fixation","","","","","","","","","","","",""
"revaluation","275","1068344","0.0-4.0-10.0-0.1","spark_pilot_norest","8324","8","12","Female","","false","","","","","[481.2000000476837]","./assets/img/canyon/animals/giraffe.jpg","[""ArrowRight""]","second stage test","canyon","0","{""ArrowUp,ArrowLeft"":2,""ArrowUp,ArrowRight"":11,""ArrowDown,ArrowLeft"":8,""ArrowDown,ArrowRight"":27}","true","ArrowUp,ArrowRight","","revaluation","1","","","",""
"html-keyboard-response","276","1068858","0.0-4.0-10.0-1.1","spark_pilot_norest","8324","8","12","Female","","","","","","","null","<div style=""font-size:60px;"">+</div>","null","fixation","","","","","","","","","","","",""
"revaluation","277","1070125","0.0-4.0-10.0-0.2","spark_pilot_norest","8324","8","12","Female","","false","","","","","[1265.2000000476837]","./assets/img/canyon/animals/giraffe.jpg","[""ArrowRight""]","second stage test","canyon","0","{""ArrowUp,ArrowLeft"":2,""ArrowUp,ArrowRight"":11,""ArrowDown,ArrowLeft"":8,""ArrowDown,ArrowRight"":27}","true","ArrowUp,ArrowRight","","revaluation","1","","","",""
"html-keyboard-response","278","1070637","0.0-4.0-10.0-1.2","spark_pilot_norest","8324","8","12","Female","","","","","","","null","<div style=""font-size:60px;"">+</div>","null","fixation","","","","","","","","","","","",""
"revaluation","279","1071355","0.0-4.0-10.0-0.3","spark_pilot_norest","8324","8","12","Female","","false","","","","","[714.5999999046326]","./assets/img/canyon/animals/giraffe.jpg","[""ArrowRight""]","second stage test","canyon","0","{""ArrowUp,ArrowLeft"":2,""ArrowUp,ArrowRight"":11,""ArrowDown,ArrowLeft"":8,""ArrowDown,ArrowRight"":27}","true","ArrowUp,ArrowRight","","revaluation","1","","","",""
"html-keyboard-response","280","1071869","0.0-4.0-10.0-1.3","spark_pilot_norest","8324","8","12","Female","","","","","","","null","<div style=""font-size:60px;"">+</div>","null","fixation","","","","","","","","","","","",""
"revaluation","281","1072594","0.0-4.0-10.0-0.4","spark_pilot_norest","8324","8","12","Female","","false","","","","","[723.0999999046326]","./assets/img/canyon/animals/lion.jpg","[""ArrowRight""]","second stage test","canyon","0","{""ArrowUp,ArrowLeft"":2,""ArrowUp,ArrowRight"":11,""ArrowDown,ArrowLeft"":8,""ArrowDown,ArrowRight"":27}","true","ArrowDown,ArrowRight","","revaluation","1","","","",""
"html-keyboard-response","282","1073103","0.0-4.0-10.0-1.4","spark_pilot_norest","8324","8","12","Female","","","","","","","null","<div style=""font-size:60px;"">+</div>","null","fixation","","","","","","","","","","","",""
"revaluation","283","1074144","0.0-4.0-10.0-0.5","spark_pilot_norest","8324","8","12","Female","","false","","","","","[1038.0999999046326]","./assets/img/canyon/animals/lion.jpg","[""ArrowLeft""]","second stage test","canyon","0","{""ArrowUp,ArrowLeft"":2,""ArrowUp,ArrowRight"":11,""ArrowDown,ArrowLeft"":8,""ArrowDown,ArrowRight"":27}","false","ArrowDown,ArrowLeft","","revaluation","1","","","",""
"html-keyboard-response","284","1074660","0.0-4.0-10.0-1.5","spark_pilot_norest","8324","8","12","Female","","","","","","","null","<div style=""font-size:60px;"">+</div>","null","fixation","","","","","","","","","","","",""
"revaluation","285","1075035","0.0-4.0-10.0-0.6","spark_pilot_norest","8324","8","12","Female","","false","","","","","[372.2000000476837]","./assets/img/canyon/animals/lion.jpg","[""ArrowRight""]","second stage test","canyon","0","{""ArrowUp,ArrowLeft"":2,""ArrowUp,ArrowRight"":11,""ArrowDown,ArrowLeft"":8,""ArrowDown,ArrowRight"":27}","true","ArrowDown,ArrowRight","","revaluation","1","","","",""
"html-keyboard-response","286","1075536","0.0-4.0-10.0-1.6","spark_pilot_norest","8324","8","12","Female","","","","","","","null","<div style=""font-size:60px;"">+</div>","null","fixation","","","","","","","","","","","",""
"revaluation","287","1075933","0.0-4.0-10.0-0.7","spark_pilot_norest","8324","8","12","Female","","false","","","","","[395.40000009536743]","./assets/img/canyon/animals/lion.jpg","[""ArrowLeft""]","second stage test","canyon","0","{""ArrowUp,ArrowLeft"":2,""ArrowUp,ArrowRight"":11,""ArrowDown,ArrowLeft"":8,""ArrowDown,ArrowRight"":27}","false","ArrowDown,ArrowLeft","","revaluation","1","","","",""
"html-keyboard-response","288","1076437","0.0-4.0-10.0-1.7","spark_pilot_norest","8324","8","12","Female","","","","","","","null","<div style=""font-size:60px;"">+</div>","null","fixation","","","","","","","","","","","",""
"learning-instructions","289","1082228","0.0-4.0-0.1-0.2","spark_pilot_norest","8324","8","12","Female","","","","","","","1867.2000000476837","<p> This time you are searching for treasure in the <b>ocean</b>.</p>","","instructions","","","","","","","","","","","",""
"learning-instructions","290","1100039","0.0-4.0-0.1-0.3","spark_pilot_norest","8324","8","12","Female","","","","","","","557","<p><b>New</b> animals with <b>new</b> treasure chests live here. You need to explore to discover where the animal with the best treasure chest is.</p>
                    <p> Like before, once you figure out which animal has the chest with the most treasure, you should try to get to that animal and select that chest! </p>","","instructions","","","","","","","","","","","",""
"learning-instructions","291","1116158","0.0-4.0-1.1-0.1","spark_pilot_norest","8324","8","12","Female","","","","","","","1386.9000000953674","<p> Remember, when you see a picture of the place, use the up and down keys to <b>find an animal</b>.</p>
            <p> When you encounter an animal, you should use the left and right keys to <b>select a treasure chest</b>.</p>
            <p> Don't forget to look out for the robber! </p>","","instructions","","","","","","","","","","","",""
"revaluation","292","1122182","0.0-4.0-2.1-0.50","spark_pilot_norest","8324","8","12","Female","","false","","","","","[595.9000000953674,550.8999998569489]","./assets/img/ocean/memory/9.jpg","[""ArrowUp"",""ArrowRight""]","value training","ocean","10","{""ArrowUp,ArrowLeft"":23,""ArrowUp,ArrowRight"":10,""ArrowDown,ArrowLeft"":8,""ArrowDown,ArrowRight"":30}","false","ArrowUp,ArrowRight","false","original","2","0","","",""
"html-keyboard-response","293","1122693","0.0-4.0-2.1-1.50","spark_pilot_norest","8324","8","12","Female","","","","","","","null","<div style=""font-size:60px;"">+</div>","null","fixation","","","","","","","","","1","","",""
"revaluation","294","1128730","0.0-4.0-2.1-0.51","spark_pilot_norest","8324","8","12","Female","","false","","","","","[419.5,463.30000019073486]","./assets/img/ocean/memory/26.jpg","[""ArrowUp"",""ArrowLeft""]","value training","ocean","23","{""ArrowUp,ArrowLeft"":23,""ArrowUp,ArrowRight"":10,""ArrowDown,ArrowLeft"":8,""ArrowDown,ArrowRight"":30}","false","ArrowUp,ArrowLeft","false","original","2","2","","",""
"html-keyboard-response","295","1129246","0.0-4.0-2.1-1.51","spark_pilot_norest","8324","8","12","Female","","","","","","","null","<div style=""font-size:60px;"">+</div>","null","fixation","","","","","","","","","3","","",""
"revaluation","296","1135284","0.0-4.0-2.1-0.52","spark_pilot_norest","8324","8","12","Female","","false","","","","","[557.0999999046326,394.89999985694885]","./assets/img/ocean/memory/22.jpg","[""ArrowDown"",""ArrowRight""]","value training","ocean","30","{""ArrowUp,ArrowLeft"":23,""ArrowUp,ArrowRight"":10,""ArrowDown,ArrowLeft"":8,""ArrowDown,ArrowRight"":30}","true","ArrowDown,ArrowRight","false","original","2","4","","",""
"html-keyboard-response","297","1135795","0.0-4.0-2.1-1.52","spark_pilot_norest","8324","8","12","Female","","","","","","","null","<div style=""font-size:60px;"">+</div>","null","fixation","","","","","","","","","5","","",""
"revaluation","298","1139818","0.0-4.0-2.1-0.53","spark_pilot_norest","8324","8","12","Female","","false","","","","","[647.1000001430511]","./assets/img/ocean/catch/6.jpg","[""ArrowDown""]","value training","ocean","-10","{""ArrowUp,ArrowLeft"":23,""ArrowUp,ArrowRight"":10,""ArrowDown,ArrowLeft"":8,""ArrowDown,ArrowRight"":30}","false","ArrowDown","true","original","2","6","","",""
"html-keyboard-response","299","1140332","0.0-4.0-2.1-1.53","spark_pilot_norest","8324","8","12","Female","","","","","","","null","<div style=""font-size:60px;"">+</div>","null","fixation","","","","","","","","","7","","",""
"revaluation","300","1146356","0.0-4.0-2.1-0.54","spark_pilot_norest","8324","8","12","Female","","false","","","","","[760.5,460.7000000476837]","./assets/img/ocean/memory/30.jpg","[""ArrowDown"",""ArrowLeft""]","value training","ocean","8","{""ArrowUp,ArrowLeft"":23,""ArrowUp,ArrowRight"":10,""ArrowDown,ArrowLeft"":8,""ArrowDown,ArrowRight"":30}","false","ArrowDown,ArrowLeft","false","original","2","8","","",""
"html-keyboard-response","301","1146858","0.0-4.0-2.1-1.54","spark_pilot_norest","8324","8","12","Female","","","","","","","null","<div style=""font-size:60px;"">+</div>","null","fixation","","","","","","","","","9","","",""
"revaluation","302","1152866","0.0-4.0-2.1-0.55","spark_pilot_norest","8324","8","12","Female","","false","","","","","[711.1000001430511,450.60000014305115]","./assets/img/ocean/memory/28.jpg","[""ArrowDown"",""ArrowRight""]","value training","ocean","30","{""ArrowUp,ArrowLeft"":23,""ArrowUp,ArrowRight"":10,""ArrowDown,ArrowLeft"":8,""ArrowDown,ArrowRight"":30}","true","ArrowDown,ArrowRight","false","original","2","10","","",""
"html-keyboard-response","303","1153368","0.0-4.0-2.1-1.55","spark_pilot_norest","8324","8","12","Female","","","","","","","null","<div style=""font-size:60px;"">+</div>","null","fixation","","","","","","","","","11","","",""
"revaluation","304","1159376","0.0-4.0-2.1-0.56","spark_pilot_norest","8324","8","12","Female","","false","","","","","[815.0999999046326,442.10000014305115]","./assets/img/ocean/memory/33.jpg","[""ArrowDown"",""ArrowRight""]","value training","ocean","30","{""ArrowUp,ArrowLeft"":23,""ArrowUp,ArrowRight"":10,""ArrowDown,ArrowLeft"":8,""ArrowDown,ArrowRight"":30}","true","ArrowDown,ArrowRight","false","original","2","12","","",""
"html-keyboard-response","305","1159879","0.0-4.0-2.1-1.56","spark_pilot_norest","8324","8","12","Female","","","","","","","null","<div style=""font-size:60px;"">+</div>","null","fixation","","","","","","","","","13","","",""
"revaluation","306","1165886","0.0-4.0-2.1-0.57","spark_pilot_norest","8324","8","12","Female","","false","","","","","[594.2999999523163,383.39999985694885]","./assets/img/ocean/memory/41.jpg","[""ArrowDown"",""ArrowRight""]","value training","ocean","30","{""ArrowUp,ArrowLeft"":23,""ArrowUp,ArrowRight"":10,""ArrowDown,ArrowLeft"":8,""ArrowDown,ArrowRight"":30}","true","ArrowDown,ArrowRight","false","original","2","14","","",""
"html-keyboard-response","307","1166388","0.0-4.0-2.1-1.57","spark_pilot_norest","8324","8","12","Female","","","","","","","null","<div style=""font-size:60px;"">+</div>","null","fixation","","","","","","","","","15","","",""
"revaluation","308","1170394","0.0-4.0-2.1-0.58","spark_pilot_norest","8324","8","12","Female","","false","","","","","[413.2999999523163]","./assets/img/ocean/catch/4.jpg","[""ArrowDown""]","value training","ocean","-10","{""ArrowUp,ArrowLeft"":23,""ArrowUp,ArrowRight"":10,""ArrowDown,ArrowLeft"":8,""ArrowDown,ArrowRight"":30}","false","ArrowDown","true","original","2","16","","",""
"html-keyboard-response","309","1170896","0.0-4.0-2.1-1.58","spark_pilot_norest","8324","8","12","Female","","","","","","","null","<div style=""font-size:60px;"">+</div>","null","fixation","","","","","","","","","17","","",""
"revaluation","310","1176903","0.0-4.0-2.1-0.59","spark_pilot_norest","8324","8","12","Female","","false","","","","","[697.5,514.2999999523163]","./assets/img/ocean/memory/19.jpg","[""ArrowDown"",""ArrowRight""]","value training","ocean","30","{""ArrowUp,ArrowLeft"":23,""ArrowUp,ArrowRight"":10,""ArrowDown,ArrowLeft"":8,""ArrowDown,ArrowRight"":30}","true","ArrowDown,ArrowRight","false","original","2","18","","",""
"html-keyboard-response","311","1177405","0.0-4.0-2.1-1.59","spark_pilot_norest","8324","8","12","Female","","","","","","","null","<div style=""font-size:60px;"">+</div>","null","fixation","","","","","","","","","19","","",""
