"trial_type","trial_index","time_elapsed","internal_node_id","task_version","subject_id","assigned_condition","age","gender","success","timeout","failed_images","failed_audio","failed_video","browser_interaction","rt","stimulus","response","task_part","environment","score","rewardMap","correct","fullState","isCatch","condition","order","trial_num","key_press","ground_truth","bonus"
"pavlovia","0","1563","0.0-0.0","spark_pilot_norest","9642","1","16","Female","","","","","","","","","","","","","","","","","","","","","",""
"preload","1","14261","0.0-1.0","spark_pilot_norest","9642","1","16","Female","true","false","[]","[]","[]","[{""event"":""fullscreenenter"",""trial"":2,""time"":24820}]","","","","","","","","","","","","","","","",""
"fullscreen","2","25792","0.0-2.0","spark_pilot_norest","9642","1","16","Female","true","","","","","","","","","","","","","","","","","","","","",""
"audio-button-response","3","27159","0.0-3.0-0.0-0.0","spark_pilot_norest","9642","1","16","Female","","","","","","","1260","./assets/audio/audiotest/turtle.mp3","2","audio_test","","","","","","","","","","","",""
"learning-instructions","4","35895","0.0-3.0-1.0-0.0","spark_pilot_norest","9642","1","16","Female","","","","","","","1697.5999999046326","<p> Welcome! Please remember to stay in fullscreen mode and don't click away from the experiment. </p>","","instructions","","","","","","","","","","","",""
"learning-instructions","5","45351","0.0-3.0-1.0-0.1","spark_pilot_norest","9642","1","16","Female","","","","","","","1023.5","<p> Today you will be playing a game to earn treasure. </p>
            <p> At the end of the experiment, you will earn a bonus based on how much treasure you find. </p>
            <img src='./assets/img/instructions/treasure.jpg' class='instructions-image'>","","instructions","","","","","","","","","","","",""
"learning-instructions","6","54839","0.0-3.0-1.0-0.2","spark_pilot_norest","9642","1","16","Female","","","","","","","1211.1000000238419","<p> Animals have hidden treasure in treasure chests. </p>
            <p> You need to first find an animal and then choose which of their treasure chests to search. </p>
            <img src='./assets/img/space/animals/cat.jpg' class='instructions-image'>","","instructions","","","","","","","","","","","",""
"learning-instructions","7","68831","0.0-3.0-1.0-0.3","spark_pilot_norest","9642","1","16","Female","","","","","","","823.8000000715256","<p> In each round, you will search for treasure in a different place. In the real game, there will be two rounds. </p>
            <p> You will begin with a separate, practice round where you will search for treasure in outer space. </p>
            <img src='./assets/img/space/0.jpg' class='instructions-image'>","","instructions","","","","","","","","","","","",""
"learning-instructions","8","80847","0.0-3.0-1.0-0.4","spark_pilot_norest","9642","1","16","Female","","","","","","","579.7000000476837","<p> On every turn, you will see a picture of the place that you are in, but the specific image may be different each time. </p>
            <p> For example, both of these images mean you are in outer space. </p>
            <img src='./assets/img/instructions/outerspace.jpg' class='instructions-image'>","","instructions","","","","","","","","","","","",""
"learning-instructions","9","89735","0.0-3.0-1.0-0.5","spark_pilot_norest","9642","1","16","Female","","","","","","","1037.3999999761581","<p> You need to decide which direction to travel in. </p>
            <p> You can choose between going <b>up or down</b> by using the arrow keys. </p>
            <img src='./assets/img/instructions/updown.jpg' class='instructions-image'>","","instructions","","","","","","","","","","","",""
"learning-instructions","10","101294","0.0-3.0-1.0-0.6","spark_pilot_norest","9642","1","16","Female","","","","","","","2737.600000023842","<p> You will have <b>2 seconds</b> to make your choice. </p>
            <p> If you do not make a choice within 2 seconds, you will not find an animal or earn treasure. </p>
            <img src='./assets/img/instructions/2seconds.jpg' class='instructions-image'>","","instructions","","","","","","","","","","","",""
"learning-instructions","11","109935","0.0-3.0-1.0-0.7","spark_pilot_norest","9642","1","16","Female","","","","","","","1587.7000000476837","<p> Let’s try practicing that now! </p>
            <p> When you see a picture of the place you are in, press the <b>up</b> key to travel up. </p>
            <img src='./assets/img/instructions/pressUp.jpg' class='instructions-image'>","","instructions","","","","","","","","","","","",""
"revaluation","12","113960","0.0-3.0-2.0-0.0","spark_pilot_norest","9642","1","16","Female","","false","","","","","[1054.2000000476837]","./assets/img/space/0.jpg","[""ArrowUp""]","first stage practice","space","0","null","null","ArrowUp","false","","","","","",""
"html-keyboard-response","13","114463","0.0-3.0-2.0-1.0","spark_pilot_norest","9642","1","16","Female","","","","","","","null","<div style=""font-size:60px;"">+</div>","null","fixation","","","","","","","","","","","",""
"revaluation","14","118494","0.0-3.0-2.0-0.1","spark_pilot_norest","9642","1","16","Female","","false","","","","","[1122.7000000476837]","./assets/img/space/1.jpg","[""ArrowUp""]","first stage practice","space","0","null","null","ArrowUp","false","","","","","",""
"html-keyboard-response","15","119005","0.0-3.0-2.0-1.1","spark_pilot_norest","9642","1","16","Female","","","","","","","null","<div style=""font-size:60px;"">+</div>","null","fixation","","","","","","","","","","","",""
"revaluation","16","123027","0.0-3.0-2.0-0.2","spark_pilot_norest","9642","1","16","Female","","false","","","","","[1007.6000000238419]","./assets/img/space/2.jpg","[""ArrowUp""]","first stage practice","space","0","null","null","ArrowUp","false","","","","","",""
"html-keyboard-response","17","123535","0.0-3.0-2.0-1.2","spark_pilot_norest","9642","1","16","Female","","","","","","","null","<div style=""font-size:60px;"">+</div>","null","fixation","","","","","","","","","","","",""
"learning-instructions","18","129258","0.0-3.0-3.0-0.0","spark_pilot_norest","9642","1","16","Female","","","","","","","990.3999999761581","<p> Great job! Now try pressing the <b>down</b> key to travel down. </p>
            <img src='./assets/img/instructions/pressDown.jpg' class='instructions-image'>","","instructions","","","","","","","","","","","",""
"revaluation","19","133277","0.0-3.0-4.0-0.0","spark_pilot_norest","9642","1","16","Female","","false","","","","","[623.8000000715256]","./assets/img/space/3.jpg","[""ArrowDown""]","first stage practice","space","0","null","null","ArrowDown","false","","","","","",""
"html-keyboard-response","20","133794","0.0-3.0-4.0-1.0","spark_pilot_norest","9642","1","16","Female","","","","","","","null","<div style=""font-size:60px;"">+</div>","null","fixation","","","","","","","","","","","",""
"revaluation","21","137816","0.0-3.0-4.0-0.1","spark_pilot_norest","9642","1","16","Female","","false","","","","","[522.7999999523163]","./assets/img/space/4.jpg","[""ArrowDown""]","first stage practice","space","0","null","null","ArrowDown","false","","","","","",""
"html-keyboard-response","22","138330","0.0-3.0-4.0-1.1","spark_pilot_norest","9642","1","16","Female","","","","","","","null","<div style=""font-size:60px;"">+</div>","null","fixation","","","","","","","","","","","",""
"revaluation","23","142342","0.0-3.0-4.0-0.2","spark_pilot_norest","9642","1","16","Female","","false","","","","","[2.399999976158142]","./assets/img/space/5.jpg","[""ArrowDown""]","first stage practice","space","0","null","null","ArrowDown","false","","","","","",""
"html-keyboard-response","24","142847","0.0-3.0-4.0-1.2","spark_pilot_norest","9642","1","16","Female","","","","","","","null","<div style=""font-size:60px;"">+</div>","null","fixation","","","","","","","","","","","",""
"learning-instructions","25","154207","0.0-3.0-5.0-0.0","spark_pilot_norest","9642","1","16","Female","","","","","","","1440.5","<p> The animals don’t move, so the animal in the upper part of a place will stay in the upper part of a place, and the animal in the lower part of a place will stay in the lower part of a place. </p>","","instructions","","","","","","","","","","","",""
"learning-instructions","26","164255","0.0-3.0-5.0-0.1","spark_pilot_norest","9642","1","16","Female","","","","","","","898.6000000238419","<p> Each animal has two treasure chests for you to choose from. </p>
            <p> The amount of treasure in each chest can range from <b> 0 to 40 pieces.</b></p>","","instructions","","","","","","","","","","","",""
"learning-instructions","27","176231","0.0-3.0-5.0-0.2","spark_pilot_norest","9642","1","16","Female","","","","","","","763.2999999523163","<p> You should decide which chest to search for treasure by using the <b>left</b> and <b>right</b> arrow keys. </p>
            <p><b> Pay attention to which animal is on the screen, as the animals have different treasure chests. </b></p>
            <img src='./assets/img/instructions/leftright.jpg' class='instructions-image'>","","instructions","","","","","","","","","","","",""
"learning-instructions","28","185591","0.0-3.0-5.0-0.3","spark_pilot_norest","9642","1","16","Female","","","","","","","2973.600000023842","<p> Let’s try practicing that now. </p>
            <p> When you see an animal, choose which chest to search for treasure. </p>
            <img src='./assets/img/instructions/chooseChest.jpg' class='instructions-image'>","","instructions","","","","","","","","","","","",""
"revaluation","29","189615","0.0-3.0-6.0-0.0","spark_pilot_norest","9642","1","16","Female","","false","","","","","[1193.2000000476837]","./assets/img/space/animals/cat.jpg","[""ArrowLeft""]","second stage practice","space","3","{""ArrowUp,ArrowLeft"":3,""ArrowUp,ArrowRight"":36,""ArrowDown,ArrowLeft"":15,""ArrowDown,ArrowRight"":23}","false","ArrowUp,ArrowLeft","","","","","","",""
"html-keyboard-response","30","190131","0.0-3.0-6.0-1.0","spark_pilot_norest","9642","1","16","Female","","","","","","","null","<div style=""font-size:60px;"">+</div>","null","fixation","","","","","","","","","","","",""
"revaluation","31","194155","0.0-3.0-6.0-0.1","spark_pilot_norest","9642","1","16","Female","","false","","","","","[879.5]","./assets/img/space/animals/rabbit.jpg","[""ArrowRight""]","second stage practice","space","23","{""ArrowUp,ArrowLeft"":3,""ArrowUp,ArrowRight"":36,""ArrowDown,ArrowLeft"":15,""ArrowDown,ArrowRight"":23}","true","ArrowDown,ArrowRight","","","","","","",""
"html-keyboard-response","32","194662","0.0-3.0-6.0-1.1","spark_pilot_norest","9642","1","16","Female","","","","","","","null","<div style=""font-size:60px;"">+</div>","null","fixation","","","","","","","","","","","",""
"revaluation","33","198679","0.0-3.0-6.0-0.2","spark_pilot_norest","9642","1","16","Female","","false","","","","","[515.5]","./assets/img/space/animals/rabbit.jpg","[""ArrowRight""]","second stage practice","space","23","{""ArrowUp,ArrowLeft"":3,""ArrowUp,ArrowRight"":36,""ArrowDown,ArrowLeft"":15,""ArrowDown,ArrowRight"":23}","true","ArrowDown,ArrowRight","","","","","","",""
"html-keyboard-response","34","199188","0.0-3.0-6.0-1.2","spark_pilot_norest","9642","1","16","Female","","","","","","","null","<div style=""font-size:60px;"">+</div>","null","fixation","","","","","","","","","","","",""
"revaluation","35","203198","0.0-3.0-6.0-0.3","spark_pilot_norest","9642","1","16","Female","","false","","","","","[910.4000000953674]","./assets/img/space/animals/cat.jpg","[""ArrowRight""]","second stage practice","space","36","{""ArrowUp,ArrowLeft"":3,""ArrowUp,ArrowRight"":36,""ArrowDown,ArrowLeft"":15,""ArrowDown,ArrowRight"":23}","true","ArrowUp,ArrowRight","","","","","","",""
"html-keyboard-response","36","203707","0.0-3.0-6.0-1.3","spark_pilot_norest","9642","1","16","Female","","","","","","","null","<div style=""font-size:60px;"">+</div>","null","fixation","","","","","","","","","","","",""
"learning-instructions","37","223615","0.0-3.0-7.0-0.0","spark_pilot_norest","9642","1","16","Female","","","","","","","3047.7999999523163","<p> Great job. Now let’s try putting it together. </p>
            <p> On each turn, you will first see a picture to remind you of the place you are in, and you need to choose whether to go up or down. </p>
            <p> Then you will see an animal and choose which of its chests to search for treasure. </p>","","instructions","","","","","","","","","","","",""
"learning-instructions","38","232728","0.0-3.0-7.0-0.1","spark_pilot_norest","9642","1","16","Female","","","","","","","840.3000000715256","<p> When you choose whether to go up or down, try to go to the animal with the chest with the most treasure. </p>
            <p> Try practicing that now! </p>","","instructions","","","","","","","","","","","",""
"revaluation","39","238759","0.0-3.0-8.0-0.0","spark_pilot_norest","9642","1","16","Female","","false","","","","","[1603.3999999761581,1031.3000000715256]","./assets/img/space/6.jpg","[""ArrowUp"",""ArrowRight""]","full practice","space","36","{""ArrowUp,ArrowLeft"":3,""ArrowUp,ArrowRight"":36,""ArrowDown,ArrowLeft"":15,""ArrowDown,ArrowRight"":23}","true","ArrowUp,ArrowRight","false","","","","","",""
"html-keyboard-response","40","239271","0.0-3.0-8.0-1.0","spark_pilot_norest","9642","1","16","Female","","","","","","","null","<div style=""font-size:60px;"">+</div>","null","fixation","","","","","","","","","","","",""
"revaluation","41","245310","0.0-3.0-8.0-0.1","spark_pilot_norest","9642","1","16","Female","","false","","","","","[706.4000000953674,794.8999999761581]","./assets/img/space/7.jpg","[""ArrowDown"",""ArrowLeft""]","full practice","space","15","{""ArrowUp,ArrowLeft"":3,""ArrowUp,ArrowRight"":36,""ArrowDown,ArrowLeft"":15,""ArrowDown,ArrowRight"":23}","false","ArrowDown,ArrowLeft","false","","","","","",""
"html-keyboard-response","42","245813","0.0-3.0-8.0-1.1","spark_pilot_norest","9642","1","16","Female","","","","","","","null","<div style=""font-size:60px;"">+</div>","null","fixation","","","","","","","","","","","",""
"revaluation","43","251839","0.0-3.0-8.0-0.2","spark_pilot_norest","9642","1","16","Female","","false","","","","","[563.5,946.1000000238419]","./assets/img/space/8.jpg","[""ArrowUp"",""ArrowLeft""]","full practice","space","3","{""ArrowUp,ArrowLeft"":3,""ArrowUp,ArrowRight"":36,""ArrowDown,ArrowLeft"":15,""ArrowDown,ArrowRight"":23}","false","ArrowUp,ArrowLeft","false","","","","","",""
"html-keyboard-response","44","252349","0.0-3.0-8.0-1.2","spark_pilot_norest","9642","1","16","Female","","","","","","","null","<div style=""font-size:60px;"">+</div>","null","fixation","","","","","","","","","","","",""
"revaluation","45","258367","0.0-3.0-8.0-0.3","spark_pilot_norest","9642","1","16","Female","","false","","","","","[570.3999999761581,390.5]","./assets/img/space/9.jpg","[""ArrowUp"",""ArrowRight""]","full practice","space","36","{""ArrowUp,ArrowLeft"":3,""ArrowUp,ArrowRight"":36,""ArrowDown,ArrowLeft"":15,""ArrowDown,ArrowRight"":23}","true","ArrowUp,ArrowRight","false","","","","","",""
"html-keyboard-response","46","258882","0.0-3.0-8.0-1.3","spark_pilot_norest","9642","1","16","Female","","","","","","","null","<div style=""font-size:60px;"">+</div>","null","fixation","","","","","","","","","","","",""
"revaluation","47","264914","0.0-3.0-8.0-0.4","spark_pilot_norest","9642","1","16","Female","","false","","","","","[307.89999997615814,641]","./assets/img/space/10.jpg","[""ArrowUp"",""ArrowRight""]","full practice","space","36","{""ArrowUp,ArrowLeft"":3,""ArrowUp,ArrowRight"":36,""ArrowDown,ArrowLeft"":15,""ArrowDown,ArrowRight"":23}","true","ArrowUp,ArrowRight","false","","","","","",""
"html-keyboard-response","48","265423","0.0-3.0-8.0-1.4","spark_pilot_norest","9642","1","16","Female","","","","","","","null","<div style=""font-size:60px;"">+</div>","null","fixation","","","","","","","","","","","",""
"learning-instructions","49","277991","0.0-3.0-9.0-0.0","spark_pilot_norest","9642","1","16","Female","","","","","","","2207.5","<p> One last thing: sometimes, you will see a robber. The robber can be anywhere in the picture. </p>
            <p> If you do not stop them, you will lose treasure. </p>
            <img src='./assets/img/instructions/robber.jpg' class='instructions-image'>","","instructions","","","","","","","","","","","",""
"learning-instructions","50","286255","0.0-3.0-9.0-0.1","spark_pilot_norest","9642","1","16","Female","","","","","","","1091.1000000238419","<p> If you see the robber, you should <b>press the space bar</b> rather than using the arrow keys. </p>
            <p> Try practicing that now! </p>","","instructions","","","","","","","","","","","",""
"revaluation","51","290264","0.0-3.0-10.0-0.0","spark_pilot_norest","9642","1","16","Female","","false","","","","","[1445]","./assets/img/space/catch/0.jpg","[""spaceBar""]","catch practice","space","0","{""ArrowUp,ArrowLeft"":3,""ArrowUp,ArrowRight"":36,""ArrowDown,ArrowLeft"":15,""ArrowDown,ArrowRight"":23}","true","spaceBar","true","","","","","",""
"html-keyboard-response","52","290771","0.0-3.0-10.0-1.0","spark_pilot_norest","9642","1","16","Female","","","","","","","null","<div style=""font-size:60px;"">+</div>","null","fixation","","","","","","","","","","","",""
"revaluation","53","294787","0.0-3.0-10.0-0.1","spark_pilot_norest","9642","1","16","Female","","false","","","","","[724.6999999284744]","./assets/img/space/catch/1.jpg","[""spaceBar""]","catch practice","space","0","{""ArrowUp,ArrowLeft"":3,""ArrowUp,ArrowRight"":36,""ArrowDown,ArrowLeft"":15,""ArrowDown,ArrowRight"":23}","true","spaceBar","true","","","","","",""
"html-keyboard-response","54","295298","0.0-3.0-10.0-1.1","spark_pilot_norest","9642","1","16","Female","","","","","","","null","<div style=""font-size:60px;"">+</div>","null","fixation","","","","","","","","","","","",""
"revaluation","55","299316","0.0-3.0-10.0-0.2","spark_pilot_norest","9642","1","16","Female","","false","","","","","[418.7000000476837]","./assets/img/space/catch/2.jpg","[""spaceBar""]","catch practice","space","0","{""ArrowUp,ArrowLeft"":3,""ArrowUp,ArrowRight"":36,""ArrowDown,ArrowLeft"":15,""ArrowDown,ArrowRight"":23}","true","spaceBar","true","","","","","",""
"html-keyboard-response","56","299829","0.0-3.0-10.0-1.2","spark_pilot_norest","9642","1","16","Female","","","","","","","null","<div style=""font-size:60px;"">+</div>","null","fixation","","","","","","","","","","","",""
"learning-instructions","57","307983","0.0-3.0-11.0-0.0-0.0","spark_pilot_norest","9642","1","16","Female","","","","","","","2919.5","<p> Now, you will practice a shortened version of the game to get a sense of how it all fits together. </p>","","instructions","","","","","","","","","","","",""
"learning-instructions","58","312575","0.0-3.0-11.0-0.0-0.1","spark_pilot_norest","9642","1","16","Female","","","","","","","1391.5","<p>This time you are searching for treasure in outer space.</p>","","instructions","","","","","","","","","","","",""
"learning-instructions","59","328247","0.0-3.0-11.0-1.0-0.0","spark_pilot_norest","9642","1","16","Female","","","","","","","872.8999999761581","<p> Remember, when you see a picture of the place, use the up and down keys to <b>find an animal</b>.</p>
            <p> When you encounter an animal, you should use the left and right keys to <b>select a treasure chest</b>.</p>
            <p> Don't forget to look out for the robber! </p>","","instructions","","","","","","","","","","","",""
"revaluation","60","334277","0.0-3.0-11.0-2.0-0.0","spark_pilot_norest","9642","1","16","Female","","false","","","","","[769.6999999284744,586.0999999046326]","./assets/img/space/11.jpg","[""ArrowUp"",""ArrowRight""]","practice block","space","36","{""ArrowUp,ArrowLeft"":3,""ArrowUp,ArrowRight"":36,""ArrowDown,ArrowLeft"":15,""ArrowDown,ArrowRight"":23}","true","ArrowUp,ArrowRight","false","","","","","",""
"html-keyboard-response","61","334792","0.0-3.0-11.0-2.0-1.0","spark_pilot_norest","9642","1","16","Female","","","","","","","null","<div style=""font-size:60px;"">+</div>","null","fixation","","","","","","","","","","","",""
"revaluation","62","340809","0.0-3.0-11.0-2.0-0.1","spark_pilot_norest","9642","1","16","Female","","false","","","","","[462.8000000715256,353.8000000715256]","./assets/img/space/12.jpg","[""ArrowUp"",""ArrowRight""]","practice block","space","36","{""ArrowUp,ArrowLeft"":3,""ArrowUp,ArrowRight"":36,""ArrowDown,ArrowLeft"":15,""ArrowDown,ArrowRight"":23}","true","ArrowUp,ArrowRight","false","","","","","",""
"html-keyboard-response","63","341312","0.0-3.0-11.0-2.0-1.1","spark_pilot_norest","9642","1","16","Female","","","","","","","null","<div style=""font-size:60px;"">+</div>","null","fixation","","","","","","","","","","","",""
"revaluation","64","347341","0.0-3.0-11.0-2.0-0.2","spark_pilot_norest","9642","1","16","Female","","false","","","","","[513.1000000238419,376.39999997615814]","./assets/img/space/13.jpg","[""ArrowUp"",""ArrowRight""]","practice block","space","36","{""ArrowUp,ArrowLeft"":3,""ArrowUp,ArrowRight"":36,""ArrowDown,ArrowLeft"":15,""ArrowDown,ArrowRight"":23}","true","ArrowUp,ArrowRight","false","","","","","",""
"html-keyboard-response","65","347844","0.0-3.0-11.0-2.0-1.2","spark_pilot_norest","9642","1","16","Female","","","","","","","null","<div style=""font-size:60px;"">+</div>","null","fixation","","","","","","","","","","","",""
"revaluation","66","353870","0.0-3.0-11.0-2.0-0.3","spark_pilot_norest","9642","1","16","Female","","false","","","","","[449.7999999523163,400.40000009536743]","./assets/img/space/14.jpg","[""ArrowUp"",""ArrowRight""]","practice block","space","36","{""ArrowUp,ArrowLeft"":3,""ArrowUp,ArrowRight"":36,""ArrowDown,ArrowLeft"":15,""ArrowDown,ArrowRight"":23}","true","ArrowUp,ArrowRight","false","","","","","",""
"html-keyboard-response","67","354388","0.0-3.0-11.0-2.0-1.3","spark_pilot_norest","9642","1","16","Female","","","","","","","null","<div style=""font-size:60px;"">+</div>","null","fixation","","","","","","","","","","","",""
"revaluation","68","360439","0.0-3.0-11.0-2.0-0.4","spark_pilot_norest","9642","1","16","Female","","false","","","","","[612,539.3999999761581]","./assets/img/space/11.jpg","[""ArrowUp"",""ArrowRight""]","practice block","space","36","{""ArrowUp,ArrowLeft"":3,""ArrowUp,ArrowRight"":36,""ArrowDown,ArrowLeft"":15,""ArrowDown,ArrowRight"":23}","true","ArrowUp,ArrowRight","false","","","","","",""
"html-keyboard-response","69","360979","0.0-3.0-11.0-2.0-1.4","spark_pilot_norest","9642","1","16","Female","","","","","","","null","<div style=""font-size:60px;"">+</div>","null","fixation","","","","","","","","","","","",""
"revaluation","70","367038","0.0-3.0-11.0-2.0-0.5","spark_pilot_norest","9642","1","16","Female","","false","","","","","[723.6999999284744,380.2999999523163]","./assets/img/space/12.jpg","[""ArrowUp"",""ArrowRight""]","practice block","space","36","{""ArrowUp,ArrowLeft"":3,""ArrowUp,ArrowRight"":36,""ArrowDown,ArrowLeft"":15,""ArrowDown,ArrowRight"":23}","true","ArrowUp,ArrowRight","false","","","","","",""
"html-keyboard-response","71","367577","0.0-3.0-11.0-2.0-1.5","spark_pilot_norest","9642","1","16","Female","","","","","","","null","<div style=""font-size:60px;"">+</div>","null","fixation","","","","","","","","","","","",""
"revaluation","72","373642","0.0-3.0-11.0-2.0-0.6","spark_pilot_norest","9642","1","16","Female","","false","","","","","[617,299.6999999284744]","./assets/img/space/13.jpg","[""ArrowUp"",""ArrowRight""]","practice block","space","36","{""ArrowUp,ArrowLeft"":3,""ArrowUp,ArrowRight"":36,""ArrowDown,ArrowLeft"":15,""ArrowDown,ArrowRight"":23}","true","ArrowUp,ArrowRight","false","","","","","",""
"html-keyboard-response","73","374172","0.0-3.0-11.0-2.0-1.6","spark_pilot_norest","9642","1","16","Female","","","","","","","null","<div style=""font-size:60px;"">+</div>","null","fixation","","","","","","","","","","","",""
"revaluation","74","380210","0.0-3.0-11.0-2.0-0.7","spark_pilot_norest","9642","1","16","Female","","false","","","","","[505.10000002384186,306.6999999284744]","./assets/img/space/14.jpg","[""ArrowUp"",""ArrowRight""]","practice block","space","36","{""ArrowUp,ArrowLeft"":3,""ArrowUp,ArrowRight"":36,""ArrowDown,ArrowLeft"":15,""ArrowDown,ArrowRight"":23}","true","ArrowUp,ArrowRight","false","","","","","",""
"html-keyboard-response","75","380745","0.0-3.0-11.0-2.0-1.7","spark_pilot_norest","9642","1","16","Female","","","","","","","null","<div style=""font-size:60px;"">+</div>","null","fixation","","","","","","","","","","","",""
"revaluation","76","384762","0.0-3.0-11.0-2.0-0.8","spark_pilot_norest","9642","1","16","Female","","false","","","","","[793.1999999284744]","./assets/img/space/catch/3.jpg","[""spaceBar""]","practice block","space","0","{""ArrowUp,ArrowLeft"":3,""ArrowUp,ArrowRight"":36,""ArrowDown,ArrowLeft"":15,""ArrowDown,ArrowRight"":23}","true","spaceBar","true","","","","","",""
"html-keyboard-response","77","385275","0.0-3.0-11.0-2.0-1.8","spark_pilot_norest","9642","1","16","Female","","","","","","","null","<div style=""font-size:60px;"">+</div>","null","fixation","","","","","","","","","","","",""
"learning-instructions","78","400399","0.0-3.0-11.0-3.0-0.0","spark_pilot_norest","9642","1","16","Female","","","","","","","2136.100000023842","<p> Now, you will travel with a friend who will choose whether you go up or down first. </p>
            <p> On these turns, you will just see the animal that they found. You will still get to choose which chest to search for treasure.</p>","","instructions","","","","","","","","","","","",""
"revaluation","79","404415","0.0-3.0-11.0-4.0-0.0","spark_pilot_norest","9642","1","16","Female","","false","","","","","[1274.3000000715256]","./assets/img/space/animals/cat.jpg","[""ArrowRight""]","practice block","space","36","{""ArrowUp,ArrowLeft"":3,""ArrowUp,ArrowRight"":36,""ArrowDown,ArrowLeft"":15,""ArrowDown,ArrowRight"":23}","true","ArrowUp,ArrowRight","","","","","","",""
"html-keyboard-response","80","404924","0.0-3.0-11.0-4.0-1.0","spark_pilot_norest","9642","1","16","Female","","","","","","","null","<div style=""font-size:60px;"">+</div>","null","fixation","","","","","","","","","","","",""
"revaluation","81","408945","0.0-3.0-11.0-4.0-0.1","spark_pilot_norest","9642","1","16","Female","","false","","","","","[447.5]","./assets/img/space/animals/rabbit.jpg","[""ArrowLeft""]","practice block","space","15","{""ArrowUp,ArrowLeft"":3,""ArrowUp,ArrowRight"":36,""ArrowDown,ArrowLeft"":15,""ArrowDown,ArrowRight"":23}","false","ArrowDown,ArrowLeft","","","","","","",""
"html-keyboard-response","82","409455","0.0-3.0-11.0-4.0-1.1","spark_pilot_norest","9642","1","16","Female","","","","","","","null","<div style=""font-size:60px;"">+</div>","null","fixation","","","","","","","","","","","",""
"revaluation","83","413476","0.0-3.0-11.0-4.0-0.2","spark_pilot_norest","9642","1","16","Female","","false","","","","","[680.2999999523163]","./assets/img/space/animals/rabbit.jpg","[""ArrowRight""]","practice block","space","23","{""ArrowUp,ArrowLeft"":3,""ArrowUp,ArrowRight"":36,""ArrowDown,ArrowLeft"":15,""ArrowDown,ArrowRight"":23}","true","ArrowDown,ArrowRight","","","","","","",""
"html-keyboard-response","84","413984","0.0-3.0-11.0-4.0-1.2","spark_pilot_norest","9642","1","16","Female","","","","","","","null","<div style=""font-size:60px;"">+</div>","null","fixation","","","","","","","","","","","",""
"revaluation","85","418014","0.0-3.0-11.0-4.0-0.3","spark_pilot_norest","9642","1","16","Female","","false","","","","","[377.39999997615814]","./assets/img/space/animals/cat.jpg","[""ArrowRight""]","practice block","space","36","{""ArrowUp,ArrowLeft"":3,""ArrowUp,ArrowRight"":36,""ArrowDown,ArrowLeft"":15,""ArrowDown,ArrowRight"":23}","true","ArrowUp,ArrowRight","","","","","","",""
"html-keyboard-response","86","418523","0.0-3.0-11.0-4.0-1.3","spark_pilot_norest","9642","1","16","Female","","","","","","","null","<div style=""font-size:60px;"">+</div>","null","fixation","","","","","","","","","","","",""
"learning-instructions","87","426696","0.0-3.0-11.0-5.0-0.0","spark_pilot_norest","9642","1","16","Female","","","","","","","null","<p> You have almost finished this part of the game! </p>
            <p> We are going to ask you to make a few more choices. </p>","","instructions","","","","","","","","","","","",""
"learning-instructions","88","442774","0.0-3.0-11.0-5.0-0.1","spark_pilot_norest","9642","1","16","Female","","","","","","","null","<p> First, you need to decide whether to go up or down. When you see each picture, use the arrow keys to make your choice. </p>
            <p><b>You will not see which animal you found, but try to get to the one that will give you the most treasure.</b></p>","","instructions","","","","","","","","","","","",""
"html-keyboard-response","89","443781","0.0-3.0-11.0-6.0-0.0","spark_pilot_norest","9642","1","16","Female","","","","","","","null","<div style=""font-size:100px;color:red;"">Starting in...</div>","null","","","","","","","","","","","","",""
"html-keyboard-response","90","444799","0.0-3.0-11.0-6.0-1.0","spark_pilot_norest","9642","1","16","Female","","","","","","","null","<div style=""font-size:200px;color:red;"">3</div>","null","","","","","","","","","","","","",""
"html-keyboard-response","91","445811","0.0-3.0-11.0-6.0-2.0","spark_pilot_norest","9642","1","16","Female","","","","","","","null","<div style=""font-size:200px;color:red;"">2</div>","null","","","","","","","","","","","","",""
"html-keyboard-response","92","446814","0.0-3.0-11.0-6.0-3.0","spark_pilot_norest","9642","1","16","Female","","","","","","","null","<div style=""font-size:200px;color:red;"">1</div>","null","","","","","","","","","","","","",""
"revaluation","93","447623","0.0-3.0-11.0-7.0","spark_pilot_norest","9642","1","16","Female","","false","","","","","[805.8999999761581]","./assets/img/space/15.jpg","[""ArrowUp""]","practice block","space","0","{""ArrowUp,ArrowLeft"":3,""ArrowUp,ArrowRight"":36,""ArrowDown,ArrowLeft"":15,""ArrowDown,ArrowRight"":23}","true","ArrowUp","false","","","","","",""
"html-keyboard-response","94","448136","0.0-3.0-11.0-8.0","spark_pilot_norest","9642","1","16","Female","","","","","","","null","<div style=""font-size:60px;"">+</div>","null","fixation","","","","","","","","","","","",""
"learning-instructions","95","461578","0.0-3.0-11.0-9.0-0.0","spark_pilot_norest","9642","1","16","Female","","","","","","","null","<p> Now you will see the animals again and can search their chests for treasure. </p>
            <p> This time, you will not see how much treasure you earned, but you will earn more bonus money for making better choices. </p>","","instructions","","","","","","","","","","","",""
"html-keyboard-response","96","462580","0.0-3.0-11.0-10.0-0.0","spark_pilot_norest","9642","1","16","Female","","","","","","","null","<div style=""font-size:100px;color:red;"">Starting in...</div>","null","","","","","","","","","","","","",""
"html-keyboard-response","97","463594","0.0-3.0-11.0-10.0-1.0","spark_pilot_norest","9642","1","16","Female","","","","","","","null","<div style=""font-size:200px;color:red;"">3</div>","null","","","","","","","","","","","","",""
"html-keyboard-response","98","464606","0.0-3.0-11.0-10.0-2.0","spark_pilot_norest","9642","1","16","Female","","","","","","","null","<div style=""font-size:200px;color:red;"">2</div>","null","","","","","","","","","","","","",""
"html-keyboard-response","99","465611","0.0-3.0-11.0-10.0-3.0","spark_pilot_norest","9642","1","16","Female","","","","","","","null","<div style=""font-size:200px;color:red;"">1</div>","null","","","","","","","","","","","","",""
"revaluation","100","466208","0.0-3.0-11.0-11.0-0.0","spark_pilot_norest","9642","1","16","Female","","false","","","","","[591.2000000476837]","./assets/img/space/animals/cat.jpg","[""ArrowRight""]","practice block","space","0","{""ArrowUp,ArrowLeft"":3,""ArrowUp,ArrowRight"":36,""ArrowDown,ArrowLeft"":15,""ArrowDown,ArrowRight"":23}","true","ArrowUp,ArrowRight","","","","","","",""
"html-keyboard-response","101","466714","0.0-3.0-11.0-11.0-1.0","spark_pilot_norest","9642","1","16","Female","","","","","","","null","<div style=""font-size:60px;"">+</div>","null","fixation","","","","","","","","","","","",""
"revaluation","102","467654","0.0-3.0-11.0-11.0-0.1","spark_pilot_norest","9642","1","16","Female","","false","","","","","[935]","./assets/img/space/animals/rabbit.jpg","[""ArrowRight""]","practice block","space","0","{""ArrowUp,ArrowLeft"":3,""ArrowUp,ArrowRight"":36,""ArrowDown,ArrowLeft"":15,""ArrowDown,ArrowRight"":23}","true","ArrowDown,ArrowRight","","","","","","",""
"html-keyboard-response","103","468167","0.0-3.0-11.0-11.0-1.1","spark_pilot_norest","9642","1","16","Female","","","","","","","null","<div style=""font-size:60px;"">+</div>","null","fixation","","","","","","","","","","","",""
"learning-instructions","104","474583","0.0-3.0-12.0-0.0","spark_pilot_norest","9642","1","16","Female","","","","","","","1790.1000000238419","<p> Before you start, we're going to ask you a few questions about how the game works. </p>","","instructions","","","","","","","","","","","",""
"comp-q","105","481135","0.0-3.0-13.0-0.0-0.0","spark_pilot_norest","9642","1","16","Female","","","","","","","948","<p> <b> True or False? </b> </p>
            <p> There can be 50 pieces of treasure in a given animal's chest. </p>","0","comp_question","","","","false","","","","","","","",""
"comp-q","106","488774","0.0-3.0-13.0-0.0-1.0","spark_pilot_norest","9642","1","16","Female","","","","","","","1111.5","<p> <b>Incorrect.</b> The amount of treasure in each chest can range from 0 to 40 pieces. </p>","0","comp_answer","","","","","","","","","","","",""
"comp-q","107","495070","0.0-3.0-13.0-0.1-0.1","spark_pilot_norest","9642","1","16","Female","","","","","","","737.5","<p> <b> True or False? </b> </p>
            <p> There can be 50 pieces of treasure in a given animal's chest. </p>","1","comp_question","","","","true","","","","","","","",""
"comp-q","108","502639","0.0-3.0-13.0-0.1-1.1","spark_pilot_norest","9642","1","16","Female","","","","","","","895.6000000238419","<p> <b> That's right! </b> The amount of treasure in each chest can range from 0 to 40 pieces. </p>","0","comp_answer","","","","","","","","","","","",""
"comp-q","109","510294","0.0-3.0-13.0-0.2-0.2","spark_pilot_norest","9642","1","16","Female","","","","","","","531.2000000476837","<p> <b> True or False? </b> </p><p> In this game, all animals have the same amount of treasure in their left and right chests. </p>","1","comp_question","","","","true","","","","","","","",""
"comp-q","110","520975","0.0-3.0-13.0-0.2-1.2","spark_pilot_norest","9642","1","16","Female","","","","","","","5441.600000023842","<p> <b> That's right! </b> Animals have different amounts of treasure in their treasure chests. </p>","0","comp_answer","","","","","","","","","","","",""
"comp-q","111","530007","0.0-3.0-13.0-0.3-0.3","spark_pilot_norest","9642","1","16","Female","","","","","","","3173.6999999284744","<p> <b> True or False? </b> </p><p> The same animal will always be there if you go up in the same place. </p>","0","comp_question","","","","true","","","","","","","",""
"comp-q","112","537783","0.0-3.0-13.0-0.3-1.3","spark_pilot_norest","9642","1","16","Female","","","","","","","1319.7000000476837","<p> <b> That's right! </b> One animal lives in the upper part and one lives in the lower part of every place. </p>","0","comp_answer","","","","","","","","","","","",""
"comp-q","113","544479","0.0-3.0-13.0-0.4-0.4","spark_pilot_norest","9642","1","16","Female","","","","","","","1166.2000000476837","<p> <b> True or False? </b> </p><p> If you see a different picture, it means you are in a new place. </p>","0","comp_question","","","","false","","","","","","","",""
"comp-q","114","557943","0.0-3.0-13.0-0.4-1.4","spark_pilot_norest","9642","1","16","Female","","","","","","","2349.600000023842","<p> <b>Incorrect.</b> Lots of different images may show the same place. For example,  you may see three different images that all remind you that you are in outer space. </p>","0","comp_answer","","","","","","","","","","","",""
"comp-q","115","564839","0.0-3.0-13.0-0.5-0.5","spark_pilot_norest","9642","1","16","Female","","","","","","","1385.6000000238419","<p> <b> True or False? </b> </p><p> If you see a different picture, it means you are in a new place. </p>","1","comp_question","","","","true","","","","","","","",""
"comp-q","116","577438","0.0-3.0-13.0-0.5-1.5","spark_pilot_norest","9642","1","16","Female","","","","","","","1345.8999999761581","<p> <b> That's right! </b> Lots of different images may show the same place. For example,  you may see three different images that all remind you that you are in outer space. </p>","0","comp_answer","","","","","","","","","","","",""
"learning-instructions","117","588703","0.0-3.0-14.0-0.0","spark_pilot_norest","9642","1","16","Female","","","","","","","1390","<p> Good job. Remember to do your best because the amount of treasure you earn will be converted into bonus money. </p>
            <p> It’s time to start the real game! </p>","","instructions","","","","","","","","","","","",""
"learning-instructions","118","593783","0.0-4.0-0.0-0.0","spark_pilot_norest","9642","1","16","Female","","","","","","","2369.7999999523163","<p> This time you are searching for treasure in the <b>ocean</b>.</p>","","instructions","","","","","","","","","","","",""
"learning-instructions","119","614175","0.0-4.0-0.0-0.1","spark_pilot_norest","9642","1","16","Female","","","","","","","3041.3000000715256","<p><b>New</b> animals with <b>new</b> treasure chests live here. You need to explore to discover where the animal with the best treasure chest is.</p>
                    <p> Like before, once you figure out which animal has the chest with the most treasure, you should try to get to that animal and select that chest! </p>","","instructions","","","","","","","","","","","",""
"learning-instructions","120","629671","0.0-4.0-1.0-0.0","spark_pilot_norest","9642","1","16","Female","","","","","","","767.1000000238419","<p> Remember, when you see a picture of the place, use the up and down keys to <b>find an animal</b>.</p>
            <p> When you encounter an animal, you should use the left and right keys to <b>select a treasure chest</b>.</p>
            <p> Don't forget to look out for the robber! </p>","","instructions","","","","","","","","","","","",""
"revaluation","121","635682","0.0-4.0-2.0-0.0","spark_pilot_norest","9642","1","16","Female","","false","","","","","[1116.5,617.5]","./assets/img/ocean/memory/5.jpg","[""ArrowUp"",""ArrowRight""]","value training","ocean","10","{""ArrowUp,ArrowLeft"":26,""ArrowUp,ArrowRight"":10,""ArrowDown,ArrowLeft"":5,""ArrowDown,ArrowRight"":17}","false","ArrowUp,ArrowRight","false","original","1","0","","",""
"html-keyboard-response","122","636189","0.0-4.0-2.0-1.0","spark_pilot_norest","9642","1","16","Female","","","","","","","null","<div style=""font-size:60px;"">+</div>","null","fixation","","","","","","","","","1","","",""
"revaluation","123","640209","0.0-4.0-2.0-0.1","spark_pilot_norest","9642","1","16","Female","","false","","","","","[826.3999999761581]","./assets/img/ocean/catch/3.jpg","[""spaceBar""]","value training","ocean","0","{""ArrowUp,ArrowLeft"":26,""ArrowUp,ArrowRight"":10,""ArrowDown,ArrowLeft"":5,""ArrowDown,ArrowRight"":17}","true","spaceBar","true","original","1","2","","",""
"html-keyboard-response","124","640713","0.0-4.0-2.0-1.1","spark_pilot_norest","9642","1","16","Female","","","","","","","null","<div style=""font-size:60px;"">+</div>","null","fixation","","","","","","","","","3","","",""
"revaluation","125","646744","0.0-4.0-2.0-0.2","spark_pilot_norest","9642","1","16","Female","","false","","","","","[369.7999999523163,398]","./assets/img/ocean/memory/28.jpg","[""ArrowUp"",""ArrowLeft""]","value training","ocean","26","{""ArrowUp,ArrowLeft"":26,""ArrowUp,ArrowRight"":10,""ArrowDown,ArrowLeft"":5,""ArrowDown,ArrowRight"":17}","true","ArrowUp,ArrowLeft","false","original","1","4","","",""
"html-keyboard-response","126","647261","0.0-4.0-2.0-1.2","spark_pilot_norest","9642","1","16","Female","","","","","","","null","<div style=""font-size:60px;"">+</div>","null","fixation","","","","","","","","","5","","",""
"revaluation","127","653291","0.0-4.0-2.0-0.3","spark_pilot_norest","9642","1","16","Female","","false","","","","","[346.5,452.39999997615814]","./assets/img/ocean/memory/11.jpg","[""ArrowDown"",""ArrowRight""]","value training","ocean","17","{""ArrowUp,ArrowLeft"":26,""ArrowUp,ArrowRight"":10,""ArrowDown,ArrowLeft"":5,""ArrowDown,ArrowRight"":17}","false","ArrowDown,ArrowRight","false","original","1","6","","",""
"html-keyboard-response","128","653795","0.0-4.0-2.0-1.3","spark_pilot_norest","9642","1","16","Female","","","","","","","null","<div style=""font-size:60px;"">+</div>","null","fixation","","","","","","","","","7","","",""
"revaluation","129","659830","0.0-4.0-2.0-0.4","spark_pilot_norest","9642","1","16","Female","","false","","","","","[382.10000002384186,319.90000009536743]","./assets/img/ocean/memory/13.jpg","[""ArrowDown"",""ArrowLeft""]","value training","ocean","5","{""ArrowUp,ArrowLeft"":26,""ArrowUp,ArrowRight"":10,""ArrowDown,ArrowLeft"":5,""ArrowDown,ArrowRight"":17}","false","ArrowDown,ArrowLeft","false","original","1","8","","",""
"html-keyboard-response","130","660345","0.0-4.0-2.0-1.4","spark_pilot_norest","9642","1","16","Female","","","","","","","null","<div style=""font-size:60px;"">+</div>","null","fixation","","","","","","","","","9","","",""
"revaluation","131","666405","0.0-4.0-2.0-0.5","spark_pilot_norest","9642","1","16","Female","","false","","","","","[339.39999997615814,373.5]","./assets/img/ocean/memory/0.jpg","[""ArrowUp"",""ArrowLeft""]","value training","ocean","26","{""ArrowUp,ArrowLeft"":26,""ArrowUp,ArrowRight"":10,""ArrowDown,ArrowLeft"":5,""ArrowDown,ArrowRight"":17}","true","ArrowUp,ArrowLeft","false","original","1","10","","",""
"html-keyboard-response","132","666922","0.0-4.0-2.0-1.5","spark_pilot_norest","9642","1","16","Female","","","","","","","null","<div style=""font-size:60px;"">+</div>","null","fixation","","","","","","","","","11","","",""
"revaluation","133","672980","0.0-4.0-2.0-0.6","spark_pilot_norest","9642","1","16","Female","","false","","","","","[328.5,463.2999999523163]","./assets/img/ocean/memory/1.jpg","[""ArrowUp"",""ArrowLeft""]","value training","ocean","26","{""ArrowUp,ArrowLeft"":26,""ArrowUp,ArrowRight"":10,""ArrowDown,ArrowLeft"":5,""ArrowDown,ArrowRight"":17}","true","ArrowUp,ArrowLeft","false","original","1","12","","",""
"html-keyboard-response","134","673497","0.0-4.0-2.0-1.6","spark_pilot_norest","9642","1","16","Female","","","","","","","null","<div style=""font-size:60px;"">+</div>","null","fixation","","","","","","","","","13","","",""
"revaluation","135","679542","0.0-4.0-2.0-0.7","spark_pilot_norest","9642","1","16","Female","","false","","","","","[470.7000000476837,307.90000009536743]","./assets/img/ocean/memory/5.jpg","[""ArrowUp"",""ArrowLeft""]","value training","ocean","26","{""ArrowUp,ArrowLeft"":26,""ArrowUp,ArrowRight"":10,""ArrowDown,ArrowLeft"":5,""ArrowDown,ArrowRight"":17}","true","ArrowUp,ArrowLeft","false","original","1","14","","",""
"html-keyboard-response","136","680054","0.0-4.0-2.0-1.7","spark_pilot_norest","9642","1","16","Female","","","","","","","null","<div style=""font-size:60px;"">+</div>","null","fixation","","","","","","","","","15","","",""
"revaluation","137","686122","0.0-4.0-2.0-0.8","spark_pilot_norest","9642","1","16","Female","","false","","","","","[435.7999999523163,466.7000000476837]","./assets/img/ocean/memory/34.jpg","[""ArrowUp"",""ArrowLeft""]","value training","ocean","26","{""ArrowUp,ArrowLeft"":26,""ArrowUp,ArrowRight"":10,""ArrowDown,ArrowLeft"":5,""ArrowDown,ArrowRight"":17}","true","ArrowUp,ArrowLeft","false","original","1","16","","",""
"html-keyboard-response","138","686637","0.0-4.0-2.0-1.8","spark_pilot_norest","9642","1","16","Female","","","","","","","null","<div style=""font-size:60px;"">+</div>","null","fixation","","","","","","","","","17","","",""
"revaluation","139","692682","0.0-4.0-2.0-0.9","spark_pilot_norest","9642","1","16","Female","","false","","","","","[380.2000000476837,420.7999999523163]","./assets/img/ocean/memory/19.jpg","[""ArrowUp"",""ArrowLeft""]","value training","ocean","26","{""ArrowUp,ArrowLeft"":26,""ArrowUp,ArrowRight"":10,""ArrowDown,ArrowLeft"":5,""ArrowDown,ArrowRight"":17}","true","ArrowUp,ArrowLeft","false","original","1","18","","",""
"html-keyboard-response","140","693198","0.0-4.0-2.0-1.9","spark_pilot_norest","9642","1","16","Female","","","","","","","null","<div style=""font-size:60px;"">+</div>","null","fixation","","","","","","","","","19","","",""
"revaluation","141","699268","0.0-4.0-2.0-0.10","spark_pilot_norest","9642","1","16","Female","","false","","","","","[432.39999997615814,297.39999997615814]","./assets/img/ocean/memory/34.jpg","[""ArrowUp"",""ArrowLeft""]","value training","ocean","26","{""ArrowUp,ArrowLeft"":26,""ArrowUp,ArrowRight"":10,""ArrowDown,ArrowLeft"":5,""ArrowDown,ArrowRight"":17}","true","ArrowUp,ArrowLeft","false","original","1","20","","",""
"html-keyboard-response","142","699785","0.0-4.0-2.0-1.10","spark_pilot_norest","9642","1","16","Female","","","","","","","null","<div style=""font-size:60px;"">+</div>","null","fixation","","","","","","","","","21","","",""
"revaluation","143","705815","0.0-4.0-2.0-0.11","spark_pilot_norest","9642","1","16","Female","","false","","","","","[397.89999997615814,403.2000000476837]","./assets/img/ocean/memory/21.jpg","[""ArrowUp"",""ArrowLeft""]","value training","ocean","26","{""ArrowUp,ArrowLeft"":26,""ArrowUp,ArrowRight"":10,""ArrowDown,ArrowLeft"":5,""ArrowDown,ArrowRight"":17}","true","ArrowUp,ArrowLeft","false","original","1","22","","",""
"html-keyboard-response","144","706332","0.0-4.0-2.0-1.11","spark_pilot_norest","9642","1","16","Female","","","","","","","null","<div style=""font-size:60px;"">+</div>","null","fixation","","","","","","","","","23","","",""
"revaluation","145","710349","0.0-4.0-2.0-0.12","spark_pilot_norest","9642","1","16","Female","","false","","","","","[405.3000000715256]","./assets/img/ocean/catch/5.jpg","[""ArrowUp""]","value training","ocean","-10","{""ArrowUp,ArrowLeft"":26,""ArrowUp,ArrowRight"":10,""ArrowDown,ArrowLeft"":5,""ArrowDown,ArrowRight"":17}","false","ArrowUp","true","original","1","24","","",""
"html-keyboard-response","146","710867","0.0-4.0-2.0-1.12","spark_pilot_norest","9642","1","16","Female","","","","","","","null","<div style=""font-size:60px;"">+</div>","null","fixation","","","","","","","","","25","","",""
"revaluation","147","716927","0.0-4.0-2.0-0.13","spark_pilot_norest","9642","1","16","Female","","false","","","","","[500.2999999523163,352.2999999523163]","./assets/img/ocean/memory/23.jpg","[""ArrowUp"",""ArrowLeft""]","value training","ocean","26","{""ArrowUp,ArrowLeft"":26,""ArrowUp,ArrowRight"":10,""ArrowDown,ArrowLeft"":5,""ArrowDown,ArrowRight"":17}","true","ArrowUp,ArrowLeft","false","original","1","26","","",""
"html-keyboard-response","148","717435","0.0-4.0-2.0-1.13","spark_pilot_norest","9642","1","16","Female","","","","","","","null","<div style=""font-size:60px;"">+</div>","null","fixation","","","","","","","","","27","","",""
"revaluation","149","723508","0.0-4.0-2.0-0.14","spark_pilot_norest","9642","1","16","Female","","false","","","","","[463,487.60000002384186]","./assets/img/ocean/memory/12.jpg","[""ArrowUp"",""ArrowLeft""]","value training","ocean","26","{""ArrowUp,ArrowLeft"":26,""ArrowUp,ArrowRight"":10,""ArrowDown,ArrowLeft"":5,""ArrowDown,ArrowRight"":17}","true","ArrowUp,ArrowLeft","false","original","1","28","","",""
"html-keyboard-response","150","724015","0.0-4.0-2.0-1.14","spark_pilot_norest","9642","1","16","Female","","","","","","","null","<div style=""font-size:60px;"">+</div>","null","fixation","","","","","","","","","29","","",""
"revaluation","151","730055","0.0-4.0-2.0-0.15","spark_pilot_norest","9642","1","16","Female","","false","","","","","[376.7999999523163,421.60000002384186]","./assets/img/ocean/memory/32.jpg","[""ArrowUp"",""ArrowLeft""]","value training","ocean","26","{""ArrowUp,ArrowLeft"":26,""ArrowUp,ArrowRight"":10,""ArrowDown,ArrowLeft"":5,""ArrowDown,ArrowRight"":17}","true","ArrowUp,ArrowLeft","false","original","1","30","","",""
"html-keyboard-response","152","730570","0.0-4.0-2.0-1.15","spark_pilot_norest","9642","1","16","Female","","","","","","","null","<div style=""font-size:60px;"">+</div>","null","fixation","","","","","","","","","31","","",""
"revaluation","153","736601","0.0-4.0-2.0-0.16","spark_pilot_norest","9642","1","16","Female","","false","","","","","[341.8000000715256,312.40000009536743]","./assets/img/ocean/memory/17.jpg","[""ArrowUp"",""ArrowLeft""]","value training","ocean","26","{""ArrowUp,ArrowLeft"":26,""ArrowUp,ArrowRight"":10,""ArrowDown,ArrowLeft"":5,""ArrowDown,ArrowRight"":17}","true","ArrowUp,ArrowLeft","false","original","1","32","","",""
"html-keyboard-response","154","737108","0.0-4.0-2.0-1.16","spark_pilot_norest","9642","1","16","Female","","","","","","","null","<div style=""font-size:60px;"">+</div>","null","fixation","","","","","","","","","33","","",""
"revaluation","155","743159","0.0-4.0-2.0-0.17","spark_pilot_norest","9642","1","16","Female","","false","","","","","[545,265.10000002384186]","./assets/img/ocean/memory/35.jpg","[""ArrowUp"",""ArrowLeft""]","value training","ocean","26","{""ArrowUp,ArrowLeft"":26,""ArrowUp,ArrowRight"":10,""ArrowDown,ArrowLeft"":5,""ArrowDown,ArrowRight"":17}","true","ArrowUp,ArrowLeft","false","original","1","34","","",""
"html-keyboard-response","156","743675","0.0-4.0-2.0-1.17","spark_pilot_norest","9642","1","16","Female","","","","","","","null","<div style=""font-size:60px;"">+</div>","null","fixation","","","","","","","","","35","","",""
"revaluation","157","749717","0.0-4.0-2.0-0.18","spark_pilot_norest","9642","1","16","Female","","false","","","","","[403.39999997615814,352.2000000476837]","./assets/img/ocean/memory/17.jpg","[""ArrowUp"",""ArrowLeft""]","value training","ocean","26","{""ArrowUp,ArrowLeft"":26,""ArrowUp,ArrowRight"":10,""ArrowDown,ArrowLeft"":5,""ArrowDown,ArrowRight"":17}","true","ArrowUp,ArrowLeft","false","original","1","36","","",""
"html-keyboard-response","158","750226","0.0-4.0-2.0-1.18","spark_pilot_norest","9642","1","16","Female","","","","","","","null","<div style=""font-size:60px;"">+</div>","null","fixation","","","","","","","","","37","","",""
"revaluation","159","756280","0.0-4.0-2.0-0.19","spark_pilot_norest","9642","1","16","Female","","false","","","","","[349.2000000476837,485.89999997615814]","./assets/img/ocean/memory/18.jpg","[""ArrowUp"",""ArrowLeft""]","value training","ocean","26","{""ArrowUp,ArrowLeft"":26,""ArrowUp,ArrowRight"":10,""ArrowDown,ArrowLeft"":5,""ArrowDown,ArrowRight"":17}","true","ArrowUp,ArrowLeft","false","original","1","38","","",""
"html-keyboard-response","160","756788","0.0-4.0-2.0-1.19","spark_pilot_norest","9642","1","16","Female","","","","","","","null","<div style=""font-size:60px;"">+</div>","null","fixation","","","","","","","","","39","","",""
"revaluation","161","762817","0.0-4.0-2.0-0.20","spark_pilot_norest","9642","1","16","Female","","false","","","","","[523,277.3000000715256]","./assets/img/ocean/memory/18.jpg","[""ArrowUp"",""ArrowLeft""]","value training","ocean","26","{""ArrowUp,ArrowLeft"":26,""ArrowUp,ArrowRight"":10,""ArrowDown,ArrowLeft"":5,""ArrowDown,ArrowRight"":17}","true","ArrowUp,ArrowLeft","false","original","1","40","","",""
"html-keyboard-response","162","763332","0.0-4.0-2.0-1.20","spark_pilot_norest","9642","1","16","Female","","","","","","","null","<div style=""font-size:60px;"">+</div>","null","fixation","","","","","","","","","41","","",""
"revaluation","163","769351","0.0-4.0-2.0-0.21","spark_pilot_norest","9642","1","16","Female","","false","","","","","[429,277.89999997615814]","./assets/img/ocean/memory/21.jpg","[""ArrowUp"",""ArrowLeft""]","value training","ocean","26","{""ArrowUp,ArrowLeft"":26,""ArrowUp,ArrowRight"":10,""ArrowDown,ArrowLeft"":5,""ArrowDown,ArrowRight"":17}","true","ArrowUp,ArrowLeft","false","original","1","42","","",""
"html-keyboard-response","164","769852","0.0-4.0-2.0-1.21","spark_pilot_norest","9642","1","16","Female","","","","","","","null","<div style=""font-size:60px;"">+</div>","null","fixation","","","","","","","","","43","","",""
"revaluation","165","775911","0.0-4.0-2.0-0.22","spark_pilot_norest","9642","1","16","Female","","false","","","","","[586.7999999523163,334.89999997615814]","./assets/img/ocean/memory/13.jpg","[""ArrowUp"",""ArrowLeft""]","value training","ocean","26","{""ArrowUp,ArrowLeft"":26,""ArrowUp,ArrowRight"":10,""ArrowDown,ArrowLeft"":5,""ArrowDown,ArrowRight"":17}","true","ArrowUp,ArrowLeft","false","original","1","44","","",""
"html-keyboard-response","166","776428","0.0-4.0-2.0-1.22","spark_pilot_norest","9642","1","16","Female","","","","","","","null","<div style=""font-size:60px;"">+</div>","null","fixation","","","","","","","","","45","","",""
"revaluation","167","780453","0.0-4.0-2.0-0.23","spark_pilot_norest","9642","1","16","Female","","false","","","","","[655.5]","./assets/img/ocean/catch/6.jpg","[""spaceBar""]","value training","ocean","0","{""ArrowUp,ArrowLeft"":26,""ArrowUp,ArrowRight"":10,""ArrowDown,ArrowLeft"":5,""ArrowDown,ArrowRight"":17}","true","spaceBar","true","original","1","46","","",""
"html-keyboard-response","168","780966","0.0-4.0-2.0-1.23","spark_pilot_norest","9642","1","16","Female","","","","","","","null","<div style=""font-size:60px;"">+</div>","null","fixation","","","","","","","","","47","","",""
"revaluation","169","785001","0.0-4.0-2.0-0.24","spark_pilot_norest","9642","1","16","Female","","false","","","","","[399.5]","./assets/img/ocean/catch/1.jpg","[""ArrowUp""]","value training","ocean","-10","{""ArrowUp,ArrowLeft"":26,""ArrowUp,ArrowRight"":10,""ArrowDown,ArrowLeft"":5,""ArrowDown,ArrowRight"":17}","false","ArrowUp","true","original","1","48","","",""
"html-keyboard-response","170","785515","0.0-4.0-2.0-1.24","spark_pilot_norest","9642","1","16","Female","","","","","","","null","<div style=""font-size:60px;"">+</div>","null","fixation","","","","","","","","","49","","",""
"revaluation","171","791566","0.0-4.0-2.0-0.25","spark_pilot_norest","9642","1","16","Female","","false","","","","","[504.39999997615814,424.89999997615814]","./assets/img/ocean/memory/16.jpg","[""ArrowUp"",""ArrowLeft""]","value training","ocean","26","{""ArrowUp,ArrowLeft"":26,""ArrowUp,ArrowRight"":10,""ArrowDown,ArrowLeft"":5,""ArrowDown,ArrowRight"":17}","true","ArrowUp,ArrowLeft","false","original","1","50","","",""
"html-keyboard-response","172","792069","0.0-4.0-2.0-1.25","spark_pilot_norest","9642","1","16","Female","","","","","","","null","<div style=""font-size:60px;"">+</div>","null","fixation","","","","","","","","","51","","",""
"revaluation","173","798109","0.0-4.0-2.0-0.26","spark_pilot_norest","9642","1","16","Female","","false","","","","","[542.2999999523163,307.2999999523163]","./assets/img/ocean/memory/0.jpg","[""ArrowUp"",""ArrowLeft""]","value training","ocean","26","{""ArrowUp,ArrowLeft"":26,""ArrowUp,ArrowRight"":10,""ArrowDown,ArrowLeft"":5,""ArrowDown,ArrowRight"":17}","true","ArrowUp,ArrowLeft","false","original","1","52","","",""
"html-keyboard-response","174","798616","0.0-4.0-2.0-1.26","spark_pilot_norest","9642","1","16","Female","","","","","","","null","<div style=""font-size:60px;"">+</div>","null","fixation","","","","","","","","","53","","",""
"revaluation","175","804678","0.0-4.0-2.0-0.27","spark_pilot_norest","9642","1","16","Female","","false","","","","","[553,293.2999999523163]","./assets/img/ocean/memory/6.jpg","[""ArrowUp"",""ArrowLeft""]","value training","ocean","26","{""ArrowUp,ArrowLeft"":26,""ArrowUp,ArrowRight"":10,""ArrowDown,ArrowLeft"":5,""ArrowDown,ArrowRight"":17}","true","ArrowUp,ArrowLeft","false","original","1","54","","",""
"html-keyboard-response","176","805189","0.0-4.0-2.0-1.27","spark_pilot_norest","9642","1","16","Female","","","","","","","null","<div style=""font-size:60px;"">+</div>","null","fixation","","","","","","","","","55","","",""
"revaluation","177","811216","0.0-4.0-2.0-0.28","spark_pilot_norest","9642","1","16","Female","","false","","","","","[665.7000000476837,358.39999997615814]","./assets/img/ocean/memory/7.jpg","[""ArrowUp"",""ArrowLeft""]","value training","ocean","26","{""ArrowUp,ArrowLeft"":26,""ArrowUp,ArrowRight"":10,""ArrowDown,ArrowLeft"":5,""ArrowDown,ArrowRight"":17}","true","ArrowUp,ArrowLeft","false","original","1","56","","",""
"html-keyboard-response","178","811727","0.0-4.0-2.0-1.28","spark_pilot_norest","9642","1","16","Female","","","","","","","null","<div style=""font-size:60px;"">+</div>","null","fixation","","","","","","","","","57","","",""
"revaluation","179","817765","0.0-4.0-2.0-0.29","spark_pilot_norest","9642","1","16","Female","","false","","","","","[529.5,294.09999990463257]","./assets/img/ocean/memory/41.jpg","[""ArrowUp"",""ArrowLeft""]","value training","ocean","26","{""ArrowUp,ArrowLeft"":26,""ArrowUp,ArrowRight"":10,""ArrowDown,ArrowLeft"":5,""ArrowDown,ArrowRight"":17}","true","ArrowUp,ArrowLeft","false","original","1","58","","",""
"html-keyboard-response","180","818290","0.0-4.0-2.0-1.29","spark_pilot_norest","9642","1","16","Female","","","","","","","null","<div style=""font-size:60px;"">+</div>","null","fixation","","","","","","","","","59","","",""
"revaluation","181","824360","0.0-4.0-2.0-0.30","spark_pilot_norest","9642","1","16","Female","","false","","","","","[507.2999999523163,318.2999999523163]","./assets/img/ocean/memory/26.jpg","[""ArrowUp"",""ArrowLeft""]","value training","ocean","26","{""ArrowUp,ArrowLeft"":26,""ArrowUp,ArrowRight"":10,""ArrowDown,ArrowLeft"":5,""ArrowDown,ArrowRight"":17}","true","ArrowUp,ArrowLeft","false","original","1","60","","",""
"html-keyboard-response","182","824897","0.0-4.0-2.0-1.30","spark_pilot_norest","9642","1","16","Female","","","","","","","null","<div style=""font-size:60px;"">+</div>","null","fixation","","","","","","","","","61","","",""
"revaluation","183","830963","0.0-4.0-2.0-0.31","spark_pilot_norest","9642","1","16","Female","","false","","","","","[426.7999999523163,331.7999999523163]","./assets/img/ocean/memory/12.jpg","[""ArrowUp"",""ArrowLeft""]","value training","ocean","26","{""ArrowUp,ArrowLeft"":26,""ArrowUp,ArrowRight"":10,""ArrowDown,ArrowLeft"":5,""ArrowDown,ArrowRight"":17}","true","ArrowUp,ArrowLeft","false","original","1","62","","",""
"html-keyboard-response","184","831490","0.0-4.0-2.0-1.31","spark_pilot_norest","9642","1","16","Female","","","","","","","null","<div style=""font-size:60px;"">+</div>","null","fixation","","","","","","","","","63","","",""
"revaluation","185","837554","0.0-4.0-2.0-0.32","spark_pilot_norest","9642","1","16","Female","","false","","","","","[603.3999999761581,319]","./assets/img/ocean/memory/33.jpg","[""ArrowUp"",""ArrowLeft""]","value training","ocean","26","{""ArrowUp,ArrowLeft"":26,""ArrowUp,ArrowRight"":10,""ArrowDown,ArrowLeft"":5,""ArrowDown,ArrowRight"":17}","true","ArrowUp,ArrowLeft","false","original","1","64","","",""
"html-keyboard-response","186","838069","0.0-4.0-2.0-1.32","spark_pilot_norest","9642","1","16","Female","","","","","","","null","<div style=""font-size:60px;"">+</div>","null","fixation","","","","","","","","","65","","",""
"revaluation","187","844125","0.0-4.0-2.0-0.33","spark_pilot_norest","9642","1","16","Female","","false","","","","","[456.89999997615814,305.6999999284744]","./assets/img/ocean/memory/1.jpg","[""ArrowUp"",""ArrowLeft""]","value training","ocean","26","{""ArrowUp,ArrowLeft"":26,""ArrowUp,ArrowRight"":10,""ArrowDown,ArrowLeft"":5,""ArrowDown,ArrowRight"":17}","true","ArrowUp,ArrowLeft","false","original","1","66","","",""
"html-keyboard-response","188","844637","0.0-4.0-2.0-1.33","spark_pilot_norest","9642","1","16","Female","","","","","","","null","<div style=""font-size:60px;"">+</div>","null","fixation","","","","","","","","","67","","",""
"revaluation","189","848655","0.0-4.0-2.0-0.34","spark_pilot_norest","9642","1","16","Female","","false","","","","","[571.8000000715256]","./assets/img/ocean/catch/4.jpg","[""spaceBar""]","value training","ocean","0","{""ArrowUp,ArrowLeft"":26,""ArrowUp,ArrowRight"":10,""ArrowDown,ArrowLeft"":5,""ArrowDown,ArrowRight"":17}","true","spaceBar","true","original","1","68","","",""
"html-keyboard-response","190","849161","0.0-4.0-2.0-1.34","spark_pilot_norest","9642","1","16","Female","","","","","","","null","<div style=""font-size:60px;"">+</div>","null","fixation","","","","","","","","","69","","",""
"revaluation","191","855183","0.0-4.0-2.0-0.35","spark_pilot_norest","9642","1","16","Female","","false","","","","","[443.7999999523163,222.20000004768372]","./assets/img/ocean/memory/23.jpg","[""ArrowUp"",""ArrowLeft""]","value training","ocean","26","{""ArrowUp,ArrowLeft"":26,""ArrowUp,ArrowRight"":10,""ArrowDown,ArrowLeft"":5,""ArrowDown,ArrowRight"":17}","true","ArrowUp,ArrowLeft","false","original","1","70","","",""
"html-keyboard-response","192","855692","0.0-4.0-2.0-1.35","spark_pilot_norest","9642","1","16","Female","","","","","","","null","<div style=""font-size:60px;"">+</div>","null","fixation","","","","","","","","","71","","",""
"revaluation","193","861717","0.0-4.0-2.0-0.36","spark_pilot_norest","9642","1","16","Female","","false","","","","","[419.6999999284744,257]","./assets/img/ocean/memory/26.jpg","[""ArrowUp"",""ArrowLeft""]","value training","ocean","26","{""ArrowUp,ArrowLeft"":26,""ArrowUp,ArrowRight"":10,""ArrowDown,ArrowLeft"":5,""ArrowDown,ArrowRight"":17}","true","ArrowUp,ArrowLeft","false","original","1","72","","",""
"html-keyboard-response","194","862222","0.0-4.0-2.0-1.36","spark_pilot_norest","9642","1","16","Female","","","","","","","null","<div style=""font-size:60px;"">+</div>","null","fixation","","","","","","","","","73","","",""
"revaluation","195","868287","0.0-4.0-2.0-0.37","spark_pilot_norest","9642","1","16","Female","","false","","","","","[355.5,236.89999997615814]","./assets/img/ocean/memory/19.jpg","[""ArrowUp"",""ArrowLeft""]","value training","ocean","26","{""ArrowUp,ArrowLeft"":26,""ArrowUp,ArrowRight"":10,""ArrowDown,ArrowLeft"":5,""ArrowDown,ArrowRight"":17}","true","ArrowUp,ArrowLeft","false","original","1","74","","",""
"html-keyboard-response","196","868792","0.0-4.0-2.0-1.37","spark_pilot_norest","9642","1","16","Female","","","","","","","null","<div style=""font-size:60px;"">+</div>","null","fixation","","","","","","","","","75","","",""
"revaluation","197","874846","0.0-4.0-2.0-0.38","spark_pilot_norest","9642","1","16","Female","","false","","","","","[392.1999999284744,243]","./assets/img/ocean/memory/6.jpg","[""ArrowUp"",""ArrowLeft""]","value training","ocean","26","{""ArrowUp,ArrowLeft"":26,""ArrowUp,ArrowRight"":10,""ArrowDown,ArrowLeft"":5,""ArrowDown,ArrowRight"":17}","true","ArrowUp,ArrowLeft","false","original","1","76","","",""
"html-keyboard-response","198","875364","0.0-4.0-2.0-1.38","spark_pilot_norest","9642","1","16","Female","","","","","","","null","<div style=""font-size:60px;"">+</div>","null","fixation","","","","","","","","","77","","",""
"revaluation","199","881403","0.0-4.0-2.0-0.39","spark_pilot_norest","9642","1","16","Female","","false","","","","","[476.10000002384186,389.10000002384186]","./assets/img/ocean/memory/32.jpg","[""ArrowUp"",""ArrowLeft""]","value training","ocean","26","{""ArrowUp,ArrowLeft"":26,""ArrowUp,ArrowRight"":10,""ArrowDown,ArrowLeft"":5,""ArrowDown,ArrowRight"":17}","true","ArrowUp,ArrowLeft","false","original","1","78","","",""
"html-keyboard-response","200","881920","0.0-4.0-2.0-1.39","spark_pilot_norest","9642","1","16","Female","","","","","","","null","<div style=""font-size:60px;"">+</div>","null","fixation","","","","","","","","","79","","",""
"revaluation","201","887979","0.0-4.0-2.0-0.40","spark_pilot_norest","9642","1","16","Female","","false","","","","","[483.89999997615814,322.5]","./assets/img/ocean/memory/11.jpg","[""ArrowUp"",""ArrowLeft""]","value training","ocean","26","{""ArrowUp,ArrowLeft"":26,""ArrowUp,ArrowRight"":10,""ArrowDown,ArrowLeft"":5,""ArrowDown,ArrowRight"":17}","true","ArrowUp,ArrowLeft","false","original","1","80","","",""
"html-keyboard-response","202","888498","0.0-4.0-2.0-1.40","spark_pilot_norest","9642","1","16","Female","","","","","","","null","<div style=""font-size:60px;"">+</div>","null","fixation","","","","","","","","","81","","",""
"revaluation","203","894557","0.0-4.0-2.0-0.41","spark_pilot_norest","9642","1","16","Female","","false","","","","","[671.6999999284744,335.39999997615814]","./assets/img/ocean/memory/35.jpg","[""ArrowUp"",""ArrowLeft""]","value training","ocean","26","{""ArrowUp,ArrowLeft"":26,""ArrowUp,ArrowRight"":10,""ArrowDown,ArrowLeft"":5,""ArrowDown,ArrowRight"":17}","true","ArrowUp,ArrowLeft","false","original","1","82","","",""
"html-keyboard-response","204","895092","0.0-4.0-2.0-1.41","spark_pilot_norest","9642","1","16","Female","","","","","","","null","<div style=""font-size:60px;"">+</div>","null","fixation","","","","","","","","","83","","",""
"revaluation","205","899120","0.0-4.0-2.0-0.42","spark_pilot_norest","9642","1","16","Female","","false","","","","","[466.2000000476837]","./assets/img/ocean/catch/7.jpg","[""ArrowUp""]","value training","ocean","-10","{""ArrowUp,ArrowLeft"":26,""ArrowUp,ArrowRight"":10,""ArrowDown,ArrowLeft"":5,""ArrowDown,ArrowRight"":17}","false","ArrowUp","true","original","1","84","","",""
"html-keyboard-response","206","899628","0.0-4.0-2.0-1.42","spark_pilot_norest","9642","1","16","Female","","","","","","","null","<div style=""font-size:60px;"">+</div>","null","fixation","","","","","","","","","85","","",""
"revaluation","207","905684","0.0-4.0-2.0-0.43","spark_pilot_norest","9642","1","16","Female","","false","","","","","[529.4000000953674,375.40000009536743]","./assets/img/ocean/memory/16.jpg","[""ArrowUp"",""ArrowLeft""]","value training","ocean","26","{""ArrowUp,ArrowLeft"":26,""ArrowUp,ArrowRight"":10,""ArrowDown,ArrowLeft"":5,""ArrowDown,ArrowRight"":17}","true","ArrowUp,ArrowLeft","false","original","1","86","","",""
"html-keyboard-response","208","906193","0.0-4.0-2.0-1.43","spark_pilot_norest","9642","1","16","Female","","","","","","","null","<div style=""font-size:60px;"">+</div>","null","fixation","","","","","","","","","87","","",""
"revaluation","209","910270","0.0-4.0-2.0-0.44","spark_pilot_norest","9642","1","16","Female","","false","","","","","[627.5]","./assets/img/ocean/catch/2.jpg","[""spaceBar""]","value training","ocean","0","{""ArrowUp,ArrowLeft"":26,""ArrowUp,ArrowRight"":10,""ArrowDown,ArrowLeft"":5,""ArrowDown,ArrowRight"":17}","true","spaceBar","true","original","1","88","","",""
"html-keyboard-response","210","910783","0.0-4.0-2.0-1.44","spark_pilot_norest","9642","1","16","Female","","","","","","","null","<div style=""font-size:60px;"">+</div>","null","fixation","","","","","","","","","89","","",""
"revaluation","211","914805","0.0-4.0-2.0-0.45","spark_pilot_norest","9642","1","16","Female","","false","","","","","[682]","./assets/img/ocean/catch/0.jpg","[""spaceBar""]","value training","ocean","0","{""ArrowUp,ArrowLeft"":26,""ArrowUp,ArrowRight"":10,""ArrowDown,ArrowLeft"":5,""ArrowDown,ArrowRight"":17}","true","spaceBar","true","original","1","90","","",""
"html-keyboard-response","212","915313","0.0-4.0-2.0-1.45","spark_pilot_norest","9642","1","16","Female","","","","","","","null","<div style=""font-size:60px;"">+</div>","null","fixation","","","","","","","","","91","","",""
"revaluation","213","921373","0.0-4.0-2.0-0.46","spark_pilot_norest","9642","1","16","Female","","false","","","","","[885.8999999761581,359.7999999523163]","./assets/img/ocean/memory/33.jpg","[""ArrowUp"",""ArrowLeft""]","value training","ocean","26","{""ArrowUp,ArrowLeft"":26,""ArrowUp,ArrowRight"":10,""ArrowDown,ArrowLeft"":5,""ArrowDown,ArrowRight"":17}","true","ArrowUp,ArrowLeft","false","original","1","92","","",""
"html-keyboard-response","214","921877","0.0-4.0-2.0-1.46","spark_pilot_norest","9642","1","16","Female","","","","","","","null","<div style=""font-size:60px;"">+</div>","null","fixation","","","","","","","","","93","","",""
"revaluation","215","927916","0.0-4.0-2.0-0.47","spark_pilot_norest","9642","1","16","Female","","false","","","","","[483.39999997615814,287.5]","./assets/img/ocean/memory/7.jpg","[""ArrowUp"",""ArrowLeft""]","value training","ocean","26","{""ArrowUp,ArrowLeft"":26,""ArrowUp,ArrowRight"":10,""ArrowDown,ArrowLeft"":5,""ArrowDown,ArrowRight"":17}","true","ArrowUp,ArrowLeft","false","original","1","94","","",""
"html-keyboard-response","216","928428","0.0-4.0-2.0-1.47","spark_pilot_norest","9642","1","16","Female","","","","","","","null","<div style=""font-size:60px;"">+</div>","null","fixation","","","","","","","","","95","","",""
"revaluation","217","934479","0.0-4.0-2.0-0.48","spark_pilot_norest","9642","1","16","Female","","false","","","","","[336.10000002384186,347]","./assets/img/ocean/memory/41.jpg","[""ArrowUp"",""ArrowLeft""]","value training","ocean","26","{""ArrowUp,ArrowLeft"":26,""ArrowUp,ArrowRight"":10,""ArrowDown,ArrowLeft"":5,""ArrowDown,ArrowRight"":17}","true","ArrowUp,ArrowLeft","false","original","1","96","","",""
"html-keyboard-response","218","934982","0.0-4.0-2.0-1.48","spark_pilot_norest","9642","1","16","Female","","","","","","","null","<div style=""font-size:60px;"">+</div>","null","fixation","","","","","","","","","97","","",""
"revaluation","219","941028","0.0-4.0-2.0-0.49","spark_pilot_norest","9642","1","16","Female","","false","","","","","[388,381.39999997615814]","./assets/img/ocean/memory/28.jpg","[""ArrowUp"",""ArrowLeft""]","value training","ocean","26","{""ArrowUp,ArrowLeft"":26,""ArrowUp,ArrowRight"":10,""ArrowDown,ArrowLeft"":5,""ArrowDown,ArrowRight"":17}","true","ArrowUp,ArrowLeft","false","original","1","98","","",""
"html-keyboard-response","220","941544","0.0-4.0-2.0-1.49","spark_pilot_norest","9642","1","16","Female","","","","","","","null","<div style=""font-size:60px;"">+</div>","null","fixation","","","","","","","","","99","","",""
"learning-instructions","221","957127","0.0-4.0-3.0-0.0","spark_pilot_norest","9642","1","16","Female","","","","","","","2640.399999976158","<p> Now, you will travel with a friend who will choose whether you go up or down first. </p>
            <p> On these turns, you will just see the animal that they found. You will still get to choose which chest to search for treasure.</p>","","instructions","","","","","","","","","","","",""
"revaluation","222","961138","0.0-4.0-4.0-0.0","spark_pilot_norest","9642","1","16","Female","","false","","","","","[955.3999999761581]","./assets/img/ocean/animals/seahorse.jpg","[""ArrowLeft""]","revaluation","ocean","26","{""ArrowUp,ArrowLeft"":26,""ArrowUp,ArrowRight"":10,""ArrowDown,ArrowLeft"":5,""ArrowDown,ArrowRight"":17}","true","ArrowUp,ArrowLeft","","original","1","0","","",""
"html-keyboard-response","223","961653","0.0-4.0-4.0-1.0","spark_pilot_norest","9642","1","16","Female","","","","","","","null","<div style=""font-size:60px;"">+</div>","null","fixation","","","","","","","","","1","","",""
"revaluation","224","965675","0.0-4.0-4.0-0.1","spark_pilot_norest","9642","1","16","Female","","false","","","","","[630.7000000476837]","./assets/img/ocean/animals/octopus.jpg","[""ArrowLeft""]","revaluation","ocean","5","{""ArrowUp,ArrowLeft"":26,""ArrowUp,ArrowRight"":10,""ArrowDown,ArrowLeft"":5,""ArrowDown,ArrowRight"":17}","false","ArrowDown,ArrowLeft","","original","1","2","","",""
"html-keyboard-response","225","966180","0.0-4.0-4.0-1.1","spark_pilot_norest","9642","1","16","Female","","","","","","","null","<div style=""font-size:60px;"">+</div>","null","fixation","","","","","","","","","3","","",""
"revaluation","226","970203","0.0-4.0-4.0-0.2","spark_pilot_norest","9642","1","16","Female","","false","","","","","[450.60000002384186]","./assets/img/ocean/animals/seahorse.jpg","[""ArrowLeft""]","revaluation","ocean","26","{""ArrowUp,ArrowLeft"":26,""ArrowUp,ArrowRight"":10,""ArrowDown,ArrowLeft"":5,""ArrowDown,ArrowRight"":17}","true","ArrowUp,ArrowLeft","","original","1","4","","",""
"html-keyboard-response","227","970711","0.0-4.0-4.0-1.2","spark_pilot_norest","9642","1","16","Female","","","","","","","null","<div style=""font-size:60px;"">+</div>","null","fixation","","","","","","","","","5","","",""
"revaluation","228","974729","0.0-4.0-4.0-0.3","spark_pilot_norest","9642","1","16","Female","","false","","","","","[662.3999999761581]","./assets/img/ocean/animals/seahorse.jpg","[""ArrowLeft""]","revaluation","ocean","26","{""ArrowUp,ArrowLeft"":26,""ArrowUp,ArrowRight"":10,""ArrowDown,ArrowLeft"":5,""ArrowDown,ArrowRight"":17}","true","ArrowUp,ArrowLeft","","original","1","6","","",""
"html-keyboard-response","229","975239","0.0-4.0-4.0-1.3","spark_pilot_norest","9642","1","16","Female","","","","","","","null","<div style=""font-size:60px;"">+</div>","null","fixation","","","","","","","","","7","","",""
"revaluation","230","979259","0.0-4.0-4.0-0.4","spark_pilot_norest","9642","1","16","Female","","false","","","","","[382.60000002384186]","./assets/img/ocean/animals/octopus.jpg","[""ArrowRight""]","revaluation","ocean","17","{""ArrowUp,ArrowLeft"":26,""ArrowUp,ArrowRight"":10,""ArrowDown,ArrowLeft"":5,""ArrowDown,ArrowRight"":17}","true","ArrowDown,ArrowRight","","original","1","8","","",""
"html-keyboard-response","231","979762","0.0-4.0-4.0-1.4","spark_pilot_norest","9642","1","16","Female","","","","","","","null","<div style=""font-size:60px;"">+</div>","null","fixation","","","","","","","","","9","","",""
"revaluation","232","983772","0.0-4.0-4.0-0.5","spark_pilot_norest","9642","1","16","Female","","false","","","","","[373.2000000476837]","./assets/img/ocean/animals/seahorse.jpg","[""ArrowLeft""]","revaluation","ocean","26","{""ArrowUp,ArrowLeft"":26,""ArrowUp,ArrowRight"":10,""ArrowDown,ArrowLeft"":5,""ArrowDown,ArrowRight"":17}","true","ArrowUp,ArrowLeft","","original","1","10","","",""
"html-keyboard-response","233","984280","0.0-4.0-4.0-1.5","spark_pilot_norest","9642","1","16","Female","","","","","","","null","<div style=""font-size:60px;"">+</div>","null","fixation","","","","","","","","","11","","",""
"revaluation","234","988306","0.0-4.0-4.0-0.6","spark_pilot_norest","9642","1","16","Female","","false","","","","","[479.2999999523163]","./assets/img/ocean/animals/octopus.jpg","[""ArrowRight""]","revaluation","ocean","17","{""ArrowUp,ArrowLeft"":26,""ArrowUp,ArrowRight"":10,""ArrowDown,ArrowLeft"":5,""ArrowDown,ArrowRight"":17}","true","ArrowDown,ArrowRight","","original","1","12","","",""
"html-keyboard-response","235","988815","0.0-4.0-4.0-1.6","spark_pilot_norest","9642","1","16","Female","","","","","","","null","<div style=""font-size:60px;"">+</div>","null","fixation","","","","","","","","","13","","",""
"revaluation","236","992839","0.0-4.0-4.0-0.7","spark_pilot_norest","9642","1","16","Female","","false","","","","","[410]","./assets/img/ocean/animals/seahorse.jpg","[""ArrowLeft""]","revaluation","ocean","26","{""ArrowUp,ArrowLeft"":26,""ArrowUp,ArrowRight"":10,""ArrowDown,ArrowLeft"":5,""ArrowDown,ArrowRight"":17}","true","ArrowUp,ArrowLeft","","original","1","14","","",""
"html-keyboard-response","237","993343","0.0-4.0-4.0-1.7","spark_pilot_norest","9642","1","16","Female","","","","","","","null","<div style=""font-size:60px;"">+</div>","null","fixation","","","","","","","","","15","","",""
"revaluation","238","997371","0.0-4.0-4.0-0.8","spark_pilot_norest","9642","1","16","Female","","false","","","","","[537.4000000953674]","./assets/img/ocean/animals/seahorse.jpg","[""ArrowLeft""]","revaluation","ocean","26","{""ArrowUp,ArrowLeft"":26,""ArrowUp,ArrowRight"":10,""ArrowDown,ArrowLeft"":5,""ArrowDown,ArrowRight"":17}","true","ArrowUp,ArrowLeft","","original","1","16","","",""
"html-keyboard-response","239","997906","0.0-4.0-4.0-1.8","spark_pilot_norest","9642","1","16","Female","","","","","","","null","<div style=""font-size:60px;"">+</div>","null","fixation","","","","","","","","","17","","",""
"revaluation","240","1001929","0.0-4.0-4.0-0.9","spark_pilot_norest","9642","1","16","Female","","false","","","","","[430.8000000715256]","./assets/img/ocean/animals/octopus.jpg","[""ArrowRight""]","revaluation","ocean","17","{""ArrowUp,ArrowLeft"":26,""ArrowUp,ArrowRight"":10,""ArrowDown,ArrowLeft"":5,""ArrowDown,ArrowRight"":17}","true","ArrowDown,ArrowRight","","original","1","18","","",""
"html-keyboard-response","241","1002440","0.0-4.0-4.0-1.9","spark_pilot_norest","9642","1","16","Female","","","","","","","null","<div style=""font-size:60px;"">+</div>","null","fixation","","","","","","","","","19","","",""
"revaluation","242","1006486","0.0-4.0-4.0-0.10","spark_pilot_norest","9642","1","16","Female","","false","","","","","[501.5]","./assets/img/ocean/animals/seahorse.jpg","[""ArrowLeft""]","revaluation","ocean","26","{""ArrowUp,ArrowLeft"":26,""ArrowUp,ArrowRight"":10,""ArrowDown,ArrowLeft"":5,""ArrowDown,ArrowRight"":17}","true","ArrowUp,ArrowLeft","","original","1","20","","",""
"html-keyboard-response","243","1006999","0.0-4.0-4.0-1.10","spark_pilot_norest","9642","1","16","Female","","","","","","","null","<div style=""font-size:60px;"">+</div>","null","fixation","","","","","","","","","21","","",""
"revaluation","244","1011020","0.0-4.0-4.0-0.11","spark_pilot_norest","9642","1","16","Female","","false","","","","","[427.5]","./assets/img/ocean/animals/octopus.jpg","[""ArrowRight""]","revaluation","ocean","17","{""ArrowUp,ArrowLeft"":26,""ArrowUp,ArrowRight"":10,""ArrowDown,ArrowLeft"":5,""ArrowDown,ArrowRight"":17}","true","ArrowDown,ArrowRight","","original","1","22","","",""
"html-keyboard-response","245","1011525","0.0-4.0-4.0-1.11","spark_pilot_norest","9642","1","16","Female","","","","","","","null","<div style=""font-size:60px;"">+</div>","null","fixation","","","","","","","","","23","","",""
"revaluation","246","1015573","0.0-4.0-4.0-0.12","spark_pilot_norest","9642","1","16","Female","","false","","","","","[381]","./assets/img/ocean/animals/seahorse.jpg","[""ArrowLeft""]","revaluation","ocean","26","{""ArrowUp,ArrowLeft"":26,""ArrowUp,ArrowRight"":10,""ArrowDown,ArrowLeft"":5,""ArrowDown,ArrowRight"":17}","true","ArrowUp,ArrowLeft","","original","1","24","","",""
"html-keyboard-response","247","1016084","0.0-4.0-4.0-1.12","spark_pilot_norest","9642","1","16","Female","","","","","","","null","<div style=""font-size:60px;"">+</div>","null","fixation","","","","","","","","","25","","",""
"revaluation","248","1020114","0.0-4.0-4.0-0.13","spark_pilot_norest","9642","1","16","Female","","false","","","","","[506.7000000476837]","./assets/img/ocean/animals/octopus.jpg","[""ArrowRight""]","revaluation","ocean","17","{""ArrowUp,ArrowLeft"":26,""ArrowUp,ArrowRight"":10,""ArrowDown,ArrowLeft"":5,""ArrowDown,ArrowRight"":17}","true","ArrowDown,ArrowRight","","original","1","26","","",""
"html-keyboard-response","249","1020630","0.0-4.0-4.0-1.13","spark_pilot_norest","9642","1","16","Female","","","","","","","null","<div style=""font-size:60px;"">+</div>","null","fixation","","","","","","","","","27","","",""
"revaluation","250","1024665","0.0-4.0-4.0-0.14","spark_pilot_norest","9642","1","16","Female","","false","","","","","[649]","./assets/img/ocean/animals/octopus.jpg","[""ArrowRight""]","revaluation","ocean","17","{""ArrowUp,ArrowLeft"":26,""ArrowUp,ArrowRight"":10,""ArrowDown,ArrowLeft"":5,""ArrowDown,ArrowRight"":17}","true","ArrowDown,ArrowRight","","original","1","28","","",""
"html-keyboard-response","251","1025183","0.0-4.0-4.0-1.14","spark_pilot_norest","9642","1","16","Female","","","","","","","null","<div style=""font-size:60px;"">+</div>","null","fixation","","","","","","","","","29","","",""
"revaluation","252","1029208","0.0-4.0-4.0-0.15","spark_pilot_norest","9642","1","16","Female","","false","","","","","[458.2000000476837]","./assets/img/ocean/animals/seahorse.jpg","[""ArrowLeft""]","revaluation","ocean","26","{""ArrowUp,ArrowLeft"":26,""ArrowUp,ArrowRight"":10,""ArrowDown,ArrowLeft"":5,""ArrowDown,ArrowRight"":17}","true","ArrowUp,ArrowLeft","","original","1","30","","",""
"html-keyboard-response","253","1029722","0.0-4.0-4.0-1.15","spark_pilot_norest","9642","1","16","Female","","","","","","","null","<div style=""font-size:60px;"">+</div>","null","fixation","","","","","","","","","31","","",""
"revaluation","254","1033758","0.0-4.0-4.0-0.16","spark_pilot_norest","9642","1","16","Female","","false","","","","","[531.2999999523163]","./assets/img/ocean/animals/octopus.jpg","[""ArrowRight""]","revaluation","ocean","17","{""ArrowUp,ArrowLeft"":26,""ArrowUp,ArrowRight"":10,""ArrowDown,ArrowLeft"":5,""ArrowDown,ArrowRight"":17}","true","ArrowDown,ArrowRight","","original","1","32","","",""
"html-keyboard-response","255","1034299","0.0-4.0-4.0-1.16","spark_pilot_norest","9642","1","16","Female","","","","","","","null","<div style=""font-size:60px;"">+</div>","null","fixation","","","","","","","","","33","","",""
"revaluation","256","1038320","0.0-4.0-4.0-0.17","spark_pilot_norest","9642","1","16","Female","","false","","","","","[540.1000000238419]","./assets/img/ocean/animals/octopus.jpg","[""ArrowRight""]","revaluation","ocean","17","{""ArrowUp,ArrowLeft"":26,""ArrowUp,ArrowRight"":10,""ArrowDown,ArrowLeft"":5,""ArrowDown,ArrowRight"":17}","true","ArrowDown,ArrowRight","","original","1","34","","",""
"html-keyboard-response","257","1038836","0.0-4.0-4.0-1.17","spark_pilot_norest","9642","1","16","Female","","","","","","","null","<div style=""font-size:60px;"">+</div>","null","fixation","","","","","","","","","35","","",""
"learning-instructions","258","1046997","0.0-4.0-5.0-0.0","spark_pilot_norest","9642","1","16","Female","","","","","","","null","<p> You have almost finished this part of the game! </p>
            <p> We are going to ask you to make a few more choices. </p>","","instructions","","","","","","","","","","","",""
"learning-instructions","259","1062971","0.0-4.0-5.0-0.1","spark_pilot_norest","9642","1","16","Female","","","","","","","null","<p> First, you need to decide whether to go up or down. When you see each picture, use the arrow keys to make your choice. </p>
            <p><b>You will not see which animal you found, but try to get to the one that will give you the most treasure.</b></p>","","instructions","","","","","","","","","","","",""
"html-keyboard-response","260","1063984","0.0-4.0-6.0-0.0","spark_pilot_norest","9642","1","16","Female","","","","","","","null","<div style=""font-size:100px;color:red;"">Starting in...</div>","null","","","","","","","","","","","","",""
"html-keyboard-response","261","1064987","0.0-4.0-6.0-1.0","spark_pilot_norest","9642","1","16","Female","","","","","","","null","<div style=""font-size:200px;color:red;"">3</div>","null","","","","","","","","","","","","",""
"html-keyboard-response","262","1066000","0.0-4.0-6.0-2.0","spark_pilot_norest","9642","1","16","Female","","","","","","","null","<div style=""font-size:200px;color:red;"">2</div>","null","","","","","","","","","","","","",""
"html-keyboard-response","263","1067008","0.0-4.0-6.0-3.0","spark_pilot_norest","9642","1","16","Female","","","","","","","null","<div style=""font-size:200px;color:red;"">1</div>","null","","","","","","","","","","","","",""
"revaluation","264","1067677","0.0-4.0-7.0-0.0","spark_pilot_norest","9642","1","16","Female","","false","","","","","[662.8999999761581]","./assets/img/ocean/test/3.jpg","[""ArrowUp""]","first stage test","ocean","0","{""ArrowUp,ArrowLeft"":26,""ArrowUp,ArrowRight"":10,""ArrowDown,ArrowLeft"":5,""ArrowDown,ArrowRight"":17}","true","ArrowUp","false","original","1","","","",""
"html-keyboard-response","265","1068189","0.0-4.0-7.0-1.0","spark_pilot_norest","9642","1","16","Female","","","","","","","null","<div style=""font-size:60px;"">+</div>","null","fixation","","","","","","","","","","","",""
"revaluation","266","1068937","0.0-4.0-7.0-0.1","spark_pilot_norest","9642","1","16","Female","","false","","","","","[742.6000000238419]","./assets/img/ocean/test/1.jpg","[""ArrowUp""]","first stage test","ocean","0","{""ArrowUp,ArrowLeft"":26,""ArrowUp,ArrowRight"":10,""ArrowDown,ArrowLeft"":5,""ArrowDown,ArrowRight"":17}","true","ArrowUp","false","original","1","","","",""
"html-keyboard-response","267","1069448","0.0-4.0-7.0-1.1","spark_pilot_norest","9642","1","16","Female","","","","","","","null","<div style=""font-size:60px;"">+</div>","null","fixation","","","","","","","","","","","",""
"revaluation","268","1069901","0.0-4.0-7.0-0.2","spark_pilot_norest","9642","1","16","Female","","false","","","","","[447.7999999523163]","./assets/img/ocean/test/2.jpg","[""ArrowUp""]","first stage test","ocean","0","{""ArrowUp,ArrowLeft"":26,""ArrowUp,ArrowRight"":10,""ArrowDown,ArrowLeft"":5,""ArrowDown,ArrowRight"":17}","true","ArrowUp","false","original","1","","","",""
"html-keyboard-response","269","1070403","0.0-4.0-7.0-1.2","spark_pilot_norest","9642","1","16","Female","","","","","","","null","<div style=""font-size:60px;"">+</div>","null","fixation","","","","","","","","","","","",""
"revaluation","270","1070790","0.0-4.0-7.0-0.3","spark_pilot_norest","9642","1","16","Female","","false","","","","","[381.39999997615814]","./assets/img/ocean/test/0.jpg","[""ArrowUp""]","first stage test","ocean","0","{""ArrowUp,ArrowLeft"":26,""ArrowUp,ArrowRight"":10,""ArrowDown,ArrowLeft"":5,""ArrowDown,ArrowRight"":17}","true","ArrowUp","false","original","1","","","",""
"html-keyboard-response","271","1071304","0.0-4.0-7.0-1.3","spark_pilot_norest","9642","1","16","Female","","","","","","","null","<div style=""font-size:60px;"">+</div>","null","fixation","","","","","","","","","","","",""
"learning-instructions","272","1084651","0.0-4.0-8.0-0.0","spark_pilot_norest","9642","1","16","Female","","","","","","","null","<p> Now you will see the animals again and can search their chests for treasure. </p>
            <p> This time, you will not see how much treasure you earned, but you will earn more bonus money for making better choices. </p>","","instructions","","","","","","","","","","","",""
"html-keyboard-response","273","1085657","0.0-4.0-9.0-0.0","spark_pilot_norest","9642","1","16","Female","","","","","","","null","<div style=""font-size:100px;color:red;"">Starting in...</div>","null","","","","","","","","","","","","",""
"html-keyboard-response","274","1086665","0.0-4.0-9.0-1.0","spark_pilot_norest","9642","1","16","Female","","","","","","","null","<div style=""font-size:200px;color:red;"">3</div>","null","","","","","","","","","","","","",""
"html-keyboard-response","275","1087680","0.0-4.0-9.0-2.0","spark_pilot_norest","9642","1","16","Female","","","","","","","null","<div style=""font-size:200px;color:red;"">2</div>","null","","","","","","","","","","","","",""
"html-keyboard-response","276","1088687","0.0-4.0-9.0-3.0","spark_pilot_norest","9642","1","16","Female","","","","","","","null","<div style=""font-size:200px;color:red;"">1</div>","null","","","","","","","","","","","","",""
"revaluation","277","1089146","0.0-4.0-10.0-0.0","spark_pilot_norest","9642","1","16","Female","","false","","","","","[454.10000002384186]","./assets/img/ocean/animals/seahorse.jpg","[""ArrowLeft""]","second stage test","ocean","0","{""ArrowUp,ArrowLeft"":26,""ArrowUp,ArrowRight"":10,""ArrowDown,ArrowLeft"":5,""ArrowDown,ArrowRight"":17}","true","ArrowUp,ArrowLeft","","original","1","","","",""
"html-keyboard-response","278","1089651","0.0-4.0-10.0-1.0","spark_pilot_norest","9642","1","16","Female","","","","","","","null","<div style=""font-size:60px;"">+</div>","null","fixation","","","","","","","","","","","",""
"revaluation","279","1089972","0.0-4.0-10.0-0.1","spark_pilot_norest","9642","1","16","Female","","false","","","","","[316.2999999523163]","./assets/img/ocean/animals/seahorse.jpg","[""ArrowLeft""]","second stage test","ocean","0","{""ArrowUp,ArrowLeft"":26,""ArrowUp,ArrowRight"":10,""ArrowDown,ArrowLeft"":5,""ArrowDown,ArrowRight"":17}","true","ArrowUp,ArrowLeft","","original","1","","","",""
"html-keyboard-response","280","1090487","0.0-4.0-10.0-1.1","spark_pilot_norest","9642","1","16","Female","","","","","","","null","<div style=""font-size:60px;"">+</div>","null","fixation","","","","","","","","","","","",""
"revaluation","281","1090825","0.0-4.0-10.0-0.2","spark_pilot_norest","9642","1","16","Female","","false","","","","","[333.60000002384186]","./assets/img/ocean/animals/seahorse.jpg","[""ArrowLeft""]","second stage test","ocean","0","{""ArrowUp,ArrowLeft"":26,""ArrowUp,ArrowRight"":10,""ArrowDown,ArrowLeft"":5,""ArrowDown,ArrowRight"":17}","true","ArrowUp,ArrowLeft","","original","1","","","",""
"html-keyboard-response","282","1091330","0.0-4.0-10.0-1.2","spark_pilot_norest","9642","1","16","Female","","","","","","","null","<div style=""font-size:60px;"">+</div>","null","fixation","","","","","","","","","","","",""
"revaluation","283","1091644","0.0-4.0-10.0-0.3","spark_pilot_norest","9642","1","16","Female","","false","","","","","[308.39999997615814]","./assets/img/ocean/animals/seahorse.jpg","[""ArrowLeft""]","second stage test","ocean","0","{""ArrowUp,ArrowLeft"":26,""ArrowUp,ArrowRight"":10,""ArrowDown,ArrowLeft"":5,""ArrowDown,ArrowRight"":17}","true","ArrowUp,ArrowLeft","","original","1","","","",""
"html-keyboard-response","284","1092151","0.0-4.0-10.0-1.3","spark_pilot_norest","9642","1","16","Female","","","","","","","null","<div style=""font-size:60px;"">+</div>","null","fixation","","","","","","","","","","","",""
"revaluation","285","1092753","0.0-4.0-10.0-0.4","spark_pilot_norest","9642","1","16","Female","","false","","","","","[596.7999999523163]","./assets/img/ocean/animals/octopus.jpg","[""ArrowRight""]","second stage test","ocean","0","{""ArrowUp,ArrowLeft"":26,""ArrowUp,ArrowRight"":10,""ArrowDown,ArrowLeft"":5,""ArrowDown,ArrowRight"":17}","true","ArrowDown,ArrowRight","","original","1","","","",""
"html-keyboard-response","286","1093260","0.0-4.0-10.0-1.4","spark_pilot_norest","9642","1","16","Female","","","","","","","null","<div style=""font-size:60px;"">+</div>","null","fixation","","","","","","","","","","","",""
"revaluation","287","1093692","0.0-4.0-10.0-0.5","spark_pilot_norest","9642","1","16","Female","","false","","","","","[427.2000000476837]","./assets/img/ocean/animals/octopus.jpg","[""ArrowRight""]","second stage test","ocean","0","{""ArrowUp,ArrowLeft"":26,""ArrowUp,ArrowRight"":10,""ArrowDown,ArrowLeft"":5,""ArrowDown,ArrowRight"":17}","true","ArrowDown,ArrowRight","","original","1","","","",""
"html-keyboard-response","288","1094208","0.0-4.0-10.0-1.5","spark_pilot_norest","9642","1","16","Female","","","","","","","null","<div style=""font-size:60px;"">+</div>","null","fixation","","","","","","","","","","","",""
"revaluation","289","1094530","0.0-4.0-10.0-0.6","spark_pilot_norest","9642","1","16","Female","","false","","","","","[317.2000000476837]","./assets/img/ocean/animals/octopus.jpg","[""ArrowRight""]","second stage test","ocean","0","{""ArrowUp,ArrowLeft"":26,""ArrowUp,ArrowRight"":10,""ArrowDown,ArrowLeft"":5,""ArrowDown,ArrowRight"":17}","true","ArrowDown,ArrowRight","","original","1","","","",""
"html-keyboard-response","290","1095040","0.0-4.0-10.0-1.6","spark_pilot_norest","9642","1","16","Female","","","","","","","null","<div style=""font-size:60px;"">+</div>","null","fixation","","","","","","","","","","","",""
"revaluation","291","1095361","0.0-4.0-10.0-0.7","spark_pilot_norest","9642","1","16","Female","","false","","","","","[316.60000002384186]","./assets/img/ocean/animals/octopus.jpg","[""ArrowRight""]","second stage test","ocean","0","{""ArrowUp,ArrowLeft"":26,""ArrowUp,ArrowRight"":10,""ArrowDown,ArrowLeft"":5,""ArrowDown,ArrowRight"":17}","true","ArrowDown,ArrowRight","","original","1","","","",""
"html-keyboard-response","292","1095874","0.0-4.0-10.0-1.7","spark_pilot_norest","9642","1","16","Female","","","","","","","null","<div style=""font-size:60px;"">+</div>","null","fixation","","","","","","","","","","","",""
"learning-instructions","293","1100702","0.0-4.0-0.1-0.2","spark_pilot_norest","9642","1","16","Female","","","","","","","2042.7000000476837","<p> This time you are searching for treasure in the <b>canyon</b>.</p>","","instructions","","","","","","","","","","","",""
"learning-instructions","294","1119518","0.0-4.0-0.1-0.3","spark_pilot_norest","9642","1","16","Female","","","","","","","1558.6999999284744","<p><b>New</b> animals with <b>new</b> treasure chests live here. You need to explore to discover where the animal with the best treasure chest is.</p>
                    <p> Like before, once you figure out which animal has the chest with the most treasure, you should try to get to that animal and select that chest! </p>","","instructions","","","","","","","","","","","",""
"learning-instructions","295","1139255","0.0-4.0-1.1-0.1","spark_pilot_norest","9642","1","16","Female","","","","","","","5014.899999976158","<p> Remember, when you see a picture of the place, use the up and down keys to <b>find an animal</b>.</p>
            <p> When you encounter an animal, you should use the left and right keys to <b>select a treasure chest</b>.</p>
            <p> Don't forget to look out for the robber! </p>","","instructions","","","","","","","","","","","",""
"revaluation","296","1145282","0.0-4.0-2.1-0.50","spark_pilot_norest","9642","1","16","Female","","false","","","","","[693.8000000715256,500.5]","./assets/img/canyon/memory/18.jpg","[""ArrowUp"",""ArrowRight""]","value training","canyon","10","{""ArrowUp,ArrowLeft"":23,""ArrowUp,ArrowRight"":10,""ArrowDown,ArrowLeft"":8,""ArrowDown,ArrowRight"":30}","false","ArrowUp,ArrowRight","false","revaluation","2","0","","",""
"html-keyboard-response","297","1145796","0.0-4.0-2.1-1.50","spark_pilot_norest","9642","1","16","Female","","","","","","","null","<div style=""font-size:60px;"">+</div>","null","fixation","","","","","","","","","1","","",""
"revaluation","298","1151815","0.0-4.0-2.1-0.51","spark_pilot_norest","9642","1","16","Female","","false","","","","","[359,340.39999997615814]","./assets/img/canyon/memory/6.jpg","[""ArrowUp"",""ArrowLeft""]","value training","canyon","23","{""ArrowUp,ArrowLeft"":23,""ArrowUp,ArrowRight"":10,""ArrowDown,ArrowLeft"":8,""ArrowDown,ArrowRight"":30}","false","ArrowUp,ArrowLeft","false","revaluation","2","2","","",""
"html-keyboard-response","299","1152317","0.0-4.0-2.1-1.51","spark_pilot_norest","9642","1","16","Female","","","","","","","null","<div style=""font-size:60px;"">+</div>","null","fixation","","","","","","","","","3","","",""
"revaluation","300","1156346","0.0-4.0-2.1-0.52","spark_pilot_norest","9642","1","16","Female","","false","","","","","[389.7000000476837]","./assets/img/canyon/catch/0.jpg","[""ArrowDown""]","value training","canyon","-10","{""ArrowUp,ArrowLeft"":23,""ArrowUp,ArrowRight"":10,""ArrowDown,ArrowLeft"":8,""ArrowDown,ArrowRight"":30}","false","ArrowDown","true","revaluation","2","4","","",""
"html-keyboard-response","301","1156849","0.0-4.0-2.1-1.52","spark_pilot_norest","9642","1","16","Female","","","","","","","null","<div style=""font-size:60px;"">+</div>","null","fixation","","","","","","","","","5","","",""
"revaluation","302","1162877","0.0-4.0-2.1-0.53","spark_pilot_norest","9642","1","16","Female","","false","","","","","[535.6000000238419,379]","./assets/img/canyon/memory/13.jpg","[""ArrowDown"",""ArrowLeft""]","value training","canyon","8","{""ArrowUp,ArrowLeft"":23,""ArrowUp,ArrowRight"":10,""ArrowDown,ArrowLeft"":8,""ArrowDown,ArrowRight"":30}","false","ArrowDown,ArrowLeft","false","revaluation","2","6","","",""
"html-keyboard-response","303","1163393","0.0-4.0-2.1-1.53","spark_pilot_norest","9642","1","16","Female","","","","","","","null","<div style=""font-size:60px;"">+</div>","null","fixation","","","","","","","","","7","","",""
"revaluation","304","1169453","0.0-4.0-2.1-0.54","spark_pilot_norest","9642","1","16","Female","","false","","","","","[322,339.90000009536743]","./assets/img/canyon/memory/21.jpg","[""ArrowDown"",""ArrowRight""]","value training","canyon","30","{""ArrowUp,ArrowLeft"":23,""ArrowUp,ArrowRight"":10,""ArrowDown,ArrowLeft"":8,""ArrowDown,ArrowRight"":30}","true","ArrowDown,ArrowRight","false","revaluation","2","8","","",""
"html-keyboard-response","305","1169963","0.0-4.0-2.1-1.54","spark_pilot_norest","9642","1","16","Female","","","","","","","null","<div style=""font-size:60px;"">+</div>","null","fixation","","","","","","","","","9","","",""
"revaluation","306","1176017","0.0-4.0-2.1-0.55","spark_pilot_norest","9642","1","16","Female","","false","","","","","[339.5,280.59999990463257]","./assets/img/canyon/memory/0.jpg","[""ArrowDown"",""ArrowRight""]","value training","canyon","30","{""ArrowUp,ArrowLeft"":23,""ArrowUp,ArrowRight"":10,""ArrowDown,ArrowLeft"":8,""ArrowDown,ArrowRight"":30}","true","ArrowDown,ArrowRight","false","revaluation","2","10","","",""
"html-keyboard-response","307","1176521","0.0-4.0-2.1-1.55","spark_pilot_norest","9642","1","16","Female","","","","","","","null","<div style=""font-size:60px;"">+</div>","null","fixation","","","","","","","","","11","","",""
"revaluation","308","1182561","0.0-4.0-2.1-0.56","spark_pilot_norest","9642","1","16","Female","","false","","","","","[344.60000002384186,320.39999997615814]","./assets/img/canyon/memory/33.jpg","[""ArrowDown"",""ArrowRight""]","value training","canyon","30","{""ArrowUp,ArrowLeft"":23,""ArrowUp,ArrowRight"":10,""ArrowDown,ArrowLeft"":8,""ArrowDown,ArrowRight"":30}","true","ArrowDown,ArrowRight","false","revaluation","2","12","","",""
"html-keyboard-response","309","1183065","0.0-4.0-2.1-1.56","spark_pilot_norest","9642","1","16","Female","","","","","","","null","<div style=""font-size:60px;"">+</div>","null","fixation","","","","","","","","","13","","",""
"revaluation","310","1189129","0.0-4.0-2.1-0.57","spark_pilot_norest","9642","1","16","Female","","false","","","","","[424.10000002384186,306]","./assets/img/canyon/memory/19.jpg","[""ArrowDown"",""ArrowRight""]","value training","canyon","30","{""ArrowUp,ArrowLeft"":23,""ArrowUp,ArrowRight"":10,""ArrowDown,ArrowLeft"":8,""ArrowDown,ArrowRight"":30}","true","ArrowDown,ArrowRight","false","revaluation","2","14","","",""
"html-keyboard-response","311","1189639","0.0-4.0-2.1-1.57","spark_pilot_norest","9642","1","16","Female","","","","","","","null","<div style=""font-size:60px;"">+</div>","null","fixation","","","","","","","","","15","","",""
"revaluation","312","1195682","0.0-4.0-2.1-0.58","spark_pilot_norest","9642","1","16","Female","","false","","","","","[475.7000000476837,286.6999999284744]","./assets/img/canyon/memory/19.jpg","[""ArrowDown"",""ArrowRight""]","value training","canyon","30","{""ArrowUp,ArrowLeft"":23,""ArrowUp,ArrowRight"":10,""ArrowDown,ArrowLeft"":8,""ArrowDown,ArrowRight"":30}","true","ArrowDown,ArrowRight","false","revaluation","2","16","","",""
