"trial_type","trial_index","time_elapsed","internal_node_id","task_version","subject_id","assigned_condition","age","gender","success","timeout","failed_images","failed_audio","failed_video","browser_interaction","rt","stimulus","response","task_part","environment","score","rewardMap","correct","fullState","isCatch","condition","order","trial_num","key_press","ground_truth","bonus"
"pavlovia","0","1433","0.0-0.0","spark_pilot_norest","10172","8","7","Male","","","","","","","","","","","","","","","","","","","","","",""
"preload","1","9226","0.0-1.0","spark_pilot_norest","10172","8","7","Male","true","false","[]","[]","[]","[{""event"":""fullscreenenter"",""trial"":2,""time"":15189}]","","","","","","","","","","","","","","","",""
"fullscreen","2","16182","0.0-2.0","spark_pilot_norest","10172","8","7","Male","true","","","","","","","","","","","","","","","","","","","","",""
"audio-button-response","3","19213","0.0-3.0-0.0-0.0","spark_pilot_norest","10172","8","7","Male","","","","","","","2891","./assets/audio/audiotest/turtle.mp3","2","audio_test","","","","","","","","","","","",""
"learning-instructions","4","30970","0.0-3.0-1.0-0.0","spark_pilot_norest","10172","8","7","Male","","","","","","","4767.60000000149","<p> Welcome! Please remember to stay in fullscreen mode and don't click away from the experiment. </p>","","instructions","","","","","","","","","","","",""
"learning-instructions","5","42141","0.0-3.0-1.0-0.1","spark_pilot_norest","10172","8","7","Male","","","","","","","2744.400000002235","<p> Today you will be playing a game to earn treasure. </p>
            <p> At the end of the experiment, you will earn a bonus based on how much treasure you find. </p>
            <img src='./assets/img/instructions/treasure.jpg' class='instructions-image'>","","instructions","","","","","","","","","","","",""
"learning-instructions","6","52499","0.0-3.0-1.0-0.2","spark_pilot_norest","10172","8","7","Male","","","","","","","2078.699999999255","<p> Animals have hidden treasure in treasure chests. </p>
            <p> You need to first find an animal and then choose which of their treasure chests to search. </p>
            <img src='./assets/img/space/animals/cat.jpg' class='instructions-image'>","","instructions","","","","","","","","","","","",""
"learning-instructions","7","67570","0.0-3.0-1.0-0.3","spark_pilot_norest","10172","8","7","Male","","","","","","","1893.5999999977648","<p> In each round, you will search for treasure in a different place. In the real game, there will be two rounds. </p>
            <p> You will begin with a separate, practice round where you will search for treasure in outer space. </p>
            <img src='./assets/img/space/0.jpg' class='instructions-image'>","","instructions","","","","","","","","","","","",""
"learning-instructions","8","79699","0.0-3.0-1.0-0.4","spark_pilot_norest","10172","8","7","Male","","","","","","","687.4000000022352","<p> On every turn, you will see a picture of the place that you are in, but the specific image may be different each time. </p>
            <p> For example, both of these images mean you are in outer space. </p>
            <img src='./assets/img/instructions/outerspace.jpg' class='instructions-image'>","","instructions","","","","","","","","","","","",""
"learning-instructions","9","88670","0.0-3.0-1.0-0.5","spark_pilot_norest","10172","8","7","Male","","","","","","","1125.300000000745","<p> You need to decide which direction to travel in. </p>
            <p> You can choose between going <b>up or down</b> by using the arrow keys. </p>
            <img src='./assets/img/instructions/updown.jpg' class='instructions-image'>","","instructions","","","","","","","","","","","",""
"learning-instructions","10","98688","0.0-3.0-1.0-0.6","spark_pilot_norest","10172","8","7","Male","","","","","","","1187.800000000745","<p> You will have <b>2 seconds</b> to make your choice. </p>
            <p> If you do not make a choice within 2 seconds, you will not find an animal or earn treasure. </p>
            <img src='./assets/img/instructions/2seconds.jpg' class='instructions-image'>","","instructions","","","","","","","","","","","",""
"learning-instructions","11","108235","0.0-3.0-1.0-0.7","spark_pilot_norest","10172","8","7","Male","","","","","","","2491","<p> Let’s try practicing that now! </p>
            <p> When you see a picture of the place you are in, press the <b>up</b> key to travel up. </p>
            <img src='./assets/img/instructions/pressUp.jpg' class='instructions-image'>","","instructions","","","","","","","","","","","",""
"revaluation","12","112257","0.0-3.0-2.0-0.0","spark_pilot_norest","10172","8","7","Male","","false","","","","","[839.2000000029802]","./assets/img/space/0.jpg","[""ArrowUp""]","first stage practice","space","0","null","null","ArrowUp","false","","","","","",""
"html-keyboard-response","13","112760","0.0-3.0-2.0-1.0","spark_pilot_norest","10172","8","7","Male","","","","","","","null","<div style=""font-size:60px;"">+</div>","null","fixation","","","","","","","","","","","",""
"revaluation","14","116774","0.0-3.0-2.0-0.1","spark_pilot_norest","10172","8","7","Male","","false","","","","","[1655.5999999977648]","./assets/img/space/1.jpg","[""ArrowUp""]","first stage practice","space","0","null","null","ArrowUp","false","","","","","",""
"html-keyboard-response","15","117275","0.0-3.0-2.0-1.1","spark_pilot_norest","10172","8","7","Male","","","","","","","null","<div style=""font-size:60px;"">+</div>","null","fixation","","","","","","","","","","","",""
"revaluation","16","121290","0.0-3.0-2.0-0.2","spark_pilot_norest","10172","8","7","Male","","false","","","","","[1491.3999999985099]","./assets/img/space/2.jpg","[""ArrowUp""]","first stage practice","space","0","null","null","ArrowUp","false","","","","","",""
"html-keyboard-response","17","121793","0.0-3.0-2.0-1.2","spark_pilot_norest","10172","8","7","Male","","","","","","","null","<div style=""font-size:60px;"">+</div>","null","fixation","","","","","","","","","","","",""
"learning-instructions","18","128643","0.0-3.0-3.0-0.0","spark_pilot_norest","10172","8","7","Male","","","","","","","2139.89999999851","<p> Great job! Now try pressing the <b>down</b> key to travel down. </p>
            <img src='./assets/img/instructions/pressDown.jpg' class='instructions-image'>","","instructions","","","","","","","","","","","",""
"revaluation","19","132657","0.0-3.0-4.0-0.0","spark_pilot_norest","10172","8","7","Male","","false","","","","","[676.3000000007451]","./assets/img/space/3.jpg","[""ArrowDown""]","first stage practice","space","0","null","null","ArrowDown","false","","","","","",""
"html-keyboard-response","20","133159","0.0-3.0-4.0-1.0","spark_pilot_norest","10172","8","7","Male","","","","","","","null","<div style=""font-size:60px;"">+</div>","null","fixation","","","","","","","","","","","",""
"revaluation","21","137174","0.0-3.0-4.0-0.1","spark_pilot_norest","10172","8","7","Male","","false","","","","","[762.8999999985099]","./assets/img/space/4.jpg","[""ArrowDown""]","first stage practice","space","0","null","null","ArrowDown","false","","","","","",""
"html-keyboard-response","22","137683","0.0-3.0-4.0-1.1","spark_pilot_norest","10172","8","7","Male","","","","","","","null","<div style=""font-size:60px;"">+</div>","null","fixation","","","","","","","","","","","",""
"revaluation","23","141698","0.0-3.0-4.0-0.2","spark_pilot_norest","10172","8","7","Male","","false","","","","","[767.3999999985099]","./assets/img/space/5.jpg","[""ArrowDown""]","first stage practice","space","0","null","null","ArrowDown","false","","","","","",""
"html-keyboard-response","24","142202","0.0-3.0-4.0-1.2","spark_pilot_norest","10172","8","7","Male","","","","","","","null","<div style=""font-size:60px;"">+</div>","null","fixation","","","","","","","","","","","",""
"learning-instructions","25","153805","0.0-3.0-5.0-0.0","spark_pilot_norest","10172","8","7","Male","","","","","","","1730.699999999255","<p> The animals don’t move, so the animal in the upper part of a place will stay in the upper part of a place, and the animal in the lower part of a place will stay in the lower part of a place. </p>","","instructions","","","","","","","","","","","",""
"learning-instructions","26","164142","0.0-3.0-5.0-0.1","spark_pilot_norest","10172","8","7","Male","","","","","","","1182.8999999985099","<p> Each animal has two treasure chests for you to choose from. </p>
            <p> The amount of treasure in each chest can range from <b> 0 to 40 pieces.</b></p>","","instructions","","","","","","","","","","","",""
"learning-instructions","27","176584","0.0-3.0-5.0-0.2","spark_pilot_norest","10172","8","7","Male","","","","","","","1236.699999999255","<p> You should decide which chest to search for treasure by using the <b>left</b> and <b>right</b> arrow keys. </p>
            <p><b> Pay attention to which animal is on the screen, as the animals have different treasure chests. </b></p>
            <img src='./assets/img/instructions/leftright.jpg' class='instructions-image'>","","instructions","","","","","","","","","","","",""
"learning-instructions","28","185301","0.0-3.0-5.0-0.3","spark_pilot_norest","10172","8","7","Male","","","","","","","2337.2000000029802","<p> Let’s try practicing that now. </p>
            <p> When you see an animal, choose which chest to search for treasure. </p>
            <img src='./assets/img/instructions/chooseChest.jpg' class='instructions-image'>","","instructions","","","","","","","","","","","",""
"revaluation","29","189316","0.0-3.0-6.0-0.0","spark_pilot_norest","10172","8","7","Male","","false","","","","","[675]","./assets/img/space/animals/rabbit.jpg","[""ArrowLeft""]","second stage practice","space","15","{""ArrowUp,ArrowLeft"":3,""ArrowUp,ArrowRight"":36,""ArrowDown,ArrowLeft"":15,""ArrowDown,ArrowRight"":23}","false","ArrowDown,ArrowLeft","","","","","","",""
"html-keyboard-response","30","189819","0.0-3.0-6.0-1.0","spark_pilot_norest","10172","8","7","Male","","","","","","","null","<div style=""font-size:60px;"">+</div>","null","fixation","","","","","","","","","","","",""
"revaluation","31","193825","0.0-3.0-6.0-0.1","spark_pilot_norest","10172","8","7","Male","","false","","","","","[1178.5]","./assets/img/space/animals/cat.jpg","[""ArrowRight""]","second stage practice","space","36","{""ArrowUp,ArrowLeft"":3,""ArrowUp,ArrowRight"":36,""ArrowDown,ArrowLeft"":15,""ArrowDown,ArrowRight"":23}","true","ArrowUp,ArrowRight","","","","","","",""
"html-keyboard-response","32","194331","0.0-3.0-6.0-1.1","spark_pilot_norest","10172","8","7","Male","","","","","","","null","<div style=""font-size:60px;"">+</div>","null","fixation","","","","","","","","","","","",""
"revaluation","33","198349","0.0-3.0-6.0-0.2","spark_pilot_norest","10172","8","7","Male","","false","","","","","[1558.800000000745]","./assets/img/space/animals/rabbit.jpg","[""ArrowRight""]","second stage practice","space","23","{""ArrowUp,ArrowLeft"":3,""ArrowUp,ArrowRight"":36,""ArrowDown,ArrowLeft"":15,""ArrowDown,ArrowRight"":23}","true","ArrowDown,ArrowRight","","","","","","",""
"html-keyboard-response","34","198852","0.0-3.0-6.0-1.2","spark_pilot_norest","10172","8","7","Male","","","","","","","null","<div style=""font-size:60px;"">+</div>","null","fixation","","","","","","","","","","","",""
"revaluation","35","202864","0.0-3.0-6.0-0.3","spark_pilot_norest","10172","8","7","Male","","false","","","","","[555.5]","./assets/img/space/animals/cat.jpg","[""ArrowLeft""]","second stage practice","space","3","{""ArrowUp,ArrowLeft"":3,""ArrowUp,ArrowRight"":36,""ArrowDown,ArrowLeft"":15,""ArrowDown,ArrowRight"":23}","false","ArrowUp,ArrowLeft","","","","","","",""
"html-keyboard-response","36","203369","0.0-3.0-6.0-1.3","spark_pilot_norest","10172","8","7","Male","","","","","","","null","<div style=""font-size:60px;"">+</div>","null","fixation","","","","","","","","","","","",""
"learning-instructions","37","222939","0.0-3.0-7.0-0.0","spark_pilot_norest","10172","8","7","Male","","","","","","","2717.300000000745","<p> Great job. Now let’s try putting it together. </p>
            <p> On each turn, you will first see a picture to remind you of the place you are in, and you need to choose whether to go up or down. </p>
            <p> Then you will see an animal and choose which of its chests to search for treasure. </p>","","instructions","","","","","","","","","","","",""
"learning-instructions","38","231896","0.0-3.0-7.0-0.1","spark_pilot_norest","10172","8","7","Male","","","","","","","679.8999999985099","<p> When you choose whether to go up or down, try to go to the animal with the chest with the most treasure. </p>
            <p> Try practicing that now! </p>","","instructions","","","","","","","","","","","",""
"revaluation","39","237917","0.0-3.0-8.0-0.0","spark_pilot_norest","10172","8","7","Male","","false","","","","","[945.4000000022352,1554.699999999255]","./assets/img/space/6.jpg","[""ArrowUp"",""ArrowRight""]","full practice","space","36","{""ArrowUp,ArrowLeft"":3,""ArrowUp,ArrowRight"":36,""ArrowDown,ArrowLeft"":15,""ArrowDown,ArrowRight"":23}","true","ArrowUp,ArrowRight","false","","","","","",""
"html-keyboard-response","40","238421","0.0-3.0-8.0-1.0","spark_pilot_norest","10172","8","7","Male","","","","","","","null","<div style=""font-size:60px;"">+</div>","null","fixation","","","","","","","","","","","",""
"revaluation","41","244445","0.0-3.0-8.0-0.1","spark_pilot_norest","10172","8","7","Male","","false","","","","","[799.7999999970198,1238.800000000745]","./assets/img/space/7.jpg","[""ArrowDown"",""ArrowLeft""]","full practice","space","15","{""ArrowUp,ArrowLeft"":3,""ArrowUp,ArrowRight"":36,""ArrowDown,ArrowLeft"":15,""ArrowDown,ArrowRight"":23}","false","ArrowDown,ArrowLeft","false","","","","","",""
"html-keyboard-response","42","244949","0.0-3.0-8.0-1.1","spark_pilot_norest","10172","8","7","Male","","","","","","","null","<div style=""font-size:60px;"">+</div>","null","fixation","","","","","","","","","","","",""
"revaluation","43","250974","0.0-3.0-8.0-0.2","spark_pilot_norest","10172","8","7","Male","","false","","","","","[1088.800000000745,1747.0999999977648]","./assets/img/space/8.jpg","[""ArrowUp"",""ArrowLeft""]","full practice","space","3","{""ArrowUp,ArrowLeft"":3,""ArrowUp,ArrowRight"":36,""ArrowDown,ArrowLeft"":15,""ArrowDown,ArrowRight"":23}","false","ArrowUp,ArrowLeft","false","","","","","",""
"html-keyboard-response","44","251478","0.0-3.0-8.0-1.2","spark_pilot_norest","10172","8","7","Male","","","","","","","null","<div style=""font-size:60px;"">+</div>","null","fixation","","","","","","","","","","","",""
"revaluation","45","257502","0.0-3.0-8.0-0.3","spark_pilot_norest","10172","8","7","Male","","false","","","","","[1903.699999999255,802.7000000029802]","./assets/img/space/9.jpg","[""ArrowDown"",""ArrowRight""]","full practice","space","23","{""ArrowUp,ArrowLeft"":3,""ArrowUp,ArrowRight"":36,""ArrowDown,ArrowLeft"":15,""ArrowDown,ArrowRight"":23}","false","ArrowDown,ArrowRight","false","","","","","",""
"html-keyboard-response","46","258006","0.0-3.0-8.0-1.3","spark_pilot_norest","10172","8","7","Male","","","","","","","null","<div style=""font-size:60px;"">+</div>","null","fixation","","","","","","","","","","","",""
"revaluation","47","264030","0.0-3.0-8.0-0.4","spark_pilot_norest","10172","8","7","Male","","false","","","","","[1452.2999999970198,1394]","./assets/img/space/10.jpg","[""ArrowUp"",""ArrowRight""]","full practice","space","36","{""ArrowUp,ArrowLeft"":3,""ArrowUp,ArrowRight"":36,""ArrowDown,ArrowLeft"":15,""ArrowDown,ArrowRight"":23}","true","ArrowUp,ArrowRight","false","","","","","",""
"html-keyboard-response","48","264533","0.0-3.0-8.0-1.4","spark_pilot_norest","10172","8","7","Male","","","","","","","null","<div style=""font-size:60px;"">+</div>","null","fixation","","","","","","","","","","","",""
"learning-instructions","49","276846","0.0-3.0-9.0-0.0","spark_pilot_norest","10172","8","7","Male","","","","","","","1982.1000000014901","<p> One last thing: sometimes, you will see a robber. The robber can be anywhere in the picture. </p>
            <p> If you do not stop them, you will lose treasure. </p>
            <img src='./assets/img/instructions/robber.jpg' class='instructions-image'>","","instructions","","","","","","","","","","","",""
"learning-instructions","50","285869","0.0-3.0-9.0-0.1","spark_pilot_norest","10172","8","7","Male","","","","","","","1841","<p> If you see the robber, you should <b>press the space bar</b> rather than using the arrow keys. </p>
            <p> Try practicing that now! </p>","","instructions","","","","","","","","","","","",""
"revaluation","51","289883","0.0-3.0-10.0-0.0","spark_pilot_norest","10172","8","7","Male","","true","","","","","[]","./assets/img/space/catch/0.jpg","[]","catch practice","space","-5","{""ArrowUp,ArrowLeft"":3,""ArrowUp,ArrowRight"":36,""ArrowDown,ArrowLeft"":15,""ArrowDown,ArrowRight"":23}","false","","true","","","","","",""
"html-keyboard-response","52","290387","0.0-3.0-10.0-1.0","spark_pilot_norest","10172","8","7","Male","","","","","","","null","<div style=""font-size:60px;"">+</div>","null","fixation","","","","","","","","","","","",""
"revaluation","53","294402","0.0-3.0-10.0-0.1","spark_pilot_norest","10172","8","7","Male","","false","","","","","[698.6000000014901]","./assets/img/space/catch/1.jpg","[""spaceBar""]","catch practice","space","0","{""ArrowUp,ArrowLeft"":3,""ArrowUp,ArrowRight"":36,""ArrowDown,ArrowLeft"":15,""ArrowDown,ArrowRight"":23}","true","spaceBar","true","","","","","",""
"html-keyboard-response","54","294905","0.0-3.0-10.0-1.1","spark_pilot_norest","10172","8","7","Male","","","","","","","null","<div style=""font-size:60px;"">+</div>","null","fixation","","","","","","","","","","","",""
"revaluation","55","298920","0.0-3.0-10.0-0.2","spark_pilot_norest","10172","8","7","Male","","false","","","","","[817.3999999985099]","./assets/img/space/catch/2.jpg","[""spaceBar""]","catch practice","space","0","{""ArrowUp,ArrowLeft"":3,""ArrowUp,ArrowRight"":36,""ArrowDown,ArrowLeft"":15,""ArrowDown,ArrowRight"":23}","true","spaceBar","true","","","","","",""
"html-keyboard-response","56","299424","0.0-3.0-10.0-1.2","spark_pilot_norest","10172","8","7","Male","","","","","","","null","<div style=""font-size:60px;"">+</div>","null","fixation","","","","","","","","","","","",""
"learning-instructions","57","305940","0.0-3.0-11.0-0.0-0.0","spark_pilot_norest","10172","8","7","Male","","","","","","","1274.7999999970198","<p> Now, you will practice a shortened version of the game to get a sense of how it all fits together. </p>","","instructions","","","","","","","","","","","",""
"learning-instructions","58","313910","0.0-3.0-11.0-0.0-0.1","spark_pilot_norest","10172","8","7","Male","","","","","","","4774.800000000745","<p>This time you are searching for treasure in outer space.</p>","","instructions","","","","","","","","","","","",""
"learning-instructions","59","331246","0.0-3.0-11.0-1.0-0.0","spark_pilot_norest","10172","8","7","Male","","","","","","","2530.900000002235","<p> Remember, when you see a picture of the place, use the up and down keys to <b>find an animal</b>.</p>
            <p> When you encounter an animal, you should use the left and right keys to <b>select a treasure chest</b>.</p>
            <p> Don't forget to look out for the robber! </p>","","instructions","","","","","","","","","","","",""
"revaluation","60","337271","0.0-3.0-11.0-2.0-0.0","spark_pilot_norest","10172","8","7","Male","","false","","","","","[1955,1605.3999999985099]","./assets/img/space/11.jpg","[""ArrowDown"",""ArrowLeft""]","practice block","space","15","{""ArrowUp,ArrowLeft"":3,""ArrowUp,ArrowRight"":36,""ArrowDown,ArrowLeft"":15,""ArrowDown,ArrowRight"":23}","false","ArrowDown,ArrowLeft","false","","","","","",""
"html-keyboard-response","61","337776","0.0-3.0-11.0-2.0-1.0","spark_pilot_norest","10172","8","7","Male","","","","","","","null","<div style=""font-size:60px;"">+</div>","null","fixation","","","","","","","","","","","",""
"revaluation","62","343799","0.0-3.0-11.0-2.0-0.1","spark_pilot_norest","10172","8","7","Male","","false","","","","","[787.5,641.6999999992549]","./assets/img/space/12.jpg","[""ArrowUp"",""ArrowRight""]","practice block","space","36","{""ArrowUp,ArrowLeft"":3,""ArrowUp,ArrowRight"":36,""ArrowDown,ArrowLeft"":15,""ArrowDown,ArrowRight"":23}","true","ArrowUp,ArrowRight","false","","","","","",""
"html-keyboard-response","63","344303","0.0-3.0-11.0-2.0-1.1","spark_pilot_norest","10172","8","7","Male","","","","","","","null","<div style=""font-size:60px;"">+</div>","null","fixation","","","","","","","","","","","",""
"revaluation","64","350327","0.0-3.0-11.0-2.0-0.2","spark_pilot_norest","10172","8","7","Male","","false","","","","","[1659,1596]","./assets/img/space/13.jpg","[""ArrowUp"",""ArrowLeft""]","practice block","space","3","{""ArrowUp,ArrowLeft"":3,""ArrowUp,ArrowRight"":36,""ArrowDown,ArrowLeft"":15,""ArrowDown,ArrowRight"":23}","false","ArrowUp,ArrowLeft","false","","","","","",""
"html-keyboard-response","65","350831","0.0-3.0-11.0-2.0-1.2","spark_pilot_norest","10172","8","7","Male","","","","","","","null","<div style=""font-size:60px;"">+</div>","null","fixation","","","","","","","","","","","",""
"revaluation","66","356856","0.0-3.0-11.0-2.0-0.3","spark_pilot_norest","10172","8","7","Male","","false","","","","","[1439.1000000014901,702.8000000007451]","./assets/img/space/14.jpg","[""ArrowDown"",""ArrowLeft""]","practice block","space","15","{""ArrowUp,ArrowLeft"":3,""ArrowUp,ArrowRight"":36,""ArrowDown,ArrowLeft"":15,""ArrowDown,ArrowRight"":23}","false","ArrowDown,ArrowLeft","false","","","","","",""
"html-keyboard-response","67","357359","0.0-3.0-11.0-2.0-1.3","spark_pilot_norest","10172","8","7","Male","","","","","","","null","<div style=""font-size:60px;"">+</div>","null","fixation","","","","","","","","","","","",""
"revaluation","68","363384","0.0-3.0-11.0-2.0-0.4","spark_pilot_norest","10172","8","7","Male","","false","","","","","[1917.9000000022352,913.6000000014901]","./assets/img/space/11.jpg","[""ArrowDown"",""ArrowRight""]","practice block","space","23","{""ArrowUp,ArrowLeft"":3,""ArrowUp,ArrowRight"":36,""ArrowDown,ArrowLeft"":15,""ArrowDown,ArrowRight"":23}","false","ArrowDown,ArrowRight","false","","","","","",""
"html-keyboard-response","69","363888","0.0-3.0-11.0-2.0-1.4","spark_pilot_norest","10172","8","7","Male","","","","","","","null","<div style=""font-size:60px;"">+</div>","null","fixation","","","","","","","","","","","",""
"revaluation","70","369912","0.0-3.0-11.0-2.0-0.5","spark_pilot_norest","10172","8","7","Male","","false","","","","","[1312.8999999985099,1464.5999999977648]","./assets/img/space/12.jpg","[""ArrowUp"",""ArrowRight""]","practice block","space","36","{""ArrowUp,ArrowLeft"":3,""ArrowUp,ArrowRight"":36,""ArrowDown,ArrowLeft"":15,""ArrowDown,ArrowRight"":23}","true","ArrowUp,ArrowRight","false","","","","","",""
"html-keyboard-response","71","370416","0.0-3.0-11.0-2.0-1.5","spark_pilot_norest","10172","8","7","Male","","","","","","","null","<div style=""font-size:60px;"">+</div>","null","fixation","","","","","","","","","","","",""
"revaluation","72","374424","0.0-3.0-11.0-2.0-0.6","spark_pilot_norest","10172","8","7","Male","","true","","","","","[]","./assets/img/space/13.jpg","[]","practice block","space","-5","{""ArrowUp,ArrowLeft"":3,""ArrowUp,ArrowRight"":36,""ArrowDown,ArrowLeft"":15,""ArrowDown,ArrowRight"":23}","false","","false","","","","","",""
"html-keyboard-response","73","374928","0.0-3.0-11.0-2.0-1.6","spark_pilot_norest","10172","8","7","Male","","","","","","","null","<div style=""font-size:60px;"">+</div>","null","fixation","","","","","","","","","","","",""
"revaluation","74","378945","0.0-3.0-11.0-2.0-0.7","spark_pilot_norest","10172","8","7","Male","","true","","","","","[]","./assets/img/space/14.jpg","[]","practice block","space","-5","{""ArrowUp,ArrowLeft"":3,""ArrowUp,ArrowRight"":36,""ArrowDown,ArrowLeft"":15,""ArrowDown,ArrowRight"":23}","false","","false","","","","","",""
"html-keyboard-response","75","379448","0.0-3.0-11.0-2.0-1.7","spark_pilot_norest","10172","8","7","Male","","","","","","","null","<div style=""font-size:60px;"">+</div>","null","fixation","","","","","","","","","","","",""
"revaluation","76","383464","0.0-3.0-11.0-2.0-0.8","spark_pilot_norest","10172","8","7","Male","","false","","","","","[507.5]","./assets/img/space/catch/3.jpg","[""spaceBar""]","practice block","space","0","{""ArrowUp,ArrowLeft"":3,""ArrowUp,ArrowRight"":36,""ArrowDown,ArrowLeft"":15,""ArrowDown,ArrowRight"":23}","true","spaceBar","true","","","","","",""
"html-keyboard-response","77","383968","0.0-3.0-11.0-2.0-1.8","spark_pilot_norest","10172","8","7","Male","","","","","","","null","<div style=""font-size:60px;"">+</div>","null","fixation","","","","","","","","","","","",""
"learning-instructions","78","399090","0.0-3.0-11.0-3.0-0.0","spark_pilot_norest","10172","8","7","Male","","","","","","","2016.800000000745","<p> Now, you will travel with a friend who will choose whether you go up or down first. </p>
            <p> On these turns, you will just see the animal that they found. You will still get to choose which chest to search for treasure.</p>","","instructions","","","","","","","","","","","",""
"revaluation","79","403097","0.0-3.0-11.0-4.0-0.0","spark_pilot_norest","10172","8","7","Male","","false","","","","","[1743.6000000014901]","./assets/img/space/animals/rabbit.jpg","[""ArrowLeft""]","practice block","space","15","{""ArrowUp,ArrowLeft"":3,""ArrowUp,ArrowRight"":36,""ArrowDown,ArrowLeft"":15,""ArrowDown,ArrowRight"":23}","false","ArrowDown,ArrowLeft","","","","","","",""
"html-keyboard-response","80","403600","0.0-3.0-11.0-4.0-1.0","spark_pilot_norest","10172","8","7","Male","","","","","","","null","<div style=""font-size:60px;"">+</div>","null","fixation","","","","","","","","","","","",""
"revaluation","81","407615","0.0-3.0-11.0-4.0-0.1","spark_pilot_norest","10172","8","7","Male","","false","","","","","[769.3000000007451]","./assets/img/space/animals/cat.jpg","[""ArrowRight""]","practice block","space","36","{""ArrowUp,ArrowLeft"":3,""ArrowUp,ArrowRight"":36,""ArrowDown,ArrowLeft"":15,""ArrowDown,ArrowRight"":23}","true","ArrowUp,ArrowRight","","","","","","",""
"html-keyboard-response","82","408120","0.0-3.0-11.0-4.0-1.1","spark_pilot_norest","10172","8","7","Male","","","","","","","null","<div style=""font-size:60px;"">+</div>","null","fixation","","","","","","","","","","","",""
"revaluation","83","412137","0.0-3.0-11.0-4.0-0.2","spark_pilot_norest","10172","8","7","Male","","false","","","","","[497.20000000298023]","./assets/img/space/animals/cat.jpg","[""ArrowLeft""]","practice block","space","3","{""ArrowUp,ArrowLeft"":3,""ArrowUp,ArrowRight"":36,""ArrowDown,ArrowLeft"":15,""ArrowDown,ArrowRight"":23}","false","ArrowUp,ArrowLeft","","","","","","",""
"html-keyboard-response","84","412640","0.0-3.0-11.0-4.0-1.2","spark_pilot_norest","10172","8","7","Male","","","","","","","null","<div style=""font-size:60px;"">+</div>","null","fixation","","","","","","","","","","","",""
"revaluation","85","416657","0.0-3.0-11.0-4.0-0.3","spark_pilot_norest","10172","8","7","Male","","false","","","","","[759.2999999970198]","./assets/img/space/animals/rabbit.jpg","[""ArrowRight""]","practice block","space","23","{""ArrowUp,ArrowLeft"":3,""ArrowUp,ArrowRight"":36,""ArrowDown,ArrowLeft"":15,""ArrowDown,ArrowRight"":23}","true","ArrowDown,ArrowRight","","","","","","",""
"html-keyboard-response","86","417161","0.0-3.0-11.0-4.0-1.3","spark_pilot_norest","10172","8","7","Male","","","","","","","null","<div style=""font-size:60px;"">+</div>","null","fixation","","","","","","","","","","","",""
"learning-instructions","87","425297","0.0-3.0-11.0-5.0-0.0","spark_pilot_norest","10172","8","7","Male","","","","","","","null","<p> You have almost finished this part of the game! </p>
            <p> We are going to ask you to make a few more choices. </p>","","instructions","","","","","","","","","","","",""
"learning-instructions","88","441337","0.0-3.0-11.0-5.0-0.1","spark_pilot_norest","10172","8","7","Male","","","","","","","null","<p> First, you need to decide whether to go up or down. When you see each picture, use the arrow keys to make your choice. </p>
            <p><b>You will not see which animal you found, but try to get to the one that will give you the most treasure.</b></p>","","instructions","","","","","","","","","","","",""
"html-keyboard-response","89","442346","0.0-3.0-11.0-6.0-0.0","spark_pilot_norest","10172","8","7","Male","","","","","","","null","<div style=""font-size:100px;color:red;"">Starting in...</div>","null","","","","","","","","","","","","",""
"html-keyboard-response","90","443353","0.0-3.0-11.0-6.0-1.0","spark_pilot_norest","10172","8","7","Male","","","","","","","null","<div style=""font-size:200px;color:red;"">3</div>","null","","","","","","","","","","","","",""
"html-keyboard-response","91","444362","0.0-3.0-11.0-6.0-2.0","spark_pilot_norest","10172","8","7","Male","","","","","","","null","<div style=""font-size:200px;color:red;"">2</div>","null","","","","","","","","","","","","",""
"html-keyboard-response","92","445369","0.0-3.0-11.0-6.0-3.0","spark_pilot_norest","10172","8","7","Male","","","","","","","null","<div style=""font-size:200px;color:red;"">1</div>","null","","","","","","","","","","","","",""
"revaluation","93","445897","0.0-3.0-11.0-7.0","spark_pilot_norest","10172","8","7","Male","","false","","","","","[524.8000000007451]","./assets/img/space/15.jpg","[""ArrowUp""]","practice block","space","0","{""ArrowUp,ArrowLeft"":3,""ArrowUp,ArrowRight"":36,""ArrowDown,ArrowLeft"":15,""ArrowDown,ArrowRight"":23}","true","ArrowUp","false","","","","","",""
"html-keyboard-response","94","446401","0.0-3.0-11.0-8.0","spark_pilot_norest","10172","8","7","Male","","","","","","","null","<div style=""font-size:60px;"">+</div>","null","fixation","","","","","","","","","","","",""
"learning-instructions","95","459809","0.0-3.0-11.0-9.0-0.0","spark_pilot_norest","10172","8","7","Male","","","","","","","null","<p> Now you will see the animals again and can search their chests for treasure. </p>
            <p> This time, you will not see how much treasure you earned, but you will earn more bonus money for making better choices. </p>","","instructions","","","","","","","","","","","",""
"html-keyboard-response","96","460818","0.0-3.0-11.0-10.0-0.0","spark_pilot_norest","10172","8","7","Male","","","","","","","null","<div style=""font-size:100px;color:red;"">Starting in...</div>","null","","","","","","","","","","","","",""
"html-keyboard-response","97","461825","0.0-3.0-11.0-10.0-1.0","spark_pilot_norest","10172","8","7","Male","","","","","","","null","<div style=""font-size:200px;color:red;"">3</div>","null","","","","","","","","","","","","",""
"html-keyboard-response","98","462833","0.0-3.0-11.0-10.0-2.0","spark_pilot_norest","10172","8","7","Male","","","","","","","null","<div style=""font-size:200px;color:red;"">2</div>","null","","","","","","","","","","","","",""
"html-keyboard-response","99","463842","0.0-3.0-11.0-10.0-3.0","spark_pilot_norest","10172","8","7","Male","","","","","","","null","<div style=""font-size:200px;color:red;"">1</div>","null","","","","","","","","","","","","",""
"revaluation","100","464852","0.0-3.0-11.0-11.0-0.0","spark_pilot_norest","10172","8","7","Male","","false","","","","","[1008.3999999985099]","./assets/img/space/animals/cat.jpg","[""ArrowLeft""]","practice block","space","0","{""ArrowUp,ArrowLeft"":3,""ArrowUp,ArrowRight"":36,""ArrowDown,ArrowLeft"":15,""ArrowDown,ArrowRight"":23}","false","ArrowUp,ArrowLeft","","","","","","",""
"html-keyboard-response","101","465354","0.0-3.0-11.0-11.0-1.0","spark_pilot_norest","10172","8","7","Male","","","","","","","null","<div style=""font-size:60px;"">+</div>","null","fixation","","","","","","","","","","","",""
"revaluation","102","466388","0.0-3.0-11.0-11.0-0.1","spark_pilot_norest","10172","8","7","Male","","false","","","","","[1031]","./assets/img/space/animals/rabbit.jpg","[""ArrowRight""]","practice block","space","0","{""ArrowUp,ArrowLeft"":3,""ArrowUp,ArrowRight"":36,""ArrowDown,ArrowLeft"":15,""ArrowDown,ArrowRight"":23}","true","ArrowDown,ArrowRight","","","","","","",""
"html-keyboard-response","103","466890","0.0-3.0-11.0-11.0-1.1","spark_pilot_norest","10172","8","7","Male","","","","","","","null","<div style=""font-size:60px;"">+</div>","null","fixation","","","","","","","","","","","",""
"learning-instructions","104","475752","0.0-3.0-12.0-0.0","spark_pilot_norest","10172","8","7","Male","","","","","","","4274.5","<p> Before you start, we're going to ask you a few questions about how the game works. </p>","","instructions","","","","","","","","","","","",""
"comp-q","105","486150","0.0-3.0-13.0-0.0-0.0","spark_pilot_norest","10172","8","7","Male","","","","","","","4800.10000000149","<p> <b> True or False? </b> </p>
            <p> There can be 50 pieces of treasure in a given animal's chest. </p>","1","comp_question","","","","true","","","","","","","",""
"comp-q","106","494820","0.0-3.0-13.0-0.0-1.0","spark_pilot_norest","10172","8","7","Male","","","","","","","1997.199999999255","<p> <b> That's right! </b> The amount of treasure in each chest can range from 0 to 40 pieces. </p>","0","comp_answer","","","","","","","","","","","",""
"comp-q","107","503602","0.0-3.0-13.0-0.1-0.1","spark_pilot_norest","10172","8","7","Male","","","","","","","1647.5","<p> <b> True or False? </b> </p><p> In this game, all animals have the same amount of treasure in their left and right chests. </p>","1","comp_question","","","","true","","","","","","","",""
"comp-q","108","510515","0.0-3.0-13.0-0.1-1.1","spark_pilot_norest","10172","8","7","Male","","","","","","","1669.1000000014901","<p> <b> That's right! </b> Animals have different amounts of treasure in their treasure chests. </p>","0","comp_answer","","","","","","","","","","","",""
"comp-q","109","517411","0.0-3.0-13.0-0.2-0.2","spark_pilot_norest","10172","8","7","Male","","","","","","","1041.6000000014901","<p> <b> True or False? </b> </p><p> The same animal will always be there if you go up in the same place. </p>","1","comp_question","","","","false","","","","","","","",""
"comp-q","110","525042","0.0-3.0-13.0-0.2-1.2","spark_pilot_norest","10172","8","7","Male","","","","","","","1318.2000000029802","<p> <b>Incorrect.</b> One animal lives in the upper part and one lives in the lower part of every place. </p>","0","comp_answer","","","","","","","","","","","",""
"comp-q","111","535682","0.0-3.0-13.0-0.3-0.3","spark_pilot_norest","10172","8","7","Male","","","","","","","4817.800000000745","<p> <b> True or False? </b> </p><p> The same animal will always be there if you go up in the same place. </p>","0","comp_question","","","","true","","","","","","","",""
"comp-q","112","544826","0.0-3.0-13.0-0.3-1.3","spark_pilot_norest","10172","8","7","Male","","","","","","","2687.699999999255","<p> <b> That's right! </b> One animal lives in the upper part and one lives in the lower part of every place. </p>","0","comp_answer","","","","","","","","","","","",""
"comp-q","113","551973","0.0-3.0-13.0-0.4-0.4","spark_pilot_norest","10172","8","7","Male","","","","","","","1615","<p> <b> True or False? </b> </p><p> If you see a different picture, it means you are in a new place. </p>","0","comp_question","","","","false","","","","","","","",""
"comp-q","114","564744","0.0-3.0-13.0-0.4-1.4","spark_pilot_norest","10172","8","7","Male","","","","","","","1649.300000000745","<p> <b>Incorrect.</b> Lots of different images may show the same place. For example,  you may see three different images that all remind you that you are in outer space. </p>","0","comp_answer","","","","","","","","","","","",""
"comp-q","115","573123","0.0-3.0-13.0-0.5-0.5","spark_pilot_norest","10172","8","7","Male","","","","","","","2876.5","<p> <b> True or False? </b> </p><p> If you see a different picture, it means you are in a new place. </p>","1","comp_question","","","","true","","","","","","","",""
"comp-q","116","586676","0.0-3.0-13.0-0.5-1.5","spark_pilot_norest","10172","8","7","Male","","","","","","","2306.699999999255","<p> <b> That's right! </b> Lots of different images may show the same place. For example,  you may see three different images that all remind you that you are in outer space. </p>","0","comp_answer","","","","","","","","","","","",""
"learning-instructions","117","599666","0.0-3.0-14.0-0.0","spark_pilot_norest","10172","8","7","Male","","","","","","","3116.400000002235","<p> Good job. Remember to do your best because the amount of treasure you earn will be converted into bonus money. </p>
            <p> It’s time to start the real game! </p>","","instructions","","","","","","","","","","","",""
"learning-instructions","118","603606","0.0-4.0-0.0-0.0","spark_pilot_norest","10172","8","7","Male","","","","","","","1169.8999999985099","<p> This time you are searching for treasure in the <b>canyon</b>.</p>","","instructions","","","","","","","","","","","",""
"learning-instructions","119","622473","0.0-4.0-0.0-0.1","spark_pilot_norest","10172","8","7","Male","","","","","","","1535.7999999970198","<p><b>New</b> animals with <b>new</b> treasure chests live here. You need to explore to discover where the animal with the best treasure chest is.</p>
                    <p> Like before, once you figure out which animal has the chest with the most treasure, you should try to get to that animal and select that chest! </p>","","instructions","","","","","","","","","","","",""
"learning-instructions","120","640477","0.0-4.0-1.0-0.0","spark_pilot_norest","10172","8","7","Male","","","","","","","3274.199999999255","<p> Remember, when you see a picture of the place, use the up and down keys to <b>find an animal</b>.</p>
            <p> When you encounter an animal, you should use the left and right keys to <b>select a treasure chest</b>.</p>
            <p> Don't forget to look out for the robber! </p>","","instructions","","","","","","","","","","","",""
"revaluation","121","646503","0.0-4.0-2.0-0.0","spark_pilot_norest","10172","8","7","Male","","false","","","","","[1873.3999999985099,1413.3999999985099]","./assets/img/canyon/memory/26.jpg","[""ArrowUp"",""ArrowLeft""]","value training","canyon","26","{""ArrowUp,ArrowLeft"":26,""ArrowUp,ArrowRight"":10,""ArrowDown,ArrowLeft"":5,""ArrowDown,ArrowRight"":17}","true","ArrowUp,ArrowLeft","false","revaluation","1","0","","",""
"html-keyboard-response","122","647013","0.0-4.0-2.0-1.0","spark_pilot_norest","10172","8","7","Male","","","","","","","null","<div style=""font-size:60px;"">+</div>","null","fixation","","","","","","","","","1","","",""
"revaluation","123","653039","0.0-4.0-2.0-0.1","spark_pilot_norest","10172","8","7","Male","","false","","","","","[1146.9000000022352,1338.199999999255]","./assets/img/canyon/memory/17.jpg","[""ArrowDown"",""ArrowLeft""]","value training","canyon","5","{""ArrowUp,ArrowLeft"":26,""ArrowUp,ArrowRight"":10,""ArrowDown,ArrowLeft"":5,""ArrowDown,ArrowRight"":17}","false","ArrowDown,ArrowLeft","false","revaluation","1","2","","",""
"html-keyboard-response","124","653543","0.0-4.0-2.0-1.1","spark_pilot_norest","10172","8","7","Male","","","","","","","null","<div style=""font-size:60px;"">+</div>","null","fixation","","","","","","","","","3","","",""
"revaluation","125","659568","0.0-4.0-2.0-0.2","spark_pilot_norest","10172","8","7","Male","","false","","","","","[1005.7000000029802,1234.5]","./assets/img/canyon/memory/13.jpg","[""ArrowUp"",""ArrowLeft""]","value training","canyon","26","{""ArrowUp,ArrowLeft"":26,""ArrowUp,ArrowRight"":10,""ArrowDown,ArrowLeft"":5,""ArrowDown,ArrowRight"":17}","true","ArrowUp,ArrowLeft","false","revaluation","1","4","","",""
"html-keyboard-response","126","660071","0.0-4.0-2.0-1.2","spark_pilot_norest","10172","8","7","Male","","","","","","","null","<div style=""font-size:60px;"">+</div>","null","fixation","","","","","","","","","5","","",""
"revaluation","127","666095","0.0-4.0-2.0-0.3","spark_pilot_norest","10172","8","7","Male","","false","","","","","[677.1999999992549,729.9000000022352]","./assets/img/canyon/memory/35.jpg","[""ArrowUp"",""ArrowLeft""]","value training","canyon","26","{""ArrowUp,ArrowLeft"":26,""ArrowUp,ArrowRight"":10,""ArrowDown,ArrowLeft"":5,""ArrowDown,ArrowRight"":17}","true","ArrowUp,ArrowLeft","false","revaluation","1","6","","",""
"html-keyboard-response","128","666599","0.0-4.0-2.0-1.3","spark_pilot_norest","10172","8","7","Male","","","","","","","null","<div style=""font-size:60px;"">+</div>","null","fixation","","","","","","","","","7","","",""
"revaluation","129","672623","0.0-4.0-2.0-0.4","spark_pilot_norest","10172","8","7","Male","","false","","","","","[1358.699999999255,497.6000000014901]","./assets/img/canyon/memory/12.jpg","[""ArrowUp"",""ArrowRight""]","value training","canyon","10","{""ArrowUp,ArrowLeft"":26,""ArrowUp,ArrowRight"":10,""ArrowDown,ArrowLeft"":5,""ArrowDown,ArrowRight"":17}","false","ArrowUp,ArrowRight","false","revaluation","1","8","","",""
"html-keyboard-response","130","673126","0.0-4.0-2.0-1.4","spark_pilot_norest","10172","8","7","Male","","","","","","","null","<div style=""font-size:60px;"">+</div>","null","fixation","","","","","","","","","9","","",""
"revaluation","131","679152","0.0-4.0-2.0-0.5","spark_pilot_norest","10172","8","7","Male","","false","","","","","[948.5,621.2000000029802]","./assets/img/canyon/memory/19.jpg","[""ArrowDown"",""ArrowRight""]","value training","canyon","17","{""ArrowUp,ArrowLeft"":26,""ArrowUp,ArrowRight"":10,""ArrowDown,ArrowLeft"":5,""ArrowDown,ArrowRight"":17}","false","ArrowDown,ArrowRight","false","revaluation","1","10","","",""
"html-keyboard-response","132","679656","0.0-4.0-2.0-1.5","spark_pilot_norest","10172","8","7","Male","","","","","","","null","<div style=""font-size:60px;"">+</div>","null","fixation","","","","","","","","","11","","",""
"revaluation","133","685680","0.0-4.0-2.0-0.6","spark_pilot_norest","10172","8","7","Male","","false","","","","","[1195,1031.6000000014901]","./assets/img/canyon/memory/3.jpg","[""ArrowUp"",""ArrowLeft""]","value training","canyon","26","{""ArrowUp,ArrowLeft"":26,""ArrowUp,ArrowRight"":10,""ArrowDown,ArrowLeft"":5,""ArrowDown,ArrowRight"":17}","true","ArrowUp,ArrowLeft","false","revaluation","1","12","","",""
"html-keyboard-response","134","686184","0.0-4.0-2.0-1.6","spark_pilot_norest","10172","8","7","Male","","","","","","","null","<div style=""font-size:60px;"">+</div>","null","fixation","","","","","","","","","13","","",""
"revaluation","135","692208","0.0-4.0-2.0-0.7","spark_pilot_norest","10172","8","7","Male","","false","","","","","[1719.5,761]","./assets/img/canyon/memory/40.jpg","[""ArrowUp"",""ArrowLeft""]","value training","canyon","26","{""ArrowUp,ArrowLeft"":26,""ArrowUp,ArrowRight"":10,""ArrowDown,ArrowLeft"":5,""ArrowDown,ArrowRight"":17}","true","ArrowUp,ArrowLeft","false","revaluation","1","14","","",""
"html-keyboard-response","136","692712","0.0-4.0-2.0-1.7","spark_pilot_norest","10172","8","7","Male","","","","","","","null","<div style=""font-size:60px;"">+</div>","null","fixation","","","","","","","","","15","","",""
"revaluation","137","696729","0.0-4.0-2.0-0.8","spark_pilot_norest","10172","8","7","Male","","true","","","","","[]","./assets/img/canyon/memory/34.jpg","[]","value training","canyon","-5","{""ArrowUp,ArrowLeft"":26,""ArrowUp,ArrowRight"":10,""ArrowDown,ArrowLeft"":5,""ArrowDown,ArrowRight"":17}","false","","false","revaluation","1","16","","",""
"html-keyboard-response","138","697233","0.0-4.0-2.0-1.8","spark_pilot_norest","10172","8","7","Male","","","","","","","null","<div style=""font-size:60px;"">+</div>","null","fixation","","","","","","","","","17","","",""
"revaluation","139","703255","0.0-4.0-2.0-0.9","spark_pilot_norest","10172","8","7","Male","","false","","","","","[920.6999999992549,660.5999999977648]","./assets/img/canyon/memory/13.jpg","[""ArrowUp"",""ArrowLeft""]","value training","canyon","26","{""ArrowUp,ArrowLeft"":26,""ArrowUp,ArrowRight"":10,""ArrowDown,ArrowLeft"":5,""ArrowDown,ArrowRight"":17}","true","ArrowUp,ArrowLeft","false","revaluation","1","18","","",""
"html-keyboard-response","140","703760","0.0-4.0-2.0-1.9","spark_pilot_norest","10172","8","7","Male","","","","","","","null","<div style=""font-size:60px;"">+</div>","null","fixation","","","","","","","","","19","","",""
"revaluation","141","707777","0.0-4.0-2.0-0.10","spark_pilot_norest","10172","8","7","Male","","false","","","","","[1154.1000000014901]","./assets/img/canyon/catch/6.jpg","[""spaceBar""]","value training","canyon","0","{""ArrowUp,ArrowLeft"":26,""ArrowUp,ArrowRight"":10,""ArrowDown,ArrowLeft"":5,""ArrowDown,ArrowRight"":17}","true","spaceBar","true","revaluation","1","20","","",""
"html-keyboard-response","142","708280","0.0-4.0-2.0-1.10","spark_pilot_norest","10172","8","7","Male","","","","","","","null","<div style=""font-size:60px;"">+</div>","null","fixation","","","","","","","","","21","","",""
"revaluation","143","714305","0.0-4.0-2.0-0.11","spark_pilot_norest","10172","8","7","Male","","false","","","","","[869,478.19999999925494]","./assets/img/canyon/memory/4.jpg","[""ArrowUp"",""ArrowLeft""]","value training","canyon","26","{""ArrowUp,ArrowLeft"":26,""ArrowUp,ArrowRight"":10,""ArrowDown,ArrowLeft"":5,""ArrowDown,ArrowRight"":17}","true","ArrowUp,ArrowLeft","false","revaluation","1","22","","",""
"html-keyboard-response","144","714807","0.0-4.0-2.0-1.11","spark_pilot_norest","10172","8","7","Male","","","","","","","null","<div style=""font-size:60px;"">+</div>","null","fixation","","","","","","","","","23","","",""
"revaluation","145","720833","0.0-4.0-2.0-0.12","spark_pilot_norest","10172","8","7","Male","","false","","","","","[945.8999999985099,351.6000000014901]","./assets/img/canyon/memory/0.jpg","[""ArrowUp"",""ArrowLeft""]","value training","canyon","26","{""ArrowUp,ArrowLeft"":26,""ArrowUp,ArrowRight"":10,""ArrowDown,ArrowLeft"":5,""ArrowDown,ArrowRight"":17}","true","ArrowUp,ArrowLeft","false","revaluation","1","24","","",""
"html-keyboard-response","146","721337","0.0-4.0-2.0-1.12","spark_pilot_norest","10172","8","7","Male","","","","","","","null","<div style=""font-size:60px;"">+</div>","null","fixation","","","","","","","","","25","","",""
"revaluation","147","727362","0.0-4.0-2.0-0.13","spark_pilot_norest","10172","8","7","Male","","false","","","","","[596.9000000022352,1807.6000000014901]","./assets/img/canyon/memory/35.jpg","[""ArrowUp"",""ArrowLeft""]","value training","canyon","26","{""ArrowUp,ArrowLeft"":26,""ArrowUp,ArrowRight"":10,""ArrowDown,ArrowLeft"":5,""ArrowDown,ArrowRight"":17}","true","ArrowUp,ArrowLeft","false","revaluation","1","26","","",""
"html-keyboard-response","148","727865","0.0-4.0-2.0-1.13","spark_pilot_norest","10172","8","7","Male","","","","","","","null","<div style=""font-size:60px;"">+</div>","null","fixation","","","","","","","","","27","","",""
"revaluation","149","733889","0.0-4.0-2.0-0.14","spark_pilot_norest","10172","8","7","Male","","false","","","","","[1077.4000000022352,338.5999999977648]","./assets/img/canyon/memory/11.jpg","[""ArrowUp"",""ArrowLeft""]","value training","canyon","26","{""ArrowUp,ArrowLeft"":26,""ArrowUp,ArrowRight"":10,""ArrowDown,ArrowLeft"":5,""ArrowDown,ArrowRight"":17}","true","ArrowUp,ArrowLeft","false","revaluation","1","28","","",""
"html-keyboard-response","150","734393","0.0-4.0-2.0-1.14","spark_pilot_norest","10172","8","7","Male","","","","","","","null","<div style=""font-size:60px;"">+</div>","null","fixation","","","","","","","","","29","","",""
"revaluation","151","740418","0.0-4.0-2.0-0.15","spark_pilot_norest","10172","8","7","Male","","false","","","","","[857,351.0999999977648]","./assets/img/canyon/memory/12.jpg","[""ArrowUp"",""ArrowLeft""]","value training","canyon","26","{""ArrowUp,ArrowLeft"":26,""ArrowUp,ArrowRight"":10,""ArrowDown,ArrowLeft"":5,""ArrowDown,ArrowRight"":17}","true","ArrowUp,ArrowLeft","false","revaluation","1","30","","",""
"html-keyboard-response","152","740922","0.0-4.0-2.0-1.15","spark_pilot_norest","10172","8","7","Male","","","","","","","null","<div style=""font-size:60px;"">+</div>","null","fixation","","","","","","","","","31","","",""
"revaluation","153","746946","0.0-4.0-2.0-0.16","spark_pilot_norest","10172","8","7","Male","","false","","","","","[1379.3999999985099,378.5999999977648]","./assets/img/canyon/memory/7.jpg","[""ArrowUp"",""ArrowLeft""]","value training","canyon","26","{""ArrowUp,ArrowLeft"":26,""ArrowUp,ArrowRight"":10,""ArrowDown,ArrowLeft"":5,""ArrowDown,ArrowRight"":17}","true","ArrowUp,ArrowLeft","false","revaluation","1","32","","",""
"html-keyboard-response","154","747450","0.0-4.0-2.0-1.16","spark_pilot_norest","10172","8","7","Male","","","","","","","null","<div style=""font-size:60px;"">+</div>","null","fixation","","","","","","","","","33","","",""
"revaluation","155","751466","0.0-4.0-2.0-0.17","spark_pilot_norest","10172","8","7","Male","","false","","","","","[795.6000000014901]","./assets/img/canyon/catch/5.jpg","[""spaceBar""]","value training","canyon","0","{""ArrowUp,ArrowLeft"":26,""ArrowUp,ArrowRight"":10,""ArrowDown,ArrowLeft"":5,""ArrowDown,ArrowRight"":17}","true","spaceBar","true","revaluation","1","34","","",""
"html-keyboard-response","156","751969","0.0-4.0-2.0-1.17","spark_pilot_norest","10172","8","7","Male","","","","","","","null","<div style=""font-size:60px;"">+</div>","null","fixation","","","","","","","","","35","","",""
"revaluation","157","757994","0.0-4.0-2.0-0.18","spark_pilot_norest","10172","8","7","Male","","false","","","","","[676.5,427.8999999985099]","./assets/img/canyon/memory/5.jpg","[""ArrowUp"",""ArrowLeft""]","value training","canyon","26","{""ArrowUp,ArrowLeft"":26,""ArrowUp,ArrowRight"":10,""ArrowDown,ArrowLeft"":5,""ArrowDown,ArrowRight"":17}","true","ArrowUp,ArrowLeft","false","revaluation","1","36","","",""
"html-keyboard-response","158","758497","0.0-4.0-2.0-1.18","spark_pilot_norest","10172","8","7","Male","","","","","","","null","<div style=""font-size:60px;"">+</div>","null","fixation","","","","","","","","","37","","",""
"revaluation","159","762514","0.0-4.0-2.0-0.19","spark_pilot_norest","10172","8","7","Male","","false","","","","","[963.6999999992549]","./assets/img/canyon/catch/4.jpg","[""spaceBar""]","value training","canyon","0","{""ArrowUp,ArrowLeft"":26,""ArrowUp,ArrowRight"":10,""ArrowDown,ArrowLeft"":5,""ArrowDown,ArrowRight"":17}","true","spaceBar","true","revaluation","1","38","","",""
"html-keyboard-response","160","763018","0.0-4.0-2.0-1.19","spark_pilot_norest","10172","8","7","Male","","","","","","","null","<div style=""font-size:60px;"">+</div>","null","fixation","","","","","","","","","39","","",""
"revaluation","161","769042","0.0-4.0-2.0-0.20","spark_pilot_norest","10172","8","7","Male","","false","","","","","[964.2000000029802,1005.8000000007451]","./assets/img/canyon/memory/31.jpg","[""ArrowUp"",""ArrowLeft""]","value training","canyon","26","{""ArrowUp,ArrowLeft"":26,""ArrowUp,ArrowRight"":10,""ArrowDown,ArrowLeft"":5,""ArrowDown,ArrowRight"":17}","true","ArrowUp,ArrowLeft","false","revaluation","1","40","","",""
"html-keyboard-response","162","769546","0.0-4.0-2.0-1.20","spark_pilot_norest","10172","8","7","Male","","","","","","","null","<div style=""font-size:60px;"">+</div>","null","fixation","","","","","","","","","41","","",""
"revaluation","163","775570","0.0-4.0-2.0-0.21","spark_pilot_norest","10172","8","7","Male","","false","","","","","[1428.9000000022352,368.69999999925494]","./assets/img/canyon/memory/11.jpg","[""ArrowUp"",""ArrowLeft""]","value training","canyon","26","{""ArrowUp,ArrowLeft"":26,""ArrowUp,ArrowRight"":10,""ArrowDown,ArrowLeft"":5,""ArrowDown,ArrowRight"":17}","true","ArrowUp,ArrowLeft","false","revaluation","1","42","","",""
"html-keyboard-response","164","776075","0.0-4.0-2.0-1.21","spark_pilot_norest","10172","8","7","Male","","","","","","","null","<div style=""font-size:60px;"">+</div>","null","fixation","","","","","","","","","43","","",""
"revaluation","165","782099","0.0-4.0-2.0-0.22","spark_pilot_norest","10172","8","7","Male","","false","","","","","[820.0999999977648,491.5]","./assets/img/canyon/memory/7.jpg","[""ArrowUp"",""ArrowLeft""]","value training","canyon","26","{""ArrowUp,ArrowLeft"":26,""ArrowUp,ArrowRight"":10,""ArrowDown,ArrowLeft"":5,""ArrowDown,ArrowRight"":17}","true","ArrowUp,ArrowLeft","false","revaluation","1","44","","",""
"html-keyboard-response","166","782603","0.0-4.0-2.0-1.22","spark_pilot_norest","10172","8","7","Male","","","","","","","null","<div style=""font-size:60px;"">+</div>","null","fixation","","","","","","","","","45","","",""
"revaluation","167","788627","0.0-4.0-2.0-0.23","spark_pilot_norest","10172","8","7","Male","","false","","","","","[1296.9000000022352,398.6000000014901]","./assets/img/canyon/memory/30.jpg","[""ArrowUp"",""ArrowLeft""]","value training","canyon","26","{""ArrowUp,ArrowLeft"":26,""ArrowUp,ArrowRight"":10,""ArrowDown,ArrowLeft"":5,""ArrowDown,ArrowRight"":17}","true","ArrowUp,ArrowLeft","false","revaluation","1","46","","",""
"html-keyboard-response","168","789130","0.0-4.0-2.0-1.23","spark_pilot_norest","10172","8","7","Male","","","","","","","null","<div style=""font-size:60px;"">+</div>","null","fixation","","","","","","","","","47","","",""
"revaluation","169","795155","0.0-4.0-2.0-0.24","spark_pilot_norest","10172","8","7","Male","","false","","","","","[800.5,401.8999999985099]","./assets/img/canyon/memory/18.jpg","[""ArrowUp"",""ArrowLeft""]","value training","canyon","26","{""ArrowUp,ArrowLeft"":26,""ArrowUp,ArrowRight"":10,""ArrowDown,ArrowLeft"":5,""ArrowDown,ArrowRight"":17}","true","ArrowUp,ArrowLeft","false","revaluation","1","48","","",""
"html-keyboard-response","170","795659","0.0-4.0-2.0-1.24","spark_pilot_norest","10172","8","7","Male","","","","","","","null","<div style=""font-size:60px;"">+</div>","null","fixation","","","","","","","","","49","","",""
"revaluation","171","801683","0.0-4.0-2.0-0.25","spark_pilot_norest","10172","8","7","Male","","false","","","","","[952,935.0999999977648]","./assets/img/canyon/memory/38.jpg","[""ArrowUp"",""ArrowLeft""]","value training","canyon","26","{""ArrowUp,ArrowLeft"":26,""ArrowUp,ArrowRight"":10,""ArrowDown,ArrowLeft"":5,""ArrowDown,ArrowRight"":17}","true","ArrowUp,ArrowLeft","false","revaluation","1","50","","",""
"html-keyboard-response","172","802186","0.0-4.0-2.0-1.25","spark_pilot_norest","10172","8","7","Male","","","","","","","null","<div style=""font-size:60px;"">+</div>","null","fixation","","","","","","","","","51","","",""
"revaluation","173","808212","0.0-4.0-2.0-0.26","spark_pilot_norest","10172","8","7","Male","","false","","","","","[986.3000000007451,331.5]","./assets/img/canyon/memory/5.jpg","[""ArrowUp"",""ArrowLeft""]","value training","canyon","26","{""ArrowUp,ArrowLeft"":26,""ArrowUp,ArrowRight"":10,""ArrowDown,ArrowLeft"":5,""ArrowDown,ArrowRight"":17}","true","ArrowUp,ArrowLeft","false","revaluation","1","52","","",""
"html-keyboard-response","174","808715","0.0-4.0-2.0-1.26","spark_pilot_norest","10172","8","7","Male","","","","","","","null","<div style=""font-size:60px;"">+</div>","null","fixation","","","","","","","","","53","","",""
"revaluation","175","814740","0.0-4.0-2.0-0.27","spark_pilot_norest","10172","8","7","Male","","false","","","","","[939.1000000014901,416.6000000014901]","./assets/img/canyon/memory/41.jpg","[""ArrowUp"",""ArrowLeft""]","value training","canyon","26","{""ArrowUp,ArrowLeft"":26,""ArrowUp,ArrowRight"":10,""ArrowDown,ArrowLeft"":5,""ArrowDown,ArrowRight"":17}","true","ArrowUp,ArrowLeft","false","revaluation","1","54","","",""
"html-keyboard-response","176","815242","0.0-4.0-2.0-1.27","spark_pilot_norest","10172","8","7","Male","","","","","","","null","<div style=""font-size:60px;"">+</div>","null","fixation","","","","","","","","","55","","",""
"revaluation","177","821268","0.0-4.0-2.0-0.28","spark_pilot_norest","10172","8","7","Male","","false","","","","","[1241.9000000022352,535.0999999977648]","./assets/img/canyon/memory/26.jpg","[""ArrowUp"",""ArrowLeft""]","value training","canyon","26","{""ArrowUp,ArrowLeft"":26,""ArrowUp,ArrowRight"":10,""ArrowDown,ArrowLeft"":5,""ArrowDown,ArrowRight"":17}","true","ArrowUp,ArrowLeft","false","revaluation","1","56","","",""
"html-keyboard-response","178","821772","0.0-4.0-2.0-1.28","spark_pilot_norest","10172","8","7","Male","","","","","","","null","<div style=""font-size:60px;"">+</div>","null","fixation","","","","","","","","","57","","",""
"revaluation","179","825788","0.0-4.0-2.0-0.29","spark_pilot_norest","10172","8","7","Male","","false","","","","","[717.3999999985099]","./assets/img/canyon/catch/0.jpg","[""spaceBar""]","value training","canyon","0","{""ArrowUp,ArrowLeft"":26,""ArrowUp,ArrowRight"":10,""ArrowDown,ArrowLeft"":5,""ArrowDown,ArrowRight"":17}","true","spaceBar","true","revaluation","1","58","","",""
"html-keyboard-response","180","826292","0.0-4.0-2.0-1.29","spark_pilot_norest","10172","8","7","Male","","","","","","","null","<div style=""font-size:60px;"">+</div>","null","fixation","","","","","","","","","59","","",""
"revaluation","181","830308","0.0-4.0-2.0-0.30","spark_pilot_norest","10172","8","7","Male","","false","","","","","[922.5]","./assets/img/canyon/catch/3.jpg","[""spaceBar""]","value training","canyon","0","{""ArrowUp,ArrowLeft"":26,""ArrowUp,ArrowRight"":10,""ArrowDown,ArrowLeft"":5,""ArrowDown,ArrowRight"":17}","true","spaceBar","true","revaluation","1","60","","",""
"html-keyboard-response","182","830811","0.0-4.0-2.0-1.30","spark_pilot_norest","10172","8","7","Male","","","","","","","null","<div style=""font-size:60px;"">+</div>","null","fixation","","","","","","","","","61","","",""
"revaluation","183","836836","0.0-4.0-2.0-0.31","spark_pilot_norest","10172","8","7","Male","","false","","","","","[984.2000000029802,346]","./assets/img/canyon/memory/19.jpg","[""ArrowUp"",""ArrowLeft""]","value training","canyon","26","{""ArrowUp,ArrowLeft"":26,""ArrowUp,ArrowRight"":10,""ArrowDown,ArrowLeft"":5,""ArrowDown,ArrowRight"":17}","true","ArrowUp,ArrowLeft","false","revaluation","1","62","","",""
"html-keyboard-response","184","837340","0.0-4.0-2.0-1.31","spark_pilot_norest","10172","8","7","Male","","","","","","","null","<div style=""font-size:60px;"">+</div>","null","fixation","","","","","","","","","63","","",""
"revaluation","185","843364","0.0-4.0-2.0-0.32","spark_pilot_norest","10172","8","7","Male","","false","","","","","[852.2999999970198,462.5999999977648]","./assets/img/canyon/memory/1.jpg","[""ArrowUp"",""ArrowLeft""]","value training","canyon","26","{""ArrowUp,ArrowLeft"":26,""ArrowUp,ArrowRight"":10,""ArrowDown,ArrowLeft"":5,""ArrowDown,ArrowRight"":17}","true","ArrowUp,ArrowLeft","false","revaluation","1","64","","",""
"html-keyboard-response","186","843867","0.0-4.0-2.0-1.32","spark_pilot_norest","10172","8","7","Male","","","","","","","null","<div style=""font-size:60px;"">+</div>","null","fixation","","","","","","","","","65","","",""
"revaluation","187","847884","0.0-4.0-2.0-0.33","spark_pilot_norest","10172","8","7","Male","","false","","","","","[727.5999999977648]","./assets/img/canyon/catch/7.jpg","[""spaceBar""]","value training","canyon","0","{""ArrowUp,ArrowLeft"":26,""ArrowUp,ArrowRight"":10,""ArrowDown,ArrowLeft"":5,""ArrowDown,ArrowRight"":17}","true","spaceBar","true","revaluation","1","66","","",""
"html-keyboard-response","188","848387","0.0-4.0-2.0-1.33","spark_pilot_norest","10172","8","7","Male","","","","","","","null","<div style=""font-size:60px;"">+</div>","null","fixation","","","","","","","","","67","","",""
"revaluation","189","854412","0.0-4.0-2.0-0.34","spark_pilot_norest","10172","8","7","Male","","false","","","","","[1592.199999999255,510.69999999925494]","./assets/img/canyon/memory/41.jpg","[""ArrowUp"",""ArrowLeft""]","value training","canyon","26","{""ArrowUp,ArrowLeft"":26,""ArrowUp,ArrowRight"":10,""ArrowDown,ArrowLeft"":5,""ArrowDown,ArrowRight"":17}","true","ArrowUp,ArrowLeft","false","revaluation","1","68","","",""
"html-keyboard-response","190","854916","0.0-4.0-2.0-1.34","spark_pilot_norest","10172","8","7","Male","","","","","","","null","<div style=""font-size:60px;"">+</div>","null","fixation","","","","","","","","","69","","",""
"revaluation","191","860940","0.0-4.0-2.0-0.35","spark_pilot_norest","10172","8","7","Male","","false","","","","","[1001.6999999992549,524.8999999985099]","./assets/img/canyon/memory/1.jpg","[""ArrowUp"",""ArrowLeft""]","value training","canyon","26","{""ArrowUp,ArrowLeft"":26,""ArrowUp,ArrowRight"":10,""ArrowDown,ArrowLeft"":5,""ArrowDown,ArrowRight"":17}","true","ArrowUp,ArrowLeft","false","revaluation","1","70","","",""
"html-keyboard-response","192","861445","0.0-4.0-2.0-1.35","spark_pilot_norest","10172","8","7","Male","","","","","","","null","<div style=""font-size:60px;"">+</div>","null","fixation","","","","","","","","","71","","",""
"revaluation","193","867469","0.0-4.0-2.0-0.36","spark_pilot_norest","10172","8","7","Male","","false","","","","","[768.1999999992549,397.5]","./assets/img/canyon/memory/30.jpg","[""ArrowUp"",""ArrowLeft""]","value training","canyon","26","{""ArrowUp,ArrowLeft"":26,""ArrowUp,ArrowRight"":10,""ArrowDown,ArrowLeft"":5,""ArrowDown,ArrowRight"":17}","true","ArrowUp,ArrowLeft","false","revaluation","1","72","","",""
"html-keyboard-response","194","867972","0.0-4.0-2.0-1.36","spark_pilot_norest","10172","8","7","Male","","","","","","","null","<div style=""font-size:60px;"">+</div>","null","fixation","","","","","","","","","73","","",""
"revaluation","195","873997","0.0-4.0-2.0-0.37","spark_pilot_norest","10172","8","7","Male","","false","","","","","[934,419.5]","./assets/img/canyon/memory/18.jpg","[""ArrowUp"",""ArrowLeft""]","value training","canyon","26","{""ArrowUp,ArrowLeft"":26,""ArrowUp,ArrowRight"":10,""ArrowDown,ArrowLeft"":5,""ArrowDown,ArrowRight"":17}","true","ArrowUp,ArrowLeft","false","revaluation","1","74","","",""
"html-keyboard-response","196","874501","0.0-4.0-2.0-1.37","spark_pilot_norest","10172","8","7","Male","","","","","","","null","<div style=""font-size:60px;"">+</div>","null","fixation","","","","","","","","","75","","",""
"revaluation","197","880525","0.0-4.0-2.0-0.38","spark_pilot_norest","10172","8","7","Male","","false","","","","","[953.3000000007451,647.3999999985099]","./assets/img/canyon/memory/0.jpg","[""ArrowUp"",""ArrowLeft""]","value training","canyon","26","{""ArrowUp,ArrowLeft"":26,""ArrowUp,ArrowRight"":10,""ArrowDown,ArrowLeft"":5,""ArrowDown,ArrowRight"":17}","true","ArrowUp,ArrowLeft","false","revaluation","1","76","","",""
"html-keyboard-response","198","881029","0.0-4.0-2.0-1.38","spark_pilot_norest","10172","8","7","Male","","","","","","","null","<div style=""font-size:60px;"">+</div>","null","fixation","","","","","","","","","77","","",""
"revaluation","199","887053","0.0-4.0-2.0-0.39","spark_pilot_norest","10172","8","7","Male","","false","","","","","[841.6999999992549,828.8000000007451]","./assets/img/canyon/memory/6.jpg","[""ArrowUp"",""ArrowLeft""]","value training","canyon","26","{""ArrowUp,ArrowLeft"":26,""ArrowUp,ArrowRight"":10,""ArrowDown,ArrowLeft"":5,""ArrowDown,ArrowRight"":17}","true","ArrowUp,ArrowLeft","false","revaluation","1","78","","",""
"html-keyboard-response","200","887557","0.0-4.0-2.0-1.39","spark_pilot_norest","10172","8","7","Male","","","","","","","null","<div style=""font-size:60px;"">+</div>","null","fixation","","","","","","","","","79","","",""
"revaluation","201","893582","0.0-4.0-2.0-0.40","spark_pilot_norest","10172","8","7","Male","","false","","","","","[819.6000000014901,573.6999999992549]","./assets/img/canyon/memory/31.jpg","[""ArrowUp"",""ArrowLeft""]","value training","canyon","26","{""ArrowUp,ArrowLeft"":26,""ArrowUp,ArrowRight"":10,""ArrowDown,ArrowLeft"":5,""ArrowDown,ArrowRight"":17}","true","ArrowUp,ArrowLeft","false","revaluation","1","80","","",""
"html-keyboard-response","202","894085","0.0-4.0-2.0-1.40","spark_pilot_norest","10172","8","7","Male","","","","","","","null","<div style=""font-size:60px;"">+</div>","null","fixation","","","","","","","","","81","","",""
"revaluation","203","900110","0.0-4.0-2.0-0.41","spark_pilot_norest","10172","8","7","Male","","false","","","","","[1087.8999999985099,719.0999999977648]","./assets/img/canyon/memory/34.jpg","[""ArrowUp"",""ArrowLeft""]","value training","canyon","26","{""ArrowUp,ArrowLeft"":26,""ArrowUp,ArrowRight"":10,""ArrowDown,ArrowLeft"":5,""ArrowDown,ArrowRight"":17}","true","ArrowUp,ArrowLeft","false","revaluation","1","82","","",""
"html-keyboard-response","204","900614","0.0-4.0-2.0-1.41","spark_pilot_norest","10172","8","7","Male","","","","","","","null","<div style=""font-size:60px;"">+</div>","null","fixation","","","","","","","","","83","","",""
"revaluation","205","904630","0.0-4.0-2.0-0.42","spark_pilot_norest","10172","8","7","Male","","false","","","","","[776.1999999992549]","./assets/img/canyon/catch/1.jpg","[""spaceBar""]","value training","canyon","0","{""ArrowUp,ArrowLeft"":26,""ArrowUp,ArrowRight"":10,""ArrowDown,ArrowLeft"":5,""ArrowDown,ArrowRight"":17}","true","spaceBar","true","revaluation","1","84","","",""
"html-keyboard-response","206","905134","0.0-4.0-2.0-1.42","spark_pilot_norest","10172","8","7","Male","","","","","","","null","<div style=""font-size:60px;"">+</div>","null","fixation","","","","","","","","","85","","",""
"revaluation","207","911158","0.0-4.0-2.0-0.43","spark_pilot_norest","10172","8","7","Male","","false","","","","","[886.1000000014901,495.30000000074506]","./assets/img/canyon/memory/6.jpg","[""ArrowUp"",""ArrowLeft""]","value training","canyon","26","{""ArrowUp,ArrowLeft"":26,""ArrowUp,ArrowRight"":10,""ArrowDown,ArrowLeft"":5,""ArrowDown,ArrowRight"":17}","true","ArrowUp,ArrowLeft","false","revaluation","1","86","","",""
"html-keyboard-response","208","911662","0.0-4.0-2.0-1.43","spark_pilot_norest","10172","8","7","Male","","","","","","","null","<div style=""font-size:60px;"">+</div>","null","fixation","","","","","","","","","87","","",""
"revaluation","209","917686","0.0-4.0-2.0-0.44","spark_pilot_norest","10172","8","7","Male","","false","","","","","[797.6999999992549,680.6999999992549]","./assets/img/canyon/memory/3.jpg","[""ArrowUp"",""ArrowLeft""]","value training","canyon","26","{""ArrowUp,ArrowLeft"":26,""ArrowUp,ArrowRight"":10,""ArrowDown,ArrowLeft"":5,""ArrowDown,ArrowRight"":17}","true","ArrowUp,ArrowLeft","false","revaluation","1","88","","",""
"html-keyboard-response","210","918189","0.0-4.0-2.0-1.44","spark_pilot_norest","10172","8","7","Male","","","","","","","null","<div style=""font-size:60px;"">+</div>","null","fixation","","","","","","","","","89","","",""
"revaluation","211","924215","0.0-4.0-2.0-0.45","spark_pilot_norest","10172","8","7","Male","","false","","","","","[964.3999999985099,565.2999999970198]","./assets/img/canyon/memory/17.jpg","[""ArrowUp"",""ArrowLeft""]","value training","canyon","26","{""ArrowUp,ArrowLeft"":26,""ArrowUp,ArrowRight"":10,""ArrowDown,ArrowLeft"":5,""ArrowDown,ArrowRight"":17}","true","ArrowUp,ArrowLeft","false","revaluation","1","90","","",""
"html-keyboard-response","212","924718","0.0-4.0-2.0-1.45","spark_pilot_norest","10172","8","7","Male","","","","","","","null","<div style=""font-size:60px;"">+</div>","null","fixation","","","","","","","","","91","","",""
"revaluation","213","930742","0.0-4.0-2.0-0.46","spark_pilot_norest","10172","8","7","Male","","false","","","","","[922.3000000007451,359.4000000022352]","./assets/img/canyon/memory/4.jpg","[""ArrowUp"",""ArrowLeft""]","value training","canyon","26","{""ArrowUp,ArrowLeft"":26,""ArrowUp,ArrowRight"":10,""ArrowDown,ArrowLeft"":5,""ArrowDown,ArrowRight"":17}","true","ArrowUp,ArrowLeft","false","revaluation","1","92","","",""
"html-keyboard-response","214","931246","0.0-4.0-2.0-1.46","spark_pilot_norest","10172","8","7","Male","","","","","","","null","<div style=""font-size:60px;"">+</div>","null","fixation","","","","","","","","","93","","",""
"revaluation","215","937271","0.0-4.0-2.0-0.47","spark_pilot_norest","10172","8","7","Male","","false","","","","","[913.3000000007451,408.69999999925494]","./assets/img/canyon/memory/38.jpg","[""ArrowUp"",""ArrowLeft""]","value training","canyon","26","{""ArrowUp,ArrowLeft"":26,""ArrowUp,ArrowRight"":10,""ArrowDown,ArrowLeft"":5,""ArrowDown,ArrowRight"":17}","true","ArrowUp,ArrowLeft","false","revaluation","1","94","","",""
"html-keyboard-response","216","937774","0.0-4.0-2.0-1.47","spark_pilot_norest","10172","8","7","Male","","","","","","","null","<div style=""font-size:60px;"">+</div>","null","fixation","","","","","","","","","95","","",""
"revaluation","217","941790","0.0-4.0-2.0-0.48","spark_pilot_norest","10172","8","7","Male","","false","","","","","[1374.699999999255]","./assets/img/canyon/catch/2.jpg","[""spaceBar""]","value training","canyon","0","{""ArrowUp,ArrowLeft"":26,""ArrowUp,ArrowRight"":10,""ArrowDown,ArrowLeft"":5,""ArrowDown,ArrowRight"":17}","true","spaceBar","true","revaluation","1","96","","",""
"html-keyboard-response","218","942294","0.0-4.0-2.0-1.48","spark_pilot_norest","10172","8","7","Male","","","","","","","null","<div style=""font-size:60px;"">+</div>","null","fixation","","","","","","","","","97","","",""
"revaluation","219","948319","0.0-4.0-2.0-0.49","spark_pilot_norest","10172","8","7","Male","","false","","","","","[739.8000000007451,526.8000000007451]","./assets/img/canyon/memory/40.jpg","[""ArrowUp"",""ArrowLeft""]","value training","canyon","26","{""ArrowUp,ArrowLeft"":26,""ArrowUp,ArrowRight"":10,""ArrowDown,ArrowLeft"":5,""ArrowDown,ArrowRight"":17}","true","ArrowUp,ArrowLeft","false","revaluation","1","98","","",""
"html-keyboard-response","220","948822","0.0-4.0-2.0-1.49","spark_pilot_norest","10172","8","7","Male","","","","","","","null","<div style=""font-size:60px;"">+</div>","null","fixation","","","","","","","","","99","","",""
"learning-instructions","221","965218","0.0-4.0-3.0-0.0","spark_pilot_norest","10172","8","7","Male","","","","","","","3362","<p> Now, you will travel with a friend who will choose whether you go up or down first. </p>
            <p> On these turns, you will just see the animal that they found. You will still get to choose which chest to search for treasure.</p>","","instructions","","","","","","","","","","","",""
"revaluation","222","969232","0.0-4.0-4.0-0.0","spark_pilot_norest","10172","8","7","Male","","false","","","","","[1498.3999999985099]","./assets/img/canyon/animals/lion.jpg","[""ArrowLeft""]","revaluation","canyon","8","{""ArrowUp,ArrowLeft"":2,""ArrowUp,ArrowRight"":11,""ArrowDown,ArrowLeft"":8,""ArrowDown,ArrowRight"":27}","false","ArrowDown,ArrowLeft","","revaluation","1","0","","",""
"html-keyboard-response","223","969743","0.0-4.0-4.0-1.0","spark_pilot_norest","10172","8","7","Male","","","","","","","null","<div style=""font-size:60px;"">+</div>","null","fixation","","","","","","","","","1","","",""
"revaluation","224","973760","0.0-4.0-4.0-0.1","spark_pilot_norest","10172","8","7","Male","","false","","","","","[544.8999999985099]","./assets/img/canyon/animals/lion.jpg","[""ArrowRight""]","revaluation","canyon","27","{""ArrowUp,ArrowLeft"":2,""ArrowUp,ArrowRight"":11,""ArrowDown,ArrowLeft"":8,""ArrowDown,ArrowRight"":27}","true","ArrowDown,ArrowRight","","revaluation","1","2","","",""
"html-keyboard-response","225","974264","0.0-4.0-4.0-1.1","spark_pilot_norest","10172","8","7","Male","","","","","","","null","<div style=""font-size:60px;"">+</div>","null","fixation","","","","","","","","","3","","",""
"revaluation","226","978280","0.0-4.0-4.0-0.2","spark_pilot_norest","10172","8","7","Male","","false","","","","","[1364.9000000022352]","./assets/img/canyon/animals/giraffe.jpg","[""ArrowLeft""]","revaluation","canyon","2","{""ArrowUp,ArrowLeft"":2,""ArrowUp,ArrowRight"":11,""ArrowDown,ArrowLeft"":8,""ArrowDown,ArrowRight"":27}","false","ArrowUp,ArrowLeft","","revaluation","1","4","","",""
"html-keyboard-response","227","978783","0.0-4.0-4.0-1.2","spark_pilot_norest","10172","8","7","Male","","","","","","","null","<div style=""font-size:60px;"">+</div>","null","fixation","","","","","","","","","5","","",""
"revaluation","228","982800","0.0-4.0-4.0-0.3","spark_pilot_norest","10172","8","7","Male","","false","","","","","[998.3999999985099]","./assets/img/canyon/animals/giraffe.jpg","[""ArrowRight""]","revaluation","canyon","11","{""ArrowUp,ArrowLeft"":2,""ArrowUp,ArrowRight"":11,""ArrowDown,ArrowLeft"":8,""ArrowDown,ArrowRight"":27}","true","ArrowUp,ArrowRight","","revaluation","1","6","","",""
"html-keyboard-response","229","983304","0.0-4.0-4.0-1.3","spark_pilot_norest","10172","8","7","Male","","","","","","","null","<div style=""font-size:60px;"">+</div>","null","fixation","","","","","","","","","7","","",""
"revaluation","230","987321","0.0-4.0-4.0-0.4","spark_pilot_norest","10172","8","7","Male","","false","","","","","[1370.5]","./assets/img/canyon/animals/giraffe.jpg","[""ArrowRight""]","revaluation","canyon","11","{""ArrowUp,ArrowLeft"":2,""ArrowUp,ArrowRight"":11,""ArrowDown,ArrowLeft"":8,""ArrowDown,ArrowRight"":27}","true","ArrowUp,ArrowRight","","revaluation","1","8","","",""
"html-keyboard-response","231","987823","0.0-4.0-4.0-1.4","spark_pilot_norest","10172","8","7","Male","","","","","","","null","<div style=""font-size:60px;"">+</div>","null","fixation","","","","","","","","","9","","",""
"revaluation","232","991841","0.0-4.0-4.0-0.5","spark_pilot_norest","10172","8","7","Male","","false","","","","","[1163.9000000022352]","./assets/img/canyon/animals/giraffe.jpg","[""ArrowRight""]","revaluation","canyon","11","{""ArrowUp,ArrowLeft"":2,""ArrowUp,ArrowRight"":11,""ArrowDown,ArrowLeft"":8,""ArrowDown,ArrowRight"":27}","true","ArrowUp,ArrowRight","","revaluation","1","10","","",""
"html-keyboard-response","233","992343","0.0-4.0-4.0-1.5","spark_pilot_norest","10172","8","7","Male","","","","","","","null","<div style=""font-size:60px;"">+</div>","null","fixation","","","","","","","","","11","","",""
"revaluation","234","996361","0.0-4.0-4.0-0.6","spark_pilot_norest","10172","8","7","Male","","false","","","","","[1529.7000000029802]","./assets/img/canyon/animals/lion.jpg","[""ArrowRight""]","revaluation","canyon","27","{""ArrowUp,ArrowLeft"":2,""ArrowUp,ArrowRight"":11,""ArrowDown,ArrowLeft"":8,""ArrowDown,ArrowRight"":27}","true","ArrowDown,ArrowRight","","revaluation","1","12","","",""
"html-keyboard-response","235","996864","0.0-4.0-4.0-1.6","spark_pilot_norest","10172","8","7","Male","","","","","","","null","<div style=""font-size:60px;"">+</div>","null","fixation","","","","","","","","","13","","",""
"revaluation","236","1000879","0.0-4.0-4.0-0.7","spark_pilot_norest","10172","8","7","Male","","false","","","","","[783.6000000014901]","./assets/img/canyon/animals/lion.jpg","[""ArrowRight""]","revaluation","canyon","27","{""ArrowUp,ArrowLeft"":2,""ArrowUp,ArrowRight"":11,""ArrowDown,ArrowLeft"":8,""ArrowDown,ArrowRight"":27}","true","ArrowDown,ArrowRight","","revaluation","1","14","","",""
"html-keyboard-response","237","1001384","0.0-4.0-4.0-1.7","spark_pilot_norest","10172","8","7","Male","","","","","","","null","<div style=""font-size:60px;"">+</div>","null","fixation","","","","","","","","","15","","",""
"revaluation","238","1005400","0.0-4.0-4.0-0.8","spark_pilot_norest","10172","8","7","Male","","false","","","","","[850.8000000007451]","./assets/img/canyon/animals/lion.jpg","[""ArrowRight""]","revaluation","canyon","27","{""ArrowUp,ArrowLeft"":2,""ArrowUp,ArrowRight"":11,""ArrowDown,ArrowLeft"":8,""ArrowDown,ArrowRight"":27}","true","ArrowDown,ArrowRight","","revaluation","1","16","","",""
"html-keyboard-response","239","1005905","0.0-4.0-4.0-1.8","spark_pilot_norest","10172","8","7","Male","","","","","","","null","<div style=""font-size:60px;"">+</div>","null","fixation","","","","","","","","","17","","",""
"revaluation","240","1009920","0.0-4.0-4.0-0.9","spark_pilot_norest","10172","8","7","Male","","false","","","","","[685.6000000014901]","./assets/img/canyon/animals/giraffe.jpg","[""ArrowRight""]","revaluation","canyon","11","{""ArrowUp,ArrowLeft"":2,""ArrowUp,ArrowRight"":11,""ArrowDown,ArrowLeft"":8,""ArrowDown,ArrowRight"":27}","true","ArrowUp,ArrowRight","","revaluation","1","18","","",""
"html-keyboard-response","241","1010423","0.0-4.0-4.0-1.9","spark_pilot_norest","10172","8","7","Male","","","","","","","null","<div style=""font-size:60px;"">+</div>","null","fixation","","","","","","","","","19","","",""
"revaluation","242","1014440","0.0-4.0-4.0-0.10","spark_pilot_norest","10172","8","7","Male","","false","","","","","[667.1999999992549]","./assets/img/canyon/animals/giraffe.jpg","[""ArrowRight""]","revaluation","canyon","11","{""ArrowUp,ArrowLeft"":2,""ArrowUp,ArrowRight"":11,""ArrowDown,ArrowLeft"":8,""ArrowDown,ArrowRight"":27}","true","ArrowUp,ArrowRight","","revaluation","1","20","","",""
"html-keyboard-response","243","1014944","0.0-4.0-4.0-1.10","spark_pilot_norest","10172","8","7","Male","","","","","","","null","<div style=""font-size:60px;"">+</div>","null","fixation","","","","","","","","","21","","",""
"revaluation","244","1018961","0.0-4.0-4.0-0.11","spark_pilot_norest","10172","8","7","Male","","false","","","","","[891.6999999992549]","./assets/img/canyon/animals/giraffe.jpg","[""ArrowRight""]","revaluation","canyon","11","{""ArrowUp,ArrowLeft"":2,""ArrowUp,ArrowRight"":11,""ArrowDown,ArrowLeft"":8,""ArrowDown,ArrowRight"":27}","true","ArrowUp,ArrowRight","","revaluation","1","22","","",""
"html-keyboard-response","245","1019465","0.0-4.0-4.0-1.11","spark_pilot_norest","10172","8","7","Male","","","","","","","null","<div style=""font-size:60px;"">+</div>","null","fixation","","","","","","","","","23","","",""
"revaluation","246","1023481","0.0-4.0-4.0-0.12","spark_pilot_norest","10172","8","7","Male","","false","","","","","[519.8000000007451]","./assets/img/canyon/animals/giraffe.jpg","[""ArrowRight""]","revaluation","canyon","11","{""ArrowUp,ArrowLeft"":2,""ArrowUp,ArrowRight"":11,""ArrowDown,ArrowLeft"":8,""ArrowDown,ArrowRight"":27}","true","ArrowUp,ArrowRight","","revaluation","1","24","","",""
"html-keyboard-response","247","1023985","0.0-4.0-4.0-1.12","spark_pilot_norest","10172","8","7","Male","","","","","","","null","<div style=""font-size:60px;"">+</div>","null","fixation","","","","","","","","","25","","",""
"revaluation","248","1028001","0.0-4.0-4.0-0.13","spark_pilot_norest","10172","8","7","Male","","false","","","","","[709.6000000014901]","./assets/img/canyon/animals/lion.jpg","[""ArrowRight""]","revaluation","canyon","27","{""ArrowUp,ArrowLeft"":2,""ArrowUp,ArrowRight"":11,""ArrowDown,ArrowLeft"":8,""ArrowDown,ArrowRight"":27}","true","ArrowDown,ArrowRight","","revaluation","1","26","","",""
"html-keyboard-response","249","1028505","0.0-4.0-4.0-1.13","spark_pilot_norest","10172","8","7","Male","","","","","","","null","<div style=""font-size:60px;"">+</div>","null","fixation","","","","","","","","","27","","",""
"revaluation","250","1032522","0.0-4.0-4.0-0.14","spark_pilot_norest","10172","8","7","Male","","false","","","","","[895.1999999992549]","./assets/img/canyon/animals/lion.jpg","[""ArrowRight""]","revaluation","canyon","27","{""ArrowUp,ArrowLeft"":2,""ArrowUp,ArrowRight"":11,""ArrowDown,ArrowLeft"":8,""ArrowDown,ArrowRight"":27}","true","ArrowDown,ArrowRight","","revaluation","1","28","","",""
"html-keyboard-response","251","1033025","0.0-4.0-4.0-1.14","spark_pilot_norest","10172","8","7","Male","","","","","","","null","<div style=""font-size:60px;"">+</div>","null","fixation","","","","","","","","","29","","",""
"revaluation","252","1037041","0.0-4.0-4.0-0.15","spark_pilot_norest","10172","8","7","Male","","false","","","","","[627.9000000022352]","./assets/img/canyon/animals/lion.jpg","[""ArrowRight""]","revaluation","canyon","27","{""ArrowUp,ArrowLeft"":2,""ArrowUp,ArrowRight"":11,""ArrowDown,ArrowLeft"":8,""ArrowDown,ArrowRight"":27}","true","ArrowDown,ArrowRight","","revaluation","1","30","","",""
"html-keyboard-response","253","1037544","0.0-4.0-4.0-1.15","spark_pilot_norest","10172","8","7","Male","","","","","","","null","<div style=""font-size:60px;"">+</div>","null","fixation","","","","","","","","","31","","",""
"revaluation","254","1041562","0.0-4.0-4.0-0.16","spark_pilot_norest","10172","8","7","Male","","false","","","","","[633.9000000022352]","./assets/img/canyon/animals/lion.jpg","[""ArrowRight""]","revaluation","canyon","27","{""ArrowUp,ArrowLeft"":2,""ArrowUp,ArrowRight"":11,""ArrowDown,ArrowLeft"":8,""ArrowDown,ArrowRight"":27}","true","ArrowDown,ArrowRight","","revaluation","1","32","","",""
"html-keyboard-response","255","1042066","0.0-4.0-4.0-1.16","spark_pilot_norest","10172","8","7","Male","","","","","","","null","<div style=""font-size:60px;"">+</div>","null","fixation","","","","","","","","","33","","",""
"revaluation","256","1046082","0.0-4.0-4.0-0.17","spark_pilot_norest","10172","8","7","Male","","false","","","","","[552.1999999992549]","./assets/img/canyon/animals/giraffe.jpg","[""ArrowRight""]","revaluation","canyon","11","{""ArrowUp,ArrowLeft"":2,""ArrowUp,ArrowRight"":11,""ArrowDown,ArrowLeft"":8,""ArrowDown,ArrowRight"":27}","true","ArrowUp,ArrowRight","","revaluation","1","34","","",""
"html-keyboard-response","257","1046585","0.0-4.0-4.0-1.17","spark_pilot_norest","10172","8","7","Male","","","","","","","null","<div style=""font-size:60px;"">+</div>","null","fixation","","","","","","","","","35","","",""
"learning-instructions","258","1054841","0.0-4.0-5.0-0.0","spark_pilot_norest","10172","8","7","Male","","","","","","","null","<p> You have almost finished this part of the game! </p>
            <p> We are going to ask you to make a few more choices. </p>","","instructions","","","","","","","","","","","",""
"learning-instructions","259","1070817","0.0-4.0-5.0-0.1","spark_pilot_norest","10172","8","7","Male","","","","","","","null","<p> First, you need to decide whether to go up or down. When you see each picture, use the arrow keys to make your choice. </p>
            <p><b>You will not see which animal you found, but try to get to the one that will give you the most treasure.</b></p>","","instructions","","","","","","","","","","","",""
"html-keyboard-response","260","1071825","0.0-4.0-6.0-0.0","spark_pilot_norest","10172","8","7","Male","","","","","","","null","<div style=""font-size:100px;color:red;"">Starting in...</div>","null","","","","","","","","","","","","",""
"html-keyboard-response","261","1072834","0.0-4.0-6.0-1.0","spark_pilot_norest","10172","8","7","Male","","","","","","","null","<div style=""font-size:200px;color:red;"">3</div>","null","","","","","","","","","","","","",""
"html-keyboard-response","262","1073842","0.0-4.0-6.0-2.0","spark_pilot_norest","10172","8","7","Male","","","","","","","null","<div style=""font-size:200px;color:red;"">2</div>","null","","","","","","","","","","","","",""
"html-keyboard-response","263","1074850","0.0-4.0-6.0-3.0","spark_pilot_norest","10172","8","7","Male","","","","","","","null","<div style=""font-size:200px;color:red;"">1</div>","null","","","","","","","","","","","","",""
"revaluation","264","1075718","0.0-4.0-7.0-0.0","spark_pilot_norest","10172","8","7","Male","","false","","","","","[866.0999999977648]","./assets/img/canyon/test/3.jpg","[""ArrowDown""]","first stage test","canyon","0","{""ArrowUp,ArrowLeft"":2,""ArrowUp,ArrowRight"":11,""ArrowDown,ArrowLeft"":8,""ArrowDown,ArrowRight"":27}","true","ArrowDown","false","revaluation","1","","","",""
"html-keyboard-response","265","1076226","0.0-4.0-7.0-1.0","spark_pilot_norest","10172","8","7","Male","","","","","","","null","<div style=""font-size:60px;"">+</div>","null","fixation","","","","","","","","","","","",""
"revaluation","266","1077355","0.0-4.0-7.0-0.1","spark_pilot_norest","10172","8","7","Male","","false","","","","","[1126.300000000745]","./assets/img/canyon/test/0.jpg","[""ArrowDown""]","first stage test","canyon","0","{""ArrowUp,ArrowLeft"":2,""ArrowUp,ArrowRight"":11,""ArrowDown,ArrowLeft"":8,""ArrowDown,ArrowRight"":27}","true","ArrowDown","false","revaluation","1","","","",""
"html-keyboard-response","267","1077858","0.0-4.0-7.0-1.1","spark_pilot_norest","10172","8","7","Male","","","","","","","null","<div style=""font-size:60px;"">+</div>","null","fixation","","","","","","","","","","","",""
"revaluation","268","1079245","0.0-4.0-7.0-0.2","spark_pilot_norest","10172","8","7","Male","","false","","","","","[1384.8999999985099]","./assets/img/canyon/test/2.jpg","[""ArrowDown""]","first stage test","canyon","0","{""ArrowUp,ArrowLeft"":2,""ArrowUp,ArrowRight"":11,""ArrowDown,ArrowLeft"":8,""ArrowDown,ArrowRight"":27}","true","ArrowDown","false","revaluation","1","","","",""
"html-keyboard-response","269","1079755","0.0-4.0-7.0-1.2","spark_pilot_norest","10172","8","7","Male","","","","","","","null","<div style=""font-size:60px;"">+</div>","null","fixation","","","","","","","","","","","",""
"revaluation","270","1080441","0.0-4.0-7.0-0.3","spark_pilot_norest","10172","8","7","Male","","false","","","","","[683.5999999977648]","./assets/img/canyon/test/1.jpg","[""ArrowUp""]","first stage test","canyon","0","{""ArrowUp,ArrowLeft"":2,""ArrowUp,ArrowRight"":11,""ArrowDown,ArrowLeft"":8,""ArrowDown,ArrowRight"":27}","false","ArrowUp","false","revaluation","1","","","",""
"html-keyboard-response","271","1080946","0.0-4.0-7.0-1.3","spark_pilot_norest","10172","8","7","Male","","","","","","","null","<div style=""font-size:60px;"">+</div>","null","fixation","","","","","","","","","","","",""
"learning-instructions","272","1094291","0.0-4.0-8.0-0.0","spark_pilot_norest","10172","8","7","Male","","","","","","","null","<p> Now you will see the animals again and can search their chests for treasure. </p>
            <p> This time, you will not see how much treasure you earned, but you will earn more bonus money for making better choices. </p>","","instructions","","","","","","","","","","","",""
"html-keyboard-response","273","1095299","0.0-4.0-9.0-0.0","spark_pilot_norest","10172","8","7","Male","","","","","","","null","<div style=""font-size:100px;color:red;"">Starting in...</div>","null","","","","","","","","","","","","",""
"html-keyboard-response","274","1096306","0.0-4.0-9.0-1.0","spark_pilot_norest","10172","8","7","Male","","","","","","","null","<div style=""font-size:200px;color:red;"">3</div>","null","","","","","","","","","","","","",""
"html-keyboard-response","275","1097314","0.0-4.0-9.0-2.0","spark_pilot_norest","10172","8","7","Male","","","","","","","null","<div style=""font-size:200px;color:red;"">2</div>","null","","","","","","","","","","","","",""
"html-keyboard-response","276","1098322","0.0-4.0-9.0-3.0","spark_pilot_norest","10172","8","7","Male","","","","","","","null","<div style=""font-size:200px;color:red;"">1</div>","null","","","","","","","","","","","","",""
"revaluation","277","1099626","0.0-4.0-10.0-0.0","spark_pilot_norest","10172","8","7","Male","","false","","","","","[1302.199999999255]","./assets/img/canyon/animals/giraffe.jpg","[""ArrowRight""]","second stage test","canyon","0","{""ArrowUp,ArrowLeft"":2,""ArrowUp,ArrowRight"":11,""ArrowDown,ArrowLeft"":8,""ArrowDown,ArrowRight"":27}","true","ArrowUp,ArrowRight","","revaluation","1","","","",""
"html-keyboard-response","278","1100131","0.0-4.0-10.0-1.0","spark_pilot_norest","10172","8","7","Male","","","","","","","null","<div style=""font-size:60px;"">+</div>","null","fixation","","","","","","","","","","","",""
"revaluation","279","1101473","0.0-4.0-10.0-0.1","spark_pilot_norest","10172","8","7","Male","","false","","","","","[1340.300000000745]","./assets/img/canyon/animals/giraffe.jpg","[""ArrowLeft""]","second stage test","canyon","0","{""ArrowUp,ArrowLeft"":2,""ArrowUp,ArrowRight"":11,""ArrowDown,ArrowLeft"":8,""ArrowDown,ArrowRight"":27}","false","ArrowUp,ArrowLeft","","revaluation","1","","","",""
"html-keyboard-response","280","1101978","0.0-4.0-10.0-1.1","spark_pilot_norest","10172","8","7","Male","","","","","","","null","<div style=""font-size:60px;"">+</div>","null","fixation","","","","","","","","","","","",""
"revaluation","281","1103059","0.0-4.0-10.0-0.2","spark_pilot_norest","10172","8","7","Male","","false","","","","","[1079.199999999255]","./assets/img/canyon/animals/giraffe.jpg","[""ArrowRight""]","second stage test","canyon","0","{""ArrowUp,ArrowLeft"":2,""ArrowUp,ArrowRight"":11,""ArrowDown,ArrowLeft"":8,""ArrowDown,ArrowRight"":27}","true","ArrowUp,ArrowRight","","revaluation","1","","","",""
"html-keyboard-response","282","1103563","0.0-4.0-10.0-1.2","spark_pilot_norest","10172","8","7","Male","","","","","","","null","<div style=""font-size:60px;"">+</div>","null","fixation","","","","","","","","","","","",""
"revaluation","283","1104685","0.0-4.0-10.0-0.3","spark_pilot_norest","10172","8","7","Male","","false","","","","","[1119.800000000745]","./assets/img/canyon/animals/giraffe.jpg","[""ArrowLeft""]","second stage test","canyon","0","{""ArrowUp,ArrowLeft"":2,""ArrowUp,ArrowRight"":11,""ArrowDown,ArrowLeft"":8,""ArrowDown,ArrowRight"":27}","false","ArrowUp,ArrowLeft","","revaluation","1","","","",""
"html-keyboard-response","284","1105187","0.0-4.0-10.0-1.3","spark_pilot_norest","10172","8","7","Male","","","","","","","null","<div style=""font-size:60px;"">+</div>","null","fixation","","","","","","","","","","","",""
"revaluation","285","1106598","0.0-4.0-10.0-0.4","spark_pilot_norest","10172","8","7","Male","","false","","","","","[1408.699999999255]","./assets/img/canyon/animals/lion.jpg","[""ArrowRight""]","second stage test","canyon","0","{""ArrowUp,ArrowLeft"":2,""ArrowUp,ArrowRight"":11,""ArrowDown,ArrowLeft"":8,""ArrowDown,ArrowRight"":27}","true","ArrowDown,ArrowRight","","revaluation","1","","","",""
"html-keyboard-response","286","1107107","0.0-4.0-10.0-1.4","spark_pilot_norest","10172","8","7","Male","","","","","","","null","<div style=""font-size:60px;"">+</div>","null","fixation","","","","","","","","","","","",""
"revaluation","287","1109055","0.0-4.0-10.0-0.5","spark_pilot_norest","10172","8","7","Male","","false","","","","","[1945.5]","./assets/img/canyon/animals/lion.jpg","[""ArrowRight""]","second stage test","canyon","0","{""ArrowUp,ArrowLeft"":2,""ArrowUp,ArrowRight"":11,""ArrowDown,ArrowLeft"":8,""ArrowDown,ArrowRight"":27}","true","ArrowDown,ArrowRight","","revaluation","1","","","",""
"html-keyboard-response","288","1109563","0.0-4.0-10.0-1.5","spark_pilot_norest","10172","8","7","Male","","","","","","","null","<div style=""font-size:60px;"">+</div>","null","fixation","","","","","","","","","","","",""
"revaluation","289","1111102","0.0-4.0-10.0-0.6","spark_pilot_norest","10172","8","7","Male","","false","","","","","[1536.3999999985099]","./assets/img/canyon/animals/lion.jpg","[""ArrowRight""]","second stage test","canyon","0","{""ArrowUp,ArrowLeft"":2,""ArrowUp,ArrowRight"":11,""ArrowDown,ArrowLeft"":8,""ArrowDown,ArrowRight"":27}","true","ArrowDown,ArrowRight","","revaluation","1","","","",""
"html-keyboard-response","290","1111610","0.0-4.0-10.0-1.6","spark_pilot_norest","10172","8","7","Male","","","","","","","null","<div style=""font-size:60px;"">+</div>","null","fixation","","","","","","","","","","","",""
"revaluation","291","1112060","0.0-4.0-10.0-0.7","spark_pilot_norest","10172","8","7","Male","","false","","","","","[447.69999999925494]","./assets/img/canyon/animals/lion.jpg","[""ArrowLeft""]","second stage test","canyon","0","{""ArrowUp,ArrowLeft"":2,""ArrowUp,ArrowRight"":11,""ArrowDown,ArrowLeft"":8,""ArrowDown,ArrowRight"":27}","false","ArrowDown,ArrowLeft","","revaluation","1","","","",""
"html-keyboard-response","292","1112562","0.0-4.0-10.0-1.7","spark_pilot_norest","10172","8","7","Male","","","","","","","null","<div style=""font-size:60px;"">+</div>","null","fixation","","","","","","","","","","","",""
"learning-instructions","293","1129845","0.0-4.0-0.1-0.2","spark_pilot_norest","10172","8","7","Male","","","","","","","14571","<p> This time you are searching for treasure in the <b>ocean</b>.</p>","","instructions","","","","","","","","","","","",""
"learning-instructions","294","1152921","0.0-4.0-0.1-0.3","spark_pilot_norest","10172","8","7","Male","","","","","","","5824.10000000149","<p><b>New</b> animals with <b>new</b> treasure chests live here. You need to explore to discover where the animal with the best treasure chest is.</p>
                    <p> Like before, once you figure out which animal has the chest with the most treasure, you should try to get to that animal and select that chest! </p>","","instructions","","","","","","","","","","","",""
"learning-instructions","295","1169841","0.0-4.0-1.1-0.1","spark_pilot_norest","10172","8","7","Male","","","","","","","2187.800000000745","<p> Remember, when you see a picture of the place, use the up and down keys to <b>find an animal</b>.</p>
            <p> When you encounter an animal, you should use the left and right keys to <b>select a treasure chest</b>.</p>
            <p> Don't forget to look out for the robber! </p>","","instructions","","","","","","","","","","","",""
"revaluation","296","1175861","0.0-4.0-2.1-0.50","spark_pilot_norest","10172","8","7","Male","","false","","","","","[1527.0999999977648,844.5999999977648]","./assets/img/ocean/memory/30.jpg","[""ArrowUp"",""ArrowRight""]","value training","ocean","10","{""ArrowUp,ArrowLeft"":23,""ArrowUp,ArrowRight"":10,""ArrowDown,ArrowLeft"":8,""ArrowDown,ArrowRight"":30}","false","ArrowUp,ArrowRight","false","original","2","0","","",""
"html-keyboard-response","297","1176364","0.0-4.0-2.1-1.50","spark_pilot_norest","10172","8","7","Male","","","","","","","null","<div style=""font-size:60px;"">+</div>","null","fixation","","","","","","","","","1","","",""
"revaluation","298","1182388","0.0-4.0-2.1-0.51","spark_pilot_norest","10172","8","7","Male","","false","","","","","[596.3999999985099,671.1000000014901]","./assets/img/ocean/memory/6.jpg","[""ArrowUp"",""ArrowLeft""]","value training","ocean","23","{""ArrowUp,ArrowLeft"":23,""ArrowUp,ArrowRight"":10,""ArrowDown,ArrowLeft"":8,""ArrowDown,ArrowRight"":30}","false","ArrowUp,ArrowLeft","false","original","2","2","","",""
"html-keyboard-response","299","1182890","0.0-4.0-2.1-1.51","spark_pilot_norest","10172","8","7","Male","","","","","","","null","<div style=""font-size:60px;"">+</div>","null","fixation","","","","","","","","","3","","",""
"revaluation","300","1188908","0.0-4.0-2.1-0.52","spark_pilot_norest","10172","8","7","Male","","false","","","","","[947.8000000007451,681]","./assets/img/ocean/memory/41.jpg","[""ArrowDown"",""ArrowLeft""]","value training","ocean","8","{""ArrowUp,ArrowLeft"":23,""ArrowUp,ArrowRight"":10,""ArrowDown,ArrowLeft"":8,""ArrowDown,ArrowRight"":30}","false","ArrowDown,ArrowLeft","false","original","2","4","","",""
"html-keyboard-response","301","1189412","0.0-4.0-2.1-1.52","spark_pilot_norest","10172","8","7","Male","","","","","","","null","<div style=""font-size:60px;"">+</div>","null","fixation","","","","","","","","","5","","",""
"revaluation","302","1195431","0.0-4.0-2.1-0.53","spark_pilot_norest","10172","8","7","Male","","false","","","","","[1132.1000000014901,567.6999999992549]","./assets/img/ocean/memory/11.jpg","[""ArrowDown"",""ArrowRight""]","value training","ocean","30","{""ArrowUp,ArrowLeft"":23,""ArrowUp,ArrowRight"":10,""ArrowDown,ArrowLeft"":8,""ArrowDown,ArrowRight"":30}","true","ArrowDown,ArrowRight","false","original","2","6","","",""
"html-keyboard-response","303","1195935","0.0-4.0-2.1-1.53","spark_pilot_norest","10172","8","7","Male","","","","","","","null","<div style=""font-size:60px;"">+</div>","null","fixation","","","","","","","","","7","","",""
"revaluation","304","1201956","0.0-4.0-2.1-0.54","spark_pilot_norest","10172","8","7","Male","","false","","","","","[709,835.9000000022352]","./assets/img/ocean/memory/19.jpg","[""ArrowDown"",""ArrowRight""]","value training","ocean","30","{""ArrowUp,ArrowLeft"":23,""ArrowUp,ArrowRight"":10,""ArrowDown,ArrowLeft"":8,""ArrowDown,ArrowRight"":30}","true","ArrowDown,ArrowRight","false","original","2","8","","",""
"html-keyboard-response","305","1202459","0.0-4.0-2.1-1.54","spark_pilot_norest","10172","8","7","Male","","","","","","","null","<div style=""font-size:60px;"">+</div>","null","fixation","","","","","","","","","9","","",""
"revaluation","306","1208481","0.0-4.0-2.1-0.55","spark_pilot_norest","10172","8","7","Male","","false","","","","","[1726.300000000745,637.7000000029802]","./assets/img/ocean/memory/4.jpg","[""ArrowDown"",""ArrowRight""]","value training","ocean","30","{""ArrowUp,ArrowLeft"":23,""ArrowUp,ArrowRight"":10,""ArrowDown,ArrowLeft"":8,""ArrowDown,ArrowRight"":30}","true","ArrowDown,ArrowRight","false","original","2","10","","",""
"html-keyboard-response","307","1208985","0.0-4.0-2.1-1.55","spark_pilot_norest","10172","8","7","Male","","","","","","","null","<div style=""font-size:60px;"">+</div>","null","fixation","","","","","","","","","11","","",""
"revaluation","308","1215008","0.0-4.0-2.1-0.56","spark_pilot_norest","10172","8","7","Male","","false","","","","","[806.8999999985099,481.5]","./assets/img/ocean/memory/13.jpg","[""ArrowDown"",""ArrowRight""]","value training","ocean","30","{""ArrowUp,ArrowLeft"":23,""ArrowUp,ArrowRight"":10,""ArrowDown,ArrowLeft"":8,""ArrowDown,ArrowRight"":30}","true","ArrowDown,ArrowRight","false","original","2","12","","",""
"html-keyboard-response","309","1215512","0.0-4.0-2.1-1.56","spark_pilot_norest","10172","8","7","Male","","","","","","","null","<div style=""font-size:60px;"">+</div>","null","fixation","","","","","","","","","13","","",""
"revaluation","310","1219527","0.0-4.0-2.1-0.57","spark_pilot_norest","10172","8","7","Male","","false","","","","","[807.6000000014901]","./assets/img/ocean/catch/6.jpg","[""spaceBar""]","value training","ocean","0","{""ArrowUp,ArrowLeft"":23,""ArrowUp,ArrowRight"":10,""ArrowDown,ArrowLeft"":8,""ArrowDown,ArrowRight"":30}","true","spaceBar","true","original","2","14","","",""
"html-keyboard-response","311","1220032","0.0-4.0-2.1-1.57","spark_pilot_norest","10172","8","7","Male","","","","","","","null","<div style=""font-size:60px;"">+</div>","null","fixation","","","","","","","","","15","","",""
"revaluation","312","1226054","0.0-4.0-2.1-0.58","spark_pilot_norest","10172","8","7","Male","","false","","","","","[897.6000000014901,480.80000000074506]","./assets/img/ocean/memory/3.jpg","[""ArrowDown"",""ArrowRight""]","value training","ocean","30","{""ArrowUp,ArrowLeft"":23,""ArrowUp,ArrowRight"":10,""ArrowDown,ArrowLeft"":8,""ArrowDown,ArrowRight"":30}","true","ArrowDown,ArrowRight","false","original","2","16","","",""
"html-keyboard-response","313","1226559","0.0-4.0-2.1-1.58","spark_pilot_norest","10172","8","7","Male","","","","","","","null","<div style=""font-size:60px;"">+</div>","null","fixation","","","","","","","","","17","","",""
