"trial_type","trial_index","time_elapsed","internal_node_id","task_version","subject_id","assigned_condition","age","gender","success","timeout","failed_images","failed_audio","failed_video","browser_interaction","rt","stimulus","response","task_part","environment","score","rewardMap","correct","fullState","isCatch","condition","order","trial_num","key_press","ground_truth","bonus"
"pavlovia","0","1087","0.0-0.0","spark_pilot_norest","8780","4","22","Female","","","","","","","","","","","","","","","","","","","","","",""
"preload","1","25801","0.0-1.0","spark_pilot_norest","8780","4","22","Female","true","false","[]","[]","[]","[{""event"":""fullscreenenter"",""trial"":2,""time"":40433},{""event"":""blur"",""trial"":121,""time"":746434},{""event"":""focus"",""trial"":121,""time"":748353}]","","","","","","","","","","","","","","","",""
"fullscreen","2","41420","0.0-2.0","spark_pilot_norest","8780","4","22","Female","true","","","","","","","","","","","","","","","","","","","","",""
"audio-button-response","3","44348","0.0-3.0-0.0-0.0","spark_pilot_norest","8780","4","22","Female","","","","","","","2862","./assets/audio/audiotest/turtle.mp3","4","audio_test","","","","","","","","","","","",""
"audio-button-response","4","46359","0.0-3.0-0.1-0.1","spark_pilot_norest","8780","4","22","Female","","","","","","","1004","./assets/audio/audiotest/turtle.mp3","2","audio_test","","","","","","","","","","","",""
"learning-instructions","5","80358","0.0-3.0-1.0-0.0","spark_pilot_norest","8780","4","22","Female","","","","","","","26977.70000001788","<p> Welcome! Please remember to stay in fullscreen mode and don't click away from the experiment. </p>","","instructions","","","","","","","","","","","",""
"learning-instructions","6","96208","0.0-3.0-1.0-0.1","spark_pilot_norest","8780","4","22","Female","","","","","","","7400.299999982119","<p> Today you will be playing a game to earn treasure. </p>
            <p> At the end of the experiment, you will earn a bonus based on how much treasure you find. </p>
            <img src='./assets/img/instructions/treasure.jpg' class='instructions-image'>","","instructions","","","","","","","","","","","",""
"learning-instructions","7","106956","0.0-3.0-1.0-0.2","spark_pilot_norest","8780","4","22","Female","","","","","","","2452.300000011921","<p> Animals have hidden treasure in treasure chests. </p>
            <p> You need to first find an animal and then choose which of their treasure chests to search. </p>
            <img src='./assets/img/space/animals/cat.jpg' class='instructions-image'>","","instructions","","","","","","","","","","","",""
"learning-instructions","8","124733","0.0-3.0-1.0-0.3","spark_pilot_norest","8780","4","22","Female","","","","","","","4581","<p> In each round, you will search for treasure in a different place. In the real game, there will be two rounds. </p>
            <p> You will begin with a separate, practice round where you will search for treasure in outer space. </p>
            <img src='./assets/img/space/0.jpg' class='instructions-image'>","","instructions","","","","","","","","","","","",""
"learning-instructions","9","138575","0.0-3.0-1.0-0.4","spark_pilot_norest","8780","4","22","Female","","","","","","","2378.0999999940395","<p> On every turn, you will see a picture of the place that you are in, but the specific image may be different each time. </p>
            <p> For example, both of these images mean you are in outer space. </p>
            <img src='./assets/img/instructions/outerspace.jpg' class='instructions-image'>","","instructions","","","","","","","","","","","",""
"learning-instructions","10","148478","0.0-3.0-1.0-0.5","spark_pilot_norest","8780","4","22","Female","","","","","","","2036","<p> You need to decide which direction to travel in. </p>
            <p> You can choose between going <b>up or down</b> by using the arrow keys. </p>
            <img src='./assets/img/instructions/updown.jpg' class='instructions-image'>","","instructions","","","","","","","","","","","",""
"learning-instructions","11","189637","0.0-3.0-1.0-0.6","spark_pilot_norest","8780","4","22","Female","","","","","","","32308.29999998212","<p> You will have <b>2 seconds</b> to make your choice. </p>
            <p> If you do not make a choice within 2 seconds, you will not find an animal or earn treasure. </p>
            <img src='./assets/img/instructions/2seconds.jpg' class='instructions-image'>","","instructions","","","","","","","","","","","",""
"learning-instructions","12","199910","0.0-3.0-1.0-0.7","spark_pilot_norest","8780","4","22","Female","","","","","","","3189.300000011921","<p> Let’s try practicing that now! </p>
            <p> When you see a picture of the place you are in, press the <b>up</b> key to travel up. </p>
            <img src='./assets/img/instructions/pressUp.jpg' class='instructions-image'>","","instructions","","","","","","","","","","","",""
"revaluation","13","203927","0.0-3.0-2.0-0.0","spark_pilot_norest","8780","4","22","Female","","true","","","","","[]","./assets/img/space/0.jpg","[]","first stage practice","space","-5","null","null","","false","","","","","",""
"html-keyboard-response","14","204431","0.0-3.0-2.0-1.0","spark_pilot_norest","8780","4","22","Female","","","","","","","null","<div style=""font-size:60px;"">+</div>","null","fixation","","","","","","","","","","","",""
"revaluation","15","208451","0.0-3.0-2.0-0.1","spark_pilot_norest","8780","4","22","Female","","false","","","","","[503.80000001192093]","./assets/img/space/1.jpg","[""ArrowUp""]","first stage practice","space","0","null","null","ArrowUp","false","","","","","",""
"html-keyboard-response","16","208959","0.0-3.0-2.0-1.1","spark_pilot_norest","8780","4","22","Female","","","","","","","null","<div style=""font-size:60px;"">+</div>","null","fixation","","","","","","","","","","","",""
"revaluation","17","212975","0.0-3.0-2.0-0.2","spark_pilot_norest","8780","4","22","Female","","false","","","","","[1073.199999988079]","./assets/img/space/2.jpg","[""ArrowUp""]","first stage practice","space","0","null","null","ArrowUp","false","","","","","",""
"html-keyboard-response","18","213479","0.0-3.0-2.0-1.2","spark_pilot_norest","8780","4","22","Female","","","","","","","null","<div style=""font-size:60px;"">+</div>","null","fixation","","","","","","","","","","","",""
"learning-instructions","19","219518","0.0-3.0-3.0-0.0","spark_pilot_norest","8780","4","22","Female","","","","","","","1331.5","<p> Great job! Now try pressing the <b>down</b> key to travel down. </p>
            <img src='./assets/img/instructions/pressDown.jpg' class='instructions-image'>","","instructions","","","","","","","","","","","",""
"revaluation","20","223540","0.0-3.0-4.0-0.0","spark_pilot_norest","8780","4","22","Female","","false","","","","","[1059]","./assets/img/space/3.jpg","[""ArrowDown""]","first stage practice","space","0","null","null","ArrowDown","false","","","","","",""
"html-keyboard-response","21","224049","0.0-3.0-4.0-1.0","spark_pilot_norest","8780","4","22","Female","","","","","","","null","<div style=""font-size:60px;"">+</div>","null","fixation","","","","","","","","","","","",""
"revaluation","22","228067","0.0-3.0-4.0-0.1","spark_pilot_norest","8780","4","22","Female","","false","","","","","[510.30000001192093]","./assets/img/space/4.jpg","[""ArrowDown""]","first stage practice","space","0","null","null","ArrowDown","false","","","","","",""
"html-keyboard-response","23","228579","0.0-3.0-4.0-1.1","spark_pilot_norest","8780","4","22","Female","","","","","","","null","<div style=""font-size:60px;"">+</div>","null","fixation","","","","","","","","","","","",""
"revaluation","24","232599","0.0-3.0-4.0-0.2","spark_pilot_norest","8780","4","22","Female","","false","","","","","[765]","./assets/img/space/5.jpg","[""ArrowDown""]","first stage practice","space","0","null","null","ArrowDown","false","","","","","",""
"html-keyboard-response","25","233107","0.0-3.0-4.0-1.2","spark_pilot_norest","8780","4","22","Female","","","","","","","null","<div style=""font-size:60px;"">+</div>","null","fixation","","","","","","","","","","","",""
"learning-instructions","26","244709","0.0-3.0-5.0-0.0","spark_pilot_norest","8780","4","22","Female","","","","","","","1697.2000000178814","<p> The animals don’t move, so the animal in the upper part of a place will stay in the upper part of a place, and the animal in the lower part of a place will stay in the lower part of a place. </p>","","instructions","","","","","","","","","","","",""
"learning-instructions","27","262408","0.0-3.0-5.0-0.1","spark_pilot_norest","8780","4","22","Female","","","","","","","8524.5","<p> Each animal has two treasure chests for you to choose from. </p>
            <p> The amount of treasure in each chest can range from <b> 0 to 40 pieces.</b></p>","","instructions","","","","","","","","","","","",""
"learning-instructions","28","274946","0.0-3.0-5.0-0.2","spark_pilot_norest","8780","4","22","Female","","","","","","","1302.300000011921","<p> You should decide which chest to search for treasure by using the <b>left</b> and <b>right</b> arrow keys. </p>
            <p><b> Pay attention to which animal is on the screen, as the animals have different treasure chests. </b></p>
            <img src='./assets/img/instructions/leftright.jpg' class='instructions-image'>","","instructions","","","","","","","","","","","",""
"learning-instructions","29","284381","0.0-3.0-5.0-0.3","spark_pilot_norest","8780","4","22","Female","","","","","","","3034.800000011921","<p> Let’s try practicing that now. </p>
            <p> When you see an animal, choose which chest to search for treasure. </p>
            <img src='./assets/img/instructions/chooseChest.jpg' class='instructions-image'>","","instructions","","","","","","","","","","","",""
"revaluation","30","288404","0.0-3.0-6.0-0.0","spark_pilot_norest","8780","4","22","Female","","false","","","","","[1395.0999999940395]","./assets/img/space/animals/cat.jpg","[""ArrowRight""]","second stage practice","space","36","{""ArrowUp,ArrowLeft"":3,""ArrowUp,ArrowRight"":36,""ArrowDown,ArrowLeft"":15,""ArrowDown,ArrowRight"":23}","true","ArrowUp,ArrowRight","","","","","","",""
"html-keyboard-response","31","288912","0.0-3.0-6.0-1.0","spark_pilot_norest","8780","4","22","Female","","","","","","","null","<div style=""font-size:60px;"">+</div>","null","fixation","","","","","","","","","","","",""
"revaluation","32","292936","0.0-3.0-6.0-0.1","spark_pilot_norest","8780","4","22","Female","","false","","","","","[1209.800000011921]","./assets/img/space/animals/cat.jpg","[""ArrowLeft""]","second stage practice","space","3","{""ArrowUp,ArrowLeft"":3,""ArrowUp,ArrowRight"":36,""ArrowDown,ArrowLeft"":15,""ArrowDown,ArrowRight"":23}","false","ArrowUp,ArrowLeft","","","","","","",""
"html-keyboard-response","33","293447","0.0-3.0-6.0-1.1","spark_pilot_norest","8780","4","22","Female","","","","","","","null","<div style=""font-size:60px;"">+</div>","null","fixation","","","","","","","","","","","",""
"revaluation","34","297472","0.0-3.0-6.0-0.2","spark_pilot_norest","8780","4","22","Female","","false","","","","","[370.7000000178814]","./assets/img/space/animals/rabbit.jpg","[""ArrowRight""]","second stage practice","space","23","{""ArrowUp,ArrowLeft"":3,""ArrowUp,ArrowRight"":36,""ArrowDown,ArrowLeft"":15,""ArrowDown,ArrowRight"":23}","true","ArrowDown,ArrowRight","","","","","","",""
"html-keyboard-response","35","297983","0.0-3.0-6.0-1.2","spark_pilot_norest","8780","4","22","Female","","","","","","","null","<div style=""font-size:60px;"">+</div>","null","fixation","","","","","","","","","","","",""
"revaluation","36","302007","0.0-3.0-6.0-0.3","spark_pilot_norest","8780","4","22","Female","","false","","","","","[443.2000000178814]","./assets/img/space/animals/rabbit.jpg","[""ArrowRight""]","second stage practice","space","23","{""ArrowUp,ArrowLeft"":3,""ArrowUp,ArrowRight"":36,""ArrowDown,ArrowLeft"":15,""ArrowDown,ArrowRight"":23}","true","ArrowDown,ArrowRight","","","","","","",""
"html-keyboard-response","37","302514","0.0-3.0-6.0-1.3","spark_pilot_norest","8780","4","22","Female","","","","","","","null","<div style=""font-size:60px;"">+</div>","null","fixation","","","","","","","","","","","",""
"learning-instructions","38","337279","0.0-3.0-7.0-0.0","spark_pilot_norest","8780","4","22","Female","","","","","","","17885.5","<p> Great job. Now let’s try putting it together. </p>
            <p> On each turn, you will first see a picture to remind you of the place you are in, and you need to choose whether to go up or down. </p>
            <p> Then you will see an animal and choose which of its chests to search for treasure. </p>","","instructions","","","","","","","","","","","",""
"learning-instructions","39","347666","0.0-3.0-7.0-0.1","spark_pilot_norest","8780","4","22","Female","","","","","","","2087.2000000178814","<p> When you choose whether to go up or down, try to go to the animal with the chest with the most treasure. </p>
            <p> Try practicing that now! </p>","","instructions","","","","","","","","","","","",""
"revaluation","40","353691","0.0-3.0-8.0-0.0","spark_pilot_norest","8780","4","22","Female","","true","","","","","[1649.0999999940395]","./assets/img/space/6.jpg","[""ArrowUp""]","full practice","space","-5","{""ArrowUp,ArrowLeft"":3,""ArrowUp,ArrowRight"":36,""ArrowDown,ArrowLeft"":15,""ArrowDown,ArrowRight"":23}","false","ArrowUp","false","","","","","",""
"html-keyboard-response","41","354204","0.0-3.0-8.0-1.0","spark_pilot_norest","8780","4","22","Female","","","","","","","null","<div style=""font-size:60px;"">+</div>","null","fixation","","","","","","","","","","","",""
"revaluation","42","360236","0.0-3.0-8.0-0.1","spark_pilot_norest","8780","4","22","Female","","false","","","","","[649.3999999761581,497.19999998807907]","./assets/img/space/7.jpg","[""ArrowUp"",""ArrowRight""]","full practice","space","36","{""ArrowUp,ArrowLeft"":3,""ArrowUp,ArrowRight"":36,""ArrowDown,ArrowLeft"":15,""ArrowDown,ArrowRight"":23}","true","ArrowUp,ArrowRight","false","","","","","",""
"html-keyboard-response","43","360744","0.0-3.0-8.0-1.1","spark_pilot_norest","8780","4","22","Female","","","","","","","null","<div style=""font-size:60px;"">+</div>","null","fixation","","","","","","","","","","","",""
"revaluation","44","366772","0.0-3.0-8.0-0.2","spark_pilot_norest","8780","4","22","Female","","false","","","","","[479.7000000178814,889.4000000059605]","./assets/img/space/8.jpg","[""ArrowUp"",""ArrowLeft""]","full practice","space","3","{""ArrowUp,ArrowLeft"":3,""ArrowUp,ArrowRight"":36,""ArrowDown,ArrowLeft"":15,""ArrowDown,ArrowRight"":23}","false","ArrowUp,ArrowLeft","false","","","","","",""
"html-keyboard-response","45","367283","0.0-3.0-8.0-1.2","spark_pilot_norest","8780","4","22","Female","","","","","","","null","<div style=""font-size:60px;"">+</div>","null","fixation","","","","","","","","","","","",""
"revaluation","46","373311","0.0-3.0-8.0-0.3","spark_pilot_norest","8780","4","22","Female","","false","","","","","[333.5,526.8000000119209]","./assets/img/space/9.jpg","[""ArrowUp"",""ArrowRight""]","full practice","space","36","{""ArrowUp,ArrowLeft"":3,""ArrowUp,ArrowRight"":36,""ArrowDown,ArrowLeft"":15,""ArrowDown,ArrowRight"":23}","true","ArrowUp,ArrowRight","false","","","","","",""
"html-keyboard-response","47","373815","0.0-3.0-8.0-1.3","spark_pilot_norest","8780","4","22","Female","","","","","","","null","<div style=""font-size:60px;"">+</div>","null","fixation","","","","","","","","","","","",""
"revaluation","48","379839","0.0-3.0-8.0-0.4","spark_pilot_norest","8780","4","22","Female","","false","","","","","[545.3000000119209,429.90000000596046]","./assets/img/space/10.jpg","[""ArrowUp"",""ArrowRight""]","full practice","space","36","{""ArrowUp,ArrowLeft"":3,""ArrowUp,ArrowRight"":36,""ArrowDown,ArrowLeft"":15,""ArrowDown,ArrowRight"":23}","true","ArrowUp,ArrowRight","false","","","","","",""
"html-keyboard-response","49","380343","0.0-3.0-8.0-1.4","spark_pilot_norest","8780","4","22","Female","","","","","","","null","<div style=""font-size:60px;"">+</div>","null","fixation","","","","","","","","","","","",""
"learning-instructions","50","391663","0.0-3.0-9.0-0.0","spark_pilot_norest","8780","4","22","Female","","","","","","","912.9000000059605","<p> One last thing: sometimes, you will see a robber. The robber can be anywhere in the picture. </p>
            <p> If you do not stop them, you will lose treasure. </p>
            <img src='./assets/img/instructions/robber.jpg' class='instructions-image'>","","instructions","","","","","","","","","","","",""
"learning-instructions","51","413527","0.0-3.0-9.0-0.1","spark_pilot_norest","8780","4","22","Female","","","","","","","14662.299999982119","<p> If you see the robber, you should <b>press the space bar</b> rather than using the arrow keys. </p>
            <p> Try practicing that now! </p>","","instructions","","","","","","","","","","","",""
"revaluation","52","417541","0.0-3.0-10.0-0.0","spark_pilot_norest","8780","4","22","Female","","false","","","","","[1014]","./assets/img/space/catch/0.jpg","[""ArrowUp""]","catch practice","space","-10","{""ArrowUp,ArrowLeft"":3,""ArrowUp,ArrowRight"":36,""ArrowDown,ArrowLeft"":15,""ArrowDown,ArrowRight"":23}","false","ArrowUp","true","","","","","",""
"html-keyboard-response","53","418048","0.0-3.0-10.0-1.0","spark_pilot_norest","8780","4","22","Female","","","","","","","null","<div style=""font-size:60px;"">+</div>","null","fixation","","","","","","","","","","","",""
"revaluation","54","422069","0.0-3.0-10.0-0.1","spark_pilot_norest","8780","4","22","Female","","false","","","","","[932.7000000178814]","./assets/img/space/catch/1.jpg","[""spaceBar""]","catch practice","space","0","{""ArrowUp,ArrowLeft"":3,""ArrowUp,ArrowRight"":36,""ArrowDown,ArrowLeft"":15,""ArrowDown,ArrowRight"":23}","true","spaceBar","true","","","","","",""
"html-keyboard-response","55","422576","0.0-3.0-10.0-1.1","spark_pilot_norest","8780","4","22","Female","","","","","","","null","<div style=""font-size:60px;"">+</div>","null","fixation","","","","","","","","","","","",""
"revaluation","56","426595","0.0-3.0-10.0-0.2","spark_pilot_norest","8780","4","22","Female","","false","","","","","[633.3000000119209]","./assets/img/space/catch/2.jpg","[""spaceBar""]","catch practice","space","0","{""ArrowUp,ArrowLeft"":3,""ArrowUp,ArrowRight"":36,""ArrowDown,ArrowLeft"":15,""ArrowDown,ArrowRight"":23}","true","spaceBar","true","","","","","",""
"html-keyboard-response","57","427100","0.0-3.0-10.0-1.2","spark_pilot_norest","8780","4","22","Female","","","","","","","null","<div style=""font-size:60px;"">+</div>","null","fixation","","","","","","","","","","","",""
"learning-instructions","58","434406","0.0-3.0-11.0-0.0-0.0","spark_pilot_norest","8780","4","22","Female","","","","","","","2054","<p> Now, you will practice a shortened version of the game to get a sense of how it all fits together. </p>","","instructions","","","","","","","","","","","",""
"learning-instructions","59","439530","0.0-3.0-11.0-0.0-0.1","spark_pilot_norest","8780","4","22","Female","","","","","","","1919.5","<p>This time you are searching for treasure in outer space.</p>","","instructions","","","","","","","","","","","",""
"learning-instructions","60","456228","0.0-3.0-11.0-1.0-0.0","spark_pilot_norest","8780","4","22","Female","","","","","","","1870.9000000059605","<p> Remember, when you see a picture of the place, use the up and down keys to <b>find an animal</b>.</p>
            <p> When you encounter an animal, you should use the left and right keys to <b>select a treasure chest</b>.</p>
            <p> Don't forget to look out for the robber! </p>","","instructions","","","","","","","","","","","",""
"revaluation","61","462255","0.0-3.0-11.0-2.0-0.0","spark_pilot_norest","8780","4","22","Female","","false","","","","","[1190.199999988079,496.69999998807907]","./assets/img/space/11.jpg","[""ArrowUp"",""ArrowRight""]","practice block","space","36","{""ArrowUp,ArrowLeft"":3,""ArrowUp,ArrowRight"":36,""ArrowDown,ArrowLeft"":15,""ArrowDown,ArrowRight"":23}","true","ArrowUp,ArrowRight","false","","","","","",""
"html-keyboard-response","62","462762","0.0-3.0-11.0-2.0-1.0","spark_pilot_norest","8780","4","22","Female","","","","","","","null","<div style=""font-size:60px;"">+</div>","null","fixation","","","","","","","","","","","",""
"revaluation","63","468785","0.0-3.0-11.0-2.0-0.1","spark_pilot_norest","8780","4","22","Female","","false","","","","","[789.9000000059605,534.9000000059605]","./assets/img/space/12.jpg","[""ArrowUp"",""ArrowRight""]","practice block","space","36","{""ArrowUp,ArrowLeft"":3,""ArrowUp,ArrowRight"":36,""ArrowDown,ArrowLeft"":15,""ArrowDown,ArrowRight"":23}","true","ArrowUp,ArrowRight","false","","","","","",""
"html-keyboard-response","64","469293","0.0-3.0-11.0-2.0-1.1","spark_pilot_norest","8780","4","22","Female","","","","","","","null","<div style=""font-size:60px;"">+</div>","null","fixation","","","","","","","","","","","",""
"revaluation","65","475321","0.0-3.0-11.0-2.0-0.2","spark_pilot_norest","8780","4","22","Female","","false","","","","","[834.5,504.69999998807907]","./assets/img/space/13.jpg","[""ArrowUp"",""ArrowRight""]","practice block","space","36","{""ArrowUp,ArrowLeft"":3,""ArrowUp,ArrowRight"":36,""ArrowDown,ArrowLeft"":15,""ArrowDown,ArrowRight"":23}","true","ArrowUp,ArrowRight","false","","","","","",""
"html-keyboard-response","66","475829","0.0-3.0-11.0-2.0-1.2","spark_pilot_norest","8780","4","22","Female","","","","","","","null","<div style=""font-size:60px;"">+</div>","null","fixation","","","","","","","","","","","",""
"revaluation","67","481861","0.0-3.0-11.0-2.0-0.3","spark_pilot_norest","8780","4","22","Female","","false","","","","","[931.7000000178814,406]","./assets/img/space/14.jpg","[""ArrowUp"",""ArrowRight""]","practice block","space","36","{""ArrowUp,ArrowLeft"":3,""ArrowUp,ArrowRight"":36,""ArrowDown,ArrowLeft"":15,""ArrowDown,ArrowRight"":23}","true","ArrowUp,ArrowRight","false","","","","","",""
"html-keyboard-response","68","482371","0.0-3.0-11.0-2.0-1.3","spark_pilot_norest","8780","4","22","Female","","","","","","","null","<div style=""font-size:60px;"">+</div>","null","fixation","","","","","","","","","","","",""
"revaluation","69","488393","0.0-3.0-11.0-2.0-0.4","spark_pilot_norest","8780","4","22","Female","","false","","","","","[994.0999999940395,412.09999999403954]","./assets/img/space/11.jpg","[""ArrowUp"",""ArrowRight""]","practice block","space","36","{""ArrowUp,ArrowLeft"":3,""ArrowUp,ArrowRight"":36,""ArrowDown,ArrowLeft"":15,""ArrowDown,ArrowRight"":23}","true","ArrowUp,ArrowRight","false","","","","","",""
"html-keyboard-response","70","488899","0.0-3.0-11.0-2.0-1.4","spark_pilot_norest","8780","4","22","Female","","","","","","","null","<div style=""font-size:60px;"">+</div>","null","fixation","","","","","","","","","","","",""
"revaluation","71","494934","0.0-3.0-11.0-2.0-0.5","spark_pilot_norest","8780","4","22","Female","","false","","","","","[490.5,397.19999998807907]","./assets/img/space/12.jpg","[""ArrowUp"",""ArrowRight""]","practice block","space","36","{""ArrowUp,ArrowLeft"":3,""ArrowUp,ArrowRight"":36,""ArrowDown,ArrowLeft"":15,""ArrowDown,ArrowRight"":23}","true","ArrowUp,ArrowRight","false","","","","","",""
"html-keyboard-response","72","495443","0.0-3.0-11.0-2.0-1.5","spark_pilot_norest","8780","4","22","Female","","","","","","","null","<div style=""font-size:60px;"">+</div>","null","fixation","","","","","","","","","","","",""
"revaluation","73","501468","0.0-3.0-11.0-2.0-0.6","spark_pilot_norest","8780","4","22","Female","","false","","","","","[636.5999999940395,423.40000000596046]","./assets/img/space/13.jpg","[""ArrowUp"",""ArrowRight""]","practice block","space","36","{""ArrowUp,ArrowLeft"":3,""ArrowUp,ArrowRight"":36,""ArrowDown,ArrowLeft"":15,""ArrowDown,ArrowRight"":23}","true","ArrowUp,ArrowRight","false","","","","","",""
"html-keyboard-response","74","501979","0.0-3.0-11.0-2.0-1.6","spark_pilot_norest","8780","4","22","Female","","","","","","","null","<div style=""font-size:60px;"">+</div>","null","fixation","","","","","","","","","","","",""
"revaluation","75","508012","0.0-3.0-11.0-2.0-0.7","spark_pilot_norest","8780","4","22","Female","","false","","","","","[708.8000000119209,297.2000000178814]","./assets/img/space/14.jpg","[""ArrowUp"",""ArrowRight""]","practice block","space","36","{""ArrowUp,ArrowLeft"":3,""ArrowUp,ArrowRight"":36,""ArrowDown,ArrowLeft"":15,""ArrowDown,ArrowRight"":23}","true","ArrowUp,ArrowRight","false","","","","","",""
"html-keyboard-response","76","508523","0.0-3.0-11.0-2.0-1.7","spark_pilot_norest","8780","4","22","Female","","","","","","","null","<div style=""font-size:60px;"">+</div>","null","fixation","","","","","","","","","","","",""
"revaluation","77","512544","0.0-3.0-11.0-2.0-0.8","spark_pilot_norest","8780","4","22","Female","","false","","","","","[463.5]","./assets/img/space/catch/3.jpg","[""ArrowUp""]","practice block","space","-10","{""ArrowUp,ArrowLeft"":3,""ArrowUp,ArrowRight"":36,""ArrowDown,ArrowLeft"":15,""ArrowDown,ArrowRight"":23}","false","ArrowUp","true","","","","","",""
"html-keyboard-response","78","513048","0.0-3.0-11.0-2.0-1.8","spark_pilot_norest","8780","4","22","Female","","","","","","","null","<div style=""font-size:60px;"">+</div>","null","fixation","","","","","","","","","","","",""
"learning-instructions","79","530892","0.0-3.0-11.0-3.0-0.0","spark_pilot_norest","8780","4","22","Female","","","","","","","4826.800000011921","<p> Now, you will travel with a friend who will choose whether you go up or down first. </p>
            <p> On these turns, you will just see the animal that they found. You will still get to choose which chest to search for treasure.</p>","","instructions","","","","","","","","","","","",""
"revaluation","80","534914","0.0-3.0-11.0-4.0-0.0","spark_pilot_norest","8780","4","22","Female","","true","","","","","[]","./assets/img/space/animals/cat.jpg","[]","practice block","space","-5","{""ArrowUp,ArrowLeft"":3,""ArrowUp,ArrowRight"":36,""ArrowDown,ArrowLeft"":15,""ArrowDown,ArrowRight"":23}","false","ArrowUp","","","","","","",""
"html-keyboard-response","81","535422","0.0-3.0-11.0-4.0-1.0","spark_pilot_norest","8780","4","22","Female","","","","","","","null","<div style=""font-size:60px;"">+</div>","null","fixation","","","","","","","","","","","",""
"revaluation","82","539442","0.0-3.0-11.0-4.0-0.1","spark_pilot_norest","8780","4","22","Female","","false","","","","","[513.8000000119209]","./assets/img/space/animals/cat.jpg","[""ArrowLeft""]","practice block","space","3","{""ArrowUp,ArrowLeft"":3,""ArrowUp,ArrowRight"":36,""ArrowDown,ArrowLeft"":15,""ArrowDown,ArrowRight"":23}","false","ArrowUp,ArrowLeft","","","","","","",""
"html-keyboard-response","83","539949","0.0-3.0-11.0-4.0-1.1","spark_pilot_norest","8780","4","22","Female","","","","","","","null","<div style=""font-size:60px;"">+</div>","null","fixation","","","","","","","","","","","",""
"revaluation","84","543970","0.0-3.0-11.0-4.0-0.2","spark_pilot_norest","8780","4","22","Female","","false","","","","","[309.89999997615814]","./assets/img/space/animals/rabbit.jpg","[""ArrowRight""]","practice block","space","23","{""ArrowUp,ArrowLeft"":3,""ArrowUp,ArrowRight"":36,""ArrowDown,ArrowLeft"":15,""ArrowDown,ArrowRight"":23}","true","ArrowDown,ArrowRight","","","","","","",""
"html-keyboard-response","85","544480","0.0-3.0-11.0-4.0-1.2","spark_pilot_norest","8780","4","22","Female","","","","","","","null","<div style=""font-size:60px;"">+</div>","null","fixation","","","","","","","","","","","",""
"revaluation","86","548498","0.0-3.0-11.0-4.0-0.3","spark_pilot_norest","8780","4","22","Female","","false","","","","","[649.4000000059605]","./assets/img/space/animals/rabbit.jpg","[""ArrowRight""]","practice block","space","23","{""ArrowUp,ArrowLeft"":3,""ArrowUp,ArrowRight"":36,""ArrowDown,ArrowLeft"":15,""ArrowDown,ArrowRight"":23}","true","ArrowDown,ArrowRight","","","","","","",""
"html-keyboard-response","87","549004","0.0-3.0-11.0-4.0-1.3","spark_pilot_norest","8780","4","22","Female","","","","","","","null","<div style=""font-size:60px;"">+</div>","null","fixation","","","","","","","","","","","",""
"learning-instructions","88","557169","0.0-3.0-11.0-5.0-0.0","spark_pilot_norest","8780","4","22","Female","","","","","","","null","<p> You have almost finished this part of the game! </p>
            <p> We are going to ask you to make a few more choices. </p>","","instructions","","","","","","","","","","","",""
"learning-instructions","89","573244","0.0-3.0-11.0-5.0-0.1","spark_pilot_norest","8780","4","22","Female","","","","","","","null","<p> First, you need to decide whether to go up or down. When you see each picture, use the arrow keys to make your choice. </p>
            <p><b>You will not see which animal you found, but try to get to the one that will give you the most treasure.</b></p>","","instructions","","","","","","","","","","","",""
"html-keyboard-response","90","574252","0.0-3.0-11.0-6.0-0.0","spark_pilot_norest","8780","4","22","Female","","","","","","","null","<div style=""font-size:100px;color:red;"">Starting in...</div>","null","","","","","","","","","","","","",""
"html-keyboard-response","91","575260","0.0-3.0-11.0-6.0-1.0","spark_pilot_norest","8780","4","22","Female","","","","","","","null","<div style=""font-size:200px;color:red;"">3</div>","null","","","","","","","","","","","","",""
"html-keyboard-response","92","576268","0.0-3.0-11.0-6.0-2.0","spark_pilot_norest","8780","4","22","Female","","","","","","","null","<div style=""font-size:200px;color:red;"">2</div>","null","","","","","","","","","","","","",""
"html-keyboard-response","93","577275","0.0-3.0-11.0-6.0-3.0","spark_pilot_norest","8780","4","22","Female","","","","","","","null","<div style=""font-size:200px;color:red;"">1</div>","null","","","","","","","","","","","","",""
"revaluation","94","577976","0.0-3.0-11.0-7.0","spark_pilot_norest","8780","4","22","Female","","false","","","","","[697.5999999940395]","./assets/img/space/15.jpg","[""ArrowUp""]","practice block","space","0","{""ArrowUp,ArrowLeft"":3,""ArrowUp,ArrowRight"":36,""ArrowDown,ArrowLeft"":15,""ArrowDown,ArrowRight"":23}","true","ArrowUp","false","","","","","",""
"html-keyboard-response","95","578483","0.0-3.0-11.0-8.0","spark_pilot_norest","8780","4","22","Female","","","","","","","null","<div style=""font-size:60px;"">+</div>","null","fixation","","","","","","","","","","","",""
"learning-instructions","96","591914","0.0-3.0-11.0-9.0-0.0","spark_pilot_norest","8780","4","22","Female","","","","","","","null","<p> Now you will see the animals again and can search their chests for treasure. </p>
            <p> This time, you will not see how much treasure you earned, but you will earn more bonus money for making better choices. </p>","","instructions","","","","","","","","","","","",""
"html-keyboard-response","97","592922","0.0-3.0-11.0-10.0-0.0","spark_pilot_norest","8780","4","22","Female","","","","","","","null","<div style=""font-size:100px;color:red;"">Starting in...</div>","null","","","","","","","","","","","","",""
"html-keyboard-response","98","593932","0.0-3.0-11.0-10.0-1.0","spark_pilot_norest","8780","4","22","Female","","","","","","","null","<div style=""font-size:200px;color:red;"">3</div>","null","","","","","","","","","","","","",""
"html-keyboard-response","99","594943","0.0-3.0-11.0-10.0-2.0","spark_pilot_norest","8780","4","22","Female","","","","","","","null","<div style=""font-size:200px;color:red;"">2</div>","null","","","","","","","","","","","","",""
"html-keyboard-response","100","595951","0.0-3.0-11.0-10.0-3.0","spark_pilot_norest","8780","4","22","Female","","","","","","","null","<div style=""font-size:200px;color:red;"">1</div>","null","","","","","","","","","","","","",""
"revaluation","101","596499","0.0-3.0-11.0-11.0-0.0","spark_pilot_norest","8780","4","22","Female","","false","","","","","[544]","./assets/img/space/animals/cat.jpg","[""ArrowRight""]","practice block","space","0","{""ArrowUp,ArrowLeft"":3,""ArrowUp,ArrowRight"":36,""ArrowDown,ArrowLeft"":15,""ArrowDown,ArrowRight"":23}","true","ArrowUp,ArrowRight","","","","","","",""
"html-keyboard-response","102","597003","0.0-3.0-11.0-11.0-1.0","spark_pilot_norest","8780","4","22","Female","","","","","","","null","<div style=""font-size:60px;"">+</div>","null","fixation","","","","","","","","","","","",""
"revaluation","103","597587","0.0-3.0-11.0-11.0-0.1","spark_pilot_norest","8780","4","22","Female","","false","","","","","[581.0999999940395]","./assets/img/space/animals/rabbit.jpg","[""ArrowRight""]","practice block","space","0","{""ArrowUp,ArrowLeft"":3,""ArrowUp,ArrowRight"":36,""ArrowDown,ArrowLeft"":15,""ArrowDown,ArrowRight"":23}","true","ArrowDown,ArrowRight","","","","","","",""
"html-keyboard-response","104","598094","0.0-3.0-11.0-11.0-1.1","spark_pilot_norest","8780","4","22","Female","","","","","","","null","<div style=""font-size:60px;"">+</div>","null","fixation","","","","","","","","","","","",""
"learning-instructions","105","603698","0.0-3.0-12.0-0.0","spark_pilot_norest","8780","4","22","Female","","","","","","","982.5","<p> Before you start, we're going to ask you a few questions about how the game works. </p>","","instructions","","","","","","","","","","","",""
"comp-q","106","614090","0.0-3.0-13.0-0.0-0.0","spark_pilot_norest","8780","4","22","Female","","","","","","","4774.5999999940395","<p> <b> True or False? </b> </p>
            <p> There can be 50 pieces of treasure in a given animal's chest. </p>","0","comp_question","","","","false","","","","","","","",""
"comp-q","107","621711","0.0-3.0-13.0-0.0-1.0","spark_pilot_norest","8780","4","22","Female","","","","","","","1089.7000000178814","<p> <b>Incorrect.</b> The amount of treasure in each chest can range from 0 to 40 pieces. </p>","0","comp_answer","","","","","","","","","","","",""
"comp-q","108","628359","0.0-3.0-13.0-0.1-0.1","spark_pilot_norest","8780","4","22","Female","","","","","","","1084.3999999761581","<p> <b> True or False? </b> </p>
            <p> There can be 50 pieces of treasure in a given animal's chest. </p>","1","comp_question","","","","true","","","","","","","",""
"comp-q","109","636089","0.0-3.0-13.0-0.1-1.1","spark_pilot_norest","8780","4","22","Female","","","","","","","1036.199999988079","<p> <b> That's right! </b> The amount of treasure in each chest can range from 0 to 40 pieces. </p>","0","comp_answer","","","","","","","","","","","",""
"comp-q","110","645999","0.0-3.0-13.0-0.2-0.2","spark_pilot_norest","8780","4","22","Female","","","","","","","2750.9000000059605","<p> <b> True or False? </b> </p><p> In this game, all animals have the same amount of treasure in their left and right chests. </p>","1","comp_question","","","","true","","","","","","","",""
"comp-q","111","653753","0.0-3.0-13.0-0.2-1.2","spark_pilot_norest","8780","4","22","Female","","","","","","","2494.300000011921","<p> <b> That's right! </b> Animals have different amounts of treasure in their treasure chests. </p>","0","comp_answer","","","","","","","","","","","",""
"comp-q","112","662628","0.0-3.0-13.0-0.3-0.3","spark_pilot_norest","8780","4","22","Female","","","","","","","2999.5","<p> <b> True or False? </b> </p><p> The same animal will always be there if you go up in the same place. </p>","1","comp_question","","","","false","","","","","","","",""
"comp-q","113","669745","0.0-3.0-13.0-0.3-1.3","spark_pilot_norest","8780","4","22","Female","","","","","","","782.2000000178814","<p> <b>Incorrect.</b> One animal lives in the upper part and one lives in the lower part of every place. </p>","0","comp_answer","","","","","","","","","","","",""
"comp-q","114","677873","0.0-3.0-13.0-0.4-0.4","spark_pilot_norest","8780","4","22","Female","","","","","","","2304.300000011921","<p> <b> True or False? </b> </p><p> The same animal will always be there if you go up in the same place. </p>","1","comp_question","","","","false","","","","","","","",""
"comp-q","115","684961","0.0-3.0-13.0-0.4-1.4","spark_pilot_norest","8780","4","22","Female","","","","","","","808.5","<p> <b>Incorrect.</b> One animal lives in the upper part and one lives in the lower part of every place. </p>","0","comp_answer","","","","","","","","","","","",""
"comp-q","116","691433","0.0-3.0-13.0-0.5-0.5","spark_pilot_norest","8780","4","22","Female","","","","","","","651.2999999821186","<p> <b> True or False? </b> </p><p> The same animal will always be there if you go up in the same place. </p>","0","comp_question","","","","true","","","","","","","",""
"comp-q","117","703019","0.0-3.0-13.0-0.5-1.5","spark_pilot_norest","8780","4","22","Female","","","","","","","5109.700000017881","<p> <b> That's right! </b> One animal lives in the upper part and one lives in the lower part of every place. </p>","0","comp_answer","","","","","","","","","","","",""
"comp-q","118","724443","0.0-3.0-13.0-0.6-0.6","spark_pilot_norest","8780","4","22","Female","","","","","","","15876.600000023842","<p> <b> True or False? </b> </p><p> If you see a different picture, it means you are in a new place. </p>","0","comp_question","","","","false","","","","","","","",""
"comp-q","119","736523","0.0-3.0-13.0-0.6-1.6","spark_pilot_norest","8780","4","22","Female","","","","","","","941.7999999821186","<p> <b>Incorrect.</b> Lots of different images may show the same place. For example,  you may see three different images that all remind you that you are in outer space. </p>","0","comp_answer","","","","","","","","","","","",""
"comp-q","120","743817","0.0-3.0-13.0-0.7-0.7","spark_pilot_norest","8780","4","22","Female","","","","","","[{""event"":""fullscreenenter"",""trial"":2,""time"":40433},{""event"":""blur"",""trial"":121,""time"":746434},{""event"":""focus"",""trial"":121,""time"":748353}]","1792.5","<p> <b> True or False? </b> </p><p> If you see a different picture, it means you are in a new place. </p>","1","comp_question","","","","true","","","","","","","",""
"comp-q","121","757667","0.0-3.0-13.0-0.7-1.7","spark_pilot_norest","8780","4","22","Female","","","","","","","2570.5999999940395","<p> <b> That's right! </b> Lots of different images may show the same place. For example,  you may see three different images that all remind you that you are in outer space. </p>","0","comp_answer","","","","","","","","","","","",""
"learning-instructions","122","769163","0.0-3.0-14.0-0.0","spark_pilot_norest","8780","4","22","Female","","","","","","","1604.2999999821186","<p> Good job. Remember to do your best because the amount of treasure you earn will be converted into bonus money. </p>
            <p> It’s time to start the real game! </p>","","instructions","","","","","","","","","","","",""
"learning-instructions","123","773944","0.0-4.0-0.0-0.0","spark_pilot_norest","8780","4","22","Female","","","","","","","2060.7000000178814","<p> This time you are searching for treasure in the <b>ocean</b>.</p>","","instructions","","","","","","","","","","","",""
"learning-instructions","124","797049","0.0-4.0-0.0-0.1","spark_pilot_norest","8780","4","22","Female","","","","","","","5749.4000000059605","<p><b>New</b> animals with <b>new</b> treasure chests live here. You need to explore to discover where the animal with the best treasure chest is.</p>
                    <p> Like before, once you figure out which animal has the chest with the most treasure, you should try to get to that animal and select that chest! </p>","","instructions","","","","","","","","","","","",""
"learning-instructions","125","813966","0.0-4.0-1.0-0.0","spark_pilot_norest","8780","4","22","Female","","","","","","","2187.4000000059605","<p> Remember, when you see a picture of the place, use the up and down keys to <b>find an animal</b>.</p>
            <p> When you encounter an animal, you should use the left and right keys to <b>select a treasure chest</b>.</p>
            <p> Don't forget to look out for the robber! </p>","","instructions","","","","","","","","","","","",""
"revaluation","126","819991","0.0-4.0-2.0-0.0","spark_pilot_norest","8780","4","22","Female","","false","","","","","[1359,1307.5999999940395]","./assets/img/ocean/memory/7.jpg","[""ArrowUp"",""ArrowRight""]","value training","ocean","10","{""ArrowUp,ArrowLeft"":26,""ArrowUp,ArrowRight"":10,""ArrowDown,ArrowLeft"":5,""ArrowDown,ArrowRight"":17}","false","ArrowUp,ArrowRight","false","revaluation","1","0","","",""
"html-keyboard-response","127","820506","0.0-4.0-2.0-1.0","spark_pilot_norest","8780","4","22","Female","","","","","","","null","<div style=""font-size:60px;"">+</div>","null","fixation","","","","","","","","","1","","",""
"revaluation","128","826534","0.0-4.0-2.0-0.1","spark_pilot_norest","8780","4","22","Female","","false","","","","","[1263.9000000059605,678]","./assets/img/ocean/memory/14.jpg","[""ArrowUp"",""ArrowLeft""]","value training","ocean","26","{""ArrowUp,ArrowLeft"":26,""ArrowUp,ArrowRight"":10,""ArrowDown,ArrowLeft"":5,""ArrowDown,ArrowRight"":17}","true","ArrowUp,ArrowLeft","false","revaluation","1","2","","",""
"html-keyboard-response","129","827042","0.0-4.0-2.0-1.1","spark_pilot_norest","8780","4","22","Female","","","","","","","null","<div style=""font-size:60px;"">+</div>","null","fixation","","","","","","","","","3","","",""
"revaluation","130","831062","0.0-4.0-2.0-0.2","spark_pilot_norest","8780","4","22","Female","","false","","","","","[715.7999999821186]","./assets/img/ocean/catch/7.jpg","[""ArrowDown""]","value training","ocean","-10","{""ArrowUp,ArrowLeft"":26,""ArrowUp,ArrowRight"":10,""ArrowDown,ArrowLeft"":5,""ArrowDown,ArrowRight"":17}","false","ArrowDown","true","revaluation","1","4","","",""
"html-keyboard-response","131","831567","0.0-4.0-2.0-1.2","spark_pilot_norest","8780","4","22","Female","","","","","","","null","<div style=""font-size:60px;"">+</div>","null","fixation","","","","","","","","","5","","",""
"revaluation","132","835582","0.0-4.0-2.0-0.3","spark_pilot_norest","8780","4","22","Female","","false","","","","","[698.1999999880791]","./assets/img/ocean/catch/2.jpg","[""spaceBar""]","value training","ocean","0","{""ArrowUp,ArrowLeft"":26,""ArrowUp,ArrowRight"":10,""ArrowDown,ArrowLeft"":5,""ArrowDown,ArrowRight"":17}","true","spaceBar","true","revaluation","1","6","","",""
"html-keyboard-response","133","836088","0.0-4.0-2.0-1.3","spark_pilot_norest","8780","4","22","Female","","","","","","","null","<div style=""font-size:60px;"">+</div>","null","fixation","","","","","","","","","7","","",""
"revaluation","134","842120","0.0-4.0-2.0-0.4","spark_pilot_norest","8780","4","22","Female","","false","","","","","[1112.199999988079,1429.199999988079]","./assets/img/ocean/memory/22.jpg","[""ArrowDown"",""ArrowRight""]","value training","ocean","17","{""ArrowUp,ArrowLeft"":26,""ArrowUp,ArrowRight"":10,""ArrowDown,ArrowLeft"":5,""ArrowDown,ArrowRight"":17}","false","ArrowDown,ArrowRight","false","revaluation","1","8","","",""
"html-keyboard-response","135","842630","0.0-4.0-2.0-1.4","spark_pilot_norest","8780","4","22","Female","","","","","","","null","<div style=""font-size:60px;"">+</div>","null","fixation","","","","","","","","","9","","",""
"revaluation","136","848656","0.0-4.0-2.0-0.5","spark_pilot_norest","8780","4","22","Female","","false","","","","","[1023.4000000059605,537.8000000119209]","./assets/img/ocean/memory/39.jpg","[""ArrowDown"",""ArrowLeft""]","value training","ocean","5","{""ArrowUp,ArrowLeft"":26,""ArrowUp,ArrowRight"":10,""ArrowDown,ArrowLeft"":5,""ArrowDown,ArrowRight"":17}","false","ArrowDown,ArrowLeft","false","revaluation","1","10","","",""
"html-keyboard-response","137","849166","0.0-4.0-2.0-1.5","spark_pilot_norest","8780","4","22","Female","","","","","","","null","<div style=""font-size:60px;"">+</div>","null","fixation","","","","","","","","","11","","",""
"revaluation","138","853184","0.0-4.0-2.0-0.6","spark_pilot_norest","8780","4","22","Female","","false","","","","","[1436.800000011921]","./assets/img/ocean/catch/6.jpg","[""spaceBar""]","value training","ocean","0","{""ArrowUp,ArrowLeft"":26,""ArrowUp,ArrowRight"":10,""ArrowDown,ArrowLeft"":5,""ArrowDown,ArrowRight"":17}","true","spaceBar","true","revaluation","1","12","","",""
"html-keyboard-response","139","853694","0.0-4.0-2.0-1.6","spark_pilot_norest","8780","4","22","Female","","","","","","","null","<div style=""font-size:60px;"">+</div>","null","fixation","","","","","","","","","13","","",""
"revaluation","140","859716","0.0-4.0-2.0-0.7","spark_pilot_norest","8780","4","22","Female","","false","","","","","[760.9000000059605,653.5999999940395]","./assets/img/ocean/memory/38.jpg","[""ArrowUp"",""ArrowRight""]","value training","ocean","10","{""ArrowUp,ArrowLeft"":26,""ArrowUp,ArrowRight"":10,""ArrowDown,ArrowLeft"":5,""ArrowDown,ArrowRight"":17}","false","ArrowUp,ArrowRight","false","revaluation","1","14","","",""
"html-keyboard-response","141","860222","0.0-4.0-2.0-1.7","spark_pilot_norest","8780","4","22","Female","","","","","","","null","<div style=""font-size:60px;"">+</div>","null","fixation","","","","","","","","","15","","",""
"revaluation","142","866244","0.0-4.0-2.0-0.8","spark_pilot_norest","8780","4","22","Female","","false","","","","","[1145.4000000059605,417.5]","./assets/img/ocean/memory/29.jpg","[""ArrowDown"",""ArrowRight""]","value training","ocean","17","{""ArrowUp,ArrowLeft"":26,""ArrowUp,ArrowRight"":10,""ArrowDown,ArrowLeft"":5,""ArrowDown,ArrowRight"":17}","false","ArrowDown,ArrowRight","false","revaluation","1","16","","",""
"html-keyboard-response","143","866748","0.0-4.0-2.0-1.8","spark_pilot_norest","8780","4","22","Female","","","","","","","null","<div style=""font-size:60px;"">+</div>","null","fixation","","","","","","","","","17","","",""
"revaluation","144","870765","0.0-4.0-2.0-0.9","spark_pilot_norest","8780","4","22","Female","","false","","","","","[1210.300000011921]","./assets/img/ocean/catch/1.jpg","[""spaceBar""]","value training","ocean","0","{""ArrowUp,ArrowLeft"":26,""ArrowUp,ArrowRight"":10,""ArrowDown,ArrowLeft"":5,""ArrowDown,ArrowRight"":17}","true","spaceBar","true","revaluation","1","18","","",""
"html-keyboard-response","145","871276","0.0-4.0-2.0-1.9","spark_pilot_norest","8780","4","22","Female","","","","","","","null","<div style=""font-size:60px;"">+</div>","null","fixation","","","","","","","","","19","","",""
"revaluation","146","877304","0.0-4.0-2.0-0.10","spark_pilot_norest","8780","4","22","Female","","false","","","","","[1366.2000000178814,572.4000000059605]","./assets/img/ocean/memory/15.jpg","[""ArrowDown"",""ArrowRight""]","value training","ocean","17","{""ArrowUp,ArrowLeft"":26,""ArrowUp,ArrowRight"":10,""ArrowDown,ArrowLeft"":5,""ArrowDown,ArrowRight"":17}","false","ArrowDown,ArrowRight","false","revaluation","1","20","","",""
"html-keyboard-response","147","877812","0.0-4.0-2.0-1.10","spark_pilot_norest","8780","4","22","Female","","","","","","","null","<div style=""font-size:60px;"">+</div>","null","fixation","","","","","","","","","21","","",""
"revaluation","148","883838","0.0-4.0-2.0-0.11","spark_pilot_norest","8780","4","22","Female","","false","","","","","[1595,437.69999998807907]","./assets/img/ocean/memory/38.jpg","[""ArrowDown"",""ArrowRight""]","value training","ocean","17","{""ArrowUp,ArrowLeft"":26,""ArrowUp,ArrowRight"":10,""ArrowDown,ArrowLeft"":5,""ArrowDown,ArrowRight"":17}","false","ArrowDown,ArrowRight","false","revaluation","1","22","","",""
"html-keyboard-response","149","884348","0.0-4.0-2.0-1.11","spark_pilot_norest","8780","4","22","Female","","","","","","","null","<div style=""font-size:60px;"">+</div>","null","fixation","","","","","","","","","23","","",""
"revaluation","150","888366","0.0-4.0-2.0-0.12","spark_pilot_norest","8780","4","22","Female","","false","","","","","[1225.5]","./assets/img/ocean/catch/4.jpg","[""spaceBar""]","value training","ocean","0","{""ArrowUp,ArrowLeft"":26,""ArrowUp,ArrowRight"":10,""ArrowDown,ArrowLeft"":5,""ArrowDown,ArrowRight"":17}","true","spaceBar","true","revaluation","1","24","","",""
"html-keyboard-response","151","888876","0.0-4.0-2.0-1.12","spark_pilot_norest","8780","4","22","Female","","","","","","","null","<div style=""font-size:60px;"">+</div>","null","fixation","","","","","","","","","25","","",""
"revaluation","152","892893","0.0-4.0-2.0-0.13","spark_pilot_norest","8780","4","22","Female","","true","","","","","[]","./assets/img/ocean/memory/22.jpg","[]","value training","ocean","-5","{""ArrowUp,ArrowLeft"":26,""ArrowUp,ArrowRight"":10,""ArrowDown,ArrowLeft"":5,""ArrowDown,ArrowRight"":17}","false","","false","revaluation","1","26","","",""
"html-keyboard-response","153","893403","0.0-4.0-2.0-1.13","spark_pilot_norest","8780","4","22","Female","","","","","","","null","<div style=""font-size:60px;"">+</div>","null","fixation","","","","","","","","","27","","",""
"revaluation","154","899431","0.0-4.0-2.0-0.14","spark_pilot_norest","8780","4","22","Female","","false","","","","","[952,662.8000000119209]","./assets/img/ocean/memory/21.jpg","[""ArrowDown"",""ArrowRight""]","value training","ocean","17","{""ArrowUp,ArrowLeft"":26,""ArrowUp,ArrowRight"":10,""ArrowDown,ArrowLeft"":5,""ArrowDown,ArrowRight"":17}","false","ArrowDown,ArrowRight","false","revaluation","1","28","","",""
"html-keyboard-response","155","899940","0.0-4.0-2.0-1.14","spark_pilot_norest","8780","4","22","Female","","","","","","","null","<div style=""font-size:60px;"">+</div>","null","fixation","","","","","","","","","29","","",""
"revaluation","156","905965","0.0-4.0-2.0-0.15","spark_pilot_norest","8780","4","22","Female","","false","","","","","[863.5999999940395,383.7999999821186]","./assets/img/ocean/memory/5.jpg","[""ArrowDown"",""ArrowRight""]","value training","ocean","17","{""ArrowUp,ArrowLeft"":26,""ArrowUp,ArrowRight"":10,""ArrowDown,ArrowLeft"":5,""ArrowDown,ArrowRight"":17}","false","ArrowDown,ArrowRight","false","revaluation","1","30","","",""
"html-keyboard-response","157","906472","0.0-4.0-2.0-1.15","spark_pilot_norest","8780","4","22","Female","","","","","","","null","<div style=""font-size:60px;"">+</div>","null","fixation","","","","","","","","","31","","",""
"revaluation","158","912497","0.0-4.0-2.0-0.16","spark_pilot_norest","8780","4","22","Female","","false","","","","","[518.5999999940395,433.19999998807907]","./assets/img/ocean/memory/41.jpg","[""ArrowDown"",""ArrowRight""]","value training","ocean","17","{""ArrowUp,ArrowLeft"":26,""ArrowUp,ArrowRight"":10,""ArrowDown,ArrowLeft"":5,""ArrowDown,ArrowRight"":17}","false","ArrowDown,ArrowRight","false","revaluation","1","32","","",""
"html-keyboard-response","159","913002","0.0-4.0-2.0-1.16","spark_pilot_norest","8780","4","22","Female","","","","","","","null","<div style=""font-size:60px;"">+</div>","null","fixation","","","","","","","","","33","","",""
"revaluation","160","919026","0.0-4.0-2.0-0.17","spark_pilot_norest","8780","4","22","Female","","false","","","","","[1034.800000011921,511.69999998807907]","./assets/img/ocean/memory/23.jpg","[""ArrowDown"",""ArrowRight""]","value training","ocean","17","{""ArrowUp,ArrowLeft"":26,""ArrowUp,ArrowRight"":10,""ArrowDown,ArrowLeft"":5,""ArrowDown,ArrowRight"":17}","false","ArrowDown,ArrowRight","false","revaluation","1","34","","",""
"html-keyboard-response","161","919530","0.0-4.0-2.0-1.17","spark_pilot_norest","8780","4","22","Female","","","","","","","null","<div style=""font-size:60px;"">+</div>","null","fixation","","","","","","","","","35","","",""
"revaluation","162","925556","0.0-4.0-2.0-0.18","spark_pilot_norest","8780","4","22","Female","","false","","","","","[740.3000000119209,450.09999999403954]","./assets/img/ocean/memory/6.jpg","[""ArrowDown"",""ArrowRight""]","value training","ocean","17","{""ArrowUp,ArrowLeft"":26,""ArrowUp,ArrowRight"":10,""ArrowDown,ArrowLeft"":5,""ArrowDown,ArrowRight"":17}","false","ArrowDown,ArrowRight","false","revaluation","1","36","","",""
"html-keyboard-response","163","926066","0.0-4.0-2.0-1.18","spark_pilot_norest","8780","4","22","Female","","","","","","","null","<div style=""font-size:60px;"">+</div>","null","fixation","","","","","","","","","37","","",""
"revaluation","164","932092","0.0-4.0-2.0-0.19","spark_pilot_norest","8780","4","22","Female","","false","","","","","[819.3999999761581,1438.2000000178814]","./assets/img/ocean/memory/23.jpg","[""ArrowDown"",""ArrowRight""]","value training","ocean","17","{""ArrowUp,ArrowLeft"":26,""ArrowUp,ArrowRight"":10,""ArrowDown,ArrowLeft"":5,""ArrowDown,ArrowRight"":17}","false","ArrowDown,ArrowRight","false","revaluation","1","38","","",""
"html-keyboard-response","165","932603","0.0-4.0-2.0-1.19","spark_pilot_norest","8780","4","22","Female","","","","","","","null","<div style=""font-size:60px;"">+</div>","null","fixation","","","","","","","","","39","","",""
"revaluation","166","938634","0.0-4.0-2.0-0.20","spark_pilot_norest","8780","4","22","Female","","false","","","","","[497.69999998807907,548.5]","./assets/img/ocean/memory/37.jpg","[""ArrowDown"",""ArrowRight""]","value training","ocean","17","{""ArrowUp,ArrowLeft"":26,""ArrowUp,ArrowRight"":10,""ArrowDown,ArrowLeft"":5,""ArrowDown,ArrowRight"":17}","false","ArrowDown,ArrowRight","false","revaluation","1","40","","",""
"html-keyboard-response","167","939144","0.0-4.0-2.0-1.20","spark_pilot_norest","8780","4","22","Female","","","","","","","null","<div style=""font-size:60px;"">+</div>","null","fixation","","","","","","","","","41","","",""
"revaluation","168","943161","0.0-4.0-2.0-0.21","spark_pilot_norest","8780","4","22","Female","","false","","","","","[518.7000000178814]","./assets/img/ocean/catch/5.jpg","[""ArrowDown""]","value training","ocean","-10","{""ArrowUp,ArrowLeft"":26,""ArrowUp,ArrowRight"":10,""ArrowDown,ArrowLeft"":5,""ArrowDown,ArrowRight"":17}","false","ArrowDown","true","revaluation","1","42","","",""
"html-keyboard-response","169","943674","0.0-4.0-2.0-1.21","spark_pilot_norest","8780","4","22","Female","","","","","","","null","<div style=""font-size:60px;"">+</div>","null","fixation","","","","","","","","","43","","",""
"revaluation","170","949704","0.0-4.0-2.0-0.22","spark_pilot_norest","8780","4","22","Female","","false","","","","","[1881.699999988079,781.1999999880791]","./assets/img/ocean/memory/32.jpg","[""ArrowDown"",""ArrowRight""]","value training","ocean","17","{""ArrowUp,ArrowLeft"":26,""ArrowUp,ArrowRight"":10,""ArrowDown,ArrowLeft"":5,""ArrowDown,ArrowRight"":17}","false","ArrowDown,ArrowRight","false","revaluation","1","44","","",""
"html-keyboard-response","171","950210","0.0-4.0-2.0-1.22","spark_pilot_norest","8780","4","22","Female","","","","","","","null","<div style=""font-size:60px;"">+</div>","null","fixation","","","","","","","","","45","","",""
"revaluation","172","956240","0.0-4.0-2.0-0.23","spark_pilot_norest","8780","4","22","Female","","false","","","","","[914.0999999940395,1353.7000000178814]","./assets/img/ocean/memory/19.jpg","[""ArrowDown"",""ArrowRight""]","value training","ocean","17","{""ArrowUp,ArrowLeft"":26,""ArrowUp,ArrowRight"":10,""ArrowDown,ArrowLeft"":5,""ArrowDown,ArrowRight"":17}","false","ArrowDown,ArrowRight","false","revaluation","1","46","","",""
"html-keyboard-response","173","956744","0.0-4.0-2.0-1.23","spark_pilot_norest","8780","4","22","Female","","","","","","","null","<div style=""font-size:60px;"">+</div>","null","fixation","","","","","","","","","47","","",""
"revaluation","174","962769","0.0-4.0-2.0-0.24","spark_pilot_norest","8780","4","22","Female","","false","","","","","[1326.9000000059605,714]","./assets/img/ocean/memory/24.jpg","[""ArrowDown"",""ArrowRight""]","value training","ocean","17","{""ArrowUp,ArrowLeft"":26,""ArrowUp,ArrowRight"":10,""ArrowDown,ArrowLeft"":5,""ArrowDown,ArrowRight"":17}","false","ArrowDown,ArrowRight","false","revaluation","1","48","","",""
"html-keyboard-response","175","963282","0.0-4.0-2.0-1.24","spark_pilot_norest","8780","4","22","Female","","","","","","","null","<div style=""font-size:60px;"">+</div>","null","fixation","","","","","","","","","49","","",""
"revaluation","176","969312","0.0-4.0-2.0-0.25","spark_pilot_norest","8780","4","22","Female","","false","","","","","[838.5999999940395,809.8999999761581]","./assets/img/ocean/memory/26.jpg","[""ArrowDown"",""ArrowRight""]","value training","ocean","17","{""ArrowUp,ArrowLeft"":26,""ArrowUp,ArrowRight"":10,""ArrowDown,ArrowLeft"":5,""ArrowDown,ArrowRight"":17}","false","ArrowDown,ArrowRight","false","revaluation","1","50","","",""
"html-keyboard-response","177","969822","0.0-4.0-2.0-1.25","spark_pilot_norest","8780","4","22","Female","","","","","","","null","<div style=""font-size:60px;"">+</div>","null","fixation","","","","","","","","","51","","",""
"revaluation","178","975847","0.0-4.0-2.0-0.26","spark_pilot_norest","8780","4","22","Female","","false","","","","","[750,689]","./assets/img/ocean/memory/6.jpg","[""ArrowDown"",""ArrowRight""]","value training","ocean","17","{""ArrowUp,ArrowLeft"":26,""ArrowUp,ArrowRight"":10,""ArrowDown,ArrowLeft"":5,""ArrowDown,ArrowRight"":17}","false","ArrowDown,ArrowRight","false","revaluation","1","52","","",""
"html-keyboard-response","179","976358","0.0-4.0-2.0-1.26","spark_pilot_norest","8780","4","22","Female","","","","","","","null","<div style=""font-size:60px;"">+</div>","null","fixation","","","","","","","","","53","","",""
"revaluation","180","982383","0.0-4.0-2.0-0.27","spark_pilot_norest","8780","4","22","Female","","false","","","","","[1093.0999999940395,404.7000000178814]","./assets/img/ocean/memory/24.jpg","[""ArrowDown"",""ArrowRight""]","value training","ocean","17","{""ArrowUp,ArrowLeft"":26,""ArrowUp,ArrowRight"":10,""ArrowDown,ArrowLeft"":5,""ArrowDown,ArrowRight"":17}","false","ArrowDown,ArrowRight","false","revaluation","1","54","","",""
"html-keyboard-response","181","982893","0.0-4.0-2.0-1.27","spark_pilot_norest","8780","4","22","Female","","","","","","","null","<div style=""font-size:60px;"">+</div>","null","fixation","","","","","","","","","55","","",""
"revaluation","182","988920","0.0-4.0-2.0-0.28","spark_pilot_norest","8780","4","22","Female","","false","","","","","[812.7999999821186,420.19999998807907]","./assets/img/ocean/memory/37.jpg","[""ArrowDown"",""ArrowRight""]","value training","ocean","17","{""ArrowUp,ArrowLeft"":26,""ArrowUp,ArrowRight"":10,""ArrowDown,ArrowLeft"":5,""ArrowDown,ArrowRight"":17}","false","ArrowDown,ArrowRight","false","revaluation","1","56","","",""
"html-keyboard-response","183","989432","0.0-4.0-2.0-1.28","spark_pilot_norest","8780","4","22","Female","","","","","","","null","<div style=""font-size:60px;"">+</div>","null","fixation","","","","","","","","","57","","",""
"revaluation","184","995464","0.0-4.0-2.0-0.29","spark_pilot_norest","8780","4","22","Female","","false","","","","","[809.8000000119209,321]","./assets/img/ocean/memory/21.jpg","[""ArrowDown"",""ArrowRight""]","value training","ocean","17","{""ArrowUp,ArrowLeft"":26,""ArrowUp,ArrowRight"":10,""ArrowDown,ArrowLeft"":5,""ArrowDown,ArrowRight"":17}","false","ArrowDown,ArrowRight","false","revaluation","1","58","","",""
"html-keyboard-response","185","995971","0.0-4.0-2.0-1.29","spark_pilot_norest","8780","4","22","Female","","","","","","","null","<div style=""font-size:60px;"">+</div>","null","fixation","","","","","","","","","59","","",""
"revaluation","186","1001998","0.0-4.0-2.0-0.30","spark_pilot_norest","8780","4","22","Female","","false","","","","","[1247.5999999940395,373.19999998807907]","./assets/img/ocean/memory/0.jpg","[""ArrowDown"",""ArrowRight""]","value training","ocean","17","{""ArrowUp,ArrowLeft"":26,""ArrowUp,ArrowRight"":10,""ArrowDown,ArrowLeft"":5,""ArrowDown,ArrowRight"":17}","false","ArrowDown,ArrowRight","false","revaluation","1","60","","",""
"html-keyboard-response","187","1002508","0.0-4.0-2.0-1.30","spark_pilot_norest","8780","4","22","Female","","","","","","","null","<div style=""font-size:60px;"">+</div>","null","fixation","","","","","","","","","61","","",""
"revaluation","188","1008533","0.0-4.0-2.0-0.31","spark_pilot_norest","8780","4","22","Female","","false","","","","","[733.8000000119209,469.30000001192093]","./assets/img/ocean/memory/27.jpg","[""ArrowDown"",""ArrowRight""]","value training","ocean","17","{""ArrowUp,ArrowLeft"":26,""ArrowUp,ArrowRight"":10,""ArrowDown,ArrowLeft"":5,""ArrowDown,ArrowRight"":17}","false","ArrowDown,ArrowRight","false","revaluation","1","62","","",""
"html-keyboard-response","189","1009038","0.0-4.0-2.0-1.31","spark_pilot_norest","8780","4","22","Female","","","","","","","null","<div style=""font-size:60px;"">+</div>","null","fixation","","","","","","","","","63","","",""
"revaluation","190","1015070","0.0-4.0-2.0-0.32","spark_pilot_norest","8780","4","22","Female","","false","","","","","[390.09999999403954,529.1000000238419]","./assets/img/ocean/memory/19.jpg","[""ArrowDown"",""ArrowRight""]","value training","ocean","17","{""ArrowUp,ArrowLeft"":26,""ArrowUp,ArrowRight"":10,""ArrowDown,ArrowLeft"":5,""ArrowDown,ArrowRight"":17}","false","ArrowDown,ArrowRight","false","revaluation","1","64","","",""
"html-keyboard-response","191","1015580","0.0-4.0-2.0-1.32","spark_pilot_norest","8780","4","22","Female","","","","","","","null","<div style=""font-size:60px;"">+</div>","null","fixation","","","","","","","","","65","","",""
"revaluation","192","1021606","0.0-4.0-2.0-0.33","spark_pilot_norest","8780","4","22","Female","","false","","","","","[761.2000000178814,334.40000000596046]","./assets/img/ocean/memory/13.jpg","[""ArrowDown"",""ArrowRight""]","value training","ocean","17","{""ArrowUp,ArrowLeft"":26,""ArrowUp,ArrowRight"":10,""ArrowDown,ArrowLeft"":5,""ArrowDown,ArrowRight"":17}","false","ArrowDown,ArrowRight","false","revaluation","1","66","","",""
"html-keyboard-response","193","1022118","0.0-4.0-2.0-1.33","spark_pilot_norest","8780","4","22","Female","","","","","","","null","<div style=""font-size:60px;"">+</div>","null","fixation","","","","","","","","","67","","",""
"revaluation","194","1028147","0.0-4.0-2.0-0.34","spark_pilot_norest","8780","4","22","Female","","false","","","","","[785,466.30000001192093]","./assets/img/ocean/memory/0.jpg","[""ArrowDown"",""ArrowRight""]","value training","ocean","17","{""ArrowUp,ArrowLeft"":26,""ArrowUp,ArrowRight"":10,""ArrowDown,ArrowLeft"":5,""ArrowDown,ArrowRight"":17}","false","ArrowDown,ArrowRight","false","revaluation","1","68","","",""
"html-keyboard-response","195","1028655","0.0-4.0-2.0-1.34","spark_pilot_norest","8780","4","22","Female","","","","","","","null","<div style=""font-size:60px;"">+</div>","null","fixation","","","","","","","","","69","","",""
"revaluation","196","1034683","0.0-4.0-2.0-0.35","spark_pilot_norest","8780","4","22","Female","","false","","","","","[1093.5999999940395,862.1999999880791]","./assets/img/ocean/memory/14.jpg","[""ArrowDown"",""ArrowRight""]","value training","ocean","17","{""ArrowUp,ArrowLeft"":26,""ArrowUp,ArrowRight"":10,""ArrowDown,ArrowLeft"":5,""ArrowDown,ArrowRight"":17}","false","ArrowDown,ArrowRight","false","revaluation","1","70","","",""
"html-keyboard-response","197","1035191","0.0-4.0-2.0-1.35","spark_pilot_norest","8780","4","22","Female","","","","","","","null","<div style=""font-size:60px;"">+</div>","null","fixation","","","","","","","","","71","","",""
"revaluation","198","1041219","0.0-4.0-2.0-0.36","spark_pilot_norest","8780","4","22","Female","","false","","","","","[883.0999999940395,524.4000000059605]","./assets/img/ocean/memory/35.jpg","[""ArrowDown"",""ArrowRight""]","value training","ocean","17","{""ArrowUp,ArrowLeft"":26,""ArrowUp,ArrowRight"":10,""ArrowDown,ArrowLeft"":5,""ArrowDown,ArrowRight"":17}","false","ArrowDown,ArrowRight","false","revaluation","1","72","","",""
"html-keyboard-response","199","1041725","0.0-4.0-2.0-1.36","spark_pilot_norest","8780","4","22","Female","","","","","","","null","<div style=""font-size:60px;"">+</div>","null","fixation","","","","","","","","","73","","",""
"revaluation","200","1047755","0.0-4.0-2.0-0.37","spark_pilot_norest","8780","4","22","Female","","false","","","","","[657.9000000059605,406.39999997615814]","./assets/img/ocean/memory/32.jpg","[""ArrowDown"",""ArrowRight""]","value training","ocean","17","{""ArrowUp,ArrowLeft"":26,""ArrowUp,ArrowRight"":10,""ArrowDown,ArrowLeft"":5,""ArrowDown,ArrowRight"":17}","false","ArrowDown,ArrowRight","false","revaluation","1","74","","",""
"html-keyboard-response","201","1048261","0.0-4.0-2.0-1.37","spark_pilot_norest","8780","4","22","Female","","","","","","","null","<div style=""font-size:60px;"">+</div>","null","fixation","","","","","","","","","75","","",""
"revaluation","202","1052284","0.0-4.0-2.0-0.38","spark_pilot_norest","8780","4","22","Female","","false","","","","","[1268.9000000059605]","./assets/img/ocean/catch/3.jpg","[""spaceBar""]","value training","ocean","0","{""ArrowUp,ArrowLeft"":26,""ArrowUp,ArrowRight"":10,""ArrowDown,ArrowLeft"":5,""ArrowDown,ArrowRight"":17}","true","spaceBar","true","revaluation","1","76","","",""
"html-keyboard-response","203","1052795","0.0-4.0-2.0-1.38","spark_pilot_norest","8780","4","22","Female","","","","","","","null","<div style=""font-size:60px;"">+</div>","null","fixation","","","","","","","","","77","","",""
"revaluation","204","1058822","0.0-4.0-2.0-0.39","spark_pilot_norest","8780","4","22","Female","","false","","","","","[810.9000000059605,521.0999999940395]","./assets/img/ocean/memory/29.jpg","[""ArrowDown"",""ArrowRight""]","value training","ocean","17","{""ArrowUp,ArrowLeft"":26,""ArrowUp,ArrowRight"":10,""ArrowDown,ArrowLeft"":5,""ArrowDown,ArrowRight"":17}","false","ArrowDown,ArrowRight","false","revaluation","1","78","","",""
"html-keyboard-response","205","1059330","0.0-4.0-2.0-1.39","spark_pilot_norest","8780","4","22","Female","","","","","","","null","<div style=""font-size:60px;"">+</div>","null","fixation","","","","","","","","","79","","",""
"revaluation","206","1065356","0.0-4.0-2.0-0.40","spark_pilot_norest","8780","4","22","Female","","false","","","","","[1123.0999999940395,416.5]","./assets/img/ocean/memory/41.jpg","[""ArrowDown"",""ArrowRight""]","value training","ocean","17","{""ArrowUp,ArrowLeft"":26,""ArrowUp,ArrowRight"":10,""ArrowDown,ArrowLeft"":5,""ArrowDown,ArrowRight"":17}","false","ArrowDown,ArrowRight","false","revaluation","1","80","","",""
"html-keyboard-response","207","1065866","0.0-4.0-2.0-1.40","spark_pilot_norest","8780","4","22","Female","","","","","","","null","<div style=""font-size:60px;"">+</div>","null","fixation","","","","","","","","","81","","",""
"revaluation","208","1071892","0.0-4.0-2.0-0.41","spark_pilot_norest","8780","4","22","Female","","false","","","","","[656.2999999821186,560.5]","./assets/img/ocean/memory/7.jpg","[""ArrowDown"",""ArrowRight""]","value training","ocean","17","{""ArrowUp,ArrowLeft"":26,""ArrowUp,ArrowRight"":10,""ArrowDown,ArrowLeft"":5,""ArrowDown,ArrowRight"":17}","false","ArrowDown,ArrowRight","false","revaluation","1","82","","",""
"html-keyboard-response","209","1072403","0.0-4.0-2.0-1.41","spark_pilot_norest","8780","4","22","Female","","","","","","","null","<div style=""font-size:60px;"">+</div>","null","fixation","","","","","","","","","83","","",""
"revaluation","210","1078433","0.0-4.0-2.0-0.42","spark_pilot_norest","8780","4","22","Female","","false","","","","","[1009.4000000059605,349]","./assets/img/ocean/memory/39.jpg","[""ArrowDown"",""ArrowRight""]","value training","ocean","17","{""ArrowUp,ArrowLeft"":26,""ArrowUp,ArrowRight"":10,""ArrowDown,ArrowLeft"":5,""ArrowDown,ArrowRight"":17}","false","ArrowDown,ArrowRight","false","revaluation","1","84","","",""
"html-keyboard-response","211","1078943","0.0-4.0-2.0-1.42","spark_pilot_norest","8780","4","22","Female","","","","","","","null","<div style=""font-size:60px;"">+</div>","null","fixation","","","","","","","","","85","","",""
"revaluation","212","1084972","0.0-4.0-2.0-0.43","spark_pilot_norest","8780","4","22","Female","","false","","","","","[853.0999999940395,365.5]","./assets/img/ocean/memory/15.jpg","[""ArrowDown"",""ArrowRight""]","value training","ocean","17","{""ArrowUp,ArrowLeft"":26,""ArrowUp,ArrowRight"":10,""ArrowDown,ArrowLeft"":5,""ArrowDown,ArrowRight"":17}","false","ArrowDown,ArrowRight","false","revaluation","1","86","","",""
"html-keyboard-response","213","1085480","0.0-4.0-2.0-1.43","spark_pilot_norest","8780","4","22","Female","","","","","","","null","<div style=""font-size:60px;"">+</div>","null","fixation","","","","","","","","","87","","",""
"revaluation","214","1091506","0.0-4.0-2.0-0.44","spark_pilot_norest","8780","4","22","Female","","false","","","","","[1188.5999999940395,435.7000000178814]","./assets/img/ocean/memory/5.jpg","[""ArrowDown"",""ArrowRight""]","value training","ocean","17","{""ArrowUp,ArrowLeft"":26,""ArrowUp,ArrowRight"":10,""ArrowDown,ArrowLeft"":5,""ArrowDown,ArrowRight"":17}","false","ArrowDown,ArrowRight","false","revaluation","1","88","","",""
"html-keyboard-response","215","1092015","0.0-4.0-2.0-1.44","spark_pilot_norest","8780","4","22","Female","","","","","","","null","<div style=""font-size:60px;"">+</div>","null","fixation","","","","","","","","","89","","",""
"revaluation","216","1096035","0.0-4.0-2.0-0.45","spark_pilot_norest","8780","4","22","Female","","false","","","","","[1116.7000000178814]","./assets/img/ocean/catch/0.jpg","[""spaceBar""]","value training","ocean","0","{""ArrowUp,ArrowLeft"":26,""ArrowUp,ArrowRight"":10,""ArrowDown,ArrowLeft"":5,""ArrowDown,ArrowRight"":17}","true","spaceBar","true","revaluation","1","90","","",""
"html-keyboard-response","217","1096546","0.0-4.0-2.0-1.45","spark_pilot_norest","8780","4","22","Female","","","","","","","null","<div style=""font-size:60px;"">+</div>","null","fixation","","","","","","","","","91","","",""
"revaluation","218","1102574","0.0-4.0-2.0-0.46","spark_pilot_norest","8780","4","22","Female","","false","","","","","[903.9000000059605,428.09999999403954]","./assets/img/ocean/memory/13.jpg","[""ArrowDown"",""ArrowRight""]","value training","ocean","17","{""ArrowUp,ArrowLeft"":26,""ArrowUp,ArrowRight"":10,""ArrowDown,ArrowLeft"":5,""ArrowDown,ArrowRight"":17}","false","ArrowDown,ArrowRight","false","revaluation","1","92","","",""
"html-keyboard-response","219","1103079","0.0-4.0-2.0-1.46","spark_pilot_norest","8780","4","22","Female","","","","","","","null","<div style=""font-size:60px;"">+</div>","null","fixation","","","","","","","","","93","","",""
"revaluation","220","1109105","0.0-4.0-2.0-0.47","spark_pilot_norest","8780","4","22","Female","","false","","","","","[837.5999999940395,409.69999998807907]","./assets/img/ocean/memory/35.jpg","[""ArrowDown"",""ArrowRight""]","value training","ocean","17","{""ArrowUp,ArrowLeft"":26,""ArrowUp,ArrowRight"":10,""ArrowDown,ArrowLeft"":5,""ArrowDown,ArrowRight"":17}","false","ArrowDown,ArrowRight","false","revaluation","1","94","","",""
"html-keyboard-response","221","1109615","0.0-4.0-2.0-1.47","spark_pilot_norest","8780","4","22","Female","","","","","","","null","<div style=""font-size:60px;"">+</div>","null","fixation","","","","","","","","","95","","",""
"revaluation","222","1115642","0.0-4.0-2.0-0.48","spark_pilot_norest","8780","4","22","Female","","false","","","","","[745.1000000238419,624.1000000238419]","./assets/img/ocean/memory/26.jpg","[""ArrowDown"",""ArrowRight""]","value training","ocean","17","{""ArrowUp,ArrowLeft"":26,""ArrowUp,ArrowRight"":10,""ArrowDown,ArrowLeft"":5,""ArrowDown,ArrowRight"":17}","false","ArrowDown,ArrowRight","false","revaluation","1","96","","",""
"html-keyboard-response","223","1116151","0.0-4.0-2.0-1.48","spark_pilot_norest","8780","4","22","Female","","","","","","","null","<div style=""font-size:60px;"">+</div>","null","fixation","","","","","","","","","97","","",""
"revaluation","224","1122177","0.0-4.0-2.0-0.49","spark_pilot_norest","8780","4","22","Female","","false","","","","","[1314.1000000238419,580.1999999880791]","./assets/img/ocean/memory/27.jpg","[""ArrowDown"",""ArrowRight""]","value training","ocean","17","{""ArrowUp,ArrowLeft"":26,""ArrowUp,ArrowRight"":10,""ArrowDown,ArrowLeft"":5,""ArrowDown,ArrowRight"":17}","false","ArrowDown,ArrowRight","false","revaluation","1","98","","",""
"html-keyboard-response","225","1122690","0.0-4.0-2.0-1.49","spark_pilot_norest","8780","4","22","Female","","","","","","","null","<div style=""font-size:60px;"">+</div>","null","fixation","","","","","","","","","99","","",""
"learning-instructions","226","1157255","0.0-4.0-3.0-0.0","spark_pilot_norest","8780","4","22","Female","","","","","","","21624.90000000596","<p> Now, you will travel with a friend who will choose whether you go up or down first. </p>
            <p> On these turns, you will just see the animal that they found. You will still get to choose which chest to search for treasure.</p>","","instructions","","","","","","","","","","","",""
"revaluation","227","1161268","0.0-4.0-4.0-0.0","spark_pilot_norest","8780","4","22","Female","","false","","","","","[1204.2000000178814]","./assets/img/ocean/animals/octopus.jpg","[""ArrowRight""]","revaluation","ocean","11","{""ArrowUp,ArrowLeft"":2,""ArrowUp,ArrowRight"":11,""ArrowDown,ArrowLeft"":8,""ArrowDown,ArrowRight"":27}","true","ArrowUp,ArrowRight","","revaluation","1","0","","",""
"html-keyboard-response","228","1161783","0.0-4.0-4.0-1.0","spark_pilot_norest","8780","4","22","Female","","","","","","","null","<div style=""font-size:60px;"">+</div>","null","fixation","","","","","","","","","1","","",""
"revaluation","229","1165805","0.0-4.0-4.0-0.1","spark_pilot_norest","8780","4","22","Female","","false","","","","","[412.60000002384186]","./assets/img/ocean/animals/octopus.jpg","[""ArrowLeft""]","revaluation","ocean","2","{""ArrowUp,ArrowLeft"":2,""ArrowUp,ArrowRight"":11,""ArrowDown,ArrowLeft"":8,""ArrowDown,ArrowRight"":27}","false","ArrowUp,ArrowLeft","","revaluation","1","2","","",""
"html-keyboard-response","230","1166316","0.0-4.0-4.0-1.1","spark_pilot_norest","8780","4","22","Female","","","","","","","null","<div style=""font-size:60px;"">+</div>","null","fixation","","","","","","","","","3","","",""
"revaluation","231","1170333","0.0-4.0-4.0-0.2","spark_pilot_norest","8780","4","22","Female","","false","","","","","[322.7000000178814]","./assets/img/ocean/animals/octopus.jpg","[""ArrowRight""]","revaluation","ocean","11","{""ArrowUp,ArrowLeft"":2,""ArrowUp,ArrowRight"":11,""ArrowDown,ArrowLeft"":8,""ArrowDown,ArrowRight"":27}","true","ArrowUp,ArrowRight","","revaluation","1","4","","",""
"html-keyboard-response","232","1170843","0.0-4.0-4.0-1.2","spark_pilot_norest","8780","4","22","Female","","","","","","","null","<div style=""font-size:60px;"">+</div>","null","fixation","","","","","","","","","5","","",""
"revaluation","233","1174862","0.0-4.0-4.0-0.3","spark_pilot_norest","8780","4","22","Female","","false","","","","","[450.5]","./assets/img/ocean/animals/seahorse.jpg","[""ArrowRight""]","revaluation","ocean","27","{""ArrowUp,ArrowLeft"":2,""ArrowUp,ArrowRight"":11,""ArrowDown,ArrowLeft"":8,""ArrowDown,ArrowRight"":27}","true","ArrowDown,ArrowRight","","revaluation","1","6","","",""
"html-keyboard-response","234","1175370","0.0-4.0-4.0-1.3","spark_pilot_norest","8780","4","22","Female","","","","","","","null","<div style=""font-size:60px;"">+</div>","null","fixation","","","","","","","","","7","","",""
"revaluation","235","1179388","0.0-4.0-4.0-0.4","spark_pilot_norest","8780","4","22","Female","","false","","","","","[504.59999999403954]","./assets/img/ocean/animals/seahorse.jpg","[""ArrowRight""]","revaluation","ocean","27","{""ArrowUp,ArrowLeft"":2,""ArrowUp,ArrowRight"":11,""ArrowDown,ArrowLeft"":8,""ArrowDown,ArrowRight"":27}","true","ArrowDown,ArrowRight","","revaluation","1","8","","",""
"html-keyboard-response","236","1179898","0.0-4.0-4.0-1.4","spark_pilot_norest","8780","4","22","Female","","","","","","","null","<div style=""font-size:60px;"">+</div>","null","fixation","","","","","","","","","9","","",""
"revaluation","237","1183918","0.0-4.0-4.0-0.5","spark_pilot_norest","8780","4","22","Female","","false","","","","","[437.19999998807907]","./assets/img/ocean/animals/seahorse.jpg","[""ArrowRight""]","revaluation","ocean","27","{""ArrowUp,ArrowLeft"":2,""ArrowUp,ArrowRight"":11,""ArrowDown,ArrowLeft"":8,""ArrowDown,ArrowRight"":27}","true","ArrowDown,ArrowRight","","revaluation","1","10","","",""
"html-keyboard-response","238","1184425","0.0-4.0-4.0-1.5","spark_pilot_norest","8780","4","22","Female","","","","","","","null","<div style=""font-size:60px;"">+</div>","null","fixation","","","","","","","","","11","","",""
"revaluation","239","1188443","0.0-4.0-4.0-0.6","spark_pilot_norest","8780","4","22","Female","","false","","","","","[959.8000000119209]","./assets/img/ocean/animals/octopus.jpg","[""ArrowRight""]","revaluation","ocean","11","{""ArrowUp,ArrowLeft"":2,""ArrowUp,ArrowRight"":11,""ArrowDown,ArrowLeft"":8,""ArrowDown,ArrowRight"":27}","true","ArrowUp,ArrowRight","","revaluation","1","12","","",""
"html-keyboard-response","240","1188948","0.0-4.0-4.0-1.6","spark_pilot_norest","8780","4","22","Female","","","","","","","null","<div style=""font-size:60px;"">+</div>","null","fixation","","","","","","","","","13","","",""
"revaluation","241","1192967","0.0-4.0-4.0-0.7","spark_pilot_norest","8780","4","22","Female","","false","","","","","[591.2999999821186]","./assets/img/ocean/animals/octopus.jpg","[""ArrowRight""]","revaluation","ocean","11","{""ArrowUp,ArrowLeft"":2,""ArrowUp,ArrowRight"":11,""ArrowDown,ArrowLeft"":8,""ArrowDown,ArrowRight"":27}","true","ArrowUp,ArrowRight","","revaluation","1","14","","",""
"html-keyboard-response","242","1193475","0.0-4.0-4.0-1.7","spark_pilot_norest","8780","4","22","Female","","","","","","","null","<div style=""font-size:60px;"">+</div>","null","fixation","","","","","","","","","15","","",""
"revaluation","243","1197493","0.0-4.0-4.0-0.8","spark_pilot_norest","8780","4","22","Female","","false","","","","","[482.09999999403954]","./assets/img/ocean/animals/seahorse.jpg","[""ArrowRight""]","revaluation","ocean","27","{""ArrowUp,ArrowLeft"":2,""ArrowUp,ArrowRight"":11,""ArrowDown,ArrowLeft"":8,""ArrowDown,ArrowRight"":27}","true","ArrowDown,ArrowRight","","revaluation","1","16","","",""
"html-keyboard-response","244","1198003","0.0-4.0-4.0-1.8","spark_pilot_norest","8780","4","22","Female","","","","","","","null","<div style=""font-size:60px;"">+</div>","null","fixation","","","","","","","","","17","","",""
"revaluation","245","1202022","0.0-4.0-4.0-0.9","spark_pilot_norest","8780","4","22","Female","","false","","","","","[436]","./assets/img/ocean/animals/octopus.jpg","[""ArrowRight""]","revaluation","ocean","11","{""ArrowUp,ArrowLeft"":2,""ArrowUp,ArrowRight"":11,""ArrowDown,ArrowLeft"":8,""ArrowDown,ArrowRight"":27}","true","ArrowUp,ArrowRight","","revaluation","1","18","","",""
"html-keyboard-response","246","1202533","0.0-4.0-4.0-1.9","spark_pilot_norest","8780","4","22","Female","","","","","","","null","<div style=""font-size:60px;"">+</div>","null","fixation","","","","","","","","","19","","",""
"revaluation","247","1206555","0.0-4.0-4.0-0.10","spark_pilot_norest","8780","4","22","Female","","false","","","","","[348.90000000596046]","./assets/img/ocean/animals/seahorse.jpg","[""ArrowRight""]","revaluation","ocean","27","{""ArrowUp,ArrowLeft"":2,""ArrowUp,ArrowRight"":11,""ArrowDown,ArrowLeft"":8,""ArrowDown,ArrowRight"":27}","true","ArrowDown,ArrowRight","","revaluation","1","20","","",""
"html-keyboard-response","248","1207064","0.0-4.0-4.0-1.10","spark_pilot_norest","8780","4","22","Female","","","","","","","null","<div style=""font-size:60px;"">+</div>","null","fixation","","","","","","","","","21","","",""
"revaluation","249","1211081","0.0-4.0-4.0-0.11","spark_pilot_norest","8780","4","22","Female","","false","","","","","[563.2000000178814]","./assets/img/ocean/animals/octopus.jpg","[""ArrowRight""]","revaluation","ocean","11","{""ArrowUp,ArrowLeft"":2,""ArrowUp,ArrowRight"":11,""ArrowDown,ArrowLeft"":8,""ArrowDown,ArrowRight"":27}","true","ArrowUp,ArrowRight","","revaluation","1","22","","",""
"html-keyboard-response","250","1211586","0.0-4.0-4.0-1.11","spark_pilot_norest","8780","4","22","Female","","","","","","","null","<div style=""font-size:60px;"">+</div>","null","fixation","","","","","","","","","23","","",""
"revaluation","251","1215605","0.0-4.0-4.0-0.12","spark_pilot_norest","8780","4","22","Female","","false","","","","","[1155.699999988079]","./assets/img/ocean/animals/octopus.jpg","[""ArrowRight""]","revaluation","ocean","11","{""ArrowUp,ArrowLeft"":2,""ArrowUp,ArrowRight"":11,""ArrowDown,ArrowLeft"":8,""ArrowDown,ArrowRight"":27}","true","ArrowUp,ArrowRight","","revaluation","1","24","","",""
"html-keyboard-response","252","1216114","0.0-4.0-4.0-1.12","spark_pilot_norest","8780","4","22","Female","","","","","","","null","<div style=""font-size:60px;"">+</div>","null","fixation","","","","","","","","","25","","",""
"revaluation","253","1220130","0.0-4.0-4.0-0.13","spark_pilot_norest","8780","4","22","Female","","false","","","","","[1319.5999999940395]","./assets/img/ocean/animals/seahorse.jpg","[""ArrowRight""]","revaluation","ocean","27","{""ArrowUp,ArrowLeft"":2,""ArrowUp,ArrowRight"":11,""ArrowDown,ArrowLeft"":8,""ArrowDown,ArrowRight"":27}","true","ArrowDown,ArrowRight","","revaluation","1","26","","",""
"html-keyboard-response","254","1220643","0.0-4.0-4.0-1.13","spark_pilot_norest","8780","4","22","Female","","","","","","","null","<div style=""font-size:60px;"">+</div>","null","fixation","","","","","","","","","27","","",""
"revaluation","255","1224664","0.0-4.0-4.0-0.14","spark_pilot_norest","8780","4","22","Female","","false","","","","","[569.7999999821186]","./assets/img/ocean/animals/seahorse.jpg","[""ArrowRight""]","revaluation","ocean","27","{""ArrowUp,ArrowLeft"":2,""ArrowUp,ArrowRight"":11,""ArrowDown,ArrowLeft"":8,""ArrowDown,ArrowRight"":27}","true","ArrowDown,ArrowRight","","revaluation","1","28","","",""
"html-keyboard-response","256","1225169","0.0-4.0-4.0-1.14","spark_pilot_norest","8780","4","22","Female","","","","","","","null","<div style=""font-size:60px;"">+</div>","null","fixation","","","","","","","","","29","","",""
"revaluation","257","1229185","0.0-4.0-4.0-0.15","spark_pilot_norest","8780","4","22","Female","","false","","","","","[446.59999999403954]","./assets/img/ocean/animals/seahorse.jpg","[""ArrowRight""]","revaluation","ocean","27","{""ArrowUp,ArrowLeft"":2,""ArrowUp,ArrowRight"":11,""ArrowDown,ArrowLeft"":8,""ArrowDown,ArrowRight"":27}","true","ArrowDown,ArrowRight","","revaluation","1","30","","",""
"html-keyboard-response","258","1229690","0.0-4.0-4.0-1.15","spark_pilot_norest","8780","4","22","Female","","","","","","","null","<div style=""font-size:60px;"">+</div>","null","fixation","","","","","","","","","31","","",""
"revaluation","259","1233712","0.0-4.0-4.0-0.16","spark_pilot_norest","8780","4","22","Female","","false","","","","","[561.8000000119209]","./assets/img/ocean/animals/octopus.jpg","[""ArrowRight""]","revaluation","ocean","11","{""ArrowUp,ArrowLeft"":2,""ArrowUp,ArrowRight"":11,""ArrowDown,ArrowLeft"":8,""ArrowDown,ArrowRight"":27}","true","ArrowUp,ArrowRight","","revaluation","1","32","","",""
"html-keyboard-response","260","1234218","0.0-4.0-4.0-1.16","spark_pilot_norest","8780","4","22","Female","","","","","","","null","<div style=""font-size:60px;"">+</div>","null","fixation","","","","","","","","","33","","",""
"revaluation","261","1238241","0.0-4.0-4.0-0.17","spark_pilot_norest","8780","4","22","Female","","false","","","","","[597.3000000119209]","./assets/img/ocean/animals/seahorse.jpg","[""ArrowRight""]","revaluation","ocean","27","{""ArrowUp,ArrowLeft"":2,""ArrowUp,ArrowRight"":11,""ArrowDown,ArrowLeft"":8,""ArrowDown,ArrowRight"":27}","true","ArrowDown,ArrowRight","","revaluation","1","34","","",""
"html-keyboard-response","262","1238754","0.0-4.0-4.0-1.17","spark_pilot_norest","8780","4","22","Female","","","","","","","null","<div style=""font-size:60px;"">+</div>","null","fixation","","","","","","","","","35","","",""
"learning-instructions","263","1246911","0.0-4.0-5.0-0.0","spark_pilot_norest","8780","4","22","Female","","","","","","","null","<p> You have almost finished this part of the game! </p>
            <p> We are going to ask you to make a few more choices. </p>","","instructions","","","","","","","","","","","",""
"learning-instructions","264","1262890","0.0-4.0-5.0-0.1","spark_pilot_norest","8780","4","22","Female","","","","","","","null","<p> First, you need to decide whether to go up or down. When you see each picture, use the arrow keys to make your choice. </p>
            <p><b>You will not see which animal you found, but try to get to the one that will give you the most treasure.</b></p>","","instructions","","","","","","","","","","","",""
"html-keyboard-response","265","1263897","0.0-4.0-6.0-0.0","spark_pilot_norest","8780","4","22","Female","","","","","","","null","<div style=""font-size:100px;color:red;"">Starting in...</div>","null","","","","","","","","","","","","",""
"html-keyboard-response","266","1264905","0.0-4.0-6.0-1.0","spark_pilot_norest","8780","4","22","Female","","","","","","","null","<div style=""font-size:200px;color:red;"">3</div>","null","","","","","","","","","","","","",""
"html-keyboard-response","267","1265913","0.0-4.0-6.0-2.0","spark_pilot_norest","8780","4","22","Female","","","","","","","null","<div style=""font-size:200px;color:red;"">2</div>","null","","","","","","","","","","","","",""
"html-keyboard-response","268","1266917","0.0-4.0-6.0-3.0","spark_pilot_norest","8780","4","22","Female","","","","","","","null","<div style=""font-size:200px;color:red;"">1</div>","null","","","","","","","","","","","","",""
"revaluation","269","1268469","0.0-4.0-7.0-0.0","spark_pilot_norest","8780","4","22","Female","","false","","","","","[1548.0999999940395]","./assets/img/ocean/test/2.jpg","[""ArrowDown""]","first stage test","ocean","0","{""ArrowUp,ArrowLeft"":2,""ArrowUp,ArrowRight"":11,""ArrowDown,ArrowLeft"":8,""ArrowDown,ArrowRight"":27}","true","ArrowDown","false","revaluation","1","","","",""
"html-keyboard-response","270","1268977","0.0-4.0-7.0-1.0","spark_pilot_norest","8780","4","22","Female","","","","","","","null","<div style=""font-size:60px;"">+</div>","null","fixation","","","","","","","","","","","",""
"revaluation","271","1269862","0.0-4.0-7.0-0.1","spark_pilot_norest","8780","4","22","Female","","false","","","","","[880.0999999940395]","./assets/img/ocean/test/0.jpg","[""ArrowUp""]","first stage test","ocean","0","{""ArrowUp,ArrowLeft"":2,""ArrowUp,ArrowRight"":11,""ArrowDown,ArrowLeft"":8,""ArrowDown,ArrowRight"":27}","false","ArrowUp","false","revaluation","1","","","",""
"html-keyboard-response","272","1270368","0.0-4.0-7.0-1.1","spark_pilot_norest","8780","4","22","Female","","","","","","","null","<div style=""font-size:60px;"">+</div>","null","fixation","","","","","","","","","","","",""
"revaluation","273","1271623","0.0-4.0-7.0-0.2","spark_pilot_norest","8780","4","22","Female","","false","","","","","[1251.699999988079]","./assets/img/ocean/test/3.jpg","[""ArrowUp""]","first stage test","ocean","0","{""ArrowUp,ArrowLeft"":2,""ArrowUp,ArrowRight"":11,""ArrowDown,ArrowLeft"":8,""ArrowDown,ArrowRight"":27}","false","ArrowUp","false","revaluation","1","","","",""
"html-keyboard-response","274","1272128","0.0-4.0-7.0-1.2","spark_pilot_norest","8780","4","22","Female","","","","","","","null","<div style=""font-size:60px;"">+</div>","null","fixation","","","","","","","","","","","",""
"revaluation","275","1273297","0.0-4.0-7.0-0.3","spark_pilot_norest","8780","4","22","Female","","false","","","","","[1164.800000011921]","./assets/img/ocean/test/1.jpg","[""ArrowDown""]","first stage test","ocean","0","{""ArrowUp,ArrowLeft"":2,""ArrowUp,ArrowRight"":11,""ArrowDown,ArrowLeft"":8,""ArrowDown,ArrowRight"":27}","true","ArrowDown","false","revaluation","1","","","",""
"html-keyboard-response","276","1273809","0.0-4.0-7.0-1.3","spark_pilot_norest","8780","4","22","Female","","","","","","","null","<div style=""font-size:60px;"">+</div>","null","fixation","","","","","","","","","","","",""
"learning-instructions","277","1287156","0.0-4.0-8.0-0.0","spark_pilot_norest","8780","4","22","Female","","","","","","","null","<p> Now you will see the animals again and can search their chests for treasure. </p>
            <p> This time, you will not see how much treasure you earned, but you will earn more bonus money for making better choices. </p>","","instructions","","","","","","","","","","","",""
"html-keyboard-response","278","1288166","0.0-4.0-9.0-0.0","spark_pilot_norest","8780","4","22","Female","","","","","","","null","<div style=""font-size:100px;color:red;"">Starting in...</div>","null","","","","","","","","","","","","",""
"html-keyboard-response","279","1289173","0.0-4.0-9.0-1.0","spark_pilot_norest","8780","4","22","Female","","","","","","","null","<div style=""font-size:200px;color:red;"">3</div>","null","","","","","","","","","","","","",""
"html-keyboard-response","280","1290183","0.0-4.0-9.0-2.0","spark_pilot_norest","8780","4","22","Female","","","","","","","null","<div style=""font-size:200px;color:red;"">2</div>","null","","","","","","","","","","","","",""
"html-keyboard-response","281","1291189","0.0-4.0-9.0-3.0","spark_pilot_norest","8780","4","22","Female","","","","","","","null","<div style=""font-size:200px;color:red;"">1</div>","null","","","","","","","","","","","","",""
"revaluation","282","1291937","0.0-4.0-10.0-0.0","spark_pilot_norest","8780","4","22","Female","","false","","","","","[743]","./assets/img/ocean/animals/octopus.jpg","[""ArrowRight""]","second stage test","ocean","0","{""ArrowUp,ArrowLeft"":2,""ArrowUp,ArrowRight"":11,""ArrowDown,ArrowLeft"":8,""ArrowDown,ArrowRight"":27}","true","ArrowUp,ArrowRight","","revaluation","1","","","",""
"html-keyboard-response","283","1292448","0.0-4.0-10.0-1.0","spark_pilot_norest","8780","4","22","Female","","","","","","","null","<div style=""font-size:60px;"">+</div>","null","fixation","","","","","","","","","","","",""
"revaluation","284","1292999","0.0-4.0-10.0-0.1","spark_pilot_norest","8780","4","22","Female","","false","","","","","[547.2999999821186]","./assets/img/ocean/animals/octopus.jpg","[""ArrowRight""]","second stage test","ocean","0","{""ArrowUp,ArrowLeft"":2,""ArrowUp,ArrowRight"":11,""ArrowDown,ArrowLeft"":8,""ArrowDown,ArrowRight"":27}","true","ArrowUp,ArrowRight","","revaluation","1","","","",""
"html-keyboard-response","285","1293512","0.0-4.0-10.0-1.1","spark_pilot_norest","8780","4","22","Female","","","","","","","null","<div style=""font-size:60px;"">+</div>","null","fixation","","","","","","","","","","","",""
"revaluation","286","1294091","0.0-4.0-10.0-0.2","spark_pilot_norest","8780","4","22","Female","","false","","","","","[575.7999999821186]","./assets/img/ocean/animals/octopus.jpg","[""ArrowRight""]","second stage test","ocean","0","{""ArrowUp,ArrowLeft"":2,""ArrowUp,ArrowRight"":11,""ArrowDown,ArrowLeft"":8,""ArrowDown,ArrowRight"":27}","true","ArrowUp,ArrowRight","","revaluation","1","","","",""
"html-keyboard-response","287","1294600","0.0-4.0-10.0-1.2","spark_pilot_norest","8780","4","22","Female","","","","","","","null","<div style=""font-size:60px;"">+</div>","null","fixation","","","","","","","","","","","",""
"revaluation","288","1295080","0.0-4.0-10.0-0.3","spark_pilot_norest","8780","4","22","Female","","false","","","","","[475.80000001192093]","./assets/img/ocean/animals/octopus.jpg","[""ArrowRight""]","second stage test","ocean","0","{""ArrowUp,ArrowLeft"":2,""ArrowUp,ArrowRight"":11,""ArrowDown,ArrowLeft"":8,""ArrowDown,ArrowRight"":27}","true","ArrowUp,ArrowRight","","revaluation","1","","","",""
"html-keyboard-response","289","1295589","0.0-4.0-10.0-1.3","spark_pilot_norest","8780","4","22","Female","","","","","","","null","<div style=""font-size:60px;"">+</div>","null","fixation","","","","","","","","","","","",""
"revaluation","290","1296114","0.0-4.0-10.0-0.4","spark_pilot_norest","8780","4","22","Female","","false","","","","","[521.4000000059605]","./assets/img/ocean/animals/seahorse.jpg","[""ArrowRight""]","second stage test","ocean","0","{""ArrowUp,ArrowLeft"":2,""ArrowUp,ArrowRight"":11,""ArrowDown,ArrowLeft"":8,""ArrowDown,ArrowRight"":27}","true","ArrowDown,ArrowRight","","revaluation","1","","","",""
"html-keyboard-response","291","1296621","0.0-4.0-10.0-1.4","spark_pilot_norest","8780","4","22","Female","","","","","","","null","<div style=""font-size:60px;"">+</div>","null","fixation","","","","","","","","","","","",""
"revaluation","292","1297175","0.0-4.0-10.0-0.5","spark_pilot_norest","8780","4","22","Female","","false","","","","","[550.9000000059605]","./assets/img/ocean/animals/seahorse.jpg","[""ArrowRight""]","second stage test","ocean","0","{""ArrowUp,ArrowLeft"":2,""ArrowUp,ArrowRight"":11,""ArrowDown,ArrowLeft"":8,""ArrowDown,ArrowRight"":27}","true","ArrowDown,ArrowRight","","revaluation","1","","","",""
"html-keyboard-response","293","1297679","0.0-4.0-10.0-1.5","spark_pilot_norest","8780","4","22","Female","","","","","","","null","<div style=""font-size:60px;"">+</div>","null","fixation","","","","","","","","","","","",""
"revaluation","294","1298257","0.0-4.0-10.0-0.6","spark_pilot_norest","8780","4","22","Female","","false","","","","","[573.5999999940395]","./assets/img/ocean/animals/seahorse.jpg","[""ArrowRight""]","second stage test","ocean","0","{""ArrowUp,ArrowLeft"":2,""ArrowUp,ArrowRight"":11,""ArrowDown,ArrowLeft"":8,""ArrowDown,ArrowRight"":27}","true","ArrowDown,ArrowRight","","revaluation","1","","","",""
"html-keyboard-response","295","1298764","0.0-4.0-10.0-1.6","spark_pilot_norest","8780","4","22","Female","","","","","","","null","<div style=""font-size:60px;"">+</div>","null","fixation","","","","","","","","","","","",""
"revaluation","296","1299982","0.0-4.0-10.0-0.7","spark_pilot_norest","8780","4","22","Female","","false","","","","","[1213.5999999940395]","./assets/img/ocean/animals/seahorse.jpg","[""ArrowRight""]","second stage test","ocean","0","{""ArrowUp,ArrowLeft"":2,""ArrowUp,ArrowRight"":11,""ArrowDown,ArrowLeft"":8,""ArrowDown,ArrowRight"":27}","true","ArrowDown,ArrowRight","","revaluation","1","","","",""
"html-keyboard-response","297","1300487","0.0-4.0-10.0-1.7","spark_pilot_norest","8780","4","22","Female","","","","","","","null","<div style=""font-size:60px;"">+</div>","null","fixation","","","","","","","","","","","",""
"learning-instructions","298","1304909","0.0-4.0-0.1-0.2","spark_pilot_norest","8780","4","22","Female","","","","","","","1636","<p> This time you are searching for treasure in the <b>canyon</b>.</p>","","instructions","","","","","","","","","","","",""
"learning-instructions","299","1326922","0.0-4.0-0.1-0.3","spark_pilot_norest","8780","4","22","Female","","","","","","","4761","<p><b>New</b> animals with <b>new</b> treasure chests live here. You need to explore to discover where the animal with the best treasure chest is.</p>
                    <p> Like before, once you figure out which animal has the chest with the most treasure, you should try to get to that animal and select that chest! </p>","","instructions","","","","","","","","","","","",""
"learning-instructions","300","1345403","0.0-4.0-1.1-0.1","spark_pilot_norest","8780","4","22","Female","","","","","","","3750.199999988079","<p> Remember, when you see a picture of the place, use the up and down keys to <b>find an animal</b>.</p>
            <p> When you encounter an animal, you should use the left and right keys to <b>select a treasure chest</b>.</p>
            <p> Don't forget to look out for the robber! </p>","","instructions","","","","","","","","","","","",""
"revaluation","301","1349421","0.0-4.0-2.1-0.50","spark_pilot_norest","8780","4","22","Female","","true","","","","","[]","./assets/img/canyon/memory/35.jpg","[]","value training","canyon","-5","{""ArrowUp,ArrowLeft"":23,""ArrowUp,ArrowRight"":10,""ArrowDown,ArrowLeft"":8,""ArrowDown,ArrowRight"":30}","false","","false","original","2","0","","",""
"html-keyboard-response","302","1349930","0.0-4.0-2.1-1.50","spark_pilot_norest","8780","4","22","Female","","","","","","","null","<div style=""font-size:60px;"">+</div>","null","fixation","","","","","","","","","1","","",""
"revaluation","303","1355956","0.0-4.0-2.1-0.51","spark_pilot_norest","8780","4","22","Female","","false","","","","","[569.4000000059605,598.8999999761581]","./assets/img/canyon/memory/19.jpg","[""ArrowDown"",""ArrowRight""]","value training","canyon","30","{""ArrowUp,ArrowLeft"":23,""ArrowUp,ArrowRight"":10,""ArrowDown,ArrowLeft"":8,""ArrowDown,ArrowRight"":30}","true","ArrowDown,ArrowRight","false","original","2","2","","",""
"html-keyboard-response","304","1356465","0.0-4.0-2.1-1.51","spark_pilot_norest","8780","4","22","Female","","","","","","","null","<div style=""font-size:60px;"">+</div>","null","fixation","","","","","","","","","3","","",""
"revaluation","305","1362492","0.0-4.0-2.1-0.52","spark_pilot_norest","8780","4","22","Female","","false","","","","","[1311.5,567.6999999880791]","./assets/img/canyon/memory/23.jpg","[""ArrowUp"",""ArrowRight""]","value training","canyon","10","{""ArrowUp,ArrowLeft"":23,""ArrowUp,ArrowRight"":10,""ArrowDown,ArrowLeft"":8,""ArrowDown,ArrowRight"":30}","false","ArrowUp,ArrowRight","false","original","2","4","","",""
"html-keyboard-response","306","1363004","0.0-4.0-2.1-1.52","spark_pilot_norest","8780","4","22","Female","","","","","","","null","<div style=""font-size:60px;"">+</div>","null","fixation","","","","","","","","","5","","",""
"revaluation","307","1369035","0.0-4.0-2.1-0.53","spark_pilot_norest","8780","4","22","Female","","false","","","","","[455.19999998807907,465.39999997615814]","./assets/img/canyon/memory/29.jpg","[""ArrowDown"",""ArrowLeft""]","value training","canyon","8","{""ArrowUp,ArrowLeft"":23,""ArrowUp,ArrowRight"":10,""ArrowDown,ArrowLeft"":8,""ArrowDown,ArrowRight"":30}","false","ArrowDown,ArrowLeft","false","original","2","6","","",""
"html-keyboard-response","308","1369548","0.0-4.0-2.1-1.53","spark_pilot_norest","8780","4","22","Female","","","","","","","null","<div style=""font-size:60px;"">+</div>","null","fixation","","","","","","","","","7","","",""
"revaluation","309","1375576","0.0-4.0-2.1-0.54","spark_pilot_norest","8780","4","22","Female","","false","","","","","[1634.2000000178814,591.6000000238419]","./assets/img/canyon/memory/24.jpg","[""ArrowUp"",""ArrowLeft""]","value training","canyon","23","{""ArrowUp,ArrowLeft"":23,""ArrowUp,ArrowRight"":10,""ArrowDown,ArrowLeft"":8,""ArrowDown,ArrowRight"":30}","false","ArrowUp,ArrowLeft","false","original","2","8","","",""
"html-keyboard-response","310","1376083","0.0-4.0-2.1-1.54","spark_pilot_norest","8780","4","22","Female","","","","","","","null","<div style=""font-size:60px;"">+</div>","null","fixation","","","","","","","","","9","","",""
