"trial_type","trial_index","time_elapsed","internal_node_id","task_version","subject_id","assigned_condition","age","gender","browser_interaction","success","timeout","failed_images","failed_audio","failed_video","rt","stimulus","response","task_part","environment","score","rewardMap","correct","fullState","isCatch","condition","order","trial_num","key_press","ground_truth","bonus"
"pavlovia","0","1258","0.0-0.0","spark_pilot_norest","9178","7","22","Male","[{""event"":""blur"",""trial"":1,""time"":1557},{""event"":""focus"",""trial"":2,""time"":10237},{""event"":""fullscreenenter"",""trial"":2,""time"":10826},{""event"":""blur"",""trial"":4,""time"":16708},{""event"":""focus"",""trial"":4,""time"":28297},{""event"":""blur"",""trial"":5,""time"":34355},{""event"":""focus"",""trial"":5,""time"":41769},{""event"":""blur"",""trial"":6,""time"":44336},{""event"":""focus"",""trial"":6,""time"":47571},{""event"":""blur"",""trial"":8,""time"":67366},{""event"":""focus"",""trial"":8,""time"":70321}]","","","","","","","","","","","","","","","","","","","","",""
"preload","1","9387","0.0-1.0","spark_pilot_norest","9178","7","22","Male","[{""event"":""blur"",""trial"":1,""time"":1557},{""event"":""focus"",""trial"":2,""time"":10237},{""event"":""fullscreenenter"",""trial"":2,""time"":10826},{""event"":""blur"",""trial"":4,""time"":16708},{""event"":""focus"",""trial"":4,""time"":28297},{""event"":""blur"",""trial"":5,""time"":34355},{""event"":""focus"",""trial"":5,""time"":41769},{""event"":""blur"",""trial"":6,""time"":44336},{""event"":""focus"",""trial"":6,""time"":47571},{""event"":""blur"",""trial"":8,""time"":67366},{""event"":""focus"",""trial"":8,""time"":70321}]","true","false","[]","[]","[]","","","","","","","","","","","","","","","",""
"fullscreen","2","11814","0.0-2.0","spark_pilot_norest","9178","7","22","Male","","true","","","","","","","","","","","","","","","","","","","",""
"audio-button-response","3","13540","0.0-3.0-0.0-0.0","spark_pilot_norest","9178","7","22","Male","[{""event"":""blur"",""trial"":1,""time"":1557},{""event"":""focus"",""trial"":2,""time"":10237},{""event"":""fullscreenenter"",""trial"":2,""time"":10826},{""event"":""blur"",""trial"":4,""time"":16708},{""event"":""focus"",""trial"":4,""time"":28297},{""event"":""blur"",""trial"":5,""time"":34355},{""event"":""focus"",""trial"":5,""time"":41769},{""event"":""blur"",""trial"":6,""time"":44336},{""event"":""focus"",""trial"":6,""time"":47571},{""event"":""blur"",""trial"":8,""time"":67366},{""event"":""focus"",""trial"":8,""time"":70321}]","","","","","","1669","./assets/audio/audiotest/turtle.mp3","2","audio_test","","","","","","","","","","","",""
"learning-instructions","4","29019","0.0-3.0-1.0-0.0","spark_pilot_norest","9178","7","22","Male","[{""event"":""blur"",""trial"":1,""time"":1557},{""event"":""focus"",""trial"":2,""time"":10237},{""event"":""fullscreenenter"",""trial"":2,""time"":10826},{""event"":""blur"",""trial"":4,""time"":16708},{""event"":""focus"",""trial"":4,""time"":28297},{""event"":""blur"",""trial"":5,""time"":34355},{""event"":""focus"",""trial"":5,""time"":41769},{""event"":""blur"",""trial"":6,""time"":44336},{""event"":""focus"",""trial"":6,""time"":47571},{""event"":""blur"",""trial"":8,""time"":67366},{""event"":""focus"",""trial"":8,""time"":70321}]","","","","","","8502.70000000298","<p> Welcome! Please remember to stay in fullscreen mode and don't click away from the experiment. </p>","","instructions","","","","","","","","","","","",""
"learning-instructions","5","42152","0.0-3.0-1.0-0.1","spark_pilot_norest","9178","7","22","Male","[{""event"":""blur"",""trial"":1,""time"":1557},{""event"":""focus"",""trial"":2,""time"":10237},{""event"":""fullscreenenter"",""trial"":2,""time"":10826},{""event"":""blur"",""trial"":4,""time"":16708},{""event"":""focus"",""trial"":4,""time"":28297},{""event"":""blur"",""trial"":5,""time"":34355},{""event"":""focus"",""trial"":5,""time"":41769},{""event"":""blur"",""trial"":6,""time"":44336},{""event"":""focus"",""trial"":6,""time"":47571},{""event"":""blur"",""trial"":8,""time"":67366},{""event"":""focus"",""trial"":8,""time"":70321}]","","","","","","4723.29999999702","<p> Today you will be playing a game to earn treasure. </p>
            <p> At the end of the experiment, you will earn a bonus based on how much treasure you find. </p>
            <img src='./assets/img/instructions/treasure.jpg' class='instructions-image'>","","instructions","","","","","","","","","","","",""
"learning-instructions","6","51620","0.0-3.0-1.0-0.2","spark_pilot_norest","9178","7","22","Male","","","","","","","1199.7999999970198","<p> Animals have hidden treasure in treasure chests. </p>
            <p> You need to first find an animal and then choose which of their treasure chests to search. </p>
            <img src='./assets/img/space/animals/cat.jpg' class='instructions-image'>","","instructions","","","","","","","","","","","",""
"learning-instructions","7","66416","0.0-3.0-1.0-0.3","spark_pilot_norest","9178","7","22","Male","[{""event"":""blur"",""trial"":1,""time"":1557},{""event"":""focus"",""trial"":2,""time"":10237},{""event"":""fullscreenenter"",""trial"":2,""time"":10826},{""event"":""blur"",""trial"":4,""time"":16708},{""event"":""focus"",""trial"":4,""time"":28297},{""event"":""blur"",""trial"":5,""time"":34355},{""event"":""focus"",""trial"":5,""time"":41769},{""event"":""blur"",""trial"":6,""time"":44336},{""event"":""focus"",""trial"":6,""time"":47571},{""event"":""blur"",""trial"":8,""time"":67366},{""event"":""focus"",""trial"":8,""time"":70321}]","","","","","","1644.4000000059605","<p> In each round, you will search for treasure in a different place. In the real game, there will be two rounds. </p>
            <p> You will begin with a separate, practice round where you will search for treasure in outer space. </p>
            <img src='./assets/img/space/0.jpg' class='instructions-image'>","","instructions","","","","","","","","","","","",""
"learning-instructions","8","79206","0.0-3.0-1.0-0.4","spark_pilot_norest","9178","7","22","Male","","","","","","","1371.2000000029802","<p> On every turn, you will see a picture of the place that you are in, but the specific image may be different each time. </p>
            <p> For example, both of these images mean you are in outer space. </p>
            <img src='./assets/img/instructions/outerspace.jpg' class='instructions-image'>","","instructions","","","","","","","","","","","",""
"learning-instructions","9","89836","0.0-3.0-1.0-0.5","spark_pilot_norest","9178","7","22","Male","","","","","","","2802.8999999910593","<p> You need to decide which direction to travel in. </p>
            <p> You can choose between going <b>up or down</b> by using the arrow keys. </p>
            <img src='./assets/img/instructions/updown.jpg' class='instructions-image'>","","instructions","","","","","","","","","","","",""
"learning-instructions","10","100764","0.0-3.0-1.0-0.6","spark_pilot_norest","9178","7","22","Male","","","","","","","2115.1000000089407","<p> You will have <b>2 seconds</b> to make your choice. </p>
            <p> If you do not make a choice within 2 seconds, you will not find an animal or earn treasure. </p>
            <img src='./assets/img/instructions/2seconds.jpg' class='instructions-image'>","","instructions","","","","","","","","","","","",""
"learning-instructions","11","109423","0.0-3.0-1.0-0.7","spark_pilot_norest","9178","7","22","Male","","","","","","","1622.5","<p> Let’s try practicing that now! </p>
            <p> When you see a picture of the place you are in, press the <b>up</b> key to travel up. </p>
            <img src='./assets/img/instructions/pressUp.jpg' class='instructions-image'>","","instructions","","","","","","","","","","","",""
"revaluation","12","113448","0.0-3.0-2.0-0.0","spark_pilot_norest","9178","7","22","Male","","","false","","","","[569]","./assets/img/space/0.jpg","[""ArrowUp""]","first stage practice","space","0","null","null","ArrowUp","false","","","","","",""
"html-keyboard-response","13","113955","0.0-3.0-2.0-1.0","spark_pilot_norest","9178","7","22","Male","","","","","","","null","<div style=""font-size:60px;"">+</div>","null","fixation","","","","","","","","","","","",""
"revaluation","14","117977","0.0-3.0-2.0-0.1","spark_pilot_norest","9178","7","22","Male","","","false","","","","[554.5]","./assets/img/space/1.jpg","[""ArrowUp""]","first stage practice","space","0","null","null","ArrowUp","false","","","","","",""
"html-keyboard-response","15","118480","0.0-3.0-2.0-1.1","spark_pilot_norest","9178","7","22","Male","","","","","","","null","<div style=""font-size:60px;"">+</div>","null","fixation","","","","","","","","","","","",""
"revaluation","16","122496","0.0-3.0-2.0-0.2","spark_pilot_norest","9178","7","22","Male","","","false","","","","[633.2999999970198]","./assets/img/space/2.jpg","[""ArrowUp""]","first stage practice","space","0","null","null","ArrowUp","false","","","","","",""
"html-keyboard-response","17","123004","0.0-3.0-2.0-1.2","spark_pilot_norest","9178","7","22","Male","","","","","","","null","<div style=""font-size:60px;"">+</div>","null","fixation","","","","","","","","","","","",""
"learning-instructions","18","128313","0.0-3.0-3.0-0.0","spark_pilot_norest","9178","7","22","Male","","","","","","","603.4000000059605","<p> Great job! Now try pressing the <b>down</b> key to travel down. </p>
            <img src='./assets/img/instructions/pressDown.jpg' class='instructions-image'>","","instructions","","","","","","","","","","","",""
"revaluation","19","132328","0.0-3.0-4.0-0.0","spark_pilot_norest","9178","7","22","Male","","","false","","","","[1205]","./assets/img/space/3.jpg","[""ArrowDown""]","first stage practice","space","0","null","null","ArrowDown","false","","","","","",""
"html-keyboard-response","20","132835","0.0-3.0-4.0-1.0","spark_pilot_norest","9178","7","22","Male","","","","","","","null","<div style=""font-size:60px;"">+</div>","null","fixation","","","","","","","","","","","",""
"revaluation","21","136856","0.0-3.0-4.0-0.1","spark_pilot_norest","9178","7","22","Male","","","false","","","","[76.09999999403954]","./assets/img/space/4.jpg","[""ArrowDown""]","first stage practice","space","0","null","null","ArrowDown","false","","","","","",""
"html-keyboard-response","22","137361","0.0-3.0-4.0-1.1","spark_pilot_norest","9178","7","22","Male","","","","","","","null","<div style=""font-size:60px;"">+</div>","null","fixation","","","","","","","","","","","",""
"revaluation","23","141377","0.0-3.0-4.0-0.2","spark_pilot_norest","9178","7","22","Male","","","false","","","","[44.79999999701977]","./assets/img/space/5.jpg","[""ArrowDown""]","first stage practice","space","0","null","null","ArrowDown","false","","","","","",""
"html-keyboard-response","24","141884","0.0-3.0-4.0-1.2","spark_pilot_norest","9178","7","22","Male","","","","","","","null","<div style=""font-size:60px;"">+</div>","null","fixation","","","","","","","","","","","",""
"learning-instructions","25","153492","0.0-3.0-5.0-0.0","spark_pilot_norest","9178","7","22","Male","","","","","","","1746.1000000089407","<p> The animals don’t move, so the animal in the upper part of a place will stay in the upper part of a place, and the animal in the lower part of a place will stay in the lower part of a place. </p>","","instructions","","","","","","","","","","","",""
"learning-instructions","26","163615","0.0-3.0-5.0-0.1","spark_pilot_norest","9178","7","22","Male","","","","","","","988.5","<p> Each animal has two treasure chests for you to choose from. </p>
            <p> The amount of treasure in each chest can range from <b> 0 to 40 pieces.</b></p>","","instructions","","","","","","","","","","","",""
"learning-instructions","27","175630","0.0-3.0-5.0-0.2","spark_pilot_norest","9178","7","22","Male","","","","","","","832.5999999940395","<p> You should decide which chest to search for treasure by using the <b>left</b> and <b>right</b> arrow keys. </p>
            <p><b> Pay attention to which animal is on the screen, as the animals have different treasure chests. </b></p>
            <img src='./assets/img/instructions/leftright.jpg' class='instructions-image'>","","instructions","","","","","","","","","","","",""
"learning-instructions","28","191413","0.0-3.0-5.0-0.3","spark_pilot_norest","9178","7","22","Male","","","","","","","9415.5","<p> Let’s try practicing that now. </p>
            <p> When you see an animal, choose which chest to search for treasure. </p>
            <img src='./assets/img/instructions/chooseChest.jpg' class='instructions-image'>","","instructions","","","","","","","","","","","",""
"revaluation","29","195427","0.0-3.0-6.0-0.0","spark_pilot_norest","9178","7","22","Male","","","false","","","","[941.7000000029802]","./assets/img/space/animals/cat.jpg","[""ArrowLeft""]","second stage practice","space","3","{""ArrowUp,ArrowLeft"":3,""ArrowUp,ArrowRight"":36,""ArrowDown,ArrowLeft"":15,""ArrowDown,ArrowRight"":23}","false","ArrowUp,ArrowLeft","","","","","","",""
"html-keyboard-response","30","195939","0.0-3.0-6.0-1.0","spark_pilot_norest","9178","7","22","Male","","","","","","","null","<div style=""font-size:60px;"">+</div>","null","fixation","","","","","","","","","","","",""
"revaluation","31","199955","0.0-3.0-6.0-0.1","spark_pilot_norest","9178","7","22","Male","","","false","","","","[244]","./assets/img/space/animals/rabbit.jpg","[""ArrowRight""]","second stage practice","space","23","{""ArrowUp,ArrowLeft"":3,""ArrowUp,ArrowRight"":36,""ArrowDown,ArrowLeft"":15,""ArrowDown,ArrowRight"":23}","true","ArrowDown,ArrowRight","","","","","","",""
"html-keyboard-response","32","200457","0.0-3.0-6.0-1.1","spark_pilot_norest","9178","7","22","Male","","","","","","","null","<div style=""font-size:60px;"">+</div>","null","fixation","","","","","","","","","","","",""
"revaluation","33","204473","0.0-3.0-6.0-0.2","spark_pilot_norest","9178","7","22","Male","","","false","","","","[511.59999999403954]","./assets/img/space/animals/rabbit.jpg","[""ArrowLeft""]","second stage practice","space","15","{""ArrowUp,ArrowLeft"":3,""ArrowUp,ArrowRight"":36,""ArrowDown,ArrowLeft"":15,""ArrowDown,ArrowRight"":23}","false","ArrowDown,ArrowLeft","","","","","","",""
"html-keyboard-response","34","204979","0.0-3.0-6.0-1.2","spark_pilot_norest","9178","7","22","Male","","","","","","","null","<div style=""font-size:60px;"">+</div>","null","fixation","","","","","","","","","","","",""
"revaluation","35","208996","0.0-3.0-6.0-0.3","spark_pilot_norest","9178","7","22","Male","","","false","","","","[717]","./assets/img/space/animals/cat.jpg","[""ArrowRight""]","second stage practice","space","36","{""ArrowUp,ArrowLeft"":3,""ArrowUp,ArrowRight"":36,""ArrowDown,ArrowLeft"":15,""ArrowDown,ArrowRight"":23}","true","ArrowUp,ArrowRight","","","","","","",""
"html-keyboard-response","36","209505","0.0-3.0-6.0-1.3","spark_pilot_norest","9178","7","22","Male","","","","","","","null","<div style=""font-size:60px;"">+</div>","null","fixation","","","","","","","","","","","",""
"learning-instructions","37","229407","0.0-3.0-7.0-0.0","spark_pilot_norest","9178","7","22","Male","","","","","","","3086","<p> Great job. Now let’s try putting it together. </p>
            <p> On each turn, you will first see a picture to remind you of the place you are in, and you need to choose whether to go up or down. </p>
            <p> Then you will see an animal and choose which of its chests to search for treasure. </p>","","instructions","","","","","","","","","","","",""
"learning-instructions","38","238922","0.0-3.0-7.0-0.1","spark_pilot_norest","9178","7","22","Male","","","","","","","1253.7999999970198","<p> When you choose whether to go up or down, try to go to the animal with the chest with the most treasure. </p>
            <p> Try practicing that now! </p>","","instructions","","","","","","","","","","","",""
"revaluation","39","244949","0.0-3.0-8.0-0.0","spark_pilot_norest","9178","7","22","Male","","","false","","","","[794,450.29999999701977]","./assets/img/space/6.jpg","[""ArrowUp"",""ArrowLeft""]","full practice","space","3","{""ArrowUp,ArrowLeft"":3,""ArrowUp,ArrowRight"":36,""ArrowDown,ArrowLeft"":15,""ArrowDown,ArrowRight"":23}","false","ArrowUp,ArrowLeft","false","","","","","",""
"html-keyboard-response","40","245459","0.0-3.0-8.0-1.0","spark_pilot_norest","9178","7","22","Male","","","","","","","null","<div style=""font-size:60px;"">+</div>","null","fixation","","","","","","","","","","","",""
"revaluation","41","251484","0.0-3.0-8.0-0.1","spark_pilot_norest","9178","7","22","Male","","","false","","","","[272.20000000298023,314.5]","./assets/img/space/7.jpg","[""ArrowUp"",""ArrowRight""]","full practice","space","36","{""ArrowUp,ArrowLeft"":3,""ArrowUp,ArrowRight"":36,""ArrowDown,ArrowLeft"":15,""ArrowDown,ArrowRight"":23}","true","ArrowUp,ArrowRight","false","","","","","",""
"html-keyboard-response","42","251986","0.0-3.0-8.0-1.1","spark_pilot_norest","9178","7","22","Male","","","","","","","null","<div style=""font-size:60px;"">+</div>","null","fixation","","","","","","","","","","","",""
"revaluation","43","258010","0.0-3.0-8.0-0.2","spark_pilot_norest","9178","7","22","Male","","","false","","","","[172.6000000089407,353.30000001192093]","./assets/img/space/8.jpg","[""ArrowUp"",""ArrowRight""]","full practice","space","36","{""ArrowUp,ArrowLeft"":3,""ArrowUp,ArrowRight"":36,""ArrowDown,ArrowLeft"":15,""ArrowDown,ArrowRight"":23}","true","ArrowUp,ArrowRight","false","","","","","",""
"html-keyboard-response","44","258516","0.0-3.0-8.0-1.2","spark_pilot_norest","9178","7","22","Male","","","","","","","null","<div style=""font-size:60px;"">+</div>","null","fixation","","","","","","","","","","","",""
"revaluation","45","264540","0.0-3.0-8.0-0.3","spark_pilot_norest","9178","7","22","Male","","","false","","","","[322.09999999403954,254.90000000596046]","./assets/img/space/9.jpg","[""ArrowUp"",""ArrowRight""]","full practice","space","36","{""ArrowUp,ArrowLeft"":3,""ArrowUp,ArrowRight"":36,""ArrowDown,ArrowLeft"":15,""ArrowDown,ArrowRight"":23}","true","ArrowUp,ArrowRight","false","","","","","",""
"html-keyboard-response","46","265042","0.0-3.0-8.0-1.3","spark_pilot_norest","9178","7","22","Male","","","","","","","null","<div style=""font-size:60px;"">+</div>","null","fixation","","","","","","","","","","","",""
"revaluation","47","271070","0.0-3.0-8.0-0.4","spark_pilot_norest","9178","7","22","Male","","","false","","","","[311.79999999701977,311.79999999701977]","./assets/img/space/10.jpg","[""ArrowUp"",""ArrowRight""]","full practice","space","36","{""ArrowUp,ArrowLeft"":3,""ArrowUp,ArrowRight"":36,""ArrowDown,ArrowLeft"":15,""ArrowDown,ArrowRight"":23}","true","ArrowUp,ArrowRight","false","","","","","",""
"html-keyboard-response","48","271581","0.0-3.0-8.0-1.4","spark_pilot_norest","9178","7","22","Male","","","","","","","null","<div style=""font-size:60px;"">+</div>","null","fixation","","","","","","","","","","","",""
"learning-instructions","49","284723","0.0-3.0-9.0-0.0","spark_pilot_norest","9178","7","22","Male","","","","","","","2823.5","<p> One last thing: sometimes, you will see a robber. The robber can be anywhere in the picture. </p>
            <p> If you do not stop them, you will lose treasure. </p>
            <img src='./assets/img/instructions/robber.jpg' class='instructions-image'>","","instructions","","","","","","","","","","","",""
"learning-instructions","50","293532","0.0-3.0-9.0-0.1","spark_pilot_norest","9178","7","22","Male","","","","","","","1643.300000011921","<p> If you see the robber, you should <b>press the space bar</b> rather than using the arrow keys. </p>
            <p> Try practicing that now! </p>","","instructions","","","","","","","","","","","",""
"revaluation","51","297547","0.0-3.0-10.0-0.0","spark_pilot_norest","9178","7","22","Male","","","false","","","","[809]","./assets/img/space/catch/0.jpg","[""spaceBar""]","catch practice","space","0","{""ArrowUp,ArrowLeft"":3,""ArrowUp,ArrowRight"":36,""ArrowDown,ArrowLeft"":15,""ArrowDown,ArrowRight"":23}","true","spaceBar","true","","","","","",""
"html-keyboard-response","52","298055","0.0-3.0-10.0-1.0","spark_pilot_norest","9178","7","22","Male","","","","","","","null","<div style=""font-size:60px;"">+</div>","null","fixation","","","","","","","","","","","",""
"revaluation","53","302071","0.0-3.0-10.0-0.1","spark_pilot_norest","9178","7","22","Male","","","false","","","","[847.1000000089407]","./assets/img/space/catch/1.jpg","[""spaceBar""]","catch practice","space","0","{""ArrowUp,ArrowLeft"":3,""ArrowUp,ArrowRight"":36,""ArrowDown,ArrowLeft"":15,""ArrowDown,ArrowRight"":23}","true","spaceBar","true","","","","","",""
"html-keyboard-response","54","302579","0.0-3.0-10.0-1.1","spark_pilot_norest","9178","7","22","Male","","","","","","","null","<div style=""font-size:60px;"">+</div>","null","fixation","","","","","","","","","","","",""
"revaluation","55","306595","0.0-3.0-10.0-0.2","spark_pilot_norest","9178","7","22","Male","","","false","","","","[510.29999999701977]","./assets/img/space/catch/2.jpg","[""spaceBar""]","catch practice","space","0","{""ArrowUp,ArrowLeft"":3,""ArrowUp,ArrowRight"":36,""ArrowDown,ArrowLeft"":15,""ArrowDown,ArrowRight"":23}","true","spaceBar","true","","","","","",""
"html-keyboard-response","56","307100","0.0-3.0-10.0-1.2","spark_pilot_norest","9178","7","22","Male","","","","","","","null","<div style=""font-size:60px;"">+</div>","null","fixation","","","","","","","","","","","",""
"learning-instructions","57","313810","0.0-3.0-11.0-0.0-0.0","spark_pilot_norest","9178","7","22","Male","","","","","","","1452.9000000059605","<p> Now, you will practice a shortened version of the game to get a sense of how it all fits together. </p>","","instructions","","","","","","","","","","","",""
"learning-instructions","58","318203","0.0-3.0-11.0-0.0-0.1","spark_pilot_norest","9178","7","22","Male","","","","","","","1205.7999999970198","<p>This time you are searching for treasure in outer space.</p>","","instructions","","","","","","","","","","","",""
"learning-instructions","59","333941","0.0-3.0-11.0-1.0-0.0","spark_pilot_norest","9178","7","22","Male","","","","","","","970.2999999970198","<p> Remember, when you see a picture of the place, use the up and down keys to <b>find an animal</b>.</p>
            <p> When you encounter an animal, you should use the left and right keys to <b>select a treasure chest</b>.</p>
            <p> Don't forget to look out for the robber! </p>","","instructions","","","","","","","","","","","",""
"revaluation","60","339967","0.0-3.0-11.0-2.0-0.0","spark_pilot_norest","9178","7","22","Male","","","false","","","","[1003.5,895.8999999910593]","./assets/img/space/11.jpg","[""ArrowUp"",""ArrowLeft""]","practice block","space","3","{""ArrowUp,ArrowLeft"":3,""ArrowUp,ArrowRight"":36,""ArrowDown,ArrowLeft"":15,""ArrowDown,ArrowRight"":23}","false","ArrowUp,ArrowLeft","false","","","","","",""
"html-keyboard-response","61","340475","0.0-3.0-11.0-2.0-1.0","spark_pilot_norest","9178","7","22","Male","","","","","","","null","<div style=""font-size:60px;"">+</div>","null","fixation","","","","","","","","","","","",""
"revaluation","62","346500","0.0-3.0-11.0-2.0-0.1","spark_pilot_norest","9178","7","22","Male","","","false","","","","[723.3999999910593,395.5]","./assets/img/space/12.jpg","[""ArrowUp"",""ArrowRight""]","practice block","space","36","{""ArrowUp,ArrowLeft"":3,""ArrowUp,ArrowRight"":36,""ArrowDown,ArrowLeft"":15,""ArrowDown,ArrowRight"":23}","true","ArrowUp,ArrowRight","false","","","","","",""
"html-keyboard-response","63","347008","0.0-3.0-11.0-2.0-1.1","spark_pilot_norest","9178","7","22","Male","","","","","","","null","<div style=""font-size:60px;"">+</div>","null","fixation","","","","","","","","","","","",""
"revaluation","64","353028","0.0-3.0-11.0-2.0-0.2","spark_pilot_norest","9178","7","22","Male","","","false","","","","[752,456]","./assets/img/space/13.jpg","[""ArrowUp"",""ArrowRight""]","practice block","space","36","{""ArrowUp,ArrowLeft"":3,""ArrowUp,ArrowRight"":36,""ArrowDown,ArrowLeft"":15,""ArrowDown,ArrowRight"":23}","true","ArrowUp,ArrowRight","false","","","","","",""
"html-keyboard-response","65","353532","0.0-3.0-11.0-2.0-1.2","spark_pilot_norest","9178","7","22","Male","","","","","","","null","<div style=""font-size:60px;"">+</div>","null","fixation","","","","","","","","","","","",""
"revaluation","66","359556","0.0-3.0-11.0-2.0-0.3","spark_pilot_norest","9178","7","22","Male","","","false","","","","[345.09999999403954,308.80000001192093]","./assets/img/space/14.jpg","[""ArrowUp"",""ArrowRight""]","practice block","space","36","{""ArrowUp,ArrowLeft"":3,""ArrowUp,ArrowRight"":36,""ArrowDown,ArrowLeft"":15,""ArrowDown,ArrowRight"":23}","true","ArrowUp,ArrowRight","false","","","","","",""
"html-keyboard-response","67","360059","0.0-3.0-11.0-2.0-1.3","spark_pilot_norest","9178","7","22","Male","","","","","","","null","<div style=""font-size:60px;"">+</div>","null","fixation","","","","","","","","","","","",""
"revaluation","68","366085","0.0-3.0-11.0-2.0-0.4","spark_pilot_norest","9178","7","22","Male","","","false","","","","[1264.2999999970198,357.90000000596046]","./assets/img/space/11.jpg","[""ArrowUp"",""ArrowRight""]","practice block","space","36","{""ArrowUp,ArrowLeft"":3,""ArrowUp,ArrowRight"":36,""ArrowDown,ArrowLeft"":15,""ArrowDown,ArrowRight"":23}","true","ArrowUp,ArrowRight","false","","","","","",""
"html-keyboard-response","69","366589","0.0-3.0-11.0-2.0-1.4","spark_pilot_norest","9178","7","22","Male","","","","","","","null","<div style=""font-size:60px;"">+</div>","null","fixation","","","","","","","","","","","",""
"revaluation","70","372614","0.0-3.0-11.0-2.0-0.5","spark_pilot_norest","9178","7","22","Male","","","false","","","","[376.09999999403954,8.600000008940697]","./assets/img/space/12.jpg","[""ArrowUp"",""ArrowRight""]","practice block","space","36","{""ArrowUp,ArrowLeft"":3,""ArrowUp,ArrowRight"":36,""ArrowDown,ArrowLeft"":15,""ArrowDown,ArrowRight"":23}","true","ArrowUp,ArrowRight","false","","","","","",""
"html-keyboard-response","71","373118","0.0-3.0-11.0-2.0-1.5","spark_pilot_norest","9178","7","22","Male","","","","","","","null","<div style=""font-size:60px;"">+</div>","null","fixation","","","","","","","","","","","",""
"revaluation","72","379142","0.0-3.0-11.0-2.0-0.6","spark_pilot_norest","9178","7","22","Male","","","false","","","","[1286.4000000059605,571.3999999910593]","./assets/img/space/13.jpg","[""ArrowUp"",""ArrowRight""]","practice block","space","36","{""ArrowUp,ArrowLeft"":3,""ArrowUp,ArrowRight"":36,""ArrowDown,ArrowLeft"":15,""ArrowDown,ArrowRight"":23}","true","ArrowUp,ArrowRight","false","","","","","",""
"html-keyboard-response","73","379646","0.0-3.0-11.0-2.0-1.6","spark_pilot_norest","9178","7","22","Male","","","","","","","null","<div style=""font-size:60px;"">+</div>","null","fixation","","","","","","","","","","","",""
"revaluation","74","385671","0.0-3.0-11.0-2.0-0.7","spark_pilot_norest","9178","7","22","Male","","","false","","","","[1108.7000000029802,575.7000000029802]","./assets/img/space/14.jpg","[""ArrowUp"",""ArrowRight""]","practice block","space","36","{""ArrowUp,ArrowLeft"":3,""ArrowUp,ArrowRight"":36,""ArrowDown,ArrowLeft"":15,""ArrowDown,ArrowRight"":23}","true","ArrowUp,ArrowRight","false","","","","","",""
"html-keyboard-response","75","386182","0.0-3.0-11.0-2.0-1.7","spark_pilot_norest","9178","7","22","Male","","","","","","","null","<div style=""font-size:60px;"">+</div>","null","fixation","","","","","","","","","","","",""
"revaluation","76","390198","0.0-3.0-11.0-2.0-0.8","spark_pilot_norest","9178","7","22","Male","","","false","","","","[726.2000000029802]","./assets/img/space/catch/3.jpg","[""spaceBar""]","practice block","space","0","{""ArrowUp,ArrowLeft"":3,""ArrowUp,ArrowRight"":36,""ArrowDown,ArrowLeft"":15,""ArrowDown,ArrowRight"":23}","true","spaceBar","true","","","","","",""
"html-keyboard-response","77","390703","0.0-3.0-11.0-2.0-1.8","spark_pilot_norest","9178","7","22","Male","","","","","","","null","<div style=""font-size:60px;"">+</div>","null","fixation","","","","","","","","","","","",""
"learning-instructions","78","406735","0.0-3.0-11.0-3.0-0.0","spark_pilot_norest","9178","7","22","Male","","","","","","","3114.3999999910593","<p> Now, you will travel with a friend who will choose whether you go up or down first. </p>
            <p> On these turns, you will just see the animal that they found. You will still get to choose which chest to search for treasure.</p>","","instructions","","","","","","","","","","","",""
"revaluation","79","410752","0.0-3.0-11.0-4.0-0.0","spark_pilot_norest","9178","7","22","Male","","","false","","","","[862.7999999970198]","./assets/img/space/animals/cat.jpg","[""ArrowRight""]","practice block","space","36","{""ArrowUp,ArrowLeft"":3,""ArrowUp,ArrowRight"":36,""ArrowDown,ArrowLeft"":15,""ArrowDown,ArrowRight"":23}","true","ArrowUp,ArrowRight","","","","","","",""
"html-keyboard-response","80","411260","0.0-3.0-11.0-4.0-1.0","spark_pilot_norest","9178","7","22","Male","","","","","","","null","<div style=""font-size:60px;"">+</div>","null","fixation","","","","","","","","","","","",""
"revaluation","81","415277","0.0-3.0-11.0-4.0-0.1","spark_pilot_norest","9178","7","22","Male","","","false","","","","[673.5]","./assets/img/space/animals/cat.jpg","[""ArrowRight""]","practice block","space","36","{""ArrowUp,ArrowLeft"":3,""ArrowUp,ArrowRight"":36,""ArrowDown,ArrowLeft"":15,""ArrowDown,ArrowRight"":23}","true","ArrowUp,ArrowRight","","","","","","",""
"html-keyboard-response","82","415784","0.0-3.0-11.0-4.0-1.1","spark_pilot_norest","9178","7","22","Male","","","","","","","null","<div style=""font-size:60px;"">+</div>","null","fixation","","","","","","","","","","","",""
"revaluation","83","419797","0.0-3.0-11.0-4.0-0.2","spark_pilot_norest","9178","7","22","Male","","","false","","","","[856.7000000029802]","./assets/img/space/animals/rabbit.jpg","[""ArrowLeft""]","practice block","space","15","{""ArrowUp,ArrowLeft"":3,""ArrowUp,ArrowRight"":36,""ArrowDown,ArrowLeft"":15,""ArrowDown,ArrowRight"":23}","false","ArrowDown,ArrowLeft","","","","","","",""
"html-keyboard-response","84","420306","0.0-3.0-11.0-4.0-1.2","spark_pilot_norest","9178","7","22","Male","","","","","","","null","<div style=""font-size:60px;"">+</div>","null","fixation","","","","","","","","","","","",""
"revaluation","85","424318","0.0-3.0-11.0-4.0-0.3","spark_pilot_norest","9178","7","22","Male","","","false","","","","[82.90000000596046]","./assets/img/space/animals/rabbit.jpg","[""ArrowRight""]","practice block","space","23","{""ArrowUp,ArrowLeft"":3,""ArrowUp,ArrowRight"":36,""ArrowDown,ArrowLeft"":15,""ArrowDown,ArrowRight"":23}","true","ArrowDown,ArrowRight","","","","","","",""
"html-keyboard-response","86","424825","0.0-3.0-11.0-4.0-1.3","spark_pilot_norest","9178","7","22","Male","","","","","","","null","<div style=""font-size:60px;"">+</div>","null","fixation","","","","","","","","","","","",""
"learning-instructions","87","432958","0.0-3.0-11.0-5.0-0.0","spark_pilot_norest","9178","7","22","Male","","","","","","","null","<p> You have almost finished this part of the game! </p>
            <p> We are going to ask you to make a few more choices. </p>","","instructions","","","","","","","","","","","",""
"learning-instructions","88","448981","0.0-3.0-11.0-5.0-0.1","spark_pilot_norest","9178","7","22","Male","","","","","","","null","<p> First, you need to decide whether to go up or down. When you see each picture, use the arrow keys to make your choice. </p>
            <p><b>You will not see which animal you found, but try to get to the one that will give you the most treasure.</b></p>","","instructions","","","","","","","","","","","",""
"html-keyboard-response","89","449990","0.0-3.0-11.0-6.0-0.0","spark_pilot_norest","9178","7","22","Male","","","","","","","null","<div style=""font-size:100px;color:red;"">Starting in...</div>","null","","","","","","","","","","","","",""
"html-keyboard-response","90","450997","0.0-3.0-11.0-6.0-1.0","spark_pilot_norest","9178","7","22","Male","","","","","","","null","<div style=""font-size:200px;color:red;"">3</div>","null","","","","","","","","","","","","",""
"html-keyboard-response","91","452005","0.0-3.0-11.0-6.0-2.0","spark_pilot_norest","9178","7","22","Male","","","","","","","null","<div style=""font-size:200px;color:red;"">2</div>","null","","","","","","","","","","","","",""
"html-keyboard-response","92","453006","0.0-3.0-11.0-6.0-3.0","spark_pilot_norest","9178","7","22","Male","","","","","","","null","<div style=""font-size:200px;color:red;"">1</div>","null","","","","","","","","","","","","",""
"revaluation","93","453420","0.0-3.0-11.0-7.0","spark_pilot_norest","9178","7","22","Male","","","false","","","","[411.20000000298023]","./assets/img/space/15.jpg","[""ArrowUp""]","practice block","space","0","{""ArrowUp,ArrowLeft"":3,""ArrowUp,ArrowRight"":36,""ArrowDown,ArrowLeft"":15,""ArrowDown,ArrowRight"":23}","true","ArrowUp","false","","","","","",""
"html-keyboard-response","94","453926","0.0-3.0-11.0-8.0","spark_pilot_norest","9178","7","22","Male","","","","","","","null","<div style=""font-size:60px;"">+</div>","null","fixation","","","","","","","","","","","",""
"learning-instructions","95","467310","0.0-3.0-11.0-9.0-0.0","spark_pilot_norest","9178","7","22","Male","","","","","","","null","<p> Now you will see the animals again and can search their chests for treasure. </p>
            <p> This time, you will not see how much treasure you earned, but you will earn more bonus money for making better choices. </p>","","instructions","","","","","","","","","","","",""
"html-keyboard-response","96","468322","0.0-3.0-11.0-10.0-0.0","spark_pilot_norest","9178","7","22","Male","","","","","","","null","<div style=""font-size:100px;color:red;"">Starting in...</div>","null","","","","","","","","","","","","",""
"html-keyboard-response","97","469330","0.0-3.0-11.0-10.0-1.0","spark_pilot_norest","9178","7","22","Male","","","","","","","null","<div style=""font-size:200px;color:red;"">3</div>","null","","","","","","","","","","","","",""
"html-keyboard-response","98","470338","0.0-3.0-11.0-10.0-2.0","spark_pilot_norest","9178","7","22","Male","","","","","","","null","<div style=""font-size:200px;color:red;"">2</div>","null","","","","","","","","","","","","",""
"html-keyboard-response","99","471345","0.0-3.0-11.0-10.0-3.0","spark_pilot_norest","9178","7","22","Male","","","","","","","null","<div style=""font-size:200px;color:red;"">1</div>","null","","","","","","","","","","","","",""
"revaluation","100","471818","0.0-3.0-11.0-11.0-0.0","spark_pilot_norest","9178","7","22","Male","","","false","","","","[469.09999999403954]","./assets/img/space/animals/cat.jpg","[""ArrowRight""]","practice block","space","0","{""ArrowUp,ArrowLeft"":3,""ArrowUp,ArrowRight"":36,""ArrowDown,ArrowLeft"":15,""ArrowDown,ArrowRight"":23}","true","ArrowUp,ArrowRight","","","","","","",""
"html-keyboard-response","101","472328","0.0-3.0-11.0-11.0-1.0","spark_pilot_norest","9178","7","22","Male","","","","","","","null","<div style=""font-size:60px;"">+</div>","null","fixation","","","","","","","","","","","",""
"revaluation","102","472801","0.0-3.0-11.0-11.0-0.1","spark_pilot_norest","9178","7","22","Male","","","false","","","","[469.70000000298023]","./assets/img/space/animals/rabbit.jpg","[""ArrowRight""]","practice block","space","0","{""ArrowUp,ArrowLeft"":3,""ArrowUp,ArrowRight"":36,""ArrowDown,ArrowLeft"":15,""ArrowDown,ArrowRight"":23}","true","ArrowDown,ArrowRight","","","","","","",""
"html-keyboard-response","103","473304","0.0-3.0-11.0-11.0-1.1","spark_pilot_norest","9178","7","22","Male","","","","","","","null","<div style=""font-size:60px;"">+</div>","null","fixation","","","","","","","","","","","",""
"learning-instructions","104","479493","0.0-3.0-12.0-0.0","spark_pilot_norest","9178","7","22","Male","","","","","","","1607.2000000029802","<p> Before you start, we're going to ask you a few questions about how the game works. </p>","","instructions","","","","","","","","","","","",""
"comp-q","105","486016","0.0-3.0-13.0-0.0-0.0","spark_pilot_norest","9178","7","22","Male","","","","","","","930.7999999970198","<p> <b> True or False? </b> </p>
            <p> There can be 50 pieces of treasure in a given animal's chest. </p>","1","comp_question","","","","true","","","","","","","",""
"comp-q","106","494216","0.0-3.0-13.0-0.0-1.0","spark_pilot_norest","9178","7","22","Male","","","","","","","1541.2000000029802","<p> <b> That's right! </b> The amount of treasure in each chest can range from 0 to 40 pieces. </p>","0","comp_answer","","","","","","","","","","","",""
"comp-q","107","502478","0.0-3.0-13.0-0.1-0.1","spark_pilot_norest","9178","7","22","Male","","","","","","","1135.699999988079","<p> <b> True or False? </b> </p><p> In this game, all animals have the same amount of treasure in their left and right chests. </p>","1","comp_question","","","","true","","","","","","","",""
"comp-q","108","509055","0.0-3.0-13.0-0.1-1.1","spark_pilot_norest","9178","7","22","Male","","","","","","","1345.8999999910593","<p> <b> That's right! </b> Animals have different amounts of treasure in their treasure chests. </p>","0","comp_answer","","","","","","","","","","","",""
"comp-q","109","515648","0.0-3.0-13.0-0.2-0.2","spark_pilot_norest","9178","7","22","Male","","","","","","","749.5999999940395","<p> <b> True or False? </b> </p><p> The same animal will always be there if you go up in the same place. </p>","0","comp_question","","","","true","","","","","","","",""
"comp-q","110","522894","0.0-3.0-13.0-0.2-1.2","spark_pilot_norest","9178","7","22","Male","","","","","","","801.1000000089407","<p> <b> That's right! </b> One animal lives in the upper part and one lives in the lower part of every place. </p>","0","comp_answer","","","","","","","","","","","",""
"comp-q","111","528767","0.0-3.0-13.0-0.3-0.3","spark_pilot_norest","9178","7","22","Male","","","","","","","348.09999999403954","<p> <b> True or False? </b> </p><p> If you see a different picture, it means you are in a new place. </p>","1","comp_question","","","","true","","","","","","","",""
"comp-q","112","541223","0.0-3.0-13.0-0.3-1.3","spark_pilot_norest","9178","7","22","Male","","","","","","","1231.2000000029802","<p> <b> That's right! </b> Lots of different images may show the same place. For example,  you may see three different images that all remind you that you are in outer space. </p>","0","comp_answer","","","","","","","","","","","",""
"learning-instructions","113","552672","0.0-3.0-14.0-0.0","spark_pilot_norest","9178","7","22","Male","","","","","","","1597.5","<p> Good job. Remember to do your best because the amount of treasure you earn will be converted into bonus money. </p>
            <p> It’s time to start the real game! </p>","","instructions","","","","","","","","","","","",""
"learning-instructions","114","556564","0.0-4.0-0.0-0.0","spark_pilot_norest","9178","7","22","Male","","","","","","","1127","<p> This time you are searching for treasure in the <b>canyon</b>.</p>","","instructions","","","","","","","","","","","",""
"learning-instructions","115","575384","0.0-4.0-0.0-0.1","spark_pilot_norest","9178","7","22","Male","","","","","","","1520.5","<p><b>New</b> animals with <b>new</b> treasure chests live here. You need to explore to discover where the animal with the best treasure chest is.</p>
                    <p> Like before, once you figure out which animal has the chest with the most treasure, you should try to get to that animal and select that chest! </p>","","instructions","","","","","","","","","","","",""
"learning-instructions","116","590935","0.0-4.0-1.0-0.0","spark_pilot_norest","9178","7","22","Male","","","","","","","821.0999999940395","<p> Remember, when you see a picture of the place, use the up and down keys to <b>find an animal</b>.</p>
            <p> When you encounter an animal, you should use the left and right keys to <b>select a treasure chest</b>.</p>
            <p> Don't forget to look out for the robber! </p>","","instructions","","","","","","","","","","","",""
"revaluation","117","596959","0.0-4.0-2.0-0.0","spark_pilot_norest","9178","7","22","Male","","","false","","","","[1081,527.2999999970198]","./assets/img/canyon/memory/10.jpg","[""ArrowUp"",""ArrowLeft""]","value training","canyon","23","{""ArrowUp,ArrowLeft"":23,""ArrowUp,ArrowRight"":10,""ArrowDown,ArrowLeft"":8,""ArrowDown,ArrowRight"":30}","false","ArrowUp,ArrowLeft","false","original","1","0","","",""
"html-keyboard-response","118","597474","0.0-4.0-2.0-1.0","spark_pilot_norest","9178","7","22","Male","","","","","","","null","<div style=""font-size:60px;"">+</div>","null","fixation","","","","","","","","","1","","",""
"revaluation","119","603495","0.0-4.0-2.0-0.1","spark_pilot_norest","9178","7","22","Male","","","false","","","","[316.20000000298023,296.79999999701977]","./assets/img/canyon/memory/26.jpg","[""ArrowDown"",""ArrowLeft""]","value training","canyon","8","{""ArrowUp,ArrowLeft"":23,""ArrowUp,ArrowRight"":10,""ArrowDown,ArrowLeft"":8,""ArrowDown,ArrowRight"":30}","false","ArrowDown,ArrowLeft","false","original","1","2","","",""
"html-keyboard-response","120","604000","0.0-4.0-2.0-1.1","spark_pilot_norest","9178","7","22","Male","","","","","","","null","<div style=""font-size:60px;"">+</div>","null","fixation","","","","","","","","","3","","",""
"revaluation","121","610025","0.0-4.0-2.0-0.2","spark_pilot_norest","9178","7","22","Male","","","false","","","","[362.70000000298023,365.29999999701977]","./assets/img/canyon/memory/36.jpg","[""ArrowDown"",""ArrowRight""]","value training","canyon","30","{""ArrowUp,ArrowLeft"":23,""ArrowUp,ArrowRight"":10,""ArrowDown,ArrowLeft"":8,""ArrowDown,ArrowRight"":30}","true","ArrowDown,ArrowRight","false","original","1","4","","",""
"html-keyboard-response","122","610527","0.0-4.0-2.0-1.2","spark_pilot_norest","9178","7","22","Male","","","","","","","null","<div style=""font-size:60px;"">+</div>","null","fixation","","","","","","","","","5","","",""
"revaluation","123","616556","0.0-4.0-2.0-0.3","spark_pilot_norest","9178","7","22","Male","","","false","","","","[307,317.5]","./assets/img/canyon/memory/21.jpg","[""ArrowUp"",""ArrowRight""]","value training","canyon","10","{""ArrowUp,ArrowLeft"":23,""ArrowUp,ArrowRight"":10,""ArrowDown,ArrowLeft"":8,""ArrowDown,ArrowRight"":30}","false","ArrowUp,ArrowRight","false","original","1","6","","",""
"html-keyboard-response","124","617065","0.0-4.0-2.0-1.3","spark_pilot_norest","9178","7","22","Male","","","","","","","null","<div style=""font-size:60px;"">+</div>","null","fixation","","","","","","","","","7","","",""
"revaluation","125","623090","0.0-4.0-2.0-0.4","spark_pilot_norest","9178","7","22","Male","","","false","","","","[194.40000000596046,67.20000000298023]","./assets/img/canyon/memory/0.jpg","[""ArrowDown"",""ArrowRight""]","value training","canyon","30","{""ArrowUp,ArrowLeft"":23,""ArrowUp,ArrowRight"":10,""ArrowDown,ArrowLeft"":8,""ArrowDown,ArrowRight"":30}","true","ArrowDown,ArrowRight","false","original","1","8","","",""
"html-keyboard-response","126","623601","0.0-4.0-2.0-1.4","spark_pilot_norest","9178","7","22","Male","","","","","","","null","<div style=""font-size:60px;"">+</div>","null","fixation","","","","","","","","","9","","",""
"revaluation","127","629629","0.0-4.0-2.0-0.5","spark_pilot_norest","9178","7","22","Male","","","false","","","","[73.6000000089407,36.400000005960464]","./assets/img/canyon/memory/0.jpg","[""ArrowDown"",""ArrowRight""]","value training","canyon","30","{""ArrowUp,ArrowLeft"":23,""ArrowUp,ArrowRight"":10,""ArrowDown,ArrowLeft"":8,""ArrowDown,ArrowRight"":30}","true","ArrowDown,ArrowRight","false","original","1","10","","",""
"html-keyboard-response","128","630139","0.0-4.0-2.0-1.5","spark_pilot_norest","9178","7","22","Male","","","","","","","null","<div style=""font-size:60px;"">+</div>","null","fixation","","","","","","","","","11","","",""
"revaluation","129","636163","0.0-4.0-2.0-0.6","spark_pilot_norest","9178","7","22","Male","","","false","","","","[246.59999999403954,89.20000000298023]","./assets/img/canyon/memory/8.jpg","[""ArrowDown"",""ArrowRight""]","value training","canyon","30","{""ArrowUp,ArrowLeft"":23,""ArrowUp,ArrowRight"":10,""ArrowDown,ArrowLeft"":8,""ArrowDown,ArrowRight"":30}","true","ArrowDown,ArrowRight","false","original","1","12","","",""
"html-keyboard-response","130","636674","0.0-4.0-2.0-1.6","spark_pilot_norest","9178","7","22","Male","","","","","","","null","<div style=""font-size:60px;"">+</div>","null","fixation","","","","","","","","","13","","",""
"revaluation","131","642698","0.0-4.0-2.0-0.7","spark_pilot_norest","9178","7","22","Male","","","false","","","","[33.70000000298023,106.09999999403954]","./assets/img/canyon/memory/1.jpg","[""ArrowDown"",""ArrowRight""]","value training","canyon","30","{""ArrowUp,ArrowLeft"":23,""ArrowUp,ArrowRight"":10,""ArrowDown,ArrowLeft"":8,""ArrowDown,ArrowRight"":30}","true","ArrowDown,ArrowRight","false","original","1","14","","",""
"html-keyboard-response","132","643203","0.0-4.0-2.0-1.7","spark_pilot_norest","9178","7","22","Male","","","","","","","null","<div style=""font-size:60px;"">+</div>","null","fixation","","","","","","","","","15","","",""
"revaluation","133","649220","0.0-4.0-2.0-0.8","spark_pilot_norest","9178","7","22","Male","","","false","","","","[258.09999999403954,362.8999999910593]","./assets/img/canyon/memory/9.jpg","[""ArrowDown"",""ArrowRight""]","value training","canyon","30","{""ArrowUp,ArrowLeft"":23,""ArrowUp,ArrowRight"":10,""ArrowDown,ArrowLeft"":8,""ArrowDown,ArrowRight"":30}","true","ArrowDown,ArrowRight","false","original","1","16","","",""
"html-keyboard-response","134","649730","0.0-4.0-2.0-1.8","spark_pilot_norest","9178","7","22","Male","","","","","","","null","<div style=""font-size:60px;"">+</div>","null","fixation","","","","","","","","","17","","",""
"revaluation","135","655754","0.0-4.0-2.0-0.9","spark_pilot_norest","9178","7","22","Male","","","false","","","","[301.79999999701977,312.70000000298023]","./assets/img/canyon/memory/20.jpg","[""ArrowDown"",""ArrowRight""]","value training","canyon","30","{""ArrowUp,ArrowLeft"":23,""ArrowUp,ArrowRight"":10,""ArrowDown,ArrowLeft"":8,""ArrowDown,ArrowRight"":30}","true","ArrowDown,ArrowRight","false","original","1","18","","",""
"html-keyboard-response","136","656258","0.0-4.0-2.0-1.9","spark_pilot_norest","9178","7","22","Male","","","","","","","null","<div style=""font-size:60px;"">+</div>","null","fixation","","","","","","","","","19","","",""
"revaluation","137","662285","0.0-4.0-2.0-0.10","spark_pilot_norest","9178","7","22","Male","","","false","","","","[513,292.40000000596046]","./assets/img/canyon/memory/18.jpg","[""ArrowDown"",""ArrowRight""]","value training","canyon","30","{""ArrowUp,ArrowLeft"":23,""ArrowUp,ArrowRight"":10,""ArrowDown,ArrowLeft"":8,""ArrowDown,ArrowRight"":30}","true","ArrowDown,ArrowRight","false","original","1","20","","",""
"html-keyboard-response","138","662796","0.0-4.0-2.0-1.10","spark_pilot_norest","9178","7","22","Male","","","","","","","null","<div style=""font-size:60px;"">+</div>","null","fixation","","","","","","","","","21","","",""
"revaluation","139","668820","0.0-4.0-2.0-0.11","spark_pilot_norest","9178","7","22","Male","","","false","","","","[298.20000000298023,328]","./assets/img/canyon/memory/2.jpg","[""ArrowDown"",""ArrowRight""]","value training","canyon","30","{""ArrowUp,ArrowLeft"":23,""ArrowUp,ArrowRight"":10,""ArrowDown,ArrowLeft"":8,""ArrowDown,ArrowRight"":30}","true","ArrowDown,ArrowRight","false","original","1","22","","",""
"html-keyboard-response","140","669336","0.0-4.0-2.0-1.11","spark_pilot_norest","9178","7","22","Male","","","","","","","null","<div style=""font-size:60px;"">+</div>","null","fixation","","","","","","","","","23","","",""
"revaluation","141","675363","0.0-4.0-2.0-0.12","spark_pilot_norest","9178","7","22","Male","","","false","","","","[690.0999999940395,99.79999999701977]","./assets/img/canyon/memory/15.jpg","[""ArrowDown"",""ArrowRight""]","value training","canyon","30","{""ArrowUp,ArrowLeft"":23,""ArrowUp,ArrowRight"":10,""ArrowDown,ArrowLeft"":8,""ArrowDown,ArrowRight"":30}","true","ArrowDown,ArrowRight","false","original","1","24","","",""
"html-keyboard-response","142","675868","0.0-4.0-2.0-1.12","spark_pilot_norest","9178","7","22","Male","","","","","","","null","<div style=""font-size:60px;"">+</div>","null","fixation","","","","","","","","","25","","",""
"revaluation","143","681892","0.0-4.0-2.0-0.13","spark_pilot_norest","9178","7","22","Male","","","false","","","","[299.30000001192093,58.79999999701977]","./assets/img/canyon/memory/3.jpg","[""ArrowDown"",""ArrowRight""]","value training","canyon","30","{""ArrowUp,ArrowLeft"":23,""ArrowUp,ArrowRight"":10,""ArrowDown,ArrowLeft"":8,""ArrowDown,ArrowRight"":30}","true","ArrowDown,ArrowRight","false","original","1","26","","",""
"html-keyboard-response","144","682403","0.0-4.0-2.0-1.13","spark_pilot_norest","9178","7","22","Male","","","","","","","null","<div style=""font-size:60px;"">+</div>","null","fixation","","","","","","","","","27","","",""
"revaluation","145","686419","0.0-4.0-2.0-0.14","spark_pilot_norest","9178","7","22","Male","","","false","","","","[458.20000000298023]","./assets/img/canyon/catch/1.jpg","[""ArrowDown""]","value training","canyon","-10","{""ArrowUp,ArrowLeft"":23,""ArrowUp,ArrowRight"":10,""ArrowDown,ArrowLeft"":8,""ArrowDown,ArrowRight"":30}","false","ArrowDown","true","original","1","28","","",""
"html-keyboard-response","146","686921","0.0-4.0-2.0-1.14","spark_pilot_norest","9178","7","22","Male","","","","","","","null","<div style=""font-size:60px;"">+</div>","null","fixation","","","","","","","","","29","","",""
"revaluation","147","692948","0.0-4.0-2.0-0.15","spark_pilot_norest","9178","7","22","Male","","","false","","","","[473.6000000089407,309.59999999403954]","./assets/img/canyon/memory/19.jpg","[""ArrowDown"",""ArrowRight""]","value training","canyon","30","{""ArrowUp,ArrowLeft"":23,""ArrowUp,ArrowRight"":10,""ArrowDown,ArrowLeft"":8,""ArrowDown,ArrowRight"":30}","true","ArrowDown,ArrowRight","false","original","1","30","","",""
"html-keyboard-response","148","693459","0.0-4.0-2.0-1.15","spark_pilot_norest","9178","7","22","Male","","","","","","","null","<div style=""font-size:60px;"">+</div>","null","fixation","","","","","","","","","31","","",""
"revaluation","149","699481","0.0-4.0-2.0-0.16","spark_pilot_norest","9178","7","22","Male","","","false","","","","[726.7000000029802,347.6000000089407]","./assets/img/canyon/memory/29.jpg","[""ArrowDown"",""ArrowRight""]","value training","canyon","30","{""ArrowUp,ArrowLeft"":23,""ArrowUp,ArrowRight"":10,""ArrowDown,ArrowLeft"":8,""ArrowDown,ArrowRight"":30}","true","ArrowDown,ArrowRight","false","original","1","32","","",""
"html-keyboard-response","150","699990","0.0-4.0-2.0-1.16","spark_pilot_norest","9178","7","22","Male","","","","","","","null","<div style=""font-size:60px;"">+</div>","null","fixation","","","","","","","","","33","","",""
"revaluation","151","706009","0.0-4.0-2.0-0.17","spark_pilot_norest","9178","7","22","Male","","","false","","","","[735.5999999940395,404.30000001192093]","./assets/img/canyon/memory/22.jpg","[""ArrowDown"",""ArrowRight""]","value training","canyon","30","{""ArrowUp,ArrowLeft"":23,""ArrowUp,ArrowRight"":10,""ArrowDown,ArrowLeft"":8,""ArrowDown,ArrowRight"":30}","true","ArrowDown,ArrowRight","false","original","1","34","","",""
"html-keyboard-response","152","706515","0.0-4.0-2.0-1.17","spark_pilot_norest","9178","7","22","Male","","","","","","","null","<div style=""font-size:60px;"">+</div>","null","fixation","","","","","","","","","35","","",""
"revaluation","153","712539","0.0-4.0-2.0-0.18","spark_pilot_norest","9178","7","22","Male","","","false","","","","[669.3999999910593,360.40000000596046]","./assets/img/canyon/memory/15.jpg","[""ArrowDown"",""ArrowRight""]","value training","canyon","30","{""ArrowUp,ArrowLeft"":23,""ArrowUp,ArrowRight"":10,""ArrowDown,ArrowLeft"":8,""ArrowDown,ArrowRight"":30}","true","ArrowDown,ArrowRight","false","original","1","36","","",""
"html-keyboard-response","154","713044","0.0-4.0-2.0-1.18","spark_pilot_norest","9178","7","22","Male","","","","","","","null","<div style=""font-size:60px;"">+</div>","null","fixation","","","","","","","","","37","","",""
"revaluation","155","719066","0.0-4.0-2.0-0.19","spark_pilot_norest","9178","7","22","Male","","","false","","","","[593.7000000029802,400]","./assets/img/canyon/memory/36.jpg","[""ArrowDown"",""ArrowRight""]","value training","canyon","30","{""ArrowUp,ArrowLeft"":23,""ArrowUp,ArrowRight"":10,""ArrowDown,ArrowLeft"":8,""ArrowDown,ArrowRight"":30}","true","ArrowDown,ArrowRight","false","original","1","38","","",""
"html-keyboard-response","156","719572","0.0-4.0-2.0-1.19","spark_pilot_norest","9178","7","22","Male","","","","","","","null","<div style=""font-size:60px;"">+</div>","null","fixation","","","","","","","","","39","","",""
"revaluation","157","725597","0.0-4.0-2.0-0.20","spark_pilot_norest","9178","7","22","Male","","","false","","","","[1053.7000000029802,388.29999999701977]","./assets/img/canyon/memory/33.jpg","[""ArrowDown"",""ArrowRight""]","value training","canyon","30","{""ArrowUp,ArrowLeft"":23,""ArrowUp,ArrowRight"":10,""ArrowDown,ArrowLeft"":8,""ArrowDown,ArrowRight"":30}","true","ArrowDown,ArrowRight","false","original","1","40","","",""
"html-keyboard-response","158","726106","0.0-4.0-2.0-1.20","spark_pilot_norest","9178","7","22","Male","","","","","","","null","<div style=""font-size:60px;"">+</div>","null","fixation","","","","","","","","","41","","",""
"revaluation","159","732132","0.0-4.0-2.0-0.21","spark_pilot_norest","9178","7","22","Male","","","false","","","","[464.09999999403954,386.6000000089407]","./assets/img/canyon/memory/33.jpg","[""ArrowDown"",""ArrowRight""]","value training","canyon","30","{""ArrowUp,ArrowLeft"":23,""ArrowUp,ArrowRight"":10,""ArrowDown,ArrowLeft"":8,""ArrowDown,ArrowRight"":30}","true","ArrowDown,ArrowRight","false","original","1","42","","",""
"html-keyboard-response","160","732643","0.0-4.0-2.0-1.21","spark_pilot_norest","9178","7","22","Male","","","","","","","null","<div style=""font-size:60px;"">+</div>","null","fixation","","","","","","","","","43","","",""
"revaluation","161","738666","0.0-4.0-2.0-0.22","spark_pilot_norest","9178","7","22","Male","","","false","","","","[826,329.1000000089407]","./assets/img/canyon/memory/21.jpg","[""ArrowDown"",""ArrowRight""]","value training","canyon","30","{""ArrowUp,ArrowLeft"":23,""ArrowUp,ArrowRight"":10,""ArrowDown,ArrowLeft"":8,""ArrowDown,ArrowRight"":30}","true","ArrowDown,ArrowRight","false","original","1","44","","",""
"html-keyboard-response","162","739171","0.0-4.0-2.0-1.22","spark_pilot_norest","9178","7","22","Male","","","","","","","null","<div style=""font-size:60px;"">+</div>","null","fixation","","","","","","","","","45","","",""
"revaluation","163","745195","0.0-4.0-2.0-0.23","spark_pilot_norest","9178","7","22","Male","","","false","","","","[708.7999999970198,399]","./assets/img/canyon/memory/19.jpg","[""ArrowDown"",""ArrowRight""]","value training","canyon","30","{""ArrowUp,ArrowLeft"":23,""ArrowUp,ArrowRight"":10,""ArrowDown,ArrowLeft"":8,""ArrowDown,ArrowRight"":30}","true","ArrowDown,ArrowRight","false","original","1","46","","",""
"html-keyboard-response","164","745700","0.0-4.0-2.0-1.23","spark_pilot_norest","9178","7","22","Male","","","","","","","null","<div style=""font-size:60px;"">+</div>","null","fixation","","","","","","","","","47","","",""
"revaluation","165","751725","0.0-4.0-2.0-0.24","spark_pilot_norest","9178","7","22","Male","","","false","","","","[823.2999999970198,811]","./assets/img/canyon/memory/30.jpg","[""ArrowDown"",""ArrowRight""]","value training","canyon","30","{""ArrowUp,ArrowLeft"":23,""ArrowUp,ArrowRight"":10,""ArrowDown,ArrowLeft"":8,""ArrowDown,ArrowRight"":30}","true","ArrowDown,ArrowRight","false","original","1","48","","",""
"html-keyboard-response","166","752235","0.0-4.0-2.0-1.24","spark_pilot_norest","9178","7","22","Male","","","","","","","null","<div style=""font-size:60px;"">+</div>","null","fixation","","","","","","","","","49","","",""
"revaluation","167","758260","0.0-4.0-2.0-0.25","spark_pilot_norest","9178","7","22","Male","","","false","","","","[1027.5,248.09999999403954]","./assets/img/canyon/memory/25.jpg","[""ArrowDown"",""ArrowRight""]","value training","canyon","30","{""ArrowUp,ArrowLeft"":23,""ArrowUp,ArrowRight"":10,""ArrowDown,ArrowLeft"":8,""ArrowDown,ArrowRight"":30}","true","ArrowDown,ArrowRight","false","original","1","50","","",""
"html-keyboard-response","168","758762","0.0-4.0-2.0-1.25","spark_pilot_norest","9178","7","22","Male","","","","","","","null","<div style=""font-size:60px;"">+</div>","null","fixation","","","","","","","","","51","","",""
"revaluation","169","762778","0.0-4.0-2.0-0.26","spark_pilot_norest","9178","7","22","Male","","","false","","","","[742.6000000089407]","./assets/img/canyon/catch/7.jpg","[""spaceBar""]","value training","canyon","0","{""ArrowUp,ArrowLeft"":23,""ArrowUp,ArrowRight"":10,""ArrowDown,ArrowLeft"":8,""ArrowDown,ArrowRight"":30}","true","spaceBar","true","original","1","52","","",""
"html-keyboard-response","170","763284","0.0-4.0-2.0-1.26","spark_pilot_norest","9178","7","22","Male","","","","","","","null","<div style=""font-size:60px;"">+</div>","null","fixation","","","","","","","","","53","","",""
"revaluation","171","769310","0.0-4.0-2.0-0.27","spark_pilot_norest","9178","7","22","Male","","","false","","","","[529.9000000059605,161.90000000596046]","./assets/img/canyon/memory/1.jpg","[""ArrowDown"",""ArrowRight""]","value training","canyon","30","{""ArrowUp,ArrowLeft"":23,""ArrowUp,ArrowRight"":10,""ArrowDown,ArrowLeft"":8,""ArrowDown,ArrowRight"":30}","true","ArrowDown,ArrowRight","false","original","1","54","","",""
"html-keyboard-response","172","769818","0.0-4.0-2.0-1.27","spark_pilot_norest","9178","7","22","Male","","","","","","","null","<div style=""font-size:60px;"">+</div>","null","fixation","","","","","","","","","55","","",""
"revaluation","173","775845","0.0-4.0-2.0-0.28","spark_pilot_norest","9178","7","22","Male","","","false","","","","[756.7999999970198,506.1000000089407]","./assets/img/canyon/memory/25.jpg","[""ArrowDown"",""ArrowRight""]","value training","canyon","30","{""ArrowUp,ArrowLeft"":23,""ArrowUp,ArrowRight"":10,""ArrowDown,ArrowLeft"":8,""ArrowDown,ArrowRight"":30}","true","ArrowDown,ArrowRight","false","original","1","56","","",""
"html-keyboard-response","174","776359","0.0-4.0-2.0-1.28","spark_pilot_norest","9178","7","22","Male","","","","","","","null","<div style=""font-size:60px;"">+</div>","null","fixation","","","","","","","","","57","","",""
"revaluation","175","782383","0.0-4.0-2.0-0.29","spark_pilot_norest","9178","7","22","Male","","","false","","","","[586.5,162.09999999403954]","./assets/img/canyon/memory/8.jpg","[""ArrowDown"",""ArrowRight""]","value training","canyon","30","{""ArrowUp,ArrowLeft"":23,""ArrowUp,ArrowRight"":10,""ArrowDown,ArrowLeft"":8,""ArrowDown,ArrowRight"":30}","true","ArrowDown,ArrowRight","false","original","1","58","","",""
"html-keyboard-response","176","782891","0.0-4.0-2.0-1.29","spark_pilot_norest","9178","7","22","Male","","","","","","","null","<div style=""font-size:60px;"">+</div>","null","fixation","","","","","","","","","59","","",""
"revaluation","177","788917","0.0-4.0-2.0-0.30","spark_pilot_norest","9178","7","22","Male","","","false","","","","[1009,367.5]","./assets/img/canyon/memory/20.jpg","[""ArrowDown"",""ArrowRight""]","value training","canyon","30","{""ArrowUp,ArrowLeft"":23,""ArrowUp,ArrowRight"":10,""ArrowDown,ArrowLeft"":8,""ArrowDown,ArrowRight"":30}","true","ArrowDown,ArrowRight","false","original","1","60","","",""
"html-keyboard-response","178","789422","0.0-4.0-2.0-1.30","spark_pilot_norest","9178","7","22","Male","","","","","","","null","<div style=""font-size:60px;"">+</div>","null","fixation","","","","","","","","","61","","",""
"revaluation","179","793438","0.0-4.0-2.0-0.31","spark_pilot_norest","9178","7","22","Male","","","false","","","","[614.7999999970198]","./assets/img/canyon/catch/6.jpg","[""spaceBar""]","value training","canyon","0","{""ArrowUp,ArrowLeft"":23,""ArrowUp,ArrowRight"":10,""ArrowDown,ArrowLeft"":8,""ArrowDown,ArrowRight"":30}","true","spaceBar","true","original","1","62","","",""
"html-keyboard-response","180","793948","0.0-4.0-2.0-1.31","spark_pilot_norest","9178","7","22","Male","","","","","","","null","<div style=""font-size:60px;"">+</div>","null","fixation","","","","","","","","","63","","",""
"revaluation","181","799973","0.0-4.0-2.0-0.32","spark_pilot_norest","9178","7","22","Male","","","false","","","","[767.0999999940395,354.29999999701977]","./assets/img/canyon/memory/26.jpg","[""ArrowDown"",""ArrowRight""]","value training","canyon","30","{""ArrowUp,ArrowLeft"":23,""ArrowUp,ArrowRight"":10,""ArrowDown,ArrowLeft"":8,""ArrowDown,ArrowRight"":30}","true","ArrowDown,ArrowRight","false","original","1","64","","",""
"html-keyboard-response","182","800485","0.0-4.0-2.0-1.32","spark_pilot_norest","9178","7","22","Male","","","","","","","null","<div style=""font-size:60px;"">+</div>","null","fixation","","","","","","","","","65","","",""
"revaluation","183","804502","0.0-4.0-2.0-0.33","spark_pilot_norest","9178","7","22","Male","","","false","","","","[724.7999999970198]","./assets/img/canyon/catch/0.jpg","[""spaceBar""]","value training","canyon","0","{""ArrowUp,ArrowLeft"":23,""ArrowUp,ArrowRight"":10,""ArrowDown,ArrowLeft"":8,""ArrowDown,ArrowRight"":30}","true","spaceBar","true","original","1","66","","",""
"html-keyboard-response","184","805014","0.0-4.0-2.0-1.33","spark_pilot_norest","9178","7","22","Male","","","","","","","null","<div style=""font-size:60px;"">+</div>","null","fixation","","","","","","","","","67","","",""
"revaluation","185","811038","0.0-4.0-2.0-0.34","spark_pilot_norest","9178","7","22","Male","","","false","","","","[816.5,999.2999999970198]","./assets/img/canyon/memory/29.jpg","[""ArrowDown"",""ArrowRight""]","value training","canyon","30","{""ArrowUp,ArrowLeft"":23,""ArrowUp,ArrowRight"":10,""ArrowDown,ArrowLeft"":8,""ArrowDown,ArrowRight"":30}","true","ArrowDown,ArrowRight","false","original","1","68","","",""
"html-keyboard-response","186","811547","0.0-4.0-2.0-1.34","spark_pilot_norest","9178","7","22","Male","","","","","","","null","<div style=""font-size:60px;"">+</div>","null","fixation","","","","","","","","","69","","",""
"revaluation","187","817573","0.0-4.0-2.0-0.35","spark_pilot_norest","9178","7","22","Male","","","false","","","","[751.7000000029802,487.19999998807907]","./assets/img/canyon/memory/30.jpg","[""ArrowDown"",""ArrowRight""]","value training","canyon","30","{""ArrowUp,ArrowLeft"":23,""ArrowUp,ArrowRight"":10,""ArrowDown,ArrowLeft"":8,""ArrowDown,ArrowRight"":30}","true","ArrowDown,ArrowRight","false","original","1","70","","",""
"html-keyboard-response","188","818079","0.0-4.0-2.0-1.35","spark_pilot_norest","9178","7","22","Male","","","","","","","null","<div style=""font-size:60px;"">+</div>","null","fixation","","","","","","","","","71","","",""
"revaluation","189","824108","0.0-4.0-2.0-0.36","spark_pilot_norest","9178","7","22","Male","","","false","","","","[747,320.40000000596046]","./assets/img/canyon/memory/3.jpg","[""ArrowDown"",""ArrowRight""]","value training","canyon","30","{""ArrowUp,ArrowLeft"":23,""ArrowUp,ArrowRight"":10,""ArrowDown,ArrowLeft"":8,""ArrowDown,ArrowRight"":30}","true","ArrowDown,ArrowRight","false","original","1","72","","",""
"html-keyboard-response","190","824613","0.0-4.0-2.0-1.36","spark_pilot_norest","9178","7","22","Male","","","","","","","null","<div style=""font-size:60px;"">+</div>","null","fixation","","","","","","","","","73","","",""
"revaluation","191","830637","0.0-4.0-2.0-0.37","spark_pilot_norest","9178","7","22","Male","","","false","","","","[801.5,312.19999998807907]","./assets/img/canyon/memory/17.jpg","[""ArrowDown"",""ArrowRight""]","value training","canyon","30","{""ArrowUp,ArrowLeft"":23,""ArrowUp,ArrowRight"":10,""ArrowDown,ArrowLeft"":8,""ArrowDown,ArrowRight"":30}","true","ArrowDown,ArrowRight","false","original","1","74","","",""
"html-keyboard-response","192","831142","0.0-4.0-2.0-1.37","spark_pilot_norest","9178","7","22","Male","","","","","","","null","<div style=""font-size:60px;"">+</div>","null","fixation","","","","","","","","","75","","",""
"revaluation","193","837163","0.0-4.0-2.0-0.38","spark_pilot_norest","9178","7","22","Male","","","false","","","","[981.3999999910593,494.59999999403954]","./assets/img/canyon/memory/18.jpg","[""ArrowDown"",""ArrowRight""]","value training","canyon","30","{""ArrowUp,ArrowLeft"":23,""ArrowUp,ArrowRight"":10,""ArrowDown,ArrowLeft"":8,""ArrowDown,ArrowRight"":30}","true","ArrowDown,ArrowRight","false","original","1","76","","",""
"html-keyboard-response","194","837670","0.0-4.0-2.0-1.38","spark_pilot_norest","9178","7","22","Male","","","","","","","null","<div style=""font-size:60px;"">+</div>","null","fixation","","","","","","","","","77","","",""
"revaluation","195","841686","0.0-4.0-2.0-0.39","spark_pilot_norest","9178","7","22","Male","","","false","","","","[593.6999999880791]","./assets/img/canyon/catch/4.jpg","[""spaceBar""]","value training","canyon","0","{""ArrowUp,ArrowLeft"":23,""ArrowUp,ArrowRight"":10,""ArrowDown,ArrowLeft"":8,""ArrowDown,ArrowRight"":30}","true","spaceBar","true","original","1","78","","",""
"html-keyboard-response","196","842198","0.0-4.0-2.0-1.39","spark_pilot_norest","9178","7","22","Male","","","","","","","null","<div style=""font-size:60px;"">+</div>","null","fixation","","","","","","","","","79","","",""
"revaluation","197","846213","0.0-4.0-2.0-0.40","spark_pilot_norest","9178","7","22","Male","","","false","","","","[699.9000000059605]","./assets/img/canyon/catch/3.jpg","[""spaceBar""]","value training","canyon","0","{""ArrowUp,ArrowLeft"":23,""ArrowUp,ArrowRight"":10,""ArrowDown,ArrowLeft"":8,""ArrowDown,ArrowRight"":30}","true","spaceBar","true","original","1","80","","",""
"html-keyboard-response","198","846717","0.0-4.0-2.0-1.40","spark_pilot_norest","9178","7","22","Male","","","","","","","null","<div style=""font-size:60px;"">+</div>","null","fixation","","","","","","","","","81","","",""
"revaluation","199","852743","0.0-4.0-2.0-0.41","spark_pilot_norest","9178","7","22","Male","","","false","","","","[660.7999999970198,762.9000000059605]","./assets/img/canyon/memory/17.jpg","[""ArrowDown"",""ArrowRight""]","value training","canyon","30","{""ArrowUp,ArrowLeft"":23,""ArrowUp,ArrowRight"":10,""ArrowDown,ArrowLeft"":8,""ArrowDown,ArrowRight"":30}","true","ArrowDown,ArrowRight","false","original","1","82","","",""
"html-keyboard-response","200","853253","0.0-4.0-2.0-1.41","spark_pilot_norest","9178","7","22","Male","","","","","","","null","<div style=""font-size:60px;"">+</div>","null","fixation","","","","","","","","","83","","",""
"revaluation","201","859276","0.0-4.0-2.0-0.42","spark_pilot_norest","9178","7","22","Male","","","false","","","","[1169.0999999940395,536.5999999940395]","./assets/img/canyon/memory/39.jpg","[""ArrowDown"",""ArrowRight""]","value training","canyon","30","{""ArrowUp,ArrowLeft"":23,""ArrowUp,ArrowRight"":10,""ArrowDown,ArrowLeft"":8,""ArrowDown,ArrowRight"":30}","true","ArrowDown,ArrowRight","false","original","1","84","","",""
"html-keyboard-response","202","859782","0.0-4.0-2.0-1.42","spark_pilot_norest","9178","7","22","Male","","","","","","","null","<div style=""font-size:60px;"">+</div>","null","fixation","","","","","","","","","85","","",""
"revaluation","203","863798","0.0-4.0-2.0-0.43","spark_pilot_norest","9178","7","22","Male","","","false","","","","[1646.5]","./assets/img/canyon/catch/5.jpg","[""spaceBar""]","value training","canyon","0","{""ArrowUp,ArrowLeft"":23,""ArrowUp,ArrowRight"":10,""ArrowDown,ArrowLeft"":8,""ArrowDown,ArrowRight"":30}","true","spaceBar","true","original","1","86","","",""
"html-keyboard-response","204","864300","0.0-4.0-2.0-1.43","spark_pilot_norest","9178","7","22","Male","","","","","","","null","<div style=""font-size:60px;"">+</div>","null","fixation","","","","","","","","","87","","",""
"revaluation","205","870327","0.0-4.0-2.0-0.44","spark_pilot_norest","9178","7","22","Male","","","false","","","","[1110.9000000059605,245.5]","./assets/img/canyon/memory/22.jpg","[""ArrowDown"",""ArrowRight""]","value training","canyon","30","{""ArrowUp,ArrowLeft"":23,""ArrowUp,ArrowRight"":10,""ArrowDown,ArrowLeft"":8,""ArrowDown,ArrowRight"":30}","true","ArrowDown,ArrowRight","false","original","1","88","","",""
"html-keyboard-response","206","870838","0.0-4.0-2.0-1.44","spark_pilot_norest","9178","7","22","Male","","","","","","","null","<div style=""font-size:60px;"">+</div>","null","fixation","","","","","","","","","89","","",""
"revaluation","207","876862","0.0-4.0-2.0-0.45","spark_pilot_norest","9178","7","22","Male","","","false","","","","[703.3999999910593,716.7000000029802]","./assets/img/canyon/memory/39.jpg","[""ArrowDown"",""ArrowRight""]","value training","canyon","30","{""ArrowUp,ArrowLeft"":23,""ArrowUp,ArrowRight"":10,""ArrowDown,ArrowLeft"":8,""ArrowDown,ArrowRight"":30}","true","ArrowDown,ArrowRight","false","original","1","90","","",""
"html-keyboard-response","208","877367","0.0-4.0-2.0-1.45","spark_pilot_norest","9178","7","22","Male","","","","","","","null","<div style=""font-size:60px;"">+</div>","null","fixation","","","","","","","","","91","","",""
"revaluation","209","883389","0.0-4.0-2.0-0.46","spark_pilot_norest","9178","7","22","Male","","","false","","","","[905,661]","./assets/img/canyon/memory/2.jpg","[""ArrowDown"",""ArrowRight""]","value training","canyon","30","{""ArrowUp,ArrowLeft"":23,""ArrowUp,ArrowRight"":10,""ArrowDown,ArrowLeft"":8,""ArrowDown,ArrowRight"":30}","true","ArrowDown,ArrowRight","false","original","1","92","","",""
"html-keyboard-response","210","883895","0.0-4.0-2.0-1.46","spark_pilot_norest","9178","7","22","Male","","","","","","","null","<div style=""font-size:60px;"">+</div>","null","fixation","","","","","","","","","93","","",""
"revaluation","211","889920","0.0-4.0-2.0-0.47","spark_pilot_norest","9178","7","22","Male","","","false","","","","[800.0999999940395,451.80000001192093]","./assets/img/canyon/memory/10.jpg","[""ArrowDown"",""ArrowRight""]","value training","canyon","30","{""ArrowUp,ArrowLeft"":23,""ArrowUp,ArrowRight"":10,""ArrowDown,ArrowLeft"":8,""ArrowDown,ArrowRight"":30}","true","ArrowDown,ArrowRight","false","original","1","94","","",""
"html-keyboard-response","212","890431","0.0-4.0-2.0-1.47","spark_pilot_norest","9178","7","22","Male","","","","","","","null","<div style=""font-size:60px;"">+</div>","null","fixation","","","","","","","","","95","","",""
"revaluation","213","896455","0.0-4.0-2.0-0.48","spark_pilot_norest","9178","7","22","Male","","","false","","","","[837.8000000119209,401.09999999403954]","./assets/img/canyon/memory/9.jpg","[""ArrowDown"",""ArrowRight""]","value training","canyon","30","{""ArrowUp,ArrowLeft"":23,""ArrowUp,ArrowRight"":10,""ArrowDown,ArrowLeft"":8,""ArrowDown,ArrowRight"":30}","true","ArrowDown,ArrowRight","false","original","1","96","","",""
"html-keyboard-response","214","896967","0.0-4.0-2.0-1.48","spark_pilot_norest","9178","7","22","Male","","","","","","","null","<div style=""font-size:60px;"">+</div>","null","fixation","","","","","","","","","97","","",""
"revaluation","215","900983","0.0-4.0-2.0-0.49","spark_pilot_norest","9178","7","22","Male","","","false","","","","[678.2999999970198]","./assets/img/canyon/catch/2.jpg","[""spaceBar""]","value training","canyon","0","{""ArrowUp,ArrowLeft"":23,""ArrowUp,ArrowRight"":10,""ArrowDown,ArrowLeft"":8,""ArrowDown,ArrowRight"":30}","true","spaceBar","true","original","1","98","","",""
"html-keyboard-response","216","901488","0.0-4.0-2.0-1.49","spark_pilot_norest","9178","7","22","Male","","","","","","","null","<div style=""font-size:60px;"">+</div>","null","fixation","","","","","","","","","99","","",""
"learning-instructions","217","916804","0.0-4.0-3.0-0.0","spark_pilot_norest","9178","7","22","Male","","","","","","","2432.7999999970198","<p> Now, you will travel with a friend who will choose whether you go up or down first. </p>
            <p> On these turns, you will just see the animal that they found. You will still get to choose which chest to search for treasure.</p>","","instructions","","","","","","","","","","","",""
"revaluation","218","920821","0.0-4.0-4.0-0.0","spark_pilot_norest","9178","7","22","Male","","","false","","","","[854.5]","./assets/img/canyon/animals/giraffe.jpg","[""ArrowLeft""]","revaluation","canyon","23","{""ArrowUp,ArrowLeft"":23,""ArrowUp,ArrowRight"":10,""ArrowDown,ArrowLeft"":8,""ArrowDown,ArrowRight"":30}","true","ArrowUp,ArrowLeft","","original","1","0","","",""
"html-keyboard-response","219","921335","0.0-4.0-4.0-1.0","spark_pilot_norest","9178","7","22","Male","","","","","","","null","<div style=""font-size:60px;"">+</div>","null","fixation","","","","","","","","","1","","",""
"revaluation","220","925352","0.0-4.0-4.0-0.1","spark_pilot_norest","9178","7","22","Male","","","false","","","","[452.90000000596046]","./assets/img/canyon/animals/giraffe.jpg","[""ArrowLeft""]","revaluation","canyon","23","{""ArrowUp,ArrowLeft"":23,""ArrowUp,ArrowRight"":10,""ArrowDown,ArrowLeft"":8,""ArrowDown,ArrowRight"":30}","true","ArrowUp,ArrowLeft","","original","1","2","","",""
"html-keyboard-response","221","925861","0.0-4.0-4.0-1.1","spark_pilot_norest","9178","7","22","Male","","","","","","","null","<div style=""font-size:60px;"">+</div>","null","fixation","","","","","","","","","3","","",""
"revaluation","222","929878","0.0-4.0-4.0-0.2","spark_pilot_norest","9178","7","22","Male","","","false","","","","[470]","./assets/img/canyon/animals/giraffe.jpg","[""ArrowLeft""]","revaluation","canyon","23","{""ArrowUp,ArrowLeft"":23,""ArrowUp,ArrowRight"":10,""ArrowDown,ArrowLeft"":8,""ArrowDown,ArrowRight"":30}","true","ArrowUp,ArrowLeft","","original","1","4","","",""
"html-keyboard-response","223","930385","0.0-4.0-4.0-1.2","spark_pilot_norest","9178","7","22","Male","","","","","","","null","<div style=""font-size:60px;"">+</div>","null","fixation","","","","","","","","","5","","",""
"revaluation","224","934401","0.0-4.0-4.0-0.3","spark_pilot_norest","9178","7","22","Male","","","false","","","","[536.2999999970198]","./assets/img/canyon/animals/lion.jpg","[""ArrowRight""]","revaluation","canyon","30","{""ArrowUp,ArrowLeft"":23,""ArrowUp,ArrowRight"":10,""ArrowDown,ArrowLeft"":8,""ArrowDown,ArrowRight"":30}","true","ArrowDown,ArrowRight","","original","1","6","","",""
"html-keyboard-response","225","934911","0.0-4.0-4.0-1.3","spark_pilot_norest","9178","7","22","Male","","","","","","","null","<div style=""font-size:60px;"">+</div>","null","fixation","","","","","","","","","7","","",""
"revaluation","226","938927","0.0-4.0-4.0-0.4","spark_pilot_norest","9178","7","22","Male","","","false","","","","[596.5]","./assets/img/canyon/animals/giraffe.jpg","[""ArrowLeft""]","revaluation","canyon","23","{""ArrowUp,ArrowLeft"":23,""ArrowUp,ArrowRight"":10,""ArrowDown,ArrowLeft"":8,""ArrowDown,ArrowRight"":30}","true","ArrowUp,ArrowLeft","","original","1","8","","",""
"html-keyboard-response","227","939431","0.0-4.0-4.0-1.4","spark_pilot_norest","9178","7","22","Male","","","","","","","null","<div style=""font-size:60px;"">+</div>","null","fixation","","","","","","","","","9","","",""
"revaluation","228","943446","0.0-4.0-4.0-0.5","spark_pilot_norest","9178","7","22","Male","","","false","","","","[739.5]","./assets/img/canyon/animals/lion.jpg","[""ArrowRight""]","revaluation","canyon","30","{""ArrowUp,ArrowLeft"":23,""ArrowUp,ArrowRight"":10,""ArrowDown,ArrowLeft"":8,""ArrowDown,ArrowRight"":30}","true","ArrowDown,ArrowRight","","original","1","10","","",""
"html-keyboard-response","229","943951","0.0-4.0-4.0-1.5","spark_pilot_norest","9178","7","22","Male","","","","","","","null","<div style=""font-size:60px;"">+</div>","null","fixation","","","","","","","","","11","","",""
"revaluation","230","947967","0.0-4.0-4.0-0.6","spark_pilot_norest","9178","7","22","Male","","","false","","","","[830.7000000029802]","./assets/img/canyon/animals/giraffe.jpg","[""ArrowLeft""]","revaluation","canyon","23","{""ArrowUp,ArrowLeft"":23,""ArrowUp,ArrowRight"":10,""ArrowDown,ArrowLeft"":8,""ArrowDown,ArrowRight"":30}","true","ArrowUp,ArrowLeft","","original","1","12","","",""
"html-keyboard-response","231","948472","0.0-4.0-4.0-1.6","spark_pilot_norest","9178","7","22","Male","","","","","","","null","<div style=""font-size:60px;"">+</div>","null","fixation","","","","","","","","","13","","",""
"revaluation","232","952491","0.0-4.0-4.0-0.7","spark_pilot_norest","9178","7","22","Male","","","false","","","","[462.59999999403954]","./assets/img/canyon/animals/lion.jpg","[""ArrowRight""]","revaluation","canyon","30","{""ArrowUp,ArrowLeft"":23,""ArrowUp,ArrowRight"":10,""ArrowDown,ArrowLeft"":8,""ArrowDown,ArrowRight"":30}","true","ArrowDown,ArrowRight","","original","1","14","","",""
"html-keyboard-response","233","953003","0.0-4.0-4.0-1.7","spark_pilot_norest","9178","7","22","Male","","","","","","","null","<div style=""font-size:60px;"">+</div>","null","fixation","","","","","","","","","15","","",""
"revaluation","234","957021","0.0-4.0-4.0-0.8","spark_pilot_norest","9178","7","22","Male","","","false","","","","[694.2000000029802]","./assets/img/canyon/animals/lion.jpg","[""ArrowRight""]","revaluation","canyon","30","{""ArrowUp,ArrowLeft"":23,""ArrowUp,ArrowRight"":10,""ArrowDown,ArrowLeft"":8,""ArrowDown,ArrowRight"":30}","true","ArrowDown,ArrowRight","","original","1","16","","",""
"html-keyboard-response","235","957532","0.0-4.0-4.0-1.8","spark_pilot_norest","9178","7","22","Male","","","","","","","null","<div style=""font-size:60px;"">+</div>","null","fixation","","","","","","","","","17","","",""
"revaluation","236","961556","0.0-4.0-4.0-0.9","spark_pilot_norest","9178","7","22","Male","","","false","","","","[628.9000000059605]","./assets/img/canyon/animals/lion.jpg","[""ArrowRight""]","revaluation","canyon","30","{""ArrowUp,ArrowLeft"":23,""ArrowUp,ArrowRight"":10,""ArrowDown,ArrowLeft"":8,""ArrowDown,ArrowRight"":30}","true","ArrowDown,ArrowRight","","original","1","18","","",""
"html-keyboard-response","237","962061","0.0-4.0-4.0-1.9","spark_pilot_norest","9178","7","22","Male","","","","","","","null","<div style=""font-size:60px;"">+</div>","null","fixation","","","","","","","","","19","","",""
"revaluation","238","966080","0.0-4.0-4.0-0.10","spark_pilot_norest","9178","7","22","Male","","","false","","","","[544.8999999910593]","./assets/img/canyon/animals/lion.jpg","[""ArrowRight""]","revaluation","canyon","30","{""ArrowUp,ArrowLeft"":23,""ArrowUp,ArrowRight"":10,""ArrowDown,ArrowLeft"":8,""ArrowDown,ArrowRight"":30}","true","ArrowDown,ArrowRight","","original","1","20","","",""
"html-keyboard-response","239","966593","0.0-4.0-4.0-1.10","spark_pilot_norest","9178","7","22","Male","","","","","","","null","<div style=""font-size:60px;"">+</div>","null","fixation","","","","","","","","","21","","",""
"revaluation","240","970616","0.0-4.0-4.0-0.11","spark_pilot_norest","9178","7","22","Male","","","false","","","","[504.40000000596046]","./assets/img/canyon/animals/giraffe.jpg","[""ArrowLeft""]","revaluation","canyon","23","{""ArrowUp,ArrowLeft"":23,""ArrowUp,ArrowRight"":10,""ArrowDown,ArrowLeft"":8,""ArrowDown,ArrowRight"":30}","true","ArrowUp,ArrowLeft","","original","1","22","","",""
"html-keyboard-response","241","971125","0.0-4.0-4.0-1.11","spark_pilot_norest","9178","7","22","Male","","","","","","","null","<div style=""font-size:60px;"">+</div>","null","fixation","","","","","","","","","23","","",""
"revaluation","242","975141","0.0-4.0-4.0-0.12","spark_pilot_norest","9178","7","22","Male","","","false","","","","[585.4000000059605]","./assets/img/canyon/animals/giraffe.jpg","[""ArrowLeft""]","revaluation","canyon","23","{""ArrowUp,ArrowLeft"":23,""ArrowUp,ArrowRight"":10,""ArrowDown,ArrowLeft"":8,""ArrowDown,ArrowRight"":30}","true","ArrowUp,ArrowLeft","","original","1","24","","",""
"html-keyboard-response","243","975648","0.0-4.0-4.0-1.12","spark_pilot_norest","9178","7","22","Male","","","","","","","null","<div style=""font-size:60px;"">+</div>","null","fixation","","","","","","","","","25","","",""
"revaluation","244","979664","0.0-4.0-4.0-0.13","spark_pilot_norest","9178","7","22","Male","","","false","","","","[585.7000000029802]","./assets/img/canyon/animals/lion.jpg","[""ArrowRight""]","revaluation","canyon","30","{""ArrowUp,ArrowLeft"":23,""ArrowUp,ArrowRight"":10,""ArrowDown,ArrowLeft"":8,""ArrowDown,ArrowRight"":30}","true","ArrowDown,ArrowRight","","original","1","26","","",""
"html-keyboard-response","245","980176","0.0-4.0-4.0-1.13","spark_pilot_norest","9178","7","22","Male","","","","","","","null","<div style=""font-size:60px;"">+</div>","null","fixation","","","","","","","","","27","","",""
"revaluation","246","984193","0.0-4.0-4.0-0.14","spark_pilot_norest","9178","7","22","Male","","","false","","","","[495.90000000596046]","./assets/img/canyon/animals/lion.jpg","[""ArrowRight""]","revaluation","canyon","30","{""ArrowUp,ArrowLeft"":23,""ArrowUp,ArrowRight"":10,""ArrowDown,ArrowLeft"":8,""ArrowDown,ArrowRight"":30}","true","ArrowDown,ArrowRight","","original","1","28","","",""
"html-keyboard-response","247","984705","0.0-4.0-4.0-1.14","spark_pilot_norest","9178","7","22","Male","","","","","","","null","<div style=""font-size:60px;"">+</div>","null","fixation","","","","","","","","","29","","",""
"revaluation","248","988721","0.0-4.0-4.0-0.15","spark_pilot_norest","9178","7","22","Male","","","false","","","","[494.5]","./assets/img/canyon/animals/giraffe.jpg","[""ArrowLeft""]","revaluation","canyon","23","{""ArrowUp,ArrowLeft"":23,""ArrowUp,ArrowRight"":10,""ArrowDown,ArrowLeft"":8,""ArrowDown,ArrowRight"":30}","true","ArrowUp,ArrowLeft","","original","1","30","","",""
"html-keyboard-response","249","989233","0.0-4.0-4.0-1.15","spark_pilot_norest","9178","7","22","Male","","","","","","","null","<div style=""font-size:60px;"">+</div>","null","fixation","","","","","","","","","31","","",""
"revaluation","250","993254","0.0-4.0-4.0-0.16","spark_pilot_norest","9178","7","22","Male","","","false","","","","[658.3000000119209]","./assets/img/canyon/animals/lion.jpg","[""ArrowRight""]","revaluation","canyon","30","{""ArrowUp,ArrowLeft"":23,""ArrowUp,ArrowRight"":10,""ArrowDown,ArrowLeft"":8,""ArrowDown,ArrowRight"":30}","true","ArrowDown,ArrowRight","","original","1","32","","",""
"html-keyboard-response","251","993761","0.0-4.0-4.0-1.16","spark_pilot_norest","9178","7","22","Male","","","","","","","null","<div style=""font-size:60px;"">+</div>","null","fixation","","","","","","","","","33","","",""
"revaluation","252","997777","0.0-4.0-4.0-0.17","spark_pilot_norest","9178","7","22","Male","","","false","","","","[518.5]","./assets/img/canyon/animals/giraffe.jpg","[""ArrowLeft""]","revaluation","canyon","23","{""ArrowUp,ArrowLeft"":23,""ArrowUp,ArrowRight"":10,""ArrowDown,ArrowLeft"":8,""ArrowDown,ArrowRight"":30}","true","ArrowUp,ArrowLeft","","original","1","34","","",""
"html-keyboard-response","253","998290","0.0-4.0-4.0-1.17","spark_pilot_norest","9178","7","22","Male","","","","","","","null","<div style=""font-size:60px;"">+</div>","null","fixation","","","","","","","","","35","","",""
"learning-instructions","254","1006409","0.0-4.0-5.0-0.0","spark_pilot_norest","9178","7","22","Male","","","","","","","null","<p> You have almost finished this part of the game! </p>
            <p> We are going to ask you to make a few more choices. </p>","","instructions","","","","","","","","","","","",""
"learning-instructions","255","1022393","0.0-4.0-5.0-0.1","spark_pilot_norest","9178","7","22","Male","","","","","","","null","<p> First, you need to decide whether to go up or down. When you see each picture, use the arrow keys to make your choice. </p>
            <p><b>You will not see which animal you found, but try to get to the one that will give you the most treasure.</b></p>","","instructions","","","","","","","","","","","",""
"html-keyboard-response","256","1023401","0.0-4.0-6.0-0.0","spark_pilot_norest","9178","7","22","Male","","","","","","","null","<div style=""font-size:100px;color:red;"">Starting in...</div>","null","","","","","","","","","","","","",""
"html-keyboard-response","257","1024410","0.0-4.0-6.0-1.0","spark_pilot_norest","9178","7","22","Male","","","","","","","null","<div style=""font-size:200px;color:red;"">3</div>","null","","","","","","","","","","","","",""
"html-keyboard-response","258","1025418","0.0-4.0-6.0-2.0","spark_pilot_norest","9178","7","22","Male","","","","","","","null","<div style=""font-size:200px;color:red;"">2</div>","null","","","","","","","","","","","","",""
"html-keyboard-response","259","1026426","0.0-4.0-6.0-3.0","spark_pilot_norest","9178","7","22","Male","","","","","","","null","<div style=""font-size:200px;color:red;"">1</div>","null","","","","","","","","","","","","",""
"revaluation","260","1027065","0.0-4.0-7.0-0.0","spark_pilot_norest","9178","7","22","Male","","","false","","","","[635.2000000029802]","./assets/img/canyon/test/3.jpg","[""ArrowDown""]","first stage test","canyon","0","{""ArrowUp,ArrowLeft"":23,""ArrowUp,ArrowRight"":10,""ArrowDown,ArrowLeft"":8,""ArrowDown,ArrowRight"":30}","true","ArrowDown","false","original","1","","","",""
"html-keyboard-response","261","1027568","0.0-4.0-7.0-1.0","spark_pilot_norest","9178","7","22","Male","","","","","","","null","<div style=""font-size:60px;"">+</div>","null","fixation","","","","","","","","","","","",""
"revaluation","262","1029335","0.0-4.0-7.0-0.1","spark_pilot_norest","9178","7","22","Male","","","false","","","","[1762.0999999940395]","./assets/img/canyon/test/2.jpg","[""ArrowDown""]","first stage test","canyon","0","{""ArrowUp,ArrowLeft"":23,""ArrowUp,ArrowRight"":10,""ArrowDown,ArrowLeft"":8,""ArrowDown,ArrowRight"":30}","true","ArrowDown","false","original","1","","","",""
"html-keyboard-response","263","1029843","0.0-4.0-7.0-1.1","spark_pilot_norest","9178","7","22","Male","","","","","","","null","<div style=""font-size:60px;"">+</div>","null","fixation","","","","","","","","","","","",""
"revaluation","264","1030499","0.0-4.0-7.0-0.2","spark_pilot_norest","9178","7","22","Male","","","false","","","","[652.5999999940395]","./assets/img/canyon/test/1.jpg","[""ArrowDown""]","first stage test","canyon","0","{""ArrowUp,ArrowLeft"":23,""ArrowUp,ArrowRight"":10,""ArrowDown,ArrowLeft"":8,""ArrowDown,ArrowRight"":30}","true","ArrowDown","false","original","1","","","",""
"html-keyboard-response","265","1031009","0.0-4.0-7.0-1.2","spark_pilot_norest","9178","7","22","Male","","","","","","","null","<div style=""font-size:60px;"">+</div>","null","fixation","","","","","","","","","","","",""
"revaluation","266","1031573","0.0-4.0-7.0-0.3","spark_pilot_norest","9178","7","22","Male","","","false","","","","[560.9000000059605]","./assets/img/canyon/test/0.jpg","[""ArrowDown""]","first stage test","canyon","0","{""ArrowUp,ArrowLeft"":23,""ArrowUp,ArrowRight"":10,""ArrowDown,ArrowLeft"":8,""ArrowDown,ArrowRight"":30}","true","ArrowDown","false","original","1","","","",""
"html-keyboard-response","267","1032082","0.0-4.0-7.0-1.3","spark_pilot_norest","9178","7","22","Male","","","","","","","null","<div style=""font-size:60px;"">+</div>","null","fixation","","","","","","","","","","","",""
"learning-instructions","268","1045425","0.0-4.0-8.0-0.0","spark_pilot_norest","9178","7","22","Male","","","","","","","null","<p> Now you will see the animals again and can search their chests for treasure. </p>
            <p> This time, you will not see how much treasure you earned, but you will earn more bonus money for making better choices. </p>","","instructions","","","","","","","","","","","",""
"html-keyboard-response","269","1046432","0.0-4.0-9.0-0.0","spark_pilot_norest","9178","7","22","Male","","","","","","","null","<div style=""font-size:100px;color:red;"">Starting in...</div>","null","","","","","","","","","","","","",""
"html-keyboard-response","270","1047441","0.0-4.0-9.0-1.0","spark_pilot_norest","9178","7","22","Male","","","","","","","null","<div style=""font-size:200px;color:red;"">3</div>","null","","","","","","","","","","","","",""
"html-keyboard-response","271","1048449","0.0-4.0-9.0-2.0","spark_pilot_norest","9178","7","22","Male","","","","","","","null","<div style=""font-size:200px;color:red;"">2</div>","null","","","","","","","","","","","","",""
"html-keyboard-response","272","1049455","0.0-4.0-9.0-3.0","spark_pilot_norest","9178","7","22","Male","","","","","","","null","<div style=""font-size:200px;color:red;"">1</div>","null","","","","","","","","","","","","",""
"revaluation","273","1050104","0.0-4.0-10.0-0.0","spark_pilot_norest","9178","7","22","Male","","","false","","","","[645.5]","./assets/img/canyon/animals/giraffe.jpg","[""ArrowLeft""]","second stage test","canyon","0","{""ArrowUp,ArrowLeft"":23,""ArrowUp,ArrowRight"":10,""ArrowDown,ArrowLeft"":8,""ArrowDown,ArrowRight"":30}","true","ArrowUp,ArrowLeft","","original","1","","","",""
"html-keyboard-response","274","1050608","0.0-4.0-10.0-1.0","spark_pilot_norest","9178","7","22","Male","","","","","","","null","<div style=""font-size:60px;"">+</div>","null","fixation","","","","","","","","","","","",""
"revaluation","275","1051096","0.0-4.0-10.0-0.1","spark_pilot_norest","9178","7","22","Male","","","false","","","","[484]","./assets/img/canyon/animals/giraffe.jpg","[""ArrowLeft""]","second stage test","canyon","0","{""ArrowUp,ArrowLeft"":23,""ArrowUp,ArrowRight"":10,""ArrowDown,ArrowLeft"":8,""ArrowDown,ArrowRight"":30}","true","ArrowUp,ArrowLeft","","original","1","","","",""
"html-keyboard-response","276","1051600","0.0-4.0-10.0-1.1","spark_pilot_norest","9178","7","22","Male","","","","","","","null","<div style=""font-size:60px;"">+</div>","null","fixation","","","","","","","","","","","",""
"revaluation","277","1052060","0.0-4.0-10.0-0.2","spark_pilot_norest","9178","7","22","Male","","","false","","","","[458]","./assets/img/canyon/animals/giraffe.jpg","[""ArrowLeft""]","second stage test","canyon","0","{""ArrowUp,ArrowLeft"":23,""ArrowUp,ArrowRight"":10,""ArrowDown,ArrowLeft"":8,""ArrowDown,ArrowRight"":30}","true","ArrowUp,ArrowLeft","","original","1","","","",""
"html-keyboard-response","278","1052567","0.0-4.0-10.0-1.2","spark_pilot_norest","9178","7","22","Male","","","","","","","null","<div style=""font-size:60px;"">+</div>","null","fixation","","","","","","","","","","","",""
"revaluation","279","1053031","0.0-4.0-10.0-0.3","spark_pilot_norest","9178","7","22","Male","","","false","","","","[462]","./assets/img/canyon/animals/giraffe.jpg","[""ArrowLeft""]","second stage test","canyon","0","{""ArrowUp,ArrowLeft"":23,""ArrowUp,ArrowRight"":10,""ArrowDown,ArrowLeft"":8,""ArrowDown,ArrowRight"":30}","true","ArrowUp,ArrowLeft","","original","1","","","",""
"html-keyboard-response","280","1053535","0.0-4.0-10.0-1.3","spark_pilot_norest","9178","7","22","Male","","","","","","","null","<div style=""font-size:60px;"">+</div>","null","fixation","","","","","","","","","","","",""
"revaluation","281","1054030","0.0-4.0-10.0-0.4","spark_pilot_norest","9178","7","22","Male","","","false","","","","[491.79999999701977]","./assets/img/canyon/animals/lion.jpg","[""ArrowRight""]","second stage test","canyon","0","{""ArrowUp,ArrowLeft"":23,""ArrowUp,ArrowRight"":10,""ArrowDown,ArrowLeft"":8,""ArrowDown,ArrowRight"":30}","true","ArrowDown,ArrowRight","","original","1","","","",""
"html-keyboard-response","282","1054535","0.0-4.0-10.0-1.4","spark_pilot_norest","9178","7","22","Male","","","","","","","null","<div style=""font-size:60px;"">+</div>","null","fixation","","","","","","","","","","","",""
"revaluation","283","1054980","0.0-4.0-10.0-0.5","spark_pilot_norest","9178","7","22","Male","","","false","","","","[442.1000000089407]","./assets/img/canyon/animals/lion.jpg","[""ArrowRight""]","second stage test","canyon","0","{""ArrowUp,ArrowLeft"":23,""ArrowUp,ArrowRight"":10,""ArrowDown,ArrowLeft"":8,""ArrowDown,ArrowRight"":30}","true","ArrowDown,ArrowRight","","original","1","","","",""
"html-keyboard-response","284","1055491","0.0-4.0-10.0-1.5","spark_pilot_norest","9178","7","22","Male","","","","","","","null","<div style=""font-size:60px;"">+</div>","null","fixation","","","","","","","","","","","",""
"revaluation","285","1055969","0.0-4.0-10.0-0.6","spark_pilot_norest","9178","7","22","Male","","","false","","","","[474.09999999403954]","./assets/img/canyon/animals/lion.jpg","[""ArrowRight""]","second stage test","canyon","0","{""ArrowUp,ArrowLeft"":23,""ArrowUp,ArrowRight"":10,""ArrowDown,ArrowLeft"":8,""ArrowDown,ArrowRight"":30}","true","ArrowDown,ArrowRight","","original","1","","","",""
"html-keyboard-response","286","1056473","0.0-4.0-10.0-1.6","spark_pilot_norest","9178","7","22","Male","","","","","","","null","<div style=""font-size:60px;"">+</div>","null","fixation","","","","","","","","","","","",""
"revaluation","287","1056878","0.0-4.0-10.0-0.7","spark_pilot_norest","9178","7","22","Male","","","false","","","","[401.69999998807907]","./assets/img/canyon/animals/lion.jpg","[""ArrowRight""]","second stage test","canyon","0","{""ArrowUp,ArrowLeft"":23,""ArrowUp,ArrowRight"":10,""ArrowDown,ArrowLeft"":8,""ArrowDown,ArrowRight"":30}","true","ArrowDown,ArrowRight","","original","1","","","",""
"html-keyboard-response","288","1057385","0.0-4.0-10.0-1.7","spark_pilot_norest","9178","7","22","Male","","","","","","","null","<div style=""font-size:60px;"">+</div>","null","fixation","","","","","","","","","","","",""
"learning-instructions","289","1062404","0.0-4.0-0.1-0.2","spark_pilot_norest","9178","7","22","Male","","","","","","","2309.7000000029802","<p> This time you are searching for treasure in the <b>ocean</b>.</p>","","instructions","","","","","","","","","","","",""
"learning-instructions","290","1080896","0.0-4.0-0.1-0.3","spark_pilot_norest","9178","7","22","Male","","","","","","","1238.7000000029802","<p><b>New</b> animals with <b>new</b> treasure chests live here. You need to explore to discover where the animal with the best treasure chest is.</p>
                    <p> Like before, once you figure out which animal has the chest with the most treasure, you should try to get to that animal and select that chest! </p>","","instructions","","","","","","","","","","","",""
"learning-instructions","291","1096402","0.0-4.0-1.1-0.1","spark_pilot_norest","9178","7","22","Male","","","","","","","777.2000000029802","<p> Remember, when you see a picture of the place, use the up and down keys to <b>find an animal</b>.</p>
            <p> When you encounter an animal, you should use the left and right keys to <b>select a treasure chest</b>.</p>
            <p> Don't forget to look out for the robber! </p>","","instructions","","","","","","","","","","","",""
"revaluation","292","1100418","0.0-4.0-2.1-0.50","spark_pilot_norest","9178","7","22","Male","","","false","","","","[1115.9000000059605]","./assets/img/ocean/catch/0.jpg","[""spaceBar""]","value training","ocean","0","{""ArrowUp,ArrowLeft"":26,""ArrowUp,ArrowRight"":10,""ArrowDown,ArrowLeft"":5,""ArrowDown,ArrowRight"":17}","true","spaceBar","true","revaluation","2","0","","",""
"html-keyboard-response","293","1100921","0.0-4.0-2.1-1.50","spark_pilot_norest","9178","7","22","Male","","","","","","","null","<div style=""font-size:60px;"">+</div>","null","fixation","","","","","","","","","1","","",""
"revaluation","294","1106945","0.0-4.0-2.1-0.51","spark_pilot_norest","9178","7","22","Male","","","false","","","","[818.2999999970198,284.79999999701977]","./assets/img/ocean/memory/1.jpg","[""ArrowUp"",""ArrowRight""]","value training","ocean","10","{""ArrowUp,ArrowLeft"":26,""ArrowUp,ArrowRight"":10,""ArrowDown,ArrowLeft"":5,""ArrowDown,ArrowRight"":17}","false","ArrowUp,ArrowRight","false","revaluation","2","2","","",""
"html-keyboard-response","295","1107452","0.0-4.0-2.1-1.51","spark_pilot_norest","9178","7","22","Male","","","","","","","null","<div style=""font-size:60px;"">+</div>","null","fixation","","","","","","","","","3","","",""
"revaluation","296","1113476","0.0-4.0-2.1-0.52","spark_pilot_norest","9178","7","22","Male","","","false","","","","[253.70000000298023,306.20000000298023]","./assets/img/ocean/memory/17.jpg","[""ArrowUp"",""ArrowLeft""]","value training","ocean","26","{""ArrowUp,ArrowLeft"":26,""ArrowUp,ArrowRight"":10,""ArrowDown,ArrowLeft"":5,""ArrowDown,ArrowRight"":17}","true","ArrowUp,ArrowLeft","false","revaluation","2","4","","",""
"html-keyboard-response","297","1113985","0.0-4.0-2.1-1.52","spark_pilot_norest","9178","7","22","Male","","","","","","","null","<div style=""font-size:60px;"">+</div>","null","fixation","","","","","","","","","5","","",""
"revaluation","298","1120009","0.0-4.0-2.1-0.53","spark_pilot_norest","9178","7","22","Male","","","false","","","","[698.7000000029802,398.29999999701977]","./assets/img/ocean/memory/25.jpg","[""ArrowDown"",""ArrowRight""]","value training","ocean","17","{""ArrowUp,ArrowLeft"":26,""ArrowUp,ArrowRight"":10,""ArrowDown,ArrowLeft"":5,""ArrowDown,ArrowRight"":17}","false","ArrowDown,ArrowRight","false","revaluation","2","6","","",""
"html-keyboard-response","299","1120517","0.0-4.0-2.1-1.53","spark_pilot_norest","9178","7","22","Male","","","","","","","null","<div style=""font-size:60px;"">+</div>","null","fixation","","","","","","","","","7","","",""
"revaluation","300","1126537","0.0-4.0-2.1-0.54","spark_pilot_norest","9178","7","22","Male","","","false","","","","[391.5,546.4000000059605]","./assets/img/ocean/memory/3.jpg","[""ArrowDown"",""ArrowLeft""]","value training","ocean","5","{""ArrowUp,ArrowLeft"":26,""ArrowUp,ArrowRight"":10,""ArrowDown,ArrowLeft"":5,""ArrowDown,ArrowRight"":17}","false","ArrowDown,ArrowLeft","false","revaluation","2","8","","",""
"html-keyboard-response","301","1127041","0.0-4.0-2.1-1.54","spark_pilot_norest","9178","7","22","Male","","","","","","","null","<div style=""font-size:60px;"">+</div>","null","fixation","","","","","","","","","9","","",""
"revaluation","302","1133067","0.0-4.0-2.1-0.55","spark_pilot_norest","9178","7","22","Male","","","false","","","","[323.69999998807907,450]","./assets/img/ocean/memory/33.jpg","[""ArrowUp"",""ArrowLeft""]","value training","ocean","26","{""ArrowUp,ArrowLeft"":26,""ArrowUp,ArrowRight"":10,""ArrowDown,ArrowLeft"":5,""ArrowDown,ArrowRight"":17}","true","ArrowUp,ArrowLeft","false","revaluation","2","10","","",""
"html-keyboard-response","303","1133577","0.0-4.0-2.1-1.55","spark_pilot_norest","9178","7","22","Male","","","","","","","null","<div style=""font-size:60px;"">+</div>","null","fixation","","","","","","","","","11","","",""
