"trial_type","trial_index","time_elapsed","internal_node_id","task_version","subject_id","assigned_condition","age","gender","success","timeout","failed_images","failed_audio","failed_video","browser_interaction","rt","stimulus","response","task_part","environment","score","rewardMap","correct","fullState","isCatch","condition","order","trial_num","key_press","ground_truth","bonus"
"pavlovia","0","1972","0.0-0.0","spark_pilot_norest","10010","4","21","Male","","","","","","","","","","","","","","","","","","","","","",""
"preload","1","19275","0.0-1.0","spark_pilot_norest","10010","4","21","Male","true","false","[]","[]","[]","[{""event"":""blur"",""trial"":2,""time"":27756},{""event"":""focus"",""trial"":2,""time"":30405},{""event"":""fullscreenenter"",""trial"":2,""time"":31258}]","","","","","","","","","","","","","","","",""
"fullscreen","2","32245","0.0-2.0","spark_pilot_norest","10010","4","21","Male","true","","","","","","","","","","","","","","","","","","","","",""
"audio-button-response","3","33464","0.0-3.0-0.0-0.0","spark_pilot_norest","10010","4","21","Male","","","","","","","1200","./assets/audio/audiotest/turtle.mp3","2","audio_test","","","","","","","","","","","",""
"learning-instructions","4","42537","0.0-3.0-1.0-0.0","spark_pilot_norest","10010","4","21","Male","","","","","","","2096.2999999970198","<p> Welcome! Please remember to stay in fullscreen mode and don't click away from the experiment. </p>","","instructions","","","","","","","","","","","",""
"learning-instructions","5","52424","0.0-3.0-1.0-0.1","spark_pilot_norest","10010","4","21","Male","","","","","","","1474.1000000014901","<p> Today you will be playing a game to earn treasure. </p>
            <p> At the end of the experiment, you will earn a bonus based on how much treasure you find. </p>
            <img src='./assets/img/instructions/treasure.jpg' class='instructions-image'>","","instructions","","","","","","","","","","","",""
"learning-instructions","6","62704","0.0-3.0-1.0-0.2","spark_pilot_norest","10010","4","21","Male","","","","","","","2023.2999999970198","<p> Animals have hidden treasure in treasure chests. </p>
            <p> You need to first find an animal and then choose which of their treasure chests to search. </p>
            <img src='./assets/img/space/animals/cat.jpg' class='instructions-image'>","","instructions","","","","","","","","","","","",""
"learning-instructions","7","77907","0.0-3.0-1.0-0.3","spark_pilot_norest","10010","4","21","Male","","","","","","","2066.2999999970198","<p> In each round, you will search for treasure in a different place. In the real game, there will be two rounds. </p>
            <p> You will begin with a separate, practice round where you will search for treasure in outer space. </p>
            <img src='./assets/img/space/0.jpg' class='instructions-image'>","","instructions","","","","","","","","","","","",""
"learning-instructions","8","91028","0.0-3.0-1.0-0.4","spark_pilot_norest","10010","4","21","Male","","","","","","","1717.2000000029802","<p> On every turn, you will see a picture of the place that you are in, but the specific image may be different each time. </p>
            <p> For example, both of these images mean you are in outer space. </p>
            <img src='./assets/img/instructions/outerspace.jpg' class='instructions-image'>","","instructions","","","","","","","","","","","",""
"learning-instructions","9","100282","0.0-3.0-1.0-0.5","spark_pilot_norest","10010","4","21","Male","","","","","","","1431.5","<p> You need to decide which direction to travel in. </p>
            <p> You can choose between going <b>up or down</b> by using the arrow keys. </p>
            <img src='./assets/img/instructions/updown.jpg' class='instructions-image'>","","instructions","","","","","","","","","","","",""
"learning-instructions","10","110318","0.0-3.0-1.0-0.6","spark_pilot_norest","10010","4","21","Male","","","","","","","1237.3000000044703","<p> You will have <b>2 seconds</b> to make your choice. </p>
            <p> If you do not make a choice within 2 seconds, you will not find an animal or earn treasure. </p>
            <img src='./assets/img/instructions/2seconds.jpg' class='instructions-image'>","","instructions","","","","","","","","","","","",""
"learning-instructions","11","118658","0.0-3.0-1.0-0.7","spark_pilot_norest","10010","4","21","Male","","","","","","","1317.5","<p> Let’s try practicing that now! </p>
            <p> When you see a picture of the place you are in, press the <b>up</b> key to travel up. </p>
            <img src='./assets/img/instructions/pressUp.jpg' class='instructions-image'>","","instructions","","","","","","","","","","","",""
"revaluation","12","122681","0.0-3.0-2.0-0.0","spark_pilot_norest","10010","4","21","Male","","false","","","","","[638.8999999985099]","./assets/img/space/0.jpg","[""ArrowUp""]","first stage practice","space","0","null","null","ArrowUp","false","","","","","",""
"html-keyboard-response","13","123182","0.0-3.0-2.0-1.0","spark_pilot_norest","10010","4","21","Male","","","","","","","null","<div style=""font-size:60px;"">+</div>","null","fixation","","","","","","","","","","","",""
"revaluation","14","127184","0.0-3.0-2.0-0.1","spark_pilot_norest","10010","4","21","Male","","false","","","","","[879.0999999940395]","./assets/img/space/1.jpg","[""ArrowUp""]","first stage practice","space","0","null","null","ArrowUp","false","","","","","",""
"html-keyboard-response","15","127686","0.0-3.0-2.0-1.1","spark_pilot_norest","10010","4","21","Male","","","","","","","null","<div style=""font-size:60px;"">+</div>","null","fixation","","","","","","","","","","","",""
"revaluation","16","131690","0.0-3.0-2.0-0.2","spark_pilot_norest","10010","4","21","Male","","false","","","","","[585.6999999955297]","./assets/img/space/2.jpg","[""ArrowUp""]","first stage practice","space","0","null","null","ArrowUp","false","","","","","",""
"html-keyboard-response","17","132191","0.0-3.0-2.0-1.2","spark_pilot_norest","10010","4","21","Male","","","","","","","null","<div style=""font-size:60px;"">+</div>","null","fixation","","","","","","","","","","","",""
"learning-instructions","18","138754","0.0-3.0-3.0-0.0","spark_pilot_norest","10010","4","21","Male","","","","","","","1873.5","<p> Great job! Now try pressing the <b>down</b> key to travel down. </p>
            <img src='./assets/img/instructions/pressDown.jpg' class='instructions-image'>","","instructions","","","","","","","","","","","",""
"revaluation","19","142767","0.0-3.0-4.0-0.0","spark_pilot_norest","10010","4","21","Male","","false","","","","","[1018.6000000014901]","./assets/img/space/3.jpg","[""ArrowDown""]","first stage practice","space","0","null","null","ArrowDown","false","","","","","",""
"html-keyboard-response","20","143267","0.0-3.0-4.0-1.0","spark_pilot_norest","10010","4","21","Male","","","","","","","null","<div style=""font-size:60px;"">+</div>","null","fixation","","","","","","","","","","","",""
"revaluation","21","147272","0.0-3.0-4.0-0.1","spark_pilot_norest","10010","4","21","Male","","false","","","","","[889.8000000044703]","./assets/img/space/4.jpg","[""ArrowDown""]","first stage practice","space","0","null","null","ArrowDown","false","","","","","",""
"html-keyboard-response","22","147772","0.0-3.0-4.0-1.1","spark_pilot_norest","10010","4","21","Male","","","","","","","null","<div style=""font-size:60px;"">+</div>","null","fixation","","","","","","","","","","","",""
"revaluation","23","151776","0.0-3.0-4.0-0.2","spark_pilot_norest","10010","4","21","Male","","false","","","","","[934.3999999985099]","./assets/img/space/5.jpg","[""ArrowDown""]","first stage practice","space","0","null","null","ArrowDown","false","","","","","",""
"html-keyboard-response","24","152278","0.0-3.0-4.0-1.2","spark_pilot_norest","10010","4","21","Male","","","","","","","null","<div style=""font-size:60px;"">+</div>","null","fixation","","","","","","","","","","","",""
"learning-instructions","25","164054","0.0-3.0-5.0-0.0","spark_pilot_norest","10010","4","21","Male","","","","","","","1933.1000000014901","<p> The animals don’t move, so the animal in the upper part of a place will stay in the upper part of a place, and the animal in the lower part of a place will stay in the lower part of a place. </p>","","instructions","","","","","","","","","","","",""
"learning-instructions","26","174519","0.0-3.0-5.0-0.1","spark_pilot_norest","10010","4","21","Male","","","","","","","1338.7000000029802","<p> Each animal has two treasure chests for you to choose from. </p>
            <p> The amount of treasure in each chest can range from <b> 0 to 40 pieces.</b></p>","","instructions","","","","","","","","","","","",""
"learning-instructions","27","186170","0.0-3.0-5.0-0.2","spark_pilot_norest","10010","4","21","Male","","","","","","","469.3999999985099","<p> You should decide which chest to search for treasure by using the <b>left</b> and <b>right</b> arrow keys. </p>
            <p><b> Pay attention to which animal is on the screen, as the animals have different treasure chests. </b></p>
            <img src='./assets/img/instructions/leftright.jpg' class='instructions-image'>","","instructions","","","","","","","","","","","",""
"learning-instructions","28","193363","0.0-3.0-5.0-0.3","spark_pilot_norest","10010","4","21","Male","","","","","","","841.3999999985099","<p> Let’s try practicing that now. </p>
            <p> When you see an animal, choose which chest to search for treasure. </p>
            <img src='./assets/img/instructions/chooseChest.jpg' class='instructions-image'>","","instructions","","","","","","","","","","","",""
"revaluation","29","197377","0.0-3.0-6.0-0.0","spark_pilot_norest","10010","4","21","Male","","false","","","","","[679.1999999955297]","./assets/img/space/animals/cat.jpg","[""ArrowLeft""]","second stage practice","space","3","{""ArrowUp,ArrowLeft"":3,""ArrowUp,ArrowRight"":36,""ArrowDown,ArrowLeft"":15,""ArrowDown,ArrowRight"":23}","false","ArrowUp,ArrowLeft","","","","","","",""
"html-keyboard-response","30","197878","0.0-3.0-6.0-1.0","spark_pilot_norest","10010","4","21","Male","","","","","","","null","<div style=""font-size:60px;"">+</div>","null","fixation","","","","","","","","","","","",""
"revaluation","31","201882","0.0-3.0-6.0-0.1","spark_pilot_norest","10010","4","21","Male","","false","","","","","[679.7000000029802]","./assets/img/space/animals/rabbit.jpg","[""ArrowLeft""]","second stage practice","space","15","{""ArrowUp,ArrowLeft"":3,""ArrowUp,ArrowRight"":36,""ArrowDown,ArrowLeft"":15,""ArrowDown,ArrowRight"":23}","false","ArrowDown,ArrowLeft","","","","","","",""
"html-keyboard-response","32","202384","0.0-3.0-6.0-1.1","spark_pilot_norest","10010","4","21","Male","","","","","","","null","<div style=""font-size:60px;"">+</div>","null","fixation","","","","","","","","","","","",""
"revaluation","33","206388","0.0-3.0-6.0-0.2","spark_pilot_norest","10010","4","21","Male","","false","","","","","[418.80000000447035]","./assets/img/space/animals/cat.jpg","[""ArrowRight""]","second stage practice","space","36","{""ArrowUp,ArrowLeft"":3,""ArrowUp,ArrowRight"":36,""ArrowDown,ArrowLeft"":15,""ArrowDown,ArrowRight"":23}","true","ArrowUp,ArrowRight","","","","","","",""
"html-keyboard-response","34","206888","0.0-3.0-6.0-1.2","spark_pilot_norest","10010","4","21","Male","","","","","","","null","<div style=""font-size:60px;"">+</div>","null","fixation","","","","","","","","","","","",""
"revaluation","35","210892","0.0-3.0-6.0-0.3","spark_pilot_norest","10010","4","21","Male","","false","","","","","[422.69999999552965]","./assets/img/space/animals/rabbit.jpg","[""ArrowRight""]","second stage practice","space","23","{""ArrowUp,ArrowLeft"":3,""ArrowUp,ArrowRight"":36,""ArrowDown,ArrowLeft"":15,""ArrowDown,ArrowRight"":23}","true","ArrowDown,ArrowRight","","","","","","",""
"html-keyboard-response","36","211394","0.0-3.0-6.0-1.3","spark_pilot_norest","10010","4","21","Male","","","","","","","null","<div style=""font-size:60px;"">+</div>","null","fixation","","","","","","","","","","","",""
"learning-instructions","37","229054","0.0-3.0-7.0-0.0","spark_pilot_norest","10010","4","21","Male","","","","","","","853.0999999940395","<p> Great job. Now let’s try putting it together. </p>
            <p> On each turn, you will first see a picture to remind you of the place you are in, and you need to choose whether to go up or down. </p>
            <p> Then you will see an animal and choose which of its chests to search for treasure. </p>","","instructions","","","","","","","","","","","",""
"learning-instructions","38","237857","0.0-3.0-7.0-0.1","spark_pilot_norest","10010","4","21","Male","","","","","","","546.3000000044703","<p> When you choose whether to go up or down, try to go to the animal with the chest with the most treasure. </p>
            <p> Try practicing that now! </p>","","instructions","","","","","","","","","","","",""
"revaluation","39","243872","0.0-3.0-8.0-0.0","spark_pilot_norest","10010","4","21","Male","","false","","","","","[858.7999999970198,575.3999999985099]","./assets/img/space/6.jpg","[""ArrowUp"",""ArrowLeft""]","full practice","space","3","{""ArrowUp,ArrowLeft"":3,""ArrowUp,ArrowRight"":36,""ArrowDown,ArrowLeft"":15,""ArrowDown,ArrowRight"":23}","false","ArrowUp,ArrowLeft","false","","","","","",""
"html-keyboard-response","40","244374","0.0-3.0-8.0-1.0","spark_pilot_norest","10010","4","21","Male","","","","","","","null","<div style=""font-size:60px;"">+</div>","null","fixation","","","","","","","","","","","",""
"revaluation","41","250378","0.0-3.0-8.0-0.1","spark_pilot_norest","10010","4","21","Male","","false","","","","","[644,911.8999999985099]","./assets/img/space/7.jpg","[""ArrowDown"",""ArrowRight""]","full practice","space","23","{""ArrowUp,ArrowLeft"":3,""ArrowUp,ArrowRight"":36,""ArrowDown,ArrowLeft"":15,""ArrowDown,ArrowRight"":23}","false","ArrowDown,ArrowRight","false","","","","","",""
"html-keyboard-response","42","250879","0.0-3.0-8.0-1.1","spark_pilot_norest","10010","4","21","Male","","","","","","","null","<div style=""font-size:60px;"">+</div>","null","fixation","","","","","","","","","","","",""
"revaluation","43","256884","0.0-3.0-8.0-0.2","spark_pilot_norest","10010","4","21","Male","","false","","","","","[750.6000000014901,298.30000000447035]","./assets/img/space/8.jpg","[""ArrowDown"",""ArrowLeft""]","full practice","space","15","{""ArrowUp,ArrowLeft"":3,""ArrowUp,ArrowRight"":36,""ArrowDown,ArrowLeft"":15,""ArrowDown,ArrowRight"":23}","false","ArrowDown,ArrowLeft","false","","","","","",""
"html-keyboard-response","44","257386","0.0-3.0-8.0-1.2","spark_pilot_norest","10010","4","21","Male","","","","","","","null","<div style=""font-size:60px;"">+</div>","null","fixation","","","","","","","","","","","",""
"revaluation","45","263392","0.0-3.0-8.0-0.3","spark_pilot_norest","10010","4","21","Male","","false","","","","","[462,618]","./assets/img/space/9.jpg","[""ArrowUp"",""ArrowRight""]","full practice","space","36","{""ArrowUp,ArrowLeft"":3,""ArrowUp,ArrowRight"":36,""ArrowDown,ArrowLeft"":15,""ArrowDown,ArrowRight"":23}","true","ArrowUp,ArrowRight","false","","","","","",""
"html-keyboard-response","46","263894","0.0-3.0-8.0-1.3","spark_pilot_norest","10010","4","21","Male","","","","","","","null","<div style=""font-size:60px;"">+</div>","null","fixation","","","","","","","","","","","",""
"revaluation","47","269899","0.0-3.0-8.0-0.4","spark_pilot_norest","10010","4","21","Male","","false","","","","","[561.2999999970198,275.30000000447035]","./assets/img/space/10.jpg","[""ArrowUp"",""ArrowRight""]","full practice","space","36","{""ArrowUp,ArrowLeft"":3,""ArrowUp,ArrowRight"":36,""ArrowDown,ArrowLeft"":15,""ArrowDown,ArrowRight"":23}","true","ArrowUp,ArrowRight","false","","","","","",""
"html-keyboard-response","48","270400","0.0-3.0-8.0-1.4","spark_pilot_norest","10010","4","21","Male","","","","","","","null","<div style=""font-size:60px;"">+</div>","null","fixation","","","","","","","","","","","",""
"learning-instructions","49","282134","0.0-3.0-9.0-0.0","spark_pilot_norest","10010","4","21","Male","","","","","","","1430.7999999970198","<p> One last thing: sometimes, you will see a robber. The robber can be anywhere in the picture. </p>
            <p> If you do not stop them, you will lose treasure. </p>
            <img src='./assets/img/instructions/robber.jpg' class='instructions-image'>","","instructions","","","","","","","","","","","",""
"learning-instructions","50","289700","0.0-3.0-9.0-0.1","spark_pilot_norest","10010","4","21","Male","","","","","","","397.40000000596046","<p> If you see the robber, you should <b>press the space bar</b> rather than using the arrow keys. </p>
            <p> Try practicing that now! </p>","","instructions","","","","","","","","","","","",""
"revaluation","51","293714","0.0-3.0-10.0-0.0","spark_pilot_norest","10010","4","21","Male","","false","","","","","[881.5]","./assets/img/space/catch/0.jpg","[""spaceBar""]","catch practice","space","0","{""ArrowUp,ArrowLeft"":3,""ArrowUp,ArrowRight"":36,""ArrowDown,ArrowLeft"":15,""ArrowDown,ArrowRight"":23}","true","spaceBar","true","","","","","",""
"html-keyboard-response","52","294215","0.0-3.0-10.0-1.0","spark_pilot_norest","10010","4","21","Male","","","","","","","null","<div style=""font-size:60px;"">+</div>","null","fixation","","","","","","","","","","","",""
"revaluation","53","298219","0.0-3.0-10.0-0.1","spark_pilot_norest","10010","4","21","Male","","false","","","","","[1014]","./assets/img/space/catch/1.jpg","[""spaceBar""]","catch practice","space","0","{""ArrowUp,ArrowLeft"":3,""ArrowUp,ArrowRight"":36,""ArrowDown,ArrowLeft"":15,""ArrowDown,ArrowRight"":23}","true","spaceBar","true","","","","","",""
"html-keyboard-response","54","298721","0.0-3.0-10.0-1.1","spark_pilot_norest","10010","4","21","Male","","","","","","","null","<div style=""font-size:60px;"">+</div>","null","fixation","","","","","","","","","","","",""
"revaluation","55","302723","0.0-3.0-10.0-0.2","spark_pilot_norest","10010","4","21","Male","","false","","","","","[661.6000000014901]","./assets/img/space/catch/2.jpg","[""spaceBar""]","catch practice","space","0","{""ArrowUp,ArrowLeft"":3,""ArrowUp,ArrowRight"":36,""ArrowDown,ArrowLeft"":15,""ArrowDown,ArrowRight"":23}","true","spaceBar","true","","","","","",""
"html-keyboard-response","56","303224","0.0-3.0-10.0-1.2","spark_pilot_norest","10010","4","21","Male","","","","","","","null","<div style=""font-size:60px;"">+</div>","null","fixation","","","","","","","","","","","",""
"learning-instructions","57","309612","0.0-3.0-11.0-0.0-0.0","spark_pilot_norest","10010","4","21","Male","","","","","","","1149.4000000059605","<p> Now, you will practice a shortened version of the game to get a sense of how it all fits together. </p>","","instructions","","","","","","","","","","","",""
"learning-instructions","58","313511","0.0-3.0-11.0-0.0-0.1","spark_pilot_norest","10010","4","21","Male","","","","","","","718.3999999985099","<p>This time you are searching for treasure in outer space.</p>","","instructions","","","","","","","","","","","",""
"learning-instructions","59","328822","0.0-3.0-11.0-1.0-0.0","spark_pilot_norest","10010","4","21","Male","","","","","","","549.5","<p> Remember, when you see a picture of the place, use the up and down keys to <b>find an animal</b>.</p>
            <p> When you encounter an animal, you should use the left and right keys to <b>select a treasure chest</b>.</p>
            <p> Don't forget to look out for the robber! </p>","","instructions","","","","","","","","","","","",""
"revaluation","60","334837","0.0-3.0-11.0-2.0-0.0","spark_pilot_norest","10010","4","21","Male","","false","","","","","[935.5,1179.1000000014901]","./assets/img/space/11.jpg","[""ArrowUp"",""ArrowRight""]","practice block","space","36","{""ArrowUp,ArrowLeft"":3,""ArrowUp,ArrowRight"":36,""ArrowDown,ArrowLeft"":15,""ArrowDown,ArrowRight"":23}","true","ArrowUp,ArrowRight","false","","","","","",""
"html-keyboard-response","61","335338","0.0-3.0-11.0-2.0-1.0","spark_pilot_norest","10010","4","21","Male","","","","","","","null","<div style=""font-size:60px;"">+</div>","null","fixation","","","","","","","","","","","",""
"revaluation","62","341341","0.0-3.0-11.0-2.0-0.1","spark_pilot_norest","10010","4","21","Male","","false","","","","","[1231.7000000029802,463.79999999701977]","./assets/img/space/12.jpg","[""ArrowUp"",""ArrowLeft""]","practice block","space","3","{""ArrowUp,ArrowLeft"":3,""ArrowUp,ArrowRight"":36,""ArrowDown,ArrowLeft"":15,""ArrowDown,ArrowRight"":23}","false","ArrowUp,ArrowLeft","false","","","","","",""
"html-keyboard-response","63","341842","0.0-3.0-11.0-2.0-1.1","spark_pilot_norest","10010","4","21","Male","","","","","","","null","<div style=""font-size:60px;"">+</div>","null","fixation","","","","","","","","","","","",""
"revaluation","64","347847","0.0-3.0-11.0-2.0-0.2","spark_pilot_norest","10010","4","21","Male","","false","","","","","[941,836.8999999985099]","./assets/img/space/13.jpg","[""ArrowDown"",""ArrowRight""]","practice block","space","23","{""ArrowUp,ArrowLeft"":3,""ArrowUp,ArrowRight"":36,""ArrowDown,ArrowLeft"":15,""ArrowDown,ArrowRight"":23}","false","ArrowDown,ArrowRight","false","","","","","",""
"html-keyboard-response","65","348348","0.0-3.0-11.0-2.0-1.2","spark_pilot_norest","10010","4","21","Male","","","","","","","null","<div style=""font-size:60px;"">+</div>","null","fixation","","","","","","","","","","","",""
"revaluation","66","354353","0.0-3.0-11.0-2.0-0.3","spark_pilot_norest","10010","4","21","Male","","false","","","","","[864.8999999985099,603.8000000044703]","./assets/img/space/14.jpg","[""ArrowDown"",""ArrowLeft""]","practice block","space","15","{""ArrowUp,ArrowLeft"":3,""ArrowUp,ArrowRight"":36,""ArrowDown,ArrowLeft"":15,""ArrowDown,ArrowRight"":23}","false","ArrowDown,ArrowLeft","false","","","","","",""
"html-keyboard-response","67","354853","0.0-3.0-11.0-2.0-1.3","spark_pilot_norest","10010","4","21","Male","","","","","","","null","<div style=""font-size:60px;"">+</div>","null","fixation","","","","","","","","","","","",""
"revaluation","68","360858","0.0-3.0-11.0-2.0-0.4","spark_pilot_norest","10010","4","21","Male","","false","","","","","[994.2000000029802,601.3000000044703]","./assets/img/space/11.jpg","[""ArrowUp"",""ArrowRight""]","practice block","space","36","{""ArrowUp,ArrowLeft"":3,""ArrowUp,ArrowRight"":36,""ArrowDown,ArrowLeft"":15,""ArrowDown,ArrowRight"":23}","true","ArrowUp,ArrowRight","false","","","","","",""
"html-keyboard-response","69","361360","0.0-3.0-11.0-2.0-1.4","spark_pilot_norest","10010","4","21","Male","","","","","","","null","<div style=""font-size:60px;"">+</div>","null","fixation","","","","","","","","","","","",""
"revaluation","70","367365","0.0-3.0-11.0-2.0-0.5","spark_pilot_norest","10010","4","21","Male","","false","","","","","[1113.8000000044703,329.40000000596046]","./assets/img/space/12.jpg","[""ArrowUp"",""ArrowLeft""]","practice block","space","3","{""ArrowUp,ArrowLeft"":3,""ArrowUp,ArrowRight"":36,""ArrowDown,ArrowLeft"":15,""ArrowDown,ArrowRight"":23}","false","ArrowUp,ArrowLeft","false","","","","","",""
"html-keyboard-response","71","367866","0.0-3.0-11.0-2.0-1.5","spark_pilot_norest","10010","4","21","Male","","","","","","","null","<div style=""font-size:60px;"">+</div>","null","fixation","","","","","","","","","","","",""
"revaluation","72","373872","0.0-3.0-11.0-2.0-0.6","spark_pilot_norest","10010","4","21","Male","","false","","","","","[870.1999999955297,337.3999999985099]","./assets/img/space/13.jpg","[""ArrowDown"",""ArrowLeft""]","practice block","space","15","{""ArrowUp,ArrowLeft"":3,""ArrowUp,ArrowRight"":36,""ArrowDown,ArrowLeft"":15,""ArrowDown,ArrowRight"":23}","false","ArrowDown,ArrowLeft","false","","","","","",""
"html-keyboard-response","73","374373","0.0-3.0-11.0-2.0-1.6","spark_pilot_norest","10010","4","21","Male","","","","","","","null","<div style=""font-size:60px;"">+</div>","null","fixation","","","","","","","","","","","",""
"revaluation","74","380376","0.0-3.0-11.0-2.0-0.7","spark_pilot_norest","10010","4","21","Male","","false","","","","","[659.2000000029802,247.19999999552965]","./assets/img/space/14.jpg","[""ArrowUp"",""ArrowLeft""]","practice block","space","3","{""ArrowUp,ArrowLeft"":3,""ArrowUp,ArrowRight"":36,""ArrowDown,ArrowLeft"":15,""ArrowDown,ArrowRight"":23}","false","ArrowUp,ArrowLeft","false","","","","","",""
"html-keyboard-response","75","380878","0.0-3.0-11.0-2.0-1.7","spark_pilot_norest","10010","4","21","Male","","","","","","","null","<div style=""font-size:60px;"">+</div>","null","fixation","","","","","","","","","","","",""
"revaluation","76","384882","0.0-3.0-11.0-2.0-0.8","spark_pilot_norest","10010","4","21","Male","","false","","","","","[652.1000000014901]","./assets/img/space/catch/3.jpg","[""spaceBar""]","practice block","space","0","{""ArrowUp,ArrowLeft"":3,""ArrowUp,ArrowRight"":36,""ArrowDown,ArrowLeft"":15,""ArrowDown,ArrowRight"":23}","true","spaceBar","true","","","","","",""
"html-keyboard-response","77","385383","0.0-3.0-11.0-2.0-1.8","spark_pilot_norest","10010","4","21","Male","","","","","","","null","<div style=""font-size:60px;"">+</div>","null","fixation","","","","","","","","","","","",""
"learning-instructions","78","399460","0.0-3.0-11.0-3.0-0.0","spark_pilot_norest","10010","4","21","Male","","","","","","","1149.6999999955297","<p> Now, you will travel with a friend who will choose whether you go up or down first. </p>
            <p> On these turns, you will just see the animal that they found. You will still get to choose which chest to search for treasure.</p>","","instructions","","","","","","","","","","","",""
"revaluation","79","403474","0.0-3.0-11.0-4.0-0.0","spark_pilot_norest","10010","4","21","Male","","false","","","","","[1180.1000000014901]","./assets/img/space/animals/cat.jpg","[""ArrowRight""]","practice block","space","36","{""ArrowUp,ArrowLeft"":3,""ArrowUp,ArrowRight"":36,""ArrowDown,ArrowLeft"":15,""ArrowDown,ArrowRight"":23}","true","ArrowUp,ArrowRight","","","","","","",""
"html-keyboard-response","80","403975","0.0-3.0-11.0-4.0-1.0","spark_pilot_norest","10010","4","21","Male","","","","","","","null","<div style=""font-size:60px;"">+</div>","null","fixation","","","","","","","","","","","",""
"revaluation","81","407978","0.0-3.0-11.0-4.0-0.1","spark_pilot_norest","10010","4","21","Male","","false","","","","","[1343.8999999985099]","./assets/img/space/animals/rabbit.jpg","[""ArrowRight""]","practice block","space","23","{""ArrowUp,ArrowLeft"":3,""ArrowUp,ArrowRight"":36,""ArrowDown,ArrowLeft"":15,""ArrowDown,ArrowRight"":23}","true","ArrowDown,ArrowRight","","","","","","",""
"html-keyboard-response","82","408479","0.0-3.0-11.0-4.0-1.1","spark_pilot_norest","10010","4","21","Male","","","","","","","null","<div style=""font-size:60px;"">+</div>","null","fixation","","","","","","","","","","","",""
"revaluation","83","412482","0.0-3.0-11.0-4.0-0.2","spark_pilot_norest","10010","4","21","Male","","false","","","","","[630]","./assets/img/space/animals/rabbit.jpg","[""ArrowLeft""]","practice block","space","15","{""ArrowUp,ArrowLeft"":3,""ArrowUp,ArrowRight"":36,""ArrowDown,ArrowLeft"":15,""ArrowDown,ArrowRight"":23}","false","ArrowDown,ArrowLeft","","","","","","",""
"html-keyboard-response","84","412983","0.0-3.0-11.0-4.0-1.2","spark_pilot_norest","10010","4","21","Male","","","","","","","null","<div style=""font-size:60px;"">+</div>","null","fixation","","","","","","","","","","","",""
"revaluation","85","416986","0.0-3.0-11.0-4.0-0.3","spark_pilot_norest","10010","4","21","Male","","false","","","","","[567.3999999985099]","./assets/img/space/animals/cat.jpg","[""ArrowLeft""]","practice block","space","3","{""ArrowUp,ArrowLeft"":3,""ArrowUp,ArrowRight"":36,""ArrowDown,ArrowLeft"":15,""ArrowDown,ArrowRight"":23}","false","ArrowUp,ArrowLeft","","","","","","",""
"html-keyboard-response","86","417487","0.0-3.0-11.0-4.0-1.3","spark_pilot_norest","10010","4","21","Male","","","","","","","null","<div style=""font-size:60px;"">+</div>","null","fixation","","","","","","","","","","","",""
"learning-instructions","87","425601","0.0-3.0-11.0-5.0-0.0","spark_pilot_norest","10010","4","21","Male","","","","","","","null","<p> You have almost finished this part of the game! </p>
            <p> We are going to ask you to make a few more choices. </p>","","instructions","","","","","","","","","","","",""
"learning-instructions","88","441600","0.0-3.0-11.0-5.0-0.1","spark_pilot_norest","10010","4","21","Male","","","","","","","null","<p> First, you need to decide whether to go up or down. When you see each picture, use the arrow keys to make your choice. </p>
            <p><b>You will not see which animal you found, but try to get to the one that will give you the most treasure.</b></p>","","instructions","","","","","","","","","","","",""
"html-keyboard-response","89","442602","0.0-3.0-11.0-6.0-0.0","spark_pilot_norest","10010","4","21","Male","","","","","","","null","<div style=""font-size:100px;color:red;"">Starting in...</div>","null","","","","","","","","","","","","",""
"html-keyboard-response","90","443603","0.0-3.0-11.0-6.0-1.0","spark_pilot_norest","10010","4","21","Male","","","","","","","null","<div style=""font-size:200px;color:red;"">3</div>","null","","","","","","","","","","","","",""
"html-keyboard-response","91","444605","0.0-3.0-11.0-6.0-2.0","spark_pilot_norest","10010","4","21","Male","","","","","","","null","<div style=""font-size:200px;color:red;"">2</div>","null","","","","","","","","","","","","",""
"html-keyboard-response","92","445605","0.0-3.0-11.0-6.0-3.0","spark_pilot_norest","10010","4","21","Male","","","","","","","null","<div style=""font-size:200px;color:red;"">1</div>","null","","","","","","","","","","","","",""
"revaluation","93","446226","0.0-3.0-11.0-7.0","spark_pilot_norest","10010","4","21","Male","","false","","","","","[608.0999999940395]","./assets/img/space/15.jpg","[""ArrowUp""]","practice block","space","0","{""ArrowUp,ArrowLeft"":3,""ArrowUp,ArrowRight"":36,""ArrowDown,ArrowLeft"":15,""ArrowDown,ArrowRight"":23}","true","ArrowUp","false","","","","","",""
"html-keyboard-response","94","446727","0.0-3.0-11.0-8.0","spark_pilot_norest","10010","4","21","Male","","","","","","","null","<div style=""font-size:60px;"">+</div>","null","fixation","","","","","","","","","","","",""
"learning-instructions","95","460101","0.0-3.0-11.0-9.0-0.0","spark_pilot_norest","10010","4","21","Male","","","","","","","null","<p> Now you will see the animals again and can search their chests for treasure. </p>
            <p> This time, you will not see how much treasure you earned, but you will earn more bonus money for making better choices. </p>","","instructions","","","","","","","","","","","",""
"html-keyboard-response","96","461102","0.0-3.0-11.0-10.0-0.0","spark_pilot_norest","10010","4","21","Male","","","","","","","null","<div style=""font-size:100px;color:red;"">Starting in...</div>","null","","","","","","","","","","","","",""
"html-keyboard-response","97","462104","0.0-3.0-11.0-10.0-1.0","spark_pilot_norest","10010","4","21","Male","","","","","","","null","<div style=""font-size:200px;color:red;"">3</div>","null","","","","","","","","","","","","",""
"html-keyboard-response","98","463105","0.0-3.0-11.0-10.0-2.0","spark_pilot_norest","10010","4","21","Male","","","","","","","null","<div style=""font-size:200px;color:red;"">2</div>","null","","","","","","","","","","","","",""
"html-keyboard-response","99","464107","0.0-3.0-11.0-10.0-3.0","spark_pilot_norest","10010","4","21","Male","","","","","","","null","<div style=""font-size:200px;color:red;"">1</div>","null","","","","","","","","","","","","",""
"revaluation","100","464892","0.0-3.0-11.0-11.0-0.0","spark_pilot_norest","10010","4","21","Male","","false","","","","","[772.3999999985099]","./assets/img/space/animals/cat.jpg","[""ArrowRight""]","practice block","space","0","{""ArrowUp,ArrowLeft"":3,""ArrowUp,ArrowRight"":36,""ArrowDown,ArrowLeft"":15,""ArrowDown,ArrowRight"":23}","true","ArrowUp,ArrowRight","","","","","","",""
"html-keyboard-response","101","465392","0.0-3.0-11.0-11.0-1.0","spark_pilot_norest","10010","4","21","Male","","","","","","","null","<div style=""font-size:60px;"">+</div>","null","fixation","","","","","","","","","","","",""
"revaluation","102","466759","0.0-3.0-11.0-11.0-0.1","spark_pilot_norest","10010","4","21","Male","","false","","","","","[1365.8000000044703]","./assets/img/space/animals/rabbit.jpg","[""ArrowLeft""]","practice block","space","0","{""ArrowUp,ArrowLeft"":3,""ArrowUp,ArrowRight"":36,""ArrowDown,ArrowLeft"":15,""ArrowDown,ArrowRight"":23}","false","ArrowDown,ArrowLeft","","","","","","",""
"html-keyboard-response","103","467261","0.0-3.0-11.0-11.0-1.1","spark_pilot_norest","10010","4","21","Male","","","","","","","null","<div style=""font-size:60px;"">+</div>","null","fixation","","","","","","","","","","","",""
"learning-instructions","104","473166","0.0-3.0-12.0-0.0","spark_pilot_norest","10010","4","21","Male","","","","","","","1336.2999999970198","<p> Before you start, we're going to ask you a few questions about how the game works. </p>","","instructions","","","","","","","","","","","",""
"comp-q","105","481224","0.0-3.0-13.0-0.0-0.0","spark_pilot_norest","10010","4","21","Male","","","","","","","2483.0999999940395","<p> <b> True or False? </b> </p>
            <p> There can be 50 pieces of treasure in a given animal's chest. </p>","1","comp_question","","","","true","","","","","","","",""
"comp-q","106","491071","0.0-3.0-13.0-0.0-1.0","spark_pilot_norest","10010","4","21","Male","","","","","","","3191.39999999851","<p> <b> That's right! </b> The amount of treasure in each chest can range from 0 to 40 pieces. </p>","0","comp_answer","","","","","","","","","","","",""
"comp-q","107","498954","0.0-3.0-13.0-0.1-0.1","spark_pilot_norest","10010","4","21","Male","","","","","","","774.3999999985099","<p> <b> True or False? </b> </p><p> In this game, all animals have the same amount of treasure in their left and right chests. </p>","1","comp_question","","","","true","","","","","","","",""
"comp-q","108","505462","0.0-3.0-13.0-0.1-1.1","spark_pilot_norest","10010","4","21","Male","","","","","","","1282.2999999970198","<p> <b> That's right! </b> Animals have different amounts of treasure in their treasure chests. </p>","0","comp_answer","","","","","","","","","","","",""
"comp-q","109","513940","0.0-3.0-13.0-0.2-0.2","spark_pilot_norest","10010","4","21","Male","","","","","","","2630.2999999970198","<p> <b> True or False? </b> </p><p> The same animal will always be there if you go up in the same place. </p>","0","comp_question","","","","true","","","","","","","",""
"comp-q","110","521477","0.0-3.0-13.0-0.2-1.2","spark_pilot_norest","10010","4","21","Male","","","","","","","1086.6999999955297","<p> <b> That's right! </b> One animal lives in the upper part and one lives in the lower part of every place. </p>","0","comp_answer","","","","","","","","","","","",""
"comp-q","111","529542","0.0-3.0-13.0-0.3-0.3","spark_pilot_norest","10010","4","21","Male","","","","","","","2551.7999999970198","<p> <b> True or False? </b> </p><p> If you see a different picture, it means you are in a new place. </p>","1","comp_question","","","","true","","","","","","","",""
"comp-q","112","544754","0.0-3.0-13.0-0.3-1.3","spark_pilot_norest","10010","4","21","Male","","","","","","","3994.5999999940395","<p> <b> That's right! </b> Lots of different images may show the same place. For example,  you may see three different images that all remind you that you are in outer space. </p>","0","comp_answer","","","","","","","","","","","",""
"learning-instructions","113","555599","0.0-3.0-14.0-0.0","spark_pilot_norest","10010","4","21","Male","","","","","","","1008.7999999970198","<p> Good job. Remember to do your best because the amount of treasure you earn will be converted into bonus money. </p>
            <p> It’s time to start the real game! </p>","","instructions","","","","","","","","","","","",""
"learning-instructions","114","559747","0.0-4.0-0.0-0.0","spark_pilot_norest","10010","4","21","Male","","","","","","","1447.2999999970198","<p> This time you are searching for treasure in the <b>ocean</b>.</p>","","instructions","","","","","","","","","","","",""
"learning-instructions","115","578539","0.0-4.0-0.0-0.1","spark_pilot_norest","10010","4","21","Male","","","","","","","1499.5","<p><b>New</b> animals with <b>new</b> treasure chests live here. You need to explore to discover where the animal with the best treasure chest is.</p>
                    <p> Like before, once you figure out which animal has the chest with the most treasure, you should try to get to that animal and select that chest! </p>","","instructions","","","","","","","","","","","",""
"learning-instructions","116","593813","0.0-4.0-1.0-0.0","spark_pilot_norest","10010","4","21","Male","","","","","","","543.1000000014901","<p> Remember, when you see a picture of the place, use the up and down keys to <b>find an animal</b>.</p>
            <p> When you encounter an animal, you should use the left and right keys to <b>select a treasure chest</b>.</p>
            <p> Don't forget to look out for the robber! </p>","","instructions","","","","","","","","","","","",""
"revaluation","117","599829","0.0-4.0-2.0-0.0","spark_pilot_norest","10010","4","21","Male","","false","","","","","[776.1000000014901,925]","./assets/img/ocean/memory/2.jpg","[""ArrowUp"",""ArrowLeft""]","value training","ocean","26","{""ArrowUp,ArrowLeft"":26,""ArrowUp,ArrowRight"":10,""ArrowDown,ArrowLeft"":5,""ArrowDown,ArrowRight"":17}","true","ArrowUp,ArrowLeft","false","revaluation","1","0","","",""
"html-keyboard-response","118","600332","0.0-4.0-2.0-1.0","spark_pilot_norest","10010","4","21","Male","","","","","","","null","<div style=""font-size:60px;"">+</div>","null","fixation","","","","","","","","","1","","",""
"revaluation","119","606338","0.0-4.0-2.0-0.1","spark_pilot_norest","10010","4","21","Male","","false","","","","","[798.3000000044703,604.6000000014901]","./assets/img/ocean/memory/36.jpg","[""ArrowUp"",""ArrowRight""]","value training","ocean","10","{""ArrowUp,ArrowLeft"":26,""ArrowUp,ArrowRight"":10,""ArrowDown,ArrowLeft"":5,""ArrowDown,ArrowRight"":17}","false","ArrowUp,ArrowRight","false","revaluation","1","2","","",""
"html-keyboard-response","120","606839","0.0-4.0-2.0-1.1","spark_pilot_norest","10010","4","21","Male","","","","","","","null","<div style=""font-size:60px;"">+</div>","null","fixation","","","","","","","","","3","","",""
"revaluation","121","610842","0.0-4.0-2.0-0.2","spark_pilot_norest","10010","4","21","Male","","false","","","","","[581.3999999985099]","./assets/img/ocean/catch/6.jpg","[""spaceBar""]","value training","ocean","0","{""ArrowUp,ArrowLeft"":26,""ArrowUp,ArrowRight"":10,""ArrowDown,ArrowLeft"":5,""ArrowDown,ArrowRight"":17}","true","spaceBar","true","revaluation","1","4","","",""
"html-keyboard-response","122","611344","0.0-4.0-2.0-1.2","spark_pilot_norest","10010","4","21","Male","","","","","","","null","<div style=""font-size:60px;"">+</div>","null","fixation","","","","","","","","","5","","",""
"revaluation","123","617348","0.0-4.0-2.0-0.3","spark_pilot_norest","10010","4","21","Male","","false","","","","","[626.6000000014901,597.6000000014901]","./assets/img/ocean/memory/11.jpg","[""ArrowDown"",""ArrowLeft""]","value training","ocean","5","{""ArrowUp,ArrowLeft"":26,""ArrowUp,ArrowRight"":10,""ArrowDown,ArrowLeft"":5,""ArrowDown,ArrowRight"":17}","false","ArrowDown,ArrowLeft","false","revaluation","1","6","","",""
"html-keyboard-response","124","617850","0.0-4.0-2.0-1.3","spark_pilot_norest","10010","4","21","Male","","","","","","","null","<div style=""font-size:60px;"">+</div>","null","fixation","","","","","","","","","7","","",""
"revaluation","125","623856","0.0-4.0-2.0-0.4","spark_pilot_norest","10010","4","21","Male","","false","","","","","[522.1999999955297,538.3999999985099]","./assets/img/ocean/memory/34.jpg","[""ArrowDown"",""ArrowRight""]","value training","ocean","17","{""ArrowUp,ArrowLeft"":26,""ArrowUp,ArrowRight"":10,""ArrowDown,ArrowLeft"":5,""ArrowDown,ArrowRight"":17}","false","ArrowDown,ArrowRight","false","revaluation","1","8","","",""
"html-keyboard-response","126","624357","0.0-4.0-2.0-1.4","spark_pilot_norest","10010","4","21","Male","","","","","","","null","<div style=""font-size:60px;"">+</div>","null","fixation","","","","","","","","","9","","",""
"revaluation","127","628360","0.0-4.0-2.0-0.5","spark_pilot_norest","10010","4","21","Male","","false","","","","","[838]","./assets/img/ocean/catch/5.jpg","[""spaceBar""]","value training","ocean","0","{""ArrowUp,ArrowLeft"":26,""ArrowUp,ArrowRight"":10,""ArrowDown,ArrowLeft"":5,""ArrowDown,ArrowRight"":17}","true","spaceBar","true","revaluation","1","10","","",""
"html-keyboard-response","128","628862","0.0-4.0-2.0-1.5","spark_pilot_norest","10010","4","21","Male","","","","","","","null","<div style=""font-size:60px;"">+</div>","null","fixation","","","","","","","","","11","","",""
"revaluation","129","634866","0.0-4.0-2.0-0.6","spark_pilot_norest","10010","4","21","Male","","false","","","","","[647.1999999955297,655.6000000014901]","./assets/img/ocean/memory/4.jpg","[""ArrowUp"",""ArrowLeft""]","value training","ocean","26","{""ArrowUp,ArrowLeft"":26,""ArrowUp,ArrowRight"":10,""ArrowDown,ArrowLeft"":5,""ArrowDown,ArrowRight"":17}","true","ArrowUp,ArrowLeft","false","revaluation","1","12","","",""
"html-keyboard-response","130","635368","0.0-4.0-2.0-1.6","spark_pilot_norest","10010","4","21","Male","","","","","","","null","<div style=""font-size:60px;"">+</div>","null","fixation","","","","","","","","","13","","",""
"revaluation","131","639370","0.0-4.0-2.0-0.7","spark_pilot_norest","10010","4","21","Male","","false","","","","","[559.5]","./assets/img/ocean/catch/4.jpg","[""spaceBar""]","value training","ocean","0","{""ArrowUp,ArrowLeft"":26,""ArrowUp,ArrowRight"":10,""ArrowDown,ArrowLeft"":5,""ArrowDown,ArrowRight"":17}","true","spaceBar","true","revaluation","1","14","","",""
"html-keyboard-response","132","639872","0.0-4.0-2.0-1.7","spark_pilot_norest","10010","4","21","Male","","","","","","","null","<div style=""font-size:60px;"">+</div>","null","fixation","","","","","","","","","15","","",""
"revaluation","133","645878","0.0-4.0-2.0-0.8","spark_pilot_norest","10010","4","21","Male","","false","","","","","[708.2999999970198,735.3000000044703]","./assets/img/ocean/memory/26.jpg","[""ArrowUp"",""ArrowLeft""]","value training","ocean","26","{""ArrowUp,ArrowLeft"":26,""ArrowUp,ArrowRight"":10,""ArrowDown,ArrowLeft"":5,""ArrowDown,ArrowRight"":17}","true","ArrowUp,ArrowLeft","false","revaluation","1","16","","",""
"html-keyboard-response","134","646379","0.0-4.0-2.0-1.8","spark_pilot_norest","10010","4","21","Male","","","","","","","null","<div style=""font-size:60px;"">+</div>","null","fixation","","","","","","","","","17","","",""
"revaluation","135","652384","0.0-4.0-2.0-0.9","spark_pilot_norest","10010","4","21","Male","","false","","","","","[717.7999999970198,555.8999999985099]","./assets/img/ocean/memory/3.jpg","[""ArrowUp"",""ArrowLeft""]","value training","ocean","26","{""ArrowUp,ArrowLeft"":26,""ArrowUp,ArrowRight"":10,""ArrowDown,ArrowLeft"":5,""ArrowDown,ArrowRight"":17}","true","ArrowUp,ArrowLeft","false","revaluation","1","18","","",""
"html-keyboard-response","136","652886","0.0-4.0-2.0-1.9","spark_pilot_norest","10010","4","21","Male","","","","","","","null","<div style=""font-size:60px;"">+</div>","null","fixation","","","","","","","","","19","","",""
"revaluation","137","658892","0.0-4.0-2.0-0.10","spark_pilot_norest","10010","4","21","Male","","false","","","","","[692.2000000029802,282.6000000014901]","./assets/img/ocean/memory/2.jpg","[""ArrowUp"",""ArrowLeft""]","value training","ocean","26","{""ArrowUp,ArrowLeft"":26,""ArrowUp,ArrowRight"":10,""ArrowDown,ArrowLeft"":5,""ArrowDown,ArrowRight"":17}","true","ArrowUp,ArrowLeft","false","revaluation","1","20","","",""
"html-keyboard-response","138","659394","0.0-4.0-2.0-1.10","spark_pilot_norest","10010","4","21","Male","","","","","","","null","<div style=""font-size:60px;"">+</div>","null","fixation","","","","","","","","","21","","",""
"revaluation","139","665398","0.0-4.0-2.0-0.11","spark_pilot_norest","10010","4","21","Male","","false","","","","","[830.2999999970198,342]","./assets/img/ocean/memory/0.jpg","[""ArrowUp"",""ArrowLeft""]","value training","ocean","26","{""ArrowUp,ArrowLeft"":26,""ArrowUp,ArrowRight"":10,""ArrowDown,ArrowLeft"":5,""ArrowDown,ArrowRight"":17}","true","ArrowUp,ArrowLeft","false","revaluation","1","22","","",""
"html-keyboard-response","140","665899","0.0-4.0-2.0-1.11","spark_pilot_norest","10010","4","21","Male","","","","","","","null","<div style=""font-size:60px;"">+</div>","null","fixation","","","","","","","","","23","","",""
"revaluation","141","671907","0.0-4.0-2.0-0.12","spark_pilot_norest","10010","4","21","Male","","false","","","","","[698.6000000014901,397.3999999985099]","./assets/img/ocean/memory/32.jpg","[""ArrowUp"",""ArrowLeft""]","value training","ocean","26","{""ArrowUp,ArrowLeft"":26,""ArrowUp,ArrowRight"":10,""ArrowDown,ArrowLeft"":5,""ArrowDown,ArrowRight"":17}","true","ArrowUp,ArrowLeft","false","revaluation","1","24","","",""
"html-keyboard-response","142","672408","0.0-4.0-2.0-1.12","spark_pilot_norest","10010","4","21","Male","","","","","","","null","<div style=""font-size:60px;"">+</div>","null","fixation","","","","","","","","","25","","",""
"revaluation","143","678412","0.0-4.0-2.0-0.13","spark_pilot_norest","10010","4","21","Male","","false","","","","","[882.1000000014901,437.6000000014901]","./assets/img/ocean/memory/21.jpg","[""ArrowUp"",""ArrowLeft""]","value training","ocean","26","{""ArrowUp,ArrowLeft"":26,""ArrowUp,ArrowRight"":10,""ArrowDown,ArrowLeft"":5,""ArrowDown,ArrowRight"":17}","true","ArrowUp,ArrowLeft","false","revaluation","1","26","","",""
"html-keyboard-response","144","678913","0.0-4.0-2.0-1.13","spark_pilot_norest","10010","4","21","Male","","","","","","","null","<div style=""font-size:60px;"">+</div>","null","fixation","","","","","","","","","27","","",""
"revaluation","145","682917","0.0-4.0-2.0-0.14","spark_pilot_norest","10010","4","21","Male","","false","","","","","[619.6000000014901]","./assets/img/ocean/catch/2.jpg","[""spaceBar""]","value training","ocean","0","{""ArrowUp,ArrowLeft"":26,""ArrowUp,ArrowRight"":10,""ArrowDown,ArrowLeft"":5,""ArrowDown,ArrowRight"":17}","true","spaceBar","true","revaluation","1","28","","",""
"html-keyboard-response","146","683419","0.0-4.0-2.0-1.14","spark_pilot_norest","10010","4","21","Male","","","","","","","null","<div style=""font-size:60px;"">+</div>","null","fixation","","","","","","","","","29","","",""
"revaluation","147","689423","0.0-4.0-2.0-0.15","spark_pilot_norest","10010","4","21","Male","","false","","","","","[643.3999999985099,312.40000000596046]","./assets/img/ocean/memory/16.jpg","[""ArrowUp"",""ArrowLeft""]","value training","ocean","26","{""ArrowUp,ArrowLeft"":26,""ArrowUp,ArrowRight"":10,""ArrowDown,ArrowLeft"":5,""ArrowDown,ArrowRight"":17}","true","ArrowUp,ArrowLeft","false","revaluation","1","30","","",""
"html-keyboard-response","148","689924","0.0-4.0-2.0-1.15","spark_pilot_norest","10010","4","21","Male","","","","","","","null","<div style=""font-size:60px;"">+</div>","null","fixation","","","","","","","","","31","","",""
"revaluation","149","695930","0.0-4.0-2.0-0.16","spark_pilot_norest","10010","4","21","Male","","false","","","","","[710.5,380.20000000298023]","./assets/img/ocean/memory/28.jpg","[""ArrowUp"",""ArrowLeft""]","value training","ocean","26","{""ArrowUp,ArrowLeft"":26,""ArrowUp,ArrowRight"":10,""ArrowDown,ArrowLeft"":5,""ArrowDown,ArrowRight"":17}","true","ArrowUp,ArrowLeft","false","revaluation","1","32","","",""
"html-keyboard-response","150","696431","0.0-4.0-2.0-1.16","spark_pilot_norest","10010","4","21","Male","","","","","","","null","<div style=""font-size:60px;"">+</div>","null","fixation","","","","","","","","","33","","",""
"revaluation","151","702436","0.0-4.0-2.0-0.17","spark_pilot_norest","10010","4","21","Male","","false","","","","","[606.3000000044703,466]","./assets/img/ocean/memory/5.jpg","[""ArrowUp"",""ArrowLeft""]","value training","ocean","26","{""ArrowUp,ArrowLeft"":26,""ArrowUp,ArrowRight"":10,""ArrowDown,ArrowLeft"":5,""ArrowDown,ArrowRight"":17}","true","ArrowUp,ArrowLeft","false","revaluation","1","34","","",""
"html-keyboard-response","152","702938","0.0-4.0-2.0-1.17","spark_pilot_norest","10010","4","21","Male","","","","","","","null","<div style=""font-size:60px;"">+</div>","null","fixation","","","","","","","","","35","","",""
"revaluation","153","708942","0.0-4.0-2.0-0.18","spark_pilot_norest","10010","4","21","Male","","false","","","","","[770.3999999985099,510.29999999701977]","./assets/img/ocean/memory/10.jpg","[""ArrowUp"",""ArrowLeft""]","value training","ocean","26","{""ArrowUp,ArrowLeft"":26,""ArrowUp,ArrowRight"":10,""ArrowDown,ArrowLeft"":5,""ArrowDown,ArrowRight"":17}","true","ArrowUp,ArrowLeft","false","revaluation","1","36","","",""
"html-keyboard-response","154","709444","0.0-4.0-2.0-1.18","spark_pilot_norest","10010","4","21","Male","","","","","","","null","<div style=""font-size:60px;"">+</div>","null","fixation","","","","","","","","","37","","",""
"revaluation","155","715448","0.0-4.0-2.0-0.19","spark_pilot_norest","10010","4","21","Male","","false","","","","","[658.6000000014901,517.5999999940395]","./assets/img/ocean/memory/35.jpg","[""ArrowUp"",""ArrowLeft""]","value training","ocean","26","{""ArrowUp,ArrowLeft"":26,""ArrowUp,ArrowRight"":10,""ArrowDown,ArrowLeft"":5,""ArrowDown,ArrowRight"":17}","true","ArrowUp,ArrowLeft","false","revaluation","1","38","","",""
"html-keyboard-response","156","715950","0.0-4.0-2.0-1.19","spark_pilot_norest","10010","4","21","Male","","","","","","","null","<div style=""font-size:60px;"">+</div>","null","fixation","","","","","","","","","39","","",""
"revaluation","157","721955","0.0-4.0-2.0-0.20","spark_pilot_norest","10010","4","21","Male","","false","","","","","[720.5,475.3999999985099]","./assets/img/ocean/memory/3.jpg","[""ArrowUp"",""ArrowLeft""]","value training","ocean","26","{""ArrowUp,ArrowLeft"":26,""ArrowUp,ArrowRight"":10,""ArrowDown,ArrowLeft"":5,""ArrowDown,ArrowRight"":17}","true","ArrowUp,ArrowLeft","false","revaluation","1","40","","",""
"html-keyboard-response","158","722457","0.0-4.0-2.0-1.20","spark_pilot_norest","10010","4","21","Male","","","","","","","null","<div style=""font-size:60px;"">+</div>","null","fixation","","","","","","","","","41","","",""
"revaluation","159","728460","0.0-4.0-2.0-0.21","spark_pilot_norest","10010","4","21","Male","","false","","","","","[479.6000000014901,278.8999999985099]","./assets/img/ocean/memory/29.jpg","[""ArrowUp"",""ArrowLeft""]","value training","ocean","26","{""ArrowUp,ArrowLeft"":26,""ArrowUp,ArrowRight"":10,""ArrowDown,ArrowLeft"":5,""ArrowDown,ArrowRight"":17}","true","ArrowUp,ArrowLeft","false","revaluation","1","42","","",""
"html-keyboard-response","160","728962","0.0-4.0-2.0-1.21","spark_pilot_norest","10010","4","21","Male","","","","","","","null","<div style=""font-size:60px;"">+</div>","null","fixation","","","","","","","","","43","","",""
"revaluation","161","734966","0.0-4.0-2.0-0.22","spark_pilot_norest","10010","4","21","Male","","false","","","","","[828.5,276.3999999985099]","./assets/img/ocean/memory/9.jpg","[""ArrowUp"",""ArrowLeft""]","value training","ocean","26","{""ArrowUp,ArrowLeft"":26,""ArrowUp,ArrowRight"":10,""ArrowDown,ArrowLeft"":5,""ArrowDown,ArrowRight"":17}","true","ArrowUp,ArrowLeft","false","revaluation","1","44","","",""
"html-keyboard-response","162","735467","0.0-4.0-2.0-1.22","spark_pilot_norest","10010","4","21","Male","","","","","","","null","<div style=""font-size:60px;"">+</div>","null","fixation","","","","","","","","","45","","",""
"revaluation","163","741471","0.0-4.0-2.0-0.23","spark_pilot_norest","10010","4","21","Male","","false","","","","","[816.3999999985099,296.3999999985099]","./assets/img/ocean/memory/10.jpg","[""ArrowUp"",""ArrowLeft""]","value training","ocean","26","{""ArrowUp,ArrowLeft"":26,""ArrowUp,ArrowRight"":10,""ArrowDown,ArrowLeft"":5,""ArrowDown,ArrowRight"":17}","true","ArrowUp,ArrowLeft","false","revaluation","1","46","","",""
"html-keyboard-response","164","741973","0.0-4.0-2.0-1.23","spark_pilot_norest","10010","4","21","Male","","","","","","","null","<div style=""font-size:60px;"">+</div>","null","fixation","","","","","","","","","47","","",""
"revaluation","165","747978","0.0-4.0-2.0-0.24","spark_pilot_norest","10010","4","21","Male","","false","","","","","[494.1000000014901,304.5]","./assets/img/ocean/memory/28.jpg","[""ArrowUp"",""ArrowLeft""]","value training","ocean","26","{""ArrowUp,ArrowLeft"":26,""ArrowUp,ArrowRight"":10,""ArrowDown,ArrowLeft"":5,""ArrowDown,ArrowRight"":17}","true","ArrowUp,ArrowLeft","false","revaluation","1","48","","",""
"html-keyboard-response","166","748479","0.0-4.0-2.0-1.24","spark_pilot_norest","10010","4","21","Male","","","","","","","null","<div style=""font-size:60px;"">+</div>","null","fixation","","","","","","","","","49","","",""
"revaluation","167","754483","0.0-4.0-2.0-0.25","spark_pilot_norest","10010","4","21","Male","","false","","","","","[649.6999999955297,280.90000000596046]","./assets/img/ocean/memory/36.jpg","[""ArrowUp"",""ArrowLeft""]","value training","ocean","26","{""ArrowUp,ArrowLeft"":26,""ArrowUp,ArrowRight"":10,""ArrowDown,ArrowLeft"":5,""ArrowDown,ArrowRight"":17}","true","ArrowUp,ArrowLeft","false","revaluation","1","50","","",""
"html-keyboard-response","168","754984","0.0-4.0-2.0-1.25","spark_pilot_norest","10010","4","21","Male","","","","","","","null","<div style=""font-size:60px;"">+</div>","null","fixation","","","","","","","","","51","","",""
"revaluation","169","760988","0.0-4.0-2.0-0.26","spark_pilot_norest","10010","4","21","Male","","false","","","","","[564,296.6000000014901]","./assets/img/ocean/memory/9.jpg","[""ArrowUp"",""ArrowLeft""]","value training","ocean","26","{""ArrowUp,ArrowLeft"":26,""ArrowUp,ArrowRight"":10,""ArrowDown,ArrowLeft"":5,""ArrowDown,ArrowRight"":17}","true","ArrowUp,ArrowLeft","false","revaluation","1","52","","",""
"html-keyboard-response","170","761489","0.0-4.0-2.0-1.26","spark_pilot_norest","10010","4","21","Male","","","","","","","null","<div style=""font-size:60px;"">+</div>","null","fixation","","","","","","","","","53","","",""
"revaluation","171","767493","0.0-4.0-2.0-0.27","spark_pilot_norest","10010","4","21","Male","","false","","","","","[694,282.29999999701977]","./assets/img/ocean/memory/12.jpg","[""ArrowUp"",""ArrowLeft""]","value training","ocean","26","{""ArrowUp,ArrowLeft"":26,""ArrowUp,ArrowRight"":10,""ArrowDown,ArrowLeft"":5,""ArrowDown,ArrowRight"":17}","true","ArrowUp,ArrowLeft","false","revaluation","1","54","","",""
"html-keyboard-response","172","767994","0.0-4.0-2.0-1.27","spark_pilot_norest","10010","4","21","Male","","","","","","","null","<div style=""font-size:60px;"">+</div>","null","fixation","","","","","","","","","55","","",""
"revaluation","173","774000","0.0-4.0-2.0-0.28","spark_pilot_norest","10010","4","21","Male","","false","","","","","[715.3000000044703,434.09999999403954]","./assets/img/ocean/memory/4.jpg","[""ArrowUp"",""ArrowLeft""]","value training","ocean","26","{""ArrowUp,ArrowLeft"":26,""ArrowUp,ArrowRight"":10,""ArrowDown,ArrowLeft"":5,""ArrowDown,ArrowRight"":17}","true","ArrowUp,ArrowLeft","false","revaluation","1","56","","",""
"html-keyboard-response","174","774501","0.0-4.0-2.0-1.28","spark_pilot_norest","10010","4","21","Male","","","","","","","null","<div style=""font-size:60px;"">+</div>","null","fixation","","","","","","","","","57","","",""
"revaluation","175","780504","0.0-4.0-2.0-0.29","spark_pilot_norest","10010","4","21","Male","","false","","","","","[435.19999999552965,339.80000000447035]","./assets/img/ocean/memory/5.jpg","[""ArrowUp"",""ArrowLeft""]","value training","ocean","26","{""ArrowUp,ArrowLeft"":26,""ArrowUp,ArrowRight"":10,""ArrowDown,ArrowLeft"":5,""ArrowDown,ArrowRight"":17}","true","ArrowUp,ArrowLeft","false","revaluation","1","58","","",""
"html-keyboard-response","176","781005","0.0-4.0-2.0-1.29","spark_pilot_norest","10010","4","21","Male","","","","","","","null","<div style=""font-size:60px;"">+</div>","null","fixation","","","","","","","","","59","","",""
"revaluation","177","787011","0.0-4.0-2.0-0.30","spark_pilot_norest","10010","4","21","Male","","false","","","","","[542.5,301.6000000014901]","./assets/img/ocean/memory/1.jpg","[""ArrowUp"",""ArrowRight""]","value training","ocean","10","{""ArrowUp,ArrowLeft"":26,""ArrowUp,ArrowRight"":10,""ArrowDown,ArrowLeft"":5,""ArrowDown,ArrowRight"":17}","false","ArrowUp,ArrowRight","false","revaluation","1","60","","",""
"html-keyboard-response","178","787512","0.0-4.0-2.0-1.30","spark_pilot_norest","10010","4","21","Male","","","","","","","null","<div style=""font-size:60px;"">+</div>","null","fixation","","","","","","","","","61","","",""
"revaluation","179","793516","0.0-4.0-2.0-0.31","spark_pilot_norest","10010","4","21","Male","","false","","","","","[732.7000000029802,516.8999999985099]","./assets/img/ocean/memory/0.jpg","[""ArrowDown"",""ArrowLeft""]","value training","ocean","5","{""ArrowUp,ArrowLeft"":26,""ArrowUp,ArrowRight"":10,""ArrowDown,ArrowLeft"":5,""ArrowDown,ArrowRight"":17}","false","ArrowDown,ArrowLeft","false","revaluation","1","62","","",""
"html-keyboard-response","180","794017","0.0-4.0-2.0-1.31","spark_pilot_norest","10010","4","21","Male","","","","","","","null","<div style=""font-size:60px;"">+</div>","null","fixation","","","","","","","","","63","","",""
"revaluation","181","800022","0.0-4.0-2.0-0.32","spark_pilot_norest","10010","4","21","Male","","false","","","","","[818.1000000014901,268.8999999985099]","./assets/img/ocean/memory/34.jpg","[""ArrowDown"",""ArrowRight""]","value training","ocean","17","{""ArrowUp,ArrowLeft"":26,""ArrowUp,ArrowRight"":10,""ArrowDown,ArrowLeft"":5,""ArrowDown,ArrowRight"":17}","false","ArrowDown,ArrowRight","false","revaluation","1","64","","",""
"html-keyboard-response","182","800524","0.0-4.0-2.0-1.32","spark_pilot_norest","10010","4","21","Male","","","","","","","null","<div style=""font-size:60px;"">+</div>","null","fixation","","","","","","","","","65","","",""
"revaluation","183","806527","0.0-4.0-2.0-0.33","spark_pilot_norest","10010","4","21","Male","","false","","","","","[601.8999999985099,541.8000000044703]","./assets/img/ocean/memory/12.jpg","[""ArrowUp"",""ArrowLeft""]","value training","ocean","26","{""ArrowUp,ArrowLeft"":26,""ArrowUp,ArrowRight"":10,""ArrowDown,ArrowLeft"":5,""ArrowDown,ArrowRight"":17}","true","ArrowUp,ArrowLeft","false","revaluation","1","66","","",""
"html-keyboard-response","184","807028","0.0-4.0-2.0-1.33","spark_pilot_norest","10010","4","21","Male","","","","","","","null","<div style=""font-size:60px;"">+</div>","null","fixation","","","","","","","","","67","","",""
"revaluation","185","813035","0.0-4.0-2.0-0.34","spark_pilot_norest","10010","4","21","Male","","false","","","","","[712.3000000044703,359.09999999403954]","./assets/img/ocean/memory/27.jpg","[""ArrowUp"",""ArrowLeft""]","value training","ocean","26","{""ArrowUp,ArrowLeft"":26,""ArrowUp,ArrowRight"":10,""ArrowDown,ArrowLeft"":5,""ArrowDown,ArrowRight"":17}","true","ArrowUp,ArrowLeft","false","revaluation","1","68","","",""
"html-keyboard-response","186","813536","0.0-4.0-2.0-1.34","spark_pilot_norest","10010","4","21","Male","","","","","","","null","<div style=""font-size:60px;"">+</div>","null","fixation","","","","","","","","","69","","",""
"revaluation","187","817540","0.0-4.0-2.0-0.35","spark_pilot_norest","10010","4","21","Male","","false","","","","","[518.1000000014901]","./assets/img/ocean/catch/3.jpg","[""spaceBar""]","value training","ocean","0","{""ArrowUp,ArrowLeft"":26,""ArrowUp,ArrowRight"":10,""ArrowDown,ArrowLeft"":5,""ArrowDown,ArrowRight"":17}","true","spaceBar","true","revaluation","1","70","","",""
"html-keyboard-response","188","818041","0.0-4.0-2.0-1.35","spark_pilot_norest","10010","4","21","Male","","","","","","","null","<div style=""font-size:60px;"">+</div>","null","fixation","","","","","","","","","71","","",""
"revaluation","189","824045","0.0-4.0-2.0-0.36","spark_pilot_norest","10010","4","21","Male","","false","","","","","[502.80000000447035,327]","./assets/img/ocean/memory/1.jpg","[""ArrowUp"",""ArrowLeft""]","value training","ocean","26","{""ArrowUp,ArrowLeft"":26,""ArrowUp,ArrowRight"":10,""ArrowDown,ArrowLeft"":5,""ArrowDown,ArrowRight"":17}","true","ArrowUp,ArrowLeft","false","revaluation","1","72","","",""
"html-keyboard-response","190","824546","0.0-4.0-2.0-1.36","spark_pilot_norest","10010","4","21","Male","","","","","","","null","<div style=""font-size:60px;"">+</div>","null","fixation","","","","","","","","","73","","",""
"revaluation","191","830550","0.0-4.0-2.0-0.37","spark_pilot_norest","10010","4","21","Male","","false","","","","","[535.5,227.29999999701977]","./assets/img/ocean/memory/35.jpg","[""ArrowUp"",""ArrowLeft""]","value training","ocean","26","{""ArrowUp,ArrowLeft"":26,""ArrowUp,ArrowRight"":10,""ArrowDown,ArrowLeft"":5,""ArrowDown,ArrowRight"":17}","true","ArrowUp,ArrowLeft","false","revaluation","1","74","","",""
"html-keyboard-response","192","831051","0.0-4.0-2.0-1.37","spark_pilot_norest","10010","4","21","Male","","","","","","","null","<div style=""font-size:60px;"">+</div>","null","fixation","","","","","","","","","75","","",""
"revaluation","193","837056","0.0-4.0-2.0-0.38","spark_pilot_norest","10010","4","21","Male","","false","","","","","[540.7999999970198,260.80000000447035]","./assets/img/ocean/memory/21.jpg","[""ArrowUp"",""ArrowLeft""]","value training","ocean","26","{""ArrowUp,ArrowLeft"":26,""ArrowUp,ArrowRight"":10,""ArrowDown,ArrowLeft"":5,""ArrowDown,ArrowRight"":17}","true","ArrowUp,ArrowLeft","false","revaluation","1","76","","",""
"html-keyboard-response","194","837558","0.0-4.0-2.0-1.38","spark_pilot_norest","10010","4","21","Male","","","","","","","null","<div style=""font-size:60px;"">+</div>","null","fixation","","","","","","","","","77","","",""
"revaluation","195","843561","0.0-4.0-2.0-0.39","spark_pilot_norest","10010","4","21","Male","","false","","","","","[597.6000000014901,289.5]","./assets/img/ocean/memory/26.jpg","[""ArrowUp"",""ArrowLeft""]","value training","ocean","26","{""ArrowUp,ArrowLeft"":26,""ArrowUp,ArrowRight"":10,""ArrowDown,ArrowLeft"":5,""ArrowDown,ArrowRight"":17}","true","ArrowUp,ArrowLeft","false","revaluation","1","78","","",""
"html-keyboard-response","196","844062","0.0-4.0-2.0-1.39","spark_pilot_norest","10010","4","21","Male","","","","","","","null","<div style=""font-size:60px;"">+</div>","null","fixation","","","","","","","","","79","","",""
"revaluation","197","850067","0.0-4.0-2.0-0.40","spark_pilot_norest","10010","4","21","Male","","false","","","","","[495.8999999985099,258.69999999552965]","./assets/img/ocean/memory/16.jpg","[""ArrowUp"",""ArrowLeft""]","value training","ocean","26","{""ArrowUp,ArrowLeft"":26,""ArrowUp,ArrowRight"":10,""ArrowDown,ArrowLeft"":5,""ArrowDown,ArrowRight"":17}","true","ArrowUp,ArrowLeft","false","revaluation","1","80","","",""
"html-keyboard-response","198","850569","0.0-4.0-2.0-1.40","spark_pilot_norest","10010","4","21","Male","","","","","","","null","<div style=""font-size:60px;"">+</div>","null","fixation","","","","","","","","","81","","",""
"revaluation","199","854573","0.0-4.0-2.0-0.41","spark_pilot_norest","10010","4","21","Male","","false","","","","","[515.7000000029802]","./assets/img/ocean/catch/1.jpg","[""spaceBar""]","value training","ocean","0","{""ArrowUp,ArrowLeft"":26,""ArrowUp,ArrowRight"":10,""ArrowDown,ArrowLeft"":5,""ArrowDown,ArrowRight"":17}","true","spaceBar","true","revaluation","1","82","","",""
"html-keyboard-response","200","855074","0.0-4.0-2.0-1.41","spark_pilot_norest","10010","4","21","Male","","","","","","","null","<div style=""font-size:60px;"">+</div>","null","fixation","","","","","","","","","83","","",""
"revaluation","201","859079","0.0-4.0-2.0-0.42","spark_pilot_norest","10010","4","21","Male","","false","","","","","[598.8000000044703]","./assets/img/ocean/catch/0.jpg","[""spaceBar""]","value training","ocean","0","{""ArrowUp,ArrowLeft"":26,""ArrowUp,ArrowRight"":10,""ArrowDown,ArrowLeft"":5,""ArrowDown,ArrowRight"":17}","true","spaceBar","true","revaluation","1","84","","",""
"html-keyboard-response","202","859579","0.0-4.0-2.0-1.42","spark_pilot_norest","10010","4","21","Male","","","","","","","null","<div style=""font-size:60px;"">+</div>","null","fixation","","","","","","","","","85","","",""
"revaluation","203","865584","0.0-4.0-2.0-0.43","spark_pilot_norest","10010","4","21","Male","","false","","","","","[587.8999999985099,331.1000000014901]","./assets/img/ocean/memory/32.jpg","[""ArrowUp"",""ArrowLeft""]","value training","ocean","26","{""ArrowUp,ArrowLeft"":26,""ArrowUp,ArrowRight"":10,""ArrowDown,ArrowLeft"":5,""ArrowDown,ArrowRight"":17}","true","ArrowUp,ArrowLeft","false","revaluation","1","86","","",""
"html-keyboard-response","204","866085","0.0-4.0-2.0-1.43","spark_pilot_norest","10010","4","21","Male","","","","","","","null","<div style=""font-size:60px;"">+</div>","null","fixation","","","","","","","","","87","","",""
"revaluation","205","872091","0.0-4.0-2.0-0.44","spark_pilot_norest","10010","4","21","Male","","false","","","","","[828.2000000029802,307.3999999985099]","./assets/img/ocean/memory/11.jpg","[""ArrowUp"",""ArrowLeft""]","value training","ocean","26","{""ArrowUp,ArrowLeft"":26,""ArrowUp,ArrowRight"":10,""ArrowDown,ArrowLeft"":5,""ArrowDown,ArrowRight"":17}","true","ArrowUp,ArrowLeft","false","revaluation","1","88","","",""
"html-keyboard-response","206","872593","0.0-4.0-2.0-1.44","spark_pilot_norest","10010","4","21","Male","","","","","","","null","<div style=""font-size:60px;"">+</div>","null","fixation","","","","","","","","","89","","",""
"revaluation","207","878598","0.0-4.0-2.0-0.45","spark_pilot_norest","10010","4","21","Male","","false","","","","","[904,346.1000000014901]","./assets/img/ocean/memory/15.jpg","[""ArrowUp"",""ArrowLeft""]","value training","ocean","26","{""ArrowUp,ArrowLeft"":26,""ArrowUp,ArrowRight"":10,""ArrowDown,ArrowLeft"":5,""ArrowDown,ArrowRight"":17}","true","ArrowUp,ArrowLeft","false","revaluation","1","90","","",""
"html-keyboard-response","208","879099","0.0-4.0-2.0-1.45","spark_pilot_norest","10010","4","21","Male","","","","","","","null","<div style=""font-size:60px;"">+</div>","null","fixation","","","","","","","","","91","","",""
"revaluation","209","883103","0.0-4.0-2.0-0.46","spark_pilot_norest","10010","4","21","Male","","false","","","","","[679.2000000029802]","./assets/img/ocean/catch/7.jpg","[""spaceBar""]","value training","ocean","0","{""ArrowUp,ArrowLeft"":26,""ArrowUp,ArrowRight"":10,""ArrowDown,ArrowLeft"":5,""ArrowDown,ArrowRight"":17}","true","spaceBar","true","revaluation","1","92","","",""
"html-keyboard-response","210","883604","0.0-4.0-2.0-1.46","spark_pilot_norest","10010","4","21","Male","","","","","","","null","<div style=""font-size:60px;"">+</div>","null","fixation","","","","","","","","","93","","",""
"revaluation","211","889609","0.0-4.0-2.0-0.47","spark_pilot_norest","10010","4","21","Male","","false","","","","","[715.8000000044703,272.1000000014901]","./assets/img/ocean/memory/15.jpg","[""ArrowUp"",""ArrowLeft""]","value training","ocean","26","{""ArrowUp,ArrowLeft"":26,""ArrowUp,ArrowRight"":10,""ArrowDown,ArrowLeft"":5,""ArrowDown,ArrowRight"":17}","true","ArrowUp,ArrowLeft","false","revaluation","1","94","","",""
"html-keyboard-response","212","890111","0.0-4.0-2.0-1.47","spark_pilot_norest","10010","4","21","Male","","","","","","","null","<div style=""font-size:60px;"">+</div>","null","fixation","","","","","","","","","95","","",""
"revaluation","213","896116","0.0-4.0-2.0-0.48","spark_pilot_norest","10010","4","21","Male","","false","","","","","[611.6000000014901,447.1000000014901]","./assets/img/ocean/memory/27.jpg","[""ArrowUp"",""ArrowLeft""]","value training","ocean","26","{""ArrowUp,ArrowLeft"":26,""ArrowUp,ArrowRight"":10,""ArrowDown,ArrowLeft"":5,""ArrowDown,ArrowRight"":17}","true","ArrowUp,ArrowLeft","false","revaluation","1","96","","",""
"html-keyboard-response","214","896616","0.0-4.0-2.0-1.48","spark_pilot_norest","10010","4","21","Male","","","","","","","null","<div style=""font-size:60px;"">+</div>","null","fixation","","","","","","","","","97","","",""
"revaluation","215","902622","0.0-4.0-2.0-0.49","spark_pilot_norest","10010","4","21","Male","","false","","","","","[542.8999999985099,425.79999999701977]","./assets/img/ocean/memory/29.jpg","[""ArrowUp"",""ArrowLeft""]","value training","ocean","26","{""ArrowUp,ArrowLeft"":26,""ArrowUp,ArrowRight"":10,""ArrowDown,ArrowLeft"":5,""ArrowDown,ArrowRight"":17}","true","ArrowUp,ArrowLeft","false","revaluation","1","98","","",""
"html-keyboard-response","216","903123","0.0-4.0-2.0-1.49","spark_pilot_norest","10010","4","21","Male","","","","","","","null","<div style=""font-size:60px;"">+</div>","null","fixation","","","","","","","","","99","","",""
"learning-instructions","217","917473","0.0-4.0-3.0-0.0","spark_pilot_norest","10010","4","21","Male","","","","","","","1455.7999999970198","<p> Now, you will travel with a friend who will choose whether you go up or down first. </p>
            <p> On these turns, you will just see the animal that they found. You will still get to choose which chest to search for treasure.</p>","","instructions","","","","","","","","","","","",""
"revaluation","218","921486","0.0-4.0-4.0-0.0","spark_pilot_norest","10010","4","21","Male","","false","","","","","[1190.6000000014901]","./assets/img/ocean/animals/octopus.jpg","[""ArrowLeft""]","revaluation","ocean","8","{""ArrowUp,ArrowLeft"":2,""ArrowUp,ArrowRight"":11,""ArrowDown,ArrowLeft"":8,""ArrowDown,ArrowRight"":27}","false","ArrowDown,ArrowLeft","","revaluation","1","0","","",""
"html-keyboard-response","219","921990","0.0-4.0-4.0-1.0","spark_pilot_norest","10010","4","21","Male","","","","","","","null","<div style=""font-size:60px;"">+</div>","null","fixation","","","","","","","","","1","","",""
"revaluation","220","925994","0.0-4.0-4.0-0.1","spark_pilot_norest","10010","4","21","Male","","false","","","","","[639.8999999985099]","./assets/img/ocean/animals/octopus.jpg","[""ArrowRight""]","revaluation","ocean","27","{""ArrowUp,ArrowLeft"":2,""ArrowUp,ArrowRight"":11,""ArrowDown,ArrowLeft"":8,""ArrowDown,ArrowRight"":27}","true","ArrowDown,ArrowRight","","revaluation","1","2","","",""
"html-keyboard-response","221","926495","0.0-4.0-4.0-1.1","spark_pilot_norest","10010","4","21","Male","","","","","","","null","<div style=""font-size:60px;"">+</div>","null","fixation","","","","","","","","","3","","",""
"revaluation","222","930497","0.0-4.0-4.0-0.2","spark_pilot_norest","10010","4","21","Male","","false","","","","","[651.6000000014901]","./assets/img/ocean/animals/octopus.jpg","[""ArrowRight""]","revaluation","ocean","27","{""ArrowUp,ArrowLeft"":2,""ArrowUp,ArrowRight"":11,""ArrowDown,ArrowLeft"":8,""ArrowDown,ArrowRight"":27}","true","ArrowDown,ArrowRight","","revaluation","1","4","","",""
"html-keyboard-response","223","930999","0.0-4.0-4.0-1.2","spark_pilot_norest","10010","4","21","Male","","","","","","","null","<div style=""font-size:60px;"">+</div>","null","fixation","","","","","","","","","5","","",""
"revaluation","224","935003","0.0-4.0-4.0-0.3","spark_pilot_norest","10010","4","21","Male","","false","","","","","[490.1000000014901]","./assets/img/ocean/animals/octopus.jpg","[""ArrowRight""]","revaluation","ocean","27","{""ArrowUp,ArrowLeft"":2,""ArrowUp,ArrowRight"":11,""ArrowDown,ArrowLeft"":8,""ArrowDown,ArrowRight"":27}","true","ArrowDown,ArrowRight","","revaluation","1","6","","",""
"html-keyboard-response","225","935506","0.0-4.0-4.0-1.3","spark_pilot_norest","10010","4","21","Male","","","","","","","null","<div style=""font-size:60px;"">+</div>","null","fixation","","","","","","","","","7","","",""
"revaluation","226","939511","0.0-4.0-4.0-0.4","spark_pilot_norest","10010","4","21","Male","","false","","","","","[344.30000000447035]","./assets/img/ocean/animals/seahorse.jpg","[""ArrowRight""]","revaluation","ocean","11","{""ArrowUp,ArrowLeft"":2,""ArrowUp,ArrowRight"":11,""ArrowDown,ArrowLeft"":8,""ArrowDown,ArrowRight"":27}","true","ArrowUp,ArrowRight","","revaluation","1","8","","",""
"html-keyboard-response","227","940011","0.0-4.0-4.0-1.4","spark_pilot_norest","10010","4","21","Male","","","","","","","null","<div style=""font-size:60px;"">+</div>","null","fixation","","","","","","","","","9","","",""
"revaluation","228","944015","0.0-4.0-4.0-0.5","spark_pilot_norest","10010","4","21","Male","","false","","","","","[902]","./assets/img/ocean/animals/octopus.jpg","[""ArrowRight""]","revaluation","ocean","27","{""ArrowUp,ArrowLeft"":2,""ArrowUp,ArrowRight"":11,""ArrowDown,ArrowLeft"":8,""ArrowDown,ArrowRight"":27}","true","ArrowDown,ArrowRight","","revaluation","1","10","","",""
"html-keyboard-response","229","944516","0.0-4.0-4.0-1.5","spark_pilot_norest","10010","4","21","Male","","","","","","","null","<div style=""font-size:60px;"">+</div>","null","fixation","","","","","","","","","11","","",""
"revaluation","230","948520","0.0-4.0-4.0-0.6","spark_pilot_norest","10010","4","21","Male","","false","","","","","[647.6000000014901]","./assets/img/ocean/animals/octopus.jpg","[""ArrowRight""]","revaluation","ocean","27","{""ArrowUp,ArrowLeft"":2,""ArrowUp,ArrowRight"":11,""ArrowDown,ArrowLeft"":8,""ArrowDown,ArrowRight"":27}","true","ArrowDown,ArrowRight","","revaluation","1","12","","",""
"html-keyboard-response","231","949022","0.0-4.0-4.0-1.6","spark_pilot_norest","10010","4","21","Male","","","","","","","null","<div style=""font-size:60px;"">+</div>","null","fixation","","","","","","","","","13","","",""
"revaluation","232","953028","0.0-4.0-4.0-0.7","spark_pilot_norest","10010","4","21","Male","","false","","","","","[549.6000000014901]","./assets/img/ocean/animals/seahorse.jpg","[""ArrowLeft""]","revaluation","ocean","2","{""ArrowUp,ArrowLeft"":2,""ArrowUp,ArrowRight"":11,""ArrowDown,ArrowLeft"":8,""ArrowDown,ArrowRight"":27}","false","ArrowUp,ArrowLeft","","revaluation","1","14","","",""
"html-keyboard-response","233","953529","0.0-4.0-4.0-1.7","spark_pilot_norest","10010","4","21","Male","","","","","","","null","<div style=""font-size:60px;"">+</div>","null","fixation","","","","","","","","","15","","",""
"revaluation","234","957534","0.0-4.0-4.0-0.8","spark_pilot_norest","10010","4","21","Male","","false","","","","","[648.7000000029802]","./assets/img/ocean/animals/seahorse.jpg","[""ArrowRight""]","revaluation","ocean","11","{""ArrowUp,ArrowLeft"":2,""ArrowUp,ArrowRight"":11,""ArrowDown,ArrowLeft"":8,""ArrowDown,ArrowRight"":27}","true","ArrowUp,ArrowRight","","revaluation","1","16","","",""
"html-keyboard-response","235","958035","0.0-4.0-4.0-1.8","spark_pilot_norest","10010","4","21","Male","","","","","","","null","<div style=""font-size:60px;"">+</div>","null","fixation","","","","","","","","","17","","",""
"revaluation","236","962039","0.0-4.0-4.0-0.9","spark_pilot_norest","10010","4","21","Male","","false","","","","","[452.5]","./assets/img/ocean/animals/octopus.jpg","[""ArrowRight""]","revaluation","ocean","27","{""ArrowUp,ArrowLeft"":2,""ArrowUp,ArrowRight"":11,""ArrowDown,ArrowLeft"":8,""ArrowDown,ArrowRight"":27}","true","ArrowDown,ArrowRight","","revaluation","1","18","","",""
"html-keyboard-response","237","962540","0.0-4.0-4.0-1.9","spark_pilot_norest","10010","4","21","Male","","","","","","","null","<div style=""font-size:60px;"">+</div>","null","fixation","","","","","","","","","19","","",""
"revaluation","238","966543","0.0-4.0-4.0-0.10","spark_pilot_norest","10010","4","21","Male","","false","","","","","[723.3000000044703]","./assets/img/ocean/animals/seahorse.jpg","[""ArrowRight""]","revaluation","ocean","11","{""ArrowUp,ArrowLeft"":2,""ArrowUp,ArrowRight"":11,""ArrowDown,ArrowLeft"":8,""ArrowDown,ArrowRight"":27}","true","ArrowUp,ArrowRight","","revaluation","1","20","","",""
"html-keyboard-response","239","967045","0.0-4.0-4.0-1.10","spark_pilot_norest","10010","4","21","Male","","","","","","","null","<div style=""font-size:60px;"">+</div>","null","fixation","","","","","","","","","21","","",""
"revaluation","240","971048","0.0-4.0-4.0-0.11","spark_pilot_norest","10010","4","21","Male","","false","","","","","[611.3999999985099]","./assets/img/ocean/animals/seahorse.jpg","[""ArrowRight""]","revaluation","ocean","11","{""ArrowUp,ArrowLeft"":2,""ArrowUp,ArrowRight"":11,""ArrowDown,ArrowLeft"":8,""ArrowDown,ArrowRight"":27}","true","ArrowUp,ArrowRight","","revaluation","1","22","","",""
"html-keyboard-response","241","971551","0.0-4.0-4.0-1.11","spark_pilot_norest","10010","4","21","Male","","","","","","","null","<div style=""font-size:60px;"">+</div>","null","fixation","","","","","","","","","23","","",""
"revaluation","242","975554","0.0-4.0-4.0-0.12","spark_pilot_norest","10010","4","21","Male","","false","","","","","[786.6999999955297]","./assets/img/ocean/animals/seahorse.jpg","[""ArrowRight""]","revaluation","ocean","11","{""ArrowUp,ArrowLeft"":2,""ArrowUp,ArrowRight"":11,""ArrowDown,ArrowLeft"":8,""ArrowDown,ArrowRight"":27}","true","ArrowUp,ArrowRight","","revaluation","1","24","","",""
"html-keyboard-response","243","976057","0.0-4.0-4.0-1.12","spark_pilot_norest","10010","4","21","Male","","","","","","","null","<div style=""font-size:60px;"">+</div>","null","fixation","","","","","","","","","25","","",""
"revaluation","244","980061","0.0-4.0-4.0-0.13","spark_pilot_norest","10010","4","21","Male","","false","","","","","[624.5]","./assets/img/ocean/animals/seahorse.jpg","[""ArrowRight""]","revaluation","ocean","11","{""ArrowUp,ArrowLeft"":2,""ArrowUp,ArrowRight"":11,""ArrowDown,ArrowLeft"":8,""ArrowDown,ArrowRight"":27}","true","ArrowUp,ArrowRight","","revaluation","1","26","","",""
"html-keyboard-response","245","980563","0.0-4.0-4.0-1.13","spark_pilot_norest","10010","4","21","Male","","","","","","","null","<div style=""font-size:60px;"">+</div>","null","fixation","","","","","","","","","27","","",""
"revaluation","246","984566","0.0-4.0-4.0-0.14","spark_pilot_norest","10010","4","21","Male","","false","","","","","[886.8999999985099]","./assets/img/ocean/animals/octopus.jpg","[""ArrowRight""]","revaluation","ocean","27","{""ArrowUp,ArrowLeft"":2,""ArrowUp,ArrowRight"":11,""ArrowDown,ArrowLeft"":8,""ArrowDown,ArrowRight"":27}","true","ArrowDown,ArrowRight","","revaluation","1","28","","",""
"html-keyboard-response","247","985067","0.0-4.0-4.0-1.14","spark_pilot_norest","10010","4","21","Male","","","","","","","null","<div style=""font-size:60px;"">+</div>","null","fixation","","","","","","","","","29","","",""
"revaluation","248","989072","0.0-4.0-4.0-0.15","spark_pilot_norest","10010","4","21","Male","","false","","","","","[492]","./assets/img/ocean/animals/seahorse.jpg","[""ArrowRight""]","revaluation","ocean","11","{""ArrowUp,ArrowLeft"":2,""ArrowUp,ArrowRight"":11,""ArrowDown,ArrowLeft"":8,""ArrowDown,ArrowRight"":27}","true","ArrowUp,ArrowRight","","revaluation","1","30","","",""
"html-keyboard-response","249","989573","0.0-4.0-4.0-1.15","spark_pilot_norest","10010","4","21","Male","","","","","","","null","<div style=""font-size:60px;"">+</div>","null","fixation","","","","","","","","","31","","",""
"revaluation","250","993577","0.0-4.0-4.0-0.16","spark_pilot_norest","10010","4","21","Male","","false","","","","","[587.1000000014901]","./assets/img/ocean/animals/octopus.jpg","[""ArrowRight""]","revaluation","ocean","27","{""ArrowUp,ArrowLeft"":2,""ArrowUp,ArrowRight"":11,""ArrowDown,ArrowLeft"":8,""ArrowDown,ArrowRight"":27}","true","ArrowDown,ArrowRight","","revaluation","1","32","","",""
"html-keyboard-response","251","994080","0.0-4.0-4.0-1.16","spark_pilot_norest","10010","4","21","Male","","","","","","","null","<div style=""font-size:60px;"">+</div>","null","fixation","","","","","","","","","33","","",""
"revaluation","252","998083","0.0-4.0-4.0-0.17","spark_pilot_norest","10010","4","21","Male","","false","","","","","[452.6000000014901]","./assets/img/ocean/animals/seahorse.jpg","[""ArrowRight""]","revaluation","ocean","11","{""ArrowUp,ArrowLeft"":2,""ArrowUp,ArrowRight"":11,""ArrowDown,ArrowLeft"":8,""ArrowDown,ArrowRight"":27}","true","ArrowUp,ArrowRight","","revaluation","1","34","","",""
"html-keyboard-response","253","998585","0.0-4.0-4.0-1.17","spark_pilot_norest","10010","4","21","Male","","","","","","","null","<div style=""font-size:60px;"">+</div>","null","fixation","","","","","","","","","35","","",""
"learning-instructions","254","1006695","0.0-4.0-5.0-0.0","spark_pilot_norest","10010","4","21","Male","","","","","","","null","<p> You have almost finished this part of the game! </p>
            <p> We are going to ask you to make a few more choices. </p>","","instructions","","","","","","","","","","","",""
"learning-instructions","255","1022666","0.0-4.0-5.0-0.1","spark_pilot_norest","10010","4","21","Male","","","","","","","null","<p> First, you need to decide whether to go up or down. When you see each picture, use the arrow keys to make your choice. </p>
            <p><b>You will not see which animal you found, but try to get to the one that will give you the most treasure.</b></p>","","instructions","","","","","","","","","","","",""
"html-keyboard-response","256","1023669","0.0-4.0-6.0-0.0","spark_pilot_norest","10010","4","21","Male","","","","","","","null","<div style=""font-size:100px;color:red;"">Starting in...</div>","null","","","","","","","","","","","","",""
"html-keyboard-response","257","1024671","0.0-4.0-6.0-1.0","spark_pilot_norest","10010","4","21","Male","","","","","","","null","<div style=""font-size:200px;color:red;"">3</div>","null","","","","","","","","","","","","",""
"html-keyboard-response","258","1025673","0.0-4.0-6.0-2.0","spark_pilot_norest","10010","4","21","Male","","","","","","","null","<div style=""font-size:200px;color:red;"">2</div>","null","","","","","","","","","","","","",""
"html-keyboard-response","259","1026674","0.0-4.0-6.0-3.0","spark_pilot_norest","10010","4","21","Male","","","","","","","null","<div style=""font-size:200px;color:red;"">1</div>","null","","","","","","","","","","","","",""
"revaluation","260","1027519","0.0-4.0-7.0-0.0","spark_pilot_norest","10010","4","21","Male","","false","","","","","[833.0999999940395]","./assets/img/ocean/test/3.jpg","[""ArrowUp""]","first stage test","ocean","0","{""ArrowUp,ArrowLeft"":2,""ArrowUp,ArrowRight"":11,""ArrowDown,ArrowLeft"":8,""ArrowDown,ArrowRight"":27}","false","ArrowUp","false","revaluation","1","","","",""
"html-keyboard-response","261","1028021","0.0-4.0-7.0-1.0","spark_pilot_norest","10010","4","21","Male","","","","","","","null","<div style=""font-size:60px;"">+</div>","null","fixation","","","","","","","","","","","",""
"revaluation","262","1029568","0.0-4.0-7.0-0.1","spark_pilot_norest","10010","4","21","Male","","false","","","","","[1545.1000000014901]","./assets/img/ocean/test/0.jpg","[""ArrowUp""]","first stage test","ocean","0","{""ArrowUp,ArrowLeft"":2,""ArrowUp,ArrowRight"":11,""ArrowDown,ArrowLeft"":8,""ArrowDown,ArrowRight"":27}","false","ArrowUp","false","revaluation","1","","","",""
"html-keyboard-response","263","1030069","0.0-4.0-7.0-1.1","spark_pilot_norest","10010","4","21","Male","","","","","","","null","<div style=""font-size:60px;"">+</div>","null","fixation","","","","","","","","","","","",""
"revaluation","264","1030967","0.0-4.0-7.0-0.2","spark_pilot_norest","10010","4","21","Male","","false","","","","","[897.3000000044703]","./assets/img/ocean/test/1.jpg","[""ArrowDown""]","first stage test","ocean","0","{""ArrowUp,ArrowLeft"":2,""ArrowUp,ArrowRight"":11,""ArrowDown,ArrowLeft"":8,""ArrowDown,ArrowRight"":27}","true","ArrowDown","false","revaluation","1","","","",""
"html-keyboard-response","265","1031469","0.0-4.0-7.0-1.2","spark_pilot_norest","10010","4","21","Male","","","","","","","null","<div style=""font-size:60px;"">+</div>","null","fixation","","","","","","","","","","","",""
"revaluation","266","1032741","0.0-4.0-7.0-0.3","spark_pilot_norest","10010","4","21","Male","","false","","","","","[1270.7000000029802]","./assets/img/ocean/test/2.jpg","[""ArrowDown""]","first stage test","ocean","0","{""ArrowUp,ArrowLeft"":2,""ArrowUp,ArrowRight"":11,""ArrowDown,ArrowLeft"":8,""ArrowDown,ArrowRight"":27}","true","ArrowDown","false","revaluation","1","","","",""
"html-keyboard-response","267","1033241","0.0-4.0-7.0-1.3","spark_pilot_norest","10010","4","21","Male","","","","","","","null","<div style=""font-size:60px;"">+</div>","null","fixation","","","","","","","","","","","",""
"learning-instructions","268","1046576","0.0-4.0-8.0-0.0","spark_pilot_norest","10010","4","21","Male","","","","","","","null","<p> Now you will see the animals again and can search their chests for treasure. </p>
            <p> This time, you will not see how much treasure you earned, but you will earn more bonus money for making better choices. </p>","","instructions","","","","","","","","","","","",""
"html-keyboard-response","269","1047577","0.0-4.0-9.0-0.0","spark_pilot_norest","10010","4","21","Male","","","","","","","null","<div style=""font-size:100px;color:red;"">Starting in...</div>","null","","","","","","","","","","","","",""
"html-keyboard-response","270","1048578","0.0-4.0-9.0-1.0","spark_pilot_norest","10010","4","21","Male","","","","","","","null","<div style=""font-size:200px;color:red;"">3</div>","null","","","","","","","","","","","","",""
"html-keyboard-response","271","1049579","0.0-4.0-9.0-2.0","spark_pilot_norest","10010","4","21","Male","","","","","","","null","<div style=""font-size:200px;color:red;"">2</div>","null","","","","","","","","","","","","",""
"html-keyboard-response","272","1050581","0.0-4.0-9.0-3.0","spark_pilot_norest","10010","4","21","Male","","","","","","","null","<div style=""font-size:200px;color:red;"">1</div>","null","","","","","","","","","","","","",""
"revaluation","273","1051349","0.0-4.0-10.0-0.0","spark_pilot_norest","10010","4","21","Male","","false","","","","","[756.3000000044703]","./assets/img/ocean/animals/seahorse.jpg","[""ArrowLeft""]","second stage test","ocean","0","{""ArrowUp,ArrowLeft"":2,""ArrowUp,ArrowRight"":11,""ArrowDown,ArrowLeft"":8,""ArrowDown,ArrowRight"":27}","false","ArrowUp,ArrowLeft","","revaluation","1","","","",""
"html-keyboard-response","274","1051850","0.0-4.0-10.0-1.0","spark_pilot_norest","10010","4","21","Male","","","","","","","null","<div style=""font-size:60px;"">+</div>","null","fixation","","","","","","","","","","","",""
"revaluation","275","1053349","0.0-4.0-10.0-0.1","spark_pilot_norest","10010","4","21","Male","","false","","","","","[1498.3000000044703]","./assets/img/ocean/animals/seahorse.jpg","[""ArrowRight""]","second stage test","ocean","0","{""ArrowUp,ArrowLeft"":2,""ArrowUp,ArrowRight"":11,""ArrowDown,ArrowLeft"":8,""ArrowDown,ArrowRight"":27}","true","ArrowUp,ArrowRight","","revaluation","1","","","",""
"html-keyboard-response","276","1053850","0.0-4.0-10.0-1.1","spark_pilot_norest","10010","4","21","Male","","","","","","","null","<div style=""font-size:60px;"">+</div>","null","fixation","","","","","","","","","","","",""
"revaluation","277","1055157","0.0-4.0-10.0-0.2","spark_pilot_norest","10010","4","21","Male","","false","","","","","[1306.2000000029802]","./assets/img/ocean/animals/seahorse.jpg","[""ArrowLeft""]","second stage test","ocean","0","{""ArrowUp,ArrowLeft"":2,""ArrowUp,ArrowRight"":11,""ArrowDown,ArrowLeft"":8,""ArrowDown,ArrowRight"":27}","false","ArrowUp,ArrowLeft","","revaluation","1","","","",""
"html-keyboard-response","278","1055659","0.0-4.0-10.0-1.2","spark_pilot_norest","10010","4","21","Male","","","","","","","null","<div style=""font-size:60px;"">+</div>","null","fixation","","","","","","","","","","","",""
"revaluation","279","1056623","0.0-4.0-10.0-0.3","spark_pilot_norest","10010","4","21","Male","","false","","","","","[962.7999999970198]","./assets/img/ocean/animals/seahorse.jpg","[""ArrowRight""]","second stage test","ocean","0","{""ArrowUp,ArrowLeft"":2,""ArrowUp,ArrowRight"":11,""ArrowDown,ArrowLeft"":8,""ArrowDown,ArrowRight"":27}","true","ArrowUp,ArrowRight","","revaluation","1","","","",""
"html-keyboard-response","280","1057123","0.0-4.0-10.0-1.3","spark_pilot_norest","10010","4","21","Male","","","","","","","null","<div style=""font-size:60px;"">+</div>","null","fixation","","","","","","","","","","","",""
"revaluation","281","1058198","0.0-4.0-10.0-0.4","spark_pilot_norest","10010","4","21","Male","","false","","","","","[1073.8000000044703]","./assets/img/ocean/animals/octopus.jpg","[""ArrowLeft""]","second stage test","ocean","0","{""ArrowUp,ArrowLeft"":2,""ArrowUp,ArrowRight"":11,""ArrowDown,ArrowLeft"":8,""ArrowDown,ArrowRight"":27}","false","ArrowDown,ArrowLeft","","revaluation","1","","","",""
"html-keyboard-response","282","1058700","0.0-4.0-10.0-1.4","spark_pilot_norest","10010","4","21","Male","","","","","","","null","<div style=""font-size:60px;"">+</div>","null","fixation","","","","","","","","","","","",""
"revaluation","283","1059391","0.0-4.0-10.0-0.5","spark_pilot_norest","10010","4","21","Male","","false","","","","","[690]","./assets/img/ocean/animals/octopus.jpg","[""ArrowRight""]","second stage test","ocean","0","{""ArrowUp,ArrowLeft"":2,""ArrowUp,ArrowRight"":11,""ArrowDown,ArrowLeft"":8,""ArrowDown,ArrowRight"":27}","true","ArrowDown,ArrowRight","","revaluation","1","","","",""
"html-keyboard-response","284","1059892","0.0-4.0-10.0-1.5","spark_pilot_norest","10010","4","21","Male","","","","","","","null","<div style=""font-size:60px;"">+</div>","null","fixation","","","","","","","","","","","",""
"revaluation","285","1060639","0.0-4.0-10.0-0.6","spark_pilot_norest","10010","4","21","Male","","false","","","","","[745.7000000029802]","./assets/img/ocean/animals/octopus.jpg","[""ArrowLeft""]","second stage test","ocean","0","{""ArrowUp,ArrowLeft"":2,""ArrowUp,ArrowRight"":11,""ArrowDown,ArrowLeft"":8,""ArrowDown,ArrowRight"":27}","false","ArrowDown,ArrowLeft","","revaluation","1","","","",""
"html-keyboard-response","286","1061140","0.0-4.0-10.0-1.6","spark_pilot_norest","10010","4","21","Male","","","","","","","null","<div style=""font-size:60px;"">+</div>","null","fixation","","","","","","","","","","","",""
"revaluation","287","1062029","0.0-4.0-10.0-0.7","spark_pilot_norest","10010","4","21","Male","","false","","","","","[887.4000000059605]","./assets/img/ocean/animals/octopus.jpg","[""ArrowRight""]","second stage test","ocean","0","{""ArrowUp,ArrowLeft"":2,""ArrowUp,ArrowRight"":11,""ArrowDown,ArrowLeft"":8,""ArrowDown,ArrowRight"":27}","true","ArrowDown,ArrowRight","","revaluation","1","","","",""
"html-keyboard-response","288","1062530","0.0-4.0-10.0-1.7","spark_pilot_norest","10010","4","21","Male","","","","","","","null","<div style=""font-size:60px;"">+</div>","null","fixation","","","","","","","","","","","",""
"learning-instructions","289","1067408","0.0-4.0-0.1-0.2","spark_pilot_norest","10010","4","21","Male","","","","","","","2113.5","<p> This time you are searching for treasure in the <b>canyon</b>.</p>","","instructions","","","","","","","","","","","",""
"learning-instructions","290","1086716","0.0-4.0-0.1-0.3","spark_pilot_norest","10010","4","21","Male","","","","","","","2061.39999999851","<p><b>New</b> animals with <b>new</b> treasure chests live here. You need to explore to discover where the animal with the best treasure chest is.</p>
                    <p> Like before, once you figure out which animal has the chest with the most treasure, you should try to get to that animal and select that chest! </p>","","instructions","","","","","","","","","","","",""
"learning-instructions","291","1102770","0.0-4.0-1.1-0.1","spark_pilot_norest","10010","4","21","Male","","","","","","","1325.5","<p> Remember, when you see a picture of the place, use the up and down keys to <b>find an animal</b>.</p>
            <p> When you encounter an animal, you should use the left and right keys to <b>select a treasure chest</b>.</p>
            <p> Don't forget to look out for the robber! </p>","","instructions","","","","","","","","","","","",""
"revaluation","292","1108786","0.0-4.0-2.1-0.50","spark_pilot_norest","10010","4","21","Male","","false","","","","","[888.6999999955297,984]","./assets/img/canyon/memory/3.jpg","[""ArrowDown"",""ArrowLeft""]","value training","canyon","8","{""ArrowUp,ArrowLeft"":23,""ArrowUp,ArrowRight"":10,""ArrowDown,ArrowLeft"":8,""ArrowDown,ArrowRight"":30}","false","ArrowDown,ArrowLeft","false","original","2","0","","",""
"html-keyboard-response","293","1109287","0.0-4.0-2.1-1.50","spark_pilot_norest","10010","4","21","Male","","","","","","","null","<div style=""font-size:60px;"">+</div>","null","fixation","","","","","","","","","1","","",""
"revaluation","294","1115292","0.0-4.0-2.1-0.51","spark_pilot_norest","10010","4","21","Male","","false","","","","","[759.6000000014901,427]","./assets/img/canyon/memory/11.jpg","[""ArrowDown"",""ArrowRight""]","value training","canyon","30","{""ArrowUp,ArrowLeft"":23,""ArrowUp,ArrowRight"":10,""ArrowDown,ArrowLeft"":8,""ArrowDown,ArrowRight"":30}","true","ArrowDown,ArrowRight","false","original","2","2","","",""
"html-keyboard-response","295","1115793","0.0-4.0-2.1-1.51","spark_pilot_norest","10010","4","21","Male","","","","","","","null","<div style=""font-size:60px;"">+</div>","null","fixation","","","","","","","","","3","","",""
"revaluation","296","1119797","0.0-4.0-2.1-0.52","spark_pilot_norest","10010","4","21","Male","","false","","","","","[526.5]","./assets/img/canyon/catch/1.jpg","[""spaceBar""]","value training","canyon","0","{""ArrowUp,ArrowLeft"":23,""ArrowUp,ArrowRight"":10,""ArrowDown,ArrowLeft"":8,""ArrowDown,ArrowRight"":30}","true","spaceBar","true","original","2","4","","",""
"html-keyboard-response","297","1120299","0.0-4.0-2.1-1.52","spark_pilot_norest","10010","4","21","Male","","","","","","","null","<div style=""font-size:60px;"">+</div>","null","fixation","","","","","","","","","5","","",""
"revaluation","298","1126306","0.0-4.0-2.1-0.53","spark_pilot_norest","10010","4","21","Male","","false","","","","","[843.2999999970198,482.29999999701977]","./assets/img/canyon/memory/15.jpg","[""ArrowUp"",""ArrowLeft""]","value training","canyon","23","{""ArrowUp,ArrowLeft"":23,""ArrowUp,ArrowRight"":10,""ArrowDown,ArrowLeft"":8,""ArrowDown,ArrowRight"":30}","false","ArrowUp,ArrowLeft","false","original","2","6","","",""
"html-keyboard-response","299","1126807","0.0-4.0-2.1-1.53","spark_pilot_norest","10010","4","21","Male","","","","","","","null","<div style=""font-size:60px;"">+</div>","null","fixation","","","","","","","","","7","","",""
"revaluation","300","1132811","0.0-4.0-2.1-0.54","spark_pilot_norest","10010","4","21","Male","","false","","","","","[722.5,250.09999999403954]","./assets/img/canyon/memory/16.jpg","[""ArrowUp"",""ArrowRight""]","value training","canyon","10","{""ArrowUp,ArrowLeft"":23,""ArrowUp,ArrowRight"":10,""ArrowDown,ArrowLeft"":8,""ArrowDown,ArrowRight"":30}","false","ArrowUp,ArrowRight","false","original","2","8","","",""
"html-keyboard-response","301","1133313","0.0-4.0-2.1-1.54","spark_pilot_norest","10010","4","21","Male","","","","","","","null","<div style=""font-size:60px;"">+</div>","null","fixation","","","","","","","","","9","","",""
"revaluation","302","1139318","0.0-4.0-2.1-0.55","spark_pilot_norest","10010","4","21","Male","","false","","","","","[697.5,347.8999999985099]","./assets/img/canyon/memory/32.jpg","[""ArrowDown"",""ArrowRight""]","value training","canyon","30","{""ArrowUp,ArrowLeft"":23,""ArrowUp,ArrowRight"":10,""ArrowDown,ArrowLeft"":8,""ArrowDown,ArrowRight"":30}","true","ArrowDown,ArrowRight","false","original","2","10","","",""
"html-keyboard-response","303","1139818","0.0-4.0-2.1-1.55","spark_pilot_norest","10010","4","21","Male","","","","","","","null","<div style=""font-size:60px;"">+</div>","null","fixation","","","","","","","","","11","","",""
"revaluation","304","1145822","0.0-4.0-2.1-0.56","spark_pilot_norest","10010","4","21","Male","","false","","","","","[832.7999999970198,255.60000000149012]","./assets/img/canyon/memory/36.jpg","[""ArrowDown"",""ArrowRight""]","value training","canyon","30","{""ArrowUp,ArrowLeft"":23,""ArrowUp,ArrowRight"":10,""ArrowDown,ArrowLeft"":8,""ArrowDown,ArrowRight"":30}","true","ArrowDown,ArrowRight","false","original","2","12","","",""
"html-keyboard-response","305","1146324","0.0-4.0-2.1-1.56","spark_pilot_norest","10010","4","21","Male","","","","","","","null","<div style=""font-size:60px;"">+</div>","null","fixation","","","","","","","","","13","","",""
"revaluation","306","1150328","0.0-4.0-2.1-0.57","spark_pilot_norest","10010","4","21","Male","","false","","","","","[648.3000000044703]","./assets/img/canyon/catch/0.jpg","[""spaceBar""]","value training","canyon","0","{""ArrowUp,ArrowLeft"":23,""ArrowUp,ArrowRight"":10,""ArrowDown,ArrowLeft"":8,""ArrowDown,ArrowRight"":30}","true","spaceBar","true","original","2","14","","",""
"html-keyboard-response","307","1150830","0.0-4.0-2.1-1.57","spark_pilot_norest","10010","4","21","Male","","","","","","","null","<div style=""font-size:60px;"">+</div>","null","fixation","","","","","","","","","15","","",""
"revaluation","308","1156836","0.0-4.0-2.1-0.58","spark_pilot_norest","10010","4","21","Male","","false","","","","","[663.1999999955297,358.79999999701977]","./assets/img/canyon/memory/9.jpg","[""ArrowDown"",""ArrowRight""]","value training","canyon","30","{""ArrowUp,ArrowLeft"":23,""ArrowUp,ArrowRight"":10,""ArrowDown,ArrowLeft"":8,""ArrowDown,ArrowRight"":30}","true","ArrowDown,ArrowRight","false","original","2","16","","",""
"html-keyboard-response","309","1157337","0.0-4.0-2.1-1.58","spark_pilot_norest","10010","4","21","Male","","","","","","","null","<div style=""font-size:60px;"">+</div>","null","fixation","","","","","","","","","17","","",""
"revaluation","310","1161340","0.0-4.0-2.1-0.59","spark_pilot_norest","10010","4","21","Male","","false","","","","","[626.5]","./assets/img/canyon/catch/2.jpg","[""spaceBar""]","value training","canyon","0","{""ArrowUp,ArrowLeft"":23,""ArrowUp,ArrowRight"":10,""ArrowDown,ArrowLeft"":8,""ArrowDown,ArrowRight"":30}","true","spaceBar","true","original","2","18","","",""
"html-keyboard-response","311","1161841","0.0-4.0-2.1-1.59","spark_pilot_norest","10010","4","21","Male","","","","","","","null","<div style=""font-size:60px;"">+</div>","null","fixation","","","","","","","","","19","","",""
