"trial_type","trial_index","time_elapsed","internal_node_id","task_version","subject_id","assigned_condition","age","gender","success","timeout","failed_images","failed_audio","failed_video","browser_interaction","rt","stimulus","response","task_part","environment","score","rewardMap","correct","fullState","isCatch","condition","order","trial_num","key_press","ground_truth","bonus"
"pavlovia","0","1010","0.0-0.0","spark_pilot_norest","10038","8","18","Male","","","","","","","","","","","","","","","","","","","","","",""
"preload","1","11827","0.0-1.0","spark_pilot_norest","10038","8","18","Male","true","false","[]","[]","[]","[{""event"":""fullscreenenter"",""trial"":2,""time"":14324}]","","","","","","","","","","","","","","","",""
"fullscreen","2","15256","0.0-2.0","spark_pilot_norest","10038","8","18","Male","true","","","","","","","","","","","","","","","","","","","","",""
"audio-button-response","3","17433","0.0-3.0-0.0-0.0","spark_pilot_norest","10038","8","18","Male","","","","","","","2040","./assets/audio/audiotest/turtle.mp3","2","audio_test","","","","","","","","","","","",""
"learning-instructions","4","28424","0.0-3.0-1.0-0.0","spark_pilot_norest","10038","8","18","Male","","","","","","","3231.899999856949","<p> Welcome! Please remember to stay in fullscreen mode and don't click away from the experiment. </p>","","instructions","","","","","","","","","","","",""
"learning-instructions","5","39449","0.0-3.0-1.0-0.1","spark_pilot_norest","10038","8","18","Male","","","","","","","1786.2999999523163","<p> Today you will be playing a game to earn treasure. </p>
            <p> At the end of the experiment, you will earn a bonus based on how much treasure you find. </p>
            <img src='./assets/img/instructions/treasure.jpg' class='instructions-image'>","","instructions","","","","","","","","","","","",""
"learning-instructions","6","49681","0.0-3.0-1.0-0.2","spark_pilot_norest","10038","8","18","Male","","","","","","","1088.1000001430511","<p> Animals have hidden treasure in treasure chests. </p>
            <p> You need to first find an animal and then choose which of their treasure chests to search. </p>
            <img src='./assets/img/space/animals/cat.jpg' class='instructions-image'>","","instructions","","","","","","","","","","","",""
"learning-instructions","7","64433","0.0-3.0-1.0-0.3","spark_pilot_norest","10038","8","18","Male","","","","","","","760.7000000476837","<p> In each round, you will search for treasure in a different place. In the real game, there will be two rounds. </p>
            <p> You will begin with a separate, practice round where you will search for treasure in outer space. </p>
            <img src='./assets/img/space/0.jpg' class='instructions-image'>","","instructions","","","","","","","","","","","",""
"learning-instructions","8","77665","0.0-3.0-1.0-0.4","spark_pilot_norest","10038","8","18","Male","","","","","","","842.2000000476837","<p> On every turn, you will see a picture of the place that you are in, but the specific image may be different each time. </p>
            <p> For example, both of these images mean you are in outer space. </p>
            <img src='./assets/img/instructions/outerspace.jpg' class='instructions-image'>","","instructions","","","","","","","","","","","",""
"learning-instructions","9","88393","0.0-3.0-1.0-0.5","spark_pilot_norest","10038","8","18","Male","","","","","","","2101.600000143051","<p> You need to decide which direction to travel in. </p>
            <p> You can choose between going <b>up or down</b> by using the arrow keys. </p>
            <img src='./assets/img/instructions/updown.jpg' class='instructions-image'>","","instructions","","","","","","","","","","","",""
"learning-instructions","10","98897","0.0-3.0-1.0-0.6","spark_pilot_norest","10038","8","18","Male","","","","","","","834.5","<p> You will have <b>2 seconds</b> to make your choice. </p>
            <p> If you do not make a choice within 2 seconds, you will not find an animal or earn treasure. </p>
            <img src='./assets/img/instructions/2seconds.jpg' class='instructions-image'>","","instructions","","","","","","","","","","","",""
"learning-instructions","11","108065","0.0-3.0-1.0-0.7","spark_pilot_norest","10038","8","18","Male","","","","","","","1292.2000000476837","<p> Let’s try practicing that now! </p>
            <p> When you see a picture of the place you are in, press the <b>up</b> key to travel up. </p>
            <img src='./assets/img/instructions/pressUp.jpg' class='instructions-image'>","","instructions","","","","","","","","","","","",""
"revaluation","12","112112","0.0-3.0-2.0-0.0","spark_pilot_norest","10038","8","18","Male","","true","","","","","[]","./assets/img/space/0.jpg","[]","first stage practice","space","-5","null","null","","false","","","","","",""
"html-keyboard-response","13","112621","0.0-3.0-2.0-1.0","spark_pilot_norest","10038","8","18","Male","","","","","","","null","<div style=""font-size:60px;"">+</div>","null","fixation","","","","","","","","","","","",""
"revaluation","14","116650","0.0-3.0-2.0-0.1","spark_pilot_norest","10038","8","18","Male","","false","","","","","[546]","./assets/img/space/1.jpg","[""ArrowUp""]","first stage practice","space","0","null","null","ArrowUp","false","","","","","",""
"html-keyboard-response","15","117160","0.0-3.0-2.0-1.1","spark_pilot_norest","10038","8","18","Male","","","","","","","null","<div style=""font-size:60px;"">+</div>","null","fixation","","","","","","","","","","","",""
"revaluation","16","121180","0.0-3.0-2.0-0.2","spark_pilot_norest","10038","8","18","Male","","false","","","","","[552.5999999046326]","./assets/img/space/2.jpg","[""ArrowUp""]","first stage practice","space","0","null","null","ArrowUp","false","","","","","",""
"html-keyboard-response","17","121689","0.0-3.0-2.0-1.2","spark_pilot_norest","10038","8","18","Male","","","","","","","null","<div style=""font-size:60px;"">+</div>","null","fixation","","","","","","","","","","","",""
"learning-instructions","18","128163","0.0-3.0-3.0-0.0","spark_pilot_norest","10038","8","18","Male","","","","","","","1760.4000000953674","<p> Great job! Now try pressing the <b>down</b> key to travel down. </p>
            <img src='./assets/img/instructions/pressDown.jpg' class='instructions-image'>","","instructions","","","","","","","","","","","",""
"revaluation","19","132181","0.0-3.0-4.0-0.0","spark_pilot_norest","10038","8","18","Male","","false","","","","","[817.7999999523163]","./assets/img/space/3.jpg","[""ArrowDown""]","first stage practice","space","0","null","null","ArrowDown","false","","","","","",""
"html-keyboard-response","20","132691","0.0-3.0-4.0-1.0","spark_pilot_norest","10038","8","18","Male","","","","","","","null","<div style=""font-size:60px;"">+</div>","null","fixation","","","","","","","","","","","",""
"revaluation","21","136712","0.0-3.0-4.0-0.1","spark_pilot_norest","10038","8","18","Male","","false","","","","","[290.39999985694885]","./assets/img/space/4.jpg","[""ArrowDown""]","first stage practice","space","0","null","null","ArrowDown","false","","","","","",""
"html-keyboard-response","22","137220","0.0-3.0-4.0-1.1","spark_pilot_norest","10038","8","18","Male","","","","","","","null","<div style=""font-size:60px;"">+</div>","null","fixation","","","","","","","","","","","",""
"revaluation","23","141241","0.0-3.0-4.0-0.2","spark_pilot_norest","10038","8","18","Male","","false","","","","","[867.9000000953674]","./assets/img/space/5.jpg","[""ArrowDown""]","first stage practice","space","0","null","null","ArrowDown","false","","","","","",""
"html-keyboard-response","24","141751","0.0-3.0-4.0-1.2","spark_pilot_norest","10038","8","18","Male","","","","","","","null","<div style=""font-size:60px;"">+</div>","null","fixation","","","","","","","","","","","",""
"learning-instructions","25","153299","0.0-3.0-5.0-0.0","spark_pilot_norest","10038","8","18","Male","","","","","","","1637.1999998092651","<p> The animals don’t move, so the animal in the upper part of a place will stay in the upper part of a place, and the animal in the lower part of a place will stay in the lower part of a place. </p>","","instructions","","","","","","","","","","","",""
"learning-instructions","26","164002","0.0-3.0-5.0-0.1","spark_pilot_norest","10038","8","18","Male","","","","","","","1530","<p> Each animal has two treasure chests for you to choose from. </p>
            <p> The amount of treasure in each chest can range from <b> 0 to 40 pieces.</b></p>","","instructions","","","","","","","","","","","",""
"learning-instructions","27","176289","0.0-3.0-5.0-0.2","spark_pilot_norest","10038","8","18","Male","","","","","","","1055.8999998569489","<p> You should decide which chest to search for treasure by using the <b>left</b> and <b>right</b> arrow keys. </p>
            <p><b> Pay attention to which animal is on the screen, as the animals have different treasure chests. </b></p>
            <img src='./assets/img/instructions/leftright.jpg' class='instructions-image'>","","instructions","","","","","","","","","","","",""
"learning-instructions","28","183794","0.0-3.0-5.0-0.3","spark_pilot_norest","10038","8","18","Male","","","","","","","1091.8999998569489","<p> Let’s try practicing that now. </p>
            <p> When you see an animal, choose which chest to search for treasure. </p>
            <img src='./assets/img/instructions/chooseChest.jpg' class='instructions-image'>","","instructions","","","","","","","","","","","",""
"revaluation","29","187832","0.0-3.0-6.0-0.0","spark_pilot_norest","10038","8","18","Male","","false","","","","","[419.90000009536743]","./assets/img/space/animals/cat.jpg","[""ArrowRight""]","second stage practice","space","36","{""ArrowUp,ArrowLeft"":3,""ArrowUp,ArrowRight"":36,""ArrowDown,ArrowLeft"":15,""ArrowDown,ArrowRight"":23}","true","ArrowUp,ArrowRight","","","","","","",""
"html-keyboard-response","30","188341","0.0-3.0-6.0-1.0","spark_pilot_norest","10038","8","18","Male","","","","","","","null","<div style=""font-size:60px;"">+</div>","null","fixation","","","","","","","","","","","",""
"revaluation","31","192361","0.0-3.0-6.0-0.1","spark_pilot_norest","10038","8","18","Male","","false","","","","","[347.7999999523163]","./assets/img/space/animals/rabbit.jpg","[""ArrowLeft""]","second stage practice","space","15","{""ArrowUp,ArrowLeft"":3,""ArrowUp,ArrowRight"":36,""ArrowDown,ArrowLeft"":15,""ArrowDown,ArrowRight"":23}","false","ArrowDown,ArrowLeft","","","","","","",""
"html-keyboard-response","32","192870","0.0-3.0-6.0-1.1","spark_pilot_norest","10038","8","18","Male","","","","","","","null","<div style=""font-size:60px;"">+</div>","null","fixation","","","","","","","","","","","",""
"revaluation","33","196891","0.0-3.0-6.0-0.2","spark_pilot_norest","10038","8","18","Male","","false","","","","","[688.5999999046326]","./assets/img/space/animals/rabbit.jpg","[""ArrowRight""]","second stage practice","space","23","{""ArrowUp,ArrowLeft"":3,""ArrowUp,ArrowRight"":36,""ArrowDown,ArrowLeft"":15,""ArrowDown,ArrowRight"":23}","true","ArrowDown,ArrowRight","","","","","","",""
"html-keyboard-response","34","197402","0.0-3.0-6.0-1.2","spark_pilot_norest","10038","8","18","Male","","","","","","","null","<div style=""font-size:60px;"">+</div>","null","fixation","","","","","","","","","","","",""
"revaluation","35","201421","0.0-3.0-6.0-0.3","spark_pilot_norest","10038","8","18","Male","","false","","","","","[1254]","./assets/img/space/animals/cat.jpg","[""ArrowRight""]","second stage practice","space","36","{""ArrowUp,ArrowLeft"":3,""ArrowUp,ArrowRight"":36,""ArrowDown,ArrowLeft"":15,""ArrowDown,ArrowRight"":23}","true","ArrowUp,ArrowRight","","","","","","",""
"html-keyboard-response","36","201926","0.0-3.0-6.0-1.3","spark_pilot_norest","10038","8","18","Male","","","","","","","null","<div style=""font-size:60px;"">+</div>","null","fixation","","","","","","","","","","","",""
"learning-instructions","37","221732","0.0-3.0-7.0-0.0","spark_pilot_norest","10038","8","18","Male","","","","","","","2029","<p> Great job. Now let’s try putting it together. </p>
            <p> On each turn, you will first see a picture to remind you of the place you are in, and you need to choose whether to go up or down. </p>
            <p> Then you will see an animal and choose which of its chests to search for treasure. </p>","","instructions","","","","","","","","","","","",""
"learning-instructions","38","232018","0.0-3.0-7.0-0.1","spark_pilot_norest","10038","8","18","Male","","","","","","","1166.1000001430511","<p> When you choose whether to go up or down, try to go to the animal with the chest with the most treasure. </p>
            <p> Try practicing that now! </p>","","instructions","","","","","","","","","","","",""
"revaluation","39","238052","0.0-3.0-8.0-0.0","spark_pilot_norest","10038","8","18","Male","","false","","","","","[549.2000000476837,584.7000000476837]","./assets/img/space/6.jpg","[""ArrowUp"",""ArrowRight""]","full practice","space","36","{""ArrowUp,ArrowLeft"":3,""ArrowUp,ArrowRight"":36,""ArrowDown,ArrowLeft"":15,""ArrowDown,ArrowRight"":23}","true","ArrowUp,ArrowRight","false","","","","","",""
"html-keyboard-response","40","238560","0.0-3.0-8.0-1.0","spark_pilot_norest","10038","8","18","Male","","","","","","","null","<div style=""font-size:60px;"">+</div>","null","fixation","","","","","","","","","","","",""
"revaluation","41","244592","0.0-3.0-8.0-0.1","spark_pilot_norest","10038","8","18","Male","","false","","","","","[1412.3999998569489,1082.5999999046326]","./assets/img/space/7.jpg","[""ArrowDown"",""ArrowRight""]","full practice","space","23","{""ArrowUp,ArrowLeft"":3,""ArrowUp,ArrowRight"":36,""ArrowDown,ArrowLeft"":15,""ArrowDown,ArrowRight"":23}","false","ArrowDown,ArrowRight","false","","","","","",""
"html-keyboard-response","42","245101","0.0-3.0-8.0-1.1","spark_pilot_norest","10038","8","18","Male","","","","","","","null","<div style=""font-size:60px;"">+</div>","null","fixation","","","","","","","","","","","",""
"revaluation","43","251131","0.0-3.0-8.0-0.2","spark_pilot_norest","10038","8","18","Male","","false","","","","","[497.7000000476837,546.1999998092651]","./assets/img/space/8.jpg","[""ArrowUp"",""ArrowRight""]","full practice","space","36","{""ArrowUp,ArrowLeft"":3,""ArrowUp,ArrowRight"":36,""ArrowDown,ArrowLeft"":15,""ArrowDown,ArrowRight"":23}","true","ArrowUp,ArrowRight","false","","","","","",""
"html-keyboard-response","44","251639","0.0-3.0-8.0-1.2","spark_pilot_norest","10038","8","18","Male","","","","","","","null","<div style=""font-size:60px;"">+</div>","null","fixation","","","","","","","","","","","",""
"revaluation","45","257671","0.0-3.0-8.0-0.3","spark_pilot_norest","10038","8","18","Male","","false","","","","","[524.2000000476837,344.09999990463257]","./assets/img/space/9.jpg","[""ArrowUp"",""ArrowLeft""]","full practice","space","3","{""ArrowUp,ArrowLeft"":3,""ArrowUp,ArrowRight"":36,""ArrowDown,ArrowLeft"":15,""ArrowDown,ArrowRight"":23}","false","ArrowUp,ArrowLeft","false","","","","","",""
"html-keyboard-response","46","258181","0.0-3.0-8.0-1.3","spark_pilot_norest","10038","8","18","Male","","","","","","","null","<div style=""font-size:60px;"">+</div>","null","fixation","","","","","","","","","","","",""
"revaluation","47","264194","0.0-3.0-8.0-0.4","spark_pilot_norest","10038","8","18","Male","","false","","","","","[533.7000000476837,231.89999985694885]","./assets/img/space/10.jpg","[""ArrowUp"",""ArrowRight""]","full practice","space","36","{""ArrowUp,ArrowLeft"":3,""ArrowUp,ArrowRight"":36,""ArrowDown,ArrowLeft"":15,""ArrowDown,ArrowRight"":23}","true","ArrowUp,ArrowRight","false","","","","","",""
"html-keyboard-response","48","264696","0.0-3.0-8.0-1.4","spark_pilot_norest","10038","8","18","Male","","","","","","","null","<div style=""font-size:60px;"">+</div>","null","fixation","","","","","","","","","","","",""
"learning-instructions","49","277942","0.0-3.0-9.0-0.0","spark_pilot_norest","10038","8","18","Male","","","","","","","2088.5","<p> One last thing: sometimes, you will see a robber. The robber can be anywhere in the picture. </p>
            <p> If you do not stop them, you will lose treasure. </p>
            <img src='./assets/img/instructions/robber.jpg' class='instructions-image'>","","instructions","","","","","","","","","","","",""
"learning-instructions","50","287315","0.0-3.0-9.0-0.1","spark_pilot_norest","10038","8","18","Male","","","","","","","1343.7999999523163","<p> If you see the robber, you should <b>press the space bar</b> rather than using the arrow keys. </p>
            <p> Try practicing that now! </p>","","instructions","","","","","","","","","","","",""
"revaluation","51","291341","0.0-3.0-10.0-0.0","spark_pilot_norest","10038","8","18","Male","","false","","","","","[695.7000000476837]","./assets/img/space/catch/0.jpg","[""spaceBar""]","catch practice","space","0","{""ArrowUp,ArrowLeft"":3,""ArrowUp,ArrowRight"":36,""ArrowDown,ArrowLeft"":15,""ArrowDown,ArrowRight"":23}","true","spaceBar","true","","","","","",""
"html-keyboard-response","52","291850","0.0-3.0-10.0-1.0","spark_pilot_norest","10038","8","18","Male","","","","","","","null","<div style=""font-size:60px;"">+</div>","null","fixation","","","","","","","","","","","",""
"revaluation","53","295860","0.0-3.0-10.0-0.1","spark_pilot_norest","10038","8","18","Male","","false","","","","","[1869.2000000476837]","./assets/img/space/catch/1.jpg","[""spaceBar""]","catch practice","space","0","{""ArrowUp,ArrowLeft"":3,""ArrowUp,ArrowRight"":36,""ArrowDown,ArrowLeft"":15,""ArrowDown,ArrowRight"":23}","true","spaceBar","true","","","","","",""
"html-keyboard-response","54","296369","0.0-3.0-10.0-1.1","spark_pilot_norest","10038","8","18","Male","","","","","","","null","<div style=""font-size:60px;"">+</div>","null","fixation","","","","","","","","","","","",""
"revaluation","55","300390","0.0-3.0-10.0-0.2","spark_pilot_norest","10038","8","18","Male","","false","","","","","[734.7000000476837]","./assets/img/space/catch/2.jpg","[""spaceBar""]","catch practice","space","0","{""ArrowUp,ArrowLeft"":3,""ArrowUp,ArrowRight"":36,""ArrowDown,ArrowLeft"":15,""ArrowDown,ArrowRight"":23}","true","spaceBar","true","","","","","",""
"html-keyboard-response","56","300898","0.0-3.0-10.0-1.2","spark_pilot_norest","10038","8","18","Male","","","","","","","null","<div style=""font-size:60px;"">+</div>","null","fixation","","","","","","","","","","","",""
"learning-instructions","57","307535","0.0-3.0-11.0-0.0-0.0","spark_pilot_norest","10038","8","18","Male","","","","","","","1333.8000001907349","<p> Now, you will practice a shortened version of the game to get a sense of how it all fits together. </p>","","instructions","","","","","","","","","","","",""
"learning-instructions","58","312509","0.0-3.0-11.0-0.0-0.1","spark_pilot_norest","10038","8","18","Male","","","","","","","1746.4000000953674","<p>This time you are searching for treasure in outer space.</p>","","instructions","","","","","","","","","","","",""
"learning-instructions","59","328622","0.0-3.0-11.0-1.0-0.0","spark_pilot_norest","10038","8","18","Male","","","","","","","1279.5","<p> Remember, when you see a picture of the place, use the up and down keys to <b>find an animal</b>.</p>
            <p> When you encounter an animal, you should use the left and right keys to <b>select a treasure chest</b>.</p>
            <p> Don't forget to look out for the robber! </p>","","instructions","","","","","","","","","","","",""
"revaluation","60","334651","0.0-3.0-11.0-2.0-0.0","spark_pilot_norest","10038","8","18","Male","","false","","","","","[703.9000000953674,425.10000014305115]","./assets/img/space/11.jpg","[""ArrowUp"",""ArrowRight""]","practice block","space","36","{""ArrowUp,ArrowLeft"":3,""ArrowUp,ArrowRight"":36,""ArrowDown,ArrowLeft"":15,""ArrowDown,ArrowRight"":23}","true","ArrowUp,ArrowRight","false","","","","","",""
"html-keyboard-response","61","335161","0.0-3.0-11.0-2.0-1.0","spark_pilot_norest","10038","8","18","Male","","","","","","","null","<div style=""font-size:60px;"">+</div>","null","fixation","","","","","","","","","","","",""
"revaluation","62","341212","0.0-3.0-11.0-2.0-0.1","spark_pilot_norest","10038","8","18","Male","","false","","","","","[1051,502.09999990463257]","./assets/img/space/12.jpg","[""ArrowUp"",""ArrowRight""]","practice block","space","36","{""ArrowUp,ArrowLeft"":3,""ArrowUp,ArrowRight"":36,""ArrowDown,ArrowLeft"":15,""ArrowDown,ArrowRight"":23}","true","ArrowUp,ArrowRight","false","","","","","",""
"html-keyboard-response","63","341721","0.0-3.0-11.0-2.0-1.1","spark_pilot_norest","10038","8","18","Male","","","","","","","null","<div style=""font-size:60px;"">+</div>","null","fixation","","","","","","","","","","","",""
"revaluation","64","347751","0.0-3.0-11.0-2.0-0.2","spark_pilot_norest","10038","8","18","Male","","false","","","","","[637.1000001430511,309.39999985694885]","./assets/img/space/13.jpg","[""ArrowUp"",""ArrowRight""]","practice block","space","36","{""ArrowUp,ArrowLeft"":3,""ArrowUp,ArrowRight"":36,""ArrowDown,ArrowLeft"":15,""ArrowDown,ArrowRight"":23}","true","ArrowUp,ArrowRight","false","","","","","",""
"html-keyboard-response","65","348260","0.0-3.0-11.0-2.0-1.2","spark_pilot_norest","10038","8","18","Male","","","","","","","null","<div style=""font-size:60px;"">+</div>","null","fixation","","","","","","","","","","","",""
"revaluation","66","354292","0.0-3.0-11.0-2.0-0.3","spark_pilot_norest","10038","8","18","Male","","false","","","","","[866.6000001430511,553.2000000476837]","./assets/img/space/14.jpg","[""ArrowUp"",""ArrowRight""]","practice block","space","36","{""ArrowUp,ArrowLeft"":3,""ArrowUp,ArrowRight"":36,""ArrowDown,ArrowLeft"":15,""ArrowDown,ArrowRight"":23}","true","ArrowUp,ArrowRight","false","","","","","",""
"html-keyboard-response","67","354800","0.0-3.0-11.0-2.0-1.3","spark_pilot_norest","10038","8","18","Male","","","","","","","null","<div style=""font-size:60px;"">+</div>","null","fixation","","","","","","","","","","","",""
"revaluation","68","360822","0.0-3.0-11.0-2.0-0.4","spark_pilot_norest","10038","8","18","Male","","false","","","","","[938.9000000953674,397.7000000476837]","./assets/img/space/11.jpg","[""ArrowUp"",""ArrowRight""]","practice block","space","36","{""ArrowUp,ArrowLeft"":3,""ArrowUp,ArrowRight"":36,""ArrowDown,ArrowLeft"":15,""ArrowDown,ArrowRight"":23}","true","ArrowUp,ArrowRight","false","","","","","",""
"html-keyboard-response","69","361325","0.0-3.0-11.0-2.0-1.4","spark_pilot_norest","10038","8","18","Male","","","","","","","null","<div style=""font-size:60px;"">+</div>","null","fixation","","","","","","","","","","","",""
"revaluation","70","367335","0.0-3.0-11.0-2.0-0.5","spark_pilot_norest","10038","8","18","Male","","false","","","","","[886.3999998569489,337.5]","./assets/img/space/12.jpg","[""ArrowUp"",""ArrowRight""]","practice block","space","36","{""ArrowUp,ArrowLeft"":3,""ArrowUp,ArrowRight"":36,""ArrowDown,ArrowLeft"":15,""ArrowDown,ArrowRight"":23}","true","ArrowUp,ArrowRight","false","","","","","",""
"html-keyboard-response","71","367837","0.0-3.0-11.0-2.0-1.5","spark_pilot_norest","10038","8","18","Male","","","","","","","null","<div style=""font-size:60px;"">+</div>","null","fixation","","","","","","","","","","","",""
"revaluation","72","373848","0.0-3.0-11.0-2.0-0.6","spark_pilot_norest","10038","8","18","Male","","false","","","","","[748.7999999523163,428.90000009536743]","./assets/img/space/13.jpg","[""ArrowUp"",""ArrowRight""]","practice block","space","36","{""ArrowUp,ArrowLeft"":3,""ArrowUp,ArrowRight"":36,""ArrowDown,ArrowLeft"":15,""ArrowDown,ArrowRight"":23}","true","ArrowUp,ArrowRight","false","","","","","",""
"html-keyboard-response","73","374352","0.0-3.0-11.0-2.0-1.6","spark_pilot_norest","10038","8","18","Male","","","","","","","null","<div style=""font-size:60px;"">+</div>","null","fixation","","","","","","","","","","","",""
"revaluation","74","380362","0.0-3.0-11.0-2.0-0.7","spark_pilot_norest","10038","8","18","Male","","false","","","","","[672.5,386.7999999523163]","./assets/img/space/14.jpg","[""ArrowUp"",""ArrowRight""]","practice block","space","36","{""ArrowUp,ArrowLeft"":3,""ArrowUp,ArrowRight"":36,""ArrowDown,ArrowLeft"":15,""ArrowDown,ArrowRight"":23}","true","ArrowUp,ArrowRight","false","","","","","",""
"html-keyboard-response","75","380866","0.0-3.0-11.0-2.0-1.7","spark_pilot_norest","10038","8","18","Male","","","","","","","null","<div style=""font-size:60px;"">+</div>","null","fixation","","","","","","","","","","","",""
"revaluation","76","384874","0.0-3.0-11.0-2.0-0.8","spark_pilot_norest","10038","8","18","Male","","false","","","","","[562.2000000476837]","./assets/img/space/catch/3.jpg","[""spaceBar""]","practice block","space","0","{""ArrowUp,ArrowLeft"":3,""ArrowUp,ArrowRight"":36,""ArrowDown,ArrowLeft"":15,""ArrowDown,ArrowRight"":23}","true","spaceBar","true","","","","","",""
"html-keyboard-response","77","385377","0.0-3.0-11.0-2.0-1.8","spark_pilot_norest","10038","8","18","Male","","","","","","","null","<div style=""font-size:60px;"">+</div>","null","fixation","","","","","","","","","","","",""
"learning-instructions","78","400202","0.0-3.0-11.0-3.0-0.0","spark_pilot_norest","10038","8","18","Male","","","","","","","1839.4000000953674","<p> Now, you will travel with a friend who will choose whether you go up or down first. </p>
            <p> On these turns, you will just see the animal that they found. You will still get to choose which chest to search for treasure.</p>","","instructions","","","","","","","","","","","",""
"revaluation","79","404221","0.0-3.0-11.0-4.0-0.0","spark_pilot_norest","10038","8","18","Male","","false","","","","","[933.5999999046326]","./assets/img/space/animals/rabbit.jpg","[""ArrowRight""]","practice block","space","23","{""ArrowUp,ArrowLeft"":3,""ArrowUp,ArrowRight"":36,""ArrowDown,ArrowLeft"":15,""ArrowDown,ArrowRight"":23}","true","ArrowDown,ArrowRight","","","","","","",""
"html-keyboard-response","80","404731","0.0-3.0-11.0-4.0-1.0","spark_pilot_norest","10038","8","18","Male","","","","","","","null","<div style=""font-size:60px;"">+</div>","null","fixation","","","","","","","","","","","",""
"revaluation","81","408751","0.0-3.0-11.0-4.0-0.1","spark_pilot_norest","10038","8","18","Male","","false","","","","","[895.5]","./assets/img/space/animals/rabbit.jpg","[""ArrowRight""]","practice block","space","23","{""ArrowUp,ArrowLeft"":3,""ArrowUp,ArrowRight"":36,""ArrowDown,ArrowLeft"":15,""ArrowDown,ArrowRight"":23}","true","ArrowDown,ArrowRight","","","","","","",""
"html-keyboard-response","82","409261","0.0-3.0-11.0-4.0-1.1","spark_pilot_norest","10038","8","18","Male","","","","","","","null","<div style=""font-size:60px;"">+</div>","null","fixation","","","","","","","","","","","",""
"revaluation","83","413282","0.0-3.0-11.0-4.0-0.2","spark_pilot_norest","10038","8","18","Male","","false","","","","","[673.5]","./assets/img/space/animals/cat.jpg","[""ArrowRight""]","practice block","space","36","{""ArrowUp,ArrowLeft"":3,""ArrowUp,ArrowRight"":36,""ArrowDown,ArrowLeft"":15,""ArrowDown,ArrowRight"":23}","true","ArrowUp,ArrowRight","","","","","","",""
"html-keyboard-response","84","413790","0.0-3.0-11.0-4.0-1.2","spark_pilot_norest","10038","8","18","Male","","","","","","","null","<div style=""font-size:60px;"">+</div>","null","fixation","","","","","","","","","","","",""
"revaluation","85","417811","0.0-3.0-11.0-4.0-0.3","spark_pilot_norest","10038","8","18","Male","","false","","","","","[368.39999985694885]","./assets/img/space/animals/cat.jpg","[""ArrowRight""]","practice block","space","36","{""ArrowUp,ArrowLeft"":3,""ArrowUp,ArrowRight"":36,""ArrowDown,ArrowLeft"":15,""ArrowDown,ArrowRight"":23}","true","ArrowUp,ArrowRight","","","","","","",""
"html-keyboard-response","86","418320","0.0-3.0-11.0-4.0-1.3","spark_pilot_norest","10038","8","18","Male","","","","","","","null","<div style=""font-size:60px;"">+</div>","null","fixation","","","","","","","","","","","",""
"learning-instructions","87","427270","0.0-3.0-11.0-5.0-0.0","spark_pilot_norest","10038","8","18","Male","","","","","","","null","<p> You have almost finished this part of the game! </p>
            <p> We are going to ask you to make a few more choices. </p>","","instructions","","","","","","","","","","","",""
"learning-instructions","88","444340","0.0-3.0-11.0-5.0-0.1","spark_pilot_norest","10038","8","18","Male","","","","","","","null","<p> First, you need to decide whether to go up or down. When you see each picture, use the arrow keys to make your choice. </p>
            <p><b>You will not see which animal you found, but try to get to the one that will give you the most treasure.</b></p>","","instructions","","","","","","","","","","","",""
"html-keyboard-response","89","445350","0.0-3.0-11.0-6.0-0.0","spark_pilot_norest","10038","8","18","Male","","","","","","","null","<div style=""font-size:100px;color:red;"">Starting in...</div>","null","","","","","","","","","","","","",""
"html-keyboard-response","90","446360","0.0-3.0-11.0-6.0-1.0","spark_pilot_norest","10038","8","18","Male","","","","","","","null","<div style=""font-size:200px;color:red;"">3</div>","null","","","","","","","","","","","","",""
"html-keyboard-response","91","447371","0.0-3.0-11.0-6.0-2.0","spark_pilot_norest","10038","8","18","Male","","","","","","","null","<div style=""font-size:200px;color:red;"">2</div>","null","","","","","","","","","","","","",""
"html-keyboard-response","92","448380","0.0-3.0-11.0-6.0-3.0","spark_pilot_norest","10038","8","18","Male","","","","","","","null","<div style=""font-size:200px;color:red;"">1</div>","null","","","","","","","","","","","","",""
"revaluation","93","449012","0.0-3.0-11.0-7.0","spark_pilot_norest","10038","8","18","Male","","false","","","","","[623.5]","./assets/img/space/15.jpg","[""ArrowUp""]","practice block","space","0","{""ArrowUp,ArrowLeft"":3,""ArrowUp,ArrowRight"":36,""ArrowDown,ArrowLeft"":15,""ArrowDown,ArrowRight"":23}","true","ArrowUp","false","","","","","",""
"html-keyboard-response","94","449520","0.0-3.0-11.0-8.0","spark_pilot_norest","10038","8","18","Male","","","","","","","null","<div style=""font-size:60px;"">+</div>","null","fixation","","","","","","","","","","","",""
"learning-instructions","95","462950","0.0-3.0-11.0-9.0-0.0","spark_pilot_norest","10038","8","18","Male","","","","","","","null","<p> Now you will see the animals again and can search their chests for treasure. </p>
            <p> This time, you will not see how much treasure you earned, but you will earn more bonus money for making better choices. </p>","","instructions","","","","","","","","","","","",""
"html-keyboard-response","96","463961","0.0-3.0-11.0-10.0-0.0","spark_pilot_norest","10038","8","18","Male","","","","","","","null","<div style=""font-size:100px;color:red;"">Starting in...</div>","null","","","","","","","","","","","","",""
"html-keyboard-response","97","464971","0.0-3.0-11.0-10.0-1.0","spark_pilot_norest","10038","8","18","Male","","","","","","","null","<div style=""font-size:200px;color:red;"">3</div>","null","","","","","","","","","","","","",""
"html-keyboard-response","98","465981","0.0-3.0-11.0-10.0-2.0","spark_pilot_norest","10038","8","18","Male","","","","","","","null","<div style=""font-size:200px;color:red;"">2</div>","null","","","","","","","","","","","","",""
"html-keyboard-response","99","466991","0.0-3.0-11.0-10.0-3.0","spark_pilot_norest","10038","8","18","Male","","","","","","","null","<div style=""font-size:200px;color:red;"">1</div>","null","","","","","","","","","","","","",""
"revaluation","100","467539","0.0-3.0-11.0-11.0-0.0","spark_pilot_norest","10038","8","18","Male","","false","","","","","[540.7000000476837]","./assets/img/space/animals/cat.jpg","[""ArrowRight""]","practice block","space","0","{""ArrowUp,ArrowLeft"":3,""ArrowUp,ArrowRight"":36,""ArrowDown,ArrowLeft"":15,""ArrowDown,ArrowRight"":23}","true","ArrowUp,ArrowRight","","","","","","",""
"html-keyboard-response","101","468049","0.0-3.0-11.0-11.0-1.0","spark_pilot_norest","10038","8","18","Male","","","","","","","null","<div style=""font-size:60px;"">+</div>","null","fixation","","","","","","","","","","","",""
"revaluation","102","468765","0.0-3.0-11.0-11.0-0.1","spark_pilot_norest","10038","8","18","Male","","false","","","","","[709.3999998569489]","./assets/img/space/animals/rabbit.jpg","[""ArrowRight""]","practice block","space","0","{""ArrowUp,ArrowLeft"":3,""ArrowUp,ArrowRight"":36,""ArrowDown,ArrowLeft"":15,""ArrowDown,ArrowRight"":23}","true","ArrowDown,ArrowRight","","","","","","",""
"html-keyboard-response","103","469271","0.0-3.0-11.0-11.0-1.1","spark_pilot_norest","10038","8","18","Male","","","","","","","null","<div style=""font-size:60px;"">+</div>","null","fixation","","","","","","","","","","","",""
"learning-instructions","104","475446","0.0-3.0-12.0-0.0","spark_pilot_norest","10038","8","18","Male","","","","","","","1554.6000001430511","<p> Before you start, we're going to ask you a few questions about how the game works. </p>","","instructions","","","","","","","","","","","",""
"comp-q","105","482516","0.0-3.0-13.0-0.0-0.0","spark_pilot_norest","10038","8","18","Male","","","","","","","1444.7999999523163","<p> <b> True or False? </b> </p>
            <p> There can be 50 pieces of treasure in a given animal's chest. </p>","1","comp_question","","","","true","","","","","","","",""
"comp-q","106","491102","0.0-3.0-13.0-0.0-1.0","spark_pilot_norest","10038","8","18","Male","","","","","","","1889.1999998092651","<p> <b> That's right! </b> The amount of treasure in each chest can range from 0 to 40 pieces. </p>","0","comp_answer","","","","","","","","","","","",""
"comp-q","107","499032","0.0-3.0-13.0-0.1-0.1","spark_pilot_norest","10038","8","18","Male","","","","","","","779.2000000476837","<p> <b> True or False? </b> </p><p> In this game, all animals have the same amount of treasure in their left and right chests. </p>","1","comp_question","","","","true","","","","","","","",""
"comp-q","108","506077","0.0-3.0-13.0-0.1-1.1","spark_pilot_norest","10038","8","18","Male","","","","","","","1785.5","<p> <b> That's right! </b> Animals have different amounts of treasure in their treasure chests. </p>","0","comp_answer","","","","","","","","","","","",""
"comp-q","109","512698","0.0-3.0-13.0-0.2-0.2","spark_pilot_norest","10038","8","18","Male","","","","","","","755.1000001430511","<p> <b> True or False? </b> </p><p> The same animal will always be there if you go up in the same place. </p>","0","comp_question","","","","true","","","","","","","",""
"comp-q","110","520768","0.0-3.0-13.0-0.2-1.2","spark_pilot_norest","10038","8","18","Male","","","","","","","1586","<p> <b> That's right! </b> One animal lives in the upper part and one lives in the lower part of every place. </p>","0","comp_answer","","","","","","","","","","","",""
"comp-q","111","527086","0.0-3.0-13.0-0.3-0.3","spark_pilot_norest","10038","8","18","Male","","","","","","","773.2000000476837","<p> <b> True or False? </b> </p><p> If you see a different picture, it means you are in a new place. </p>","1","comp_question","","","","true","","","","","","","",""
"comp-q","112","542952","0.0-3.0-13.0-0.3-1.3","spark_pilot_norest","10038","8","18","Male","","","","","","","4579.5","<p> <b> That's right! </b> Lots of different images may show the same place. For example,  you may see three different images that all remind you that you are in outer space. </p>","0","comp_answer","","","","","","","","","","","",""
"learning-instructions","113","555537","0.0-3.0-14.0-0.0","spark_pilot_norest","10038","8","18","Male","","","","","","","2701.4000000953674","<p> Good job. Remember to do your best because the amount of treasure you earn will be converted into bonus money. </p>
            <p> It’s time to start the real game! </p>","","instructions","","","","","","","","","","","",""
"learning-instructions","114","559764","0.0-4.0-0.0-0.0","spark_pilot_norest","10038","8","18","Male","","","","","","","1432","<p> This time you are searching for treasure in the <b>canyon</b>.</p>","","instructions","","","","","","","","","","","",""
"learning-instructions","115","579389","0.0-4.0-0.0-0.1","spark_pilot_norest","10038","8","18","Male","","","","","","","2277.7000000476837","<p><b>New</b> animals with <b>new</b> treasure chests live here. You need to explore to discover where the animal with the best treasure chest is.</p>
                    <p> Like before, once you figure out which animal has the chest with the most treasure, you should try to get to that animal and select that chest! </p>","","instructions","","","","","","","","","","","",""
"learning-instructions","116","596048","0.0-4.0-1.0-0.0","spark_pilot_norest","10038","8","18","Male","","","","","","","1916","<p> Remember, when you see a picture of the place, use the up and down keys to <b>find an animal</b>.</p>
            <p> When you encounter an animal, you should use the left and right keys to <b>select a treasure chest</b>.</p>
            <p> Don't forget to look out for the robber! </p>","","instructions","","","","","","","","","","","",""
"revaluation","117","602081","0.0-4.0-2.0-0.0","spark_pilot_norest","10038","8","18","Male","","false","","","","","[785.7999999523163,461.90000009536743]","./assets/img/canyon/memory/19.jpg","[""ArrowDown"",""ArrowLeft""]","value training","canyon","5","{""ArrowUp,ArrowLeft"":26,""ArrowUp,ArrowRight"":10,""ArrowDown,ArrowLeft"":5,""ArrowDown,ArrowRight"":17}","false","ArrowDown,ArrowLeft","false","revaluation","1","0","","",""
"html-keyboard-response","118","602590","0.0-4.0-2.0-1.0","spark_pilot_norest","10038","8","18","Male","","","","","","","null","<div style=""font-size:60px;"">+</div>","null","fixation","","","","","","","","","1","","",""
"revaluation","119","608611","0.0-4.0-2.0-0.1","spark_pilot_norest","10038","8","18","Male","","false","","","","","[743.3000001907349,465.5]","./assets/img/canyon/memory/6.jpg","[""ArrowUp"",""ArrowLeft""]","value training","canyon","26","{""ArrowUp,ArrowLeft"":26,""ArrowUp,ArrowRight"":10,""ArrowDown,ArrowLeft"":5,""ArrowDown,ArrowRight"":17}","true","ArrowUp,ArrowLeft","false","revaluation","1","2","","",""
"html-keyboard-response","120","609120","0.0-4.0-2.0-1.1","spark_pilot_norest","10038","8","18","Male","","","","","","","null","<div style=""font-size:60px;"">+</div>","null","fixation","","","","","","","","","3","","",""
"revaluation","121","615151","0.0-4.0-2.0-0.2","spark_pilot_norest","10038","8","18","Male","","false","","","","","[349.7999999523163,274]","./assets/img/canyon/memory/5.jpg","[""ArrowUp"",""ArrowRight""]","value training","canyon","10","{""ArrowUp,ArrowLeft"":26,""ArrowUp,ArrowRight"":10,""ArrowDown,ArrowLeft"":5,""ArrowDown,ArrowRight"":17}","false","ArrowUp,ArrowRight","false","revaluation","1","4","","",""
"html-keyboard-response","122","615661","0.0-4.0-2.0-1.2","spark_pilot_norest","10038","8","18","Male","","","","","","","null","<div style=""font-size:60px;"">+</div>","null","fixation","","","","","","","","","5","","",""
"revaluation","123","621691","0.0-4.0-2.0-0.3","spark_pilot_norest","10038","8","18","Male","","false","","","","","[744.7000000476837,285.7999999523163]","./assets/img/canyon/memory/22.jpg","[""ArrowDown"",""ArrowRight""]","value training","canyon","17","{""ArrowUp,ArrowLeft"":26,""ArrowUp,ArrowRight"":10,""ArrowDown,ArrowLeft"":5,""ArrowDown,ArrowRight"":17}","false","ArrowDown,ArrowRight","false","revaluation","1","6","","",""
"html-keyboard-response","124","622201","0.0-4.0-2.0-1.3","spark_pilot_norest","10038","8","18","Male","","","","","","","null","<div style=""font-size:60px;"">+</div>","null","fixation","","","","","","","","","7","","",""
"revaluation","125","628215","0.0-4.0-2.0-0.4","spark_pilot_norest","10038","8","18","Male","","false","","","","","[397.90000009536743,224.10000014305115]","./assets/img/canyon/memory/32.jpg","[""ArrowUp"",""ArrowLeft""]","value training","canyon","26","{""ArrowUp,ArrowLeft"":26,""ArrowUp,ArrowRight"":10,""ArrowDown,ArrowLeft"":5,""ArrowDown,ArrowRight"":17}","true","ArrowUp,ArrowLeft","false","revaluation","1","8","","",""
"html-keyboard-response","126","628717","0.0-4.0-2.0-1.4","spark_pilot_norest","10038","8","18","Male","","","","","","","null","<div style=""font-size:60px;"">+</div>","null","fixation","","","","","","","","","9","","",""
"revaluation","127","634729","0.0-4.0-2.0-0.5","spark_pilot_norest","10038","8","18","Male","","false","","","","","[749.2999999523163,287.2000000476837]","./assets/img/canyon/memory/12.jpg","[""ArrowUp"",""ArrowLeft""]","value training","canyon","26","{""ArrowUp,ArrowLeft"":26,""ArrowUp,ArrowRight"":10,""ArrowDown,ArrowLeft"":5,""ArrowDown,ArrowRight"":17}","true","ArrowUp,ArrowLeft","false","revaluation","1","10","","",""
"html-keyboard-response","128","635232","0.0-4.0-2.0-1.5","spark_pilot_norest","10038","8","18","Male","","","","","","","null","<div style=""font-size:60px;"">+</div>","null","fixation","","","","","","","","","11","","",""
"revaluation","129","641242","0.0-4.0-2.0-0.6","spark_pilot_norest","10038","8","18","Male","","false","","","","","[942.1999998092651,329.7999999523163]","./assets/img/canyon/memory/21.jpg","[""ArrowUp"",""ArrowLeft""]","value training","canyon","26","{""ArrowUp,ArrowLeft"":26,""ArrowUp,ArrowRight"":10,""ArrowDown,ArrowLeft"":5,""ArrowDown,ArrowRight"":17}","true","ArrowUp,ArrowLeft","false","revaluation","1","12","","",""
"html-keyboard-response","130","641744","0.0-4.0-2.0-1.6","spark_pilot_norest","10038","8","18","Male","","","","","","","null","<div style=""font-size:60px;"">+</div>","null","fixation","","","","","","","","","13","","",""
"revaluation","131","645754","0.0-4.0-2.0-0.7","spark_pilot_norest","10038","8","18","Male","","false","","","","","[1029.9000000953674]","./assets/img/canyon/catch/1.jpg","[""spaceBar""]","value training","canyon","0","{""ArrowUp,ArrowLeft"":26,""ArrowUp,ArrowRight"":10,""ArrowDown,ArrowLeft"":5,""ArrowDown,ArrowRight"":17}","true","spaceBar","true","revaluation","1","14","","",""
"html-keyboard-response","132","646257","0.0-4.0-2.0-1.7","spark_pilot_norest","10038","8","18","Male","","","","","","","null","<div style=""font-size:60px;"">+</div>","null","fixation","","","","","","","","","15","","",""
"revaluation","133","650266","0.0-4.0-2.0-0.8","spark_pilot_norest","10038","8","18","Male","","false","","","","","[866.5]","./assets/img/canyon/catch/0.jpg","[""spaceBar""]","value training","canyon","0","{""ArrowUp,ArrowLeft"":26,""ArrowUp,ArrowRight"":10,""ArrowDown,ArrowLeft"":5,""ArrowDown,ArrowRight"":17}","true","spaceBar","true","revaluation","1","16","","",""
"html-keyboard-response","134","650769","0.0-4.0-2.0-1.8","spark_pilot_norest","10038","8","18","Male","","","","","","","null","<div style=""font-size:60px;"">+</div>","null","fixation","","","","","","","","","17","","",""
"revaluation","135","656779","0.0-4.0-2.0-0.9","spark_pilot_norest","10038","8","18","Male","","false","","","","","[735,742.2000000476837]","./assets/img/canyon/memory/4.jpg","[""ArrowUp"",""ArrowLeft""]","value training","canyon","26","{""ArrowUp,ArrowLeft"":26,""ArrowUp,ArrowRight"":10,""ArrowDown,ArrowLeft"":5,""ArrowDown,ArrowRight"":17}","true","ArrowUp,ArrowLeft","false","revaluation","1","18","","",""
"html-keyboard-response","136","657285","0.0-4.0-2.0-1.9","spark_pilot_norest","10038","8","18","Male","","","","","","","null","<div style=""font-size:60px;"">+</div>","null","fixation","","","","","","","","","19","","",""
"revaluation","137","663296","0.0-4.0-2.0-0.10","spark_pilot_norest","10038","8","18","Male","","false","","","","","[870.8000001907349,296.39999985694885]","./assets/img/canyon/memory/38.jpg","[""ArrowUp"",""ArrowLeft""]","value training","canyon","26","{""ArrowUp,ArrowLeft"":26,""ArrowUp,ArrowRight"":10,""ArrowDown,ArrowLeft"":5,""ArrowDown,ArrowRight"":17}","true","ArrowUp,ArrowLeft","false","revaluation","1","20","","",""
"html-keyboard-response","138","663799","0.0-4.0-2.0-1.10","spark_pilot_norest","10038","8","18","Male","","","","","","","null","<div style=""font-size:60px;"">+</div>","null","fixation","","","","","","","","","21","","",""
"revaluation","139","669810","0.0-4.0-2.0-0.11","spark_pilot_norest","10038","8","18","Male","","false","","","","","[855.6000001430511,364.10000014305115]","./assets/img/canyon/memory/20.jpg","[""ArrowUp"",""ArrowLeft""]","value training","canyon","26","{""ArrowUp,ArrowLeft"":26,""ArrowUp,ArrowRight"":10,""ArrowDown,ArrowLeft"":5,""ArrowDown,ArrowRight"":17}","true","ArrowUp,ArrowLeft","false","revaluation","1","22","","",""
"html-keyboard-response","140","670312","0.0-4.0-2.0-1.11","spark_pilot_norest","10038","8","18","Male","","","","","","","null","<div style=""font-size:60px;"">+</div>","null","fixation","","","","","","","","","23","","",""
"revaluation","141","676321","0.0-4.0-2.0-0.12","spark_pilot_norest","10038","8","18","Male","","false","","","","","[694.3999998569489,264.30000019073486]","./assets/img/canyon/memory/8.jpg","[""ArrowUp"",""ArrowLeft""]","value training","canyon","26","{""ArrowUp,ArrowLeft"":26,""ArrowUp,ArrowRight"":10,""ArrowDown,ArrowLeft"":5,""ArrowDown,ArrowRight"":17}","true","ArrowUp,ArrowLeft","false","revaluation","1","24","","",""
"html-keyboard-response","142","676824","0.0-4.0-2.0-1.12","spark_pilot_norest","10038","8","18","Male","","","","","","","null","<div style=""font-size:60px;"">+</div>","null","fixation","","","","","","","","","25","","",""
"revaluation","143","682836","0.0-4.0-2.0-0.13","spark_pilot_norest","10038","8","18","Male","","false","","","","","[650,286]","./assets/img/canyon/memory/8.jpg","[""ArrowUp"",""ArrowLeft""]","value training","canyon","26","{""ArrowUp,ArrowLeft"":26,""ArrowUp,ArrowRight"":10,""ArrowDown,ArrowLeft"":5,""ArrowDown,ArrowRight"":17}","true","ArrowUp,ArrowLeft","false","revaluation","1","26","","",""
"html-keyboard-response","144","683338","0.0-4.0-2.0-1.13","spark_pilot_norest","10038","8","18","Male","","","","","","","null","<div style=""font-size:60px;"">+</div>","null","fixation","","","","","","","","","27","","",""
"revaluation","145","689346","0.0-4.0-2.0-0.14","spark_pilot_norest","10038","8","18","Male","","false","","","","","[1009.4000000953674,436.90000009536743]","./assets/img/canyon/memory/15.jpg","[""ArrowUp"",""ArrowLeft""]","value training","canyon","26","{""ArrowUp,ArrowLeft"":26,""ArrowUp,ArrowRight"":10,""ArrowDown,ArrowLeft"":5,""ArrowDown,ArrowRight"":17}","true","ArrowUp,ArrowLeft","false","revaluation","1","28","","",""
"html-keyboard-response","146","689848","0.0-4.0-2.0-1.14","spark_pilot_norest","10038","8","18","Male","","","","","","","null","<div style=""font-size:60px;"">+</div>","null","fixation","","","","","","","","","29","","",""
"revaluation","147","695858","0.0-4.0-2.0-0.15","spark_pilot_norest","10038","8","18","Male","","false","","","","","[646.5999999046326,251.29999995231628]","./assets/img/canyon/memory/21.jpg","[""ArrowUp"",""ArrowLeft""]","value training","canyon","26","{""ArrowUp,ArrowLeft"":26,""ArrowUp,ArrowRight"":10,""ArrowDown,ArrowLeft"":5,""ArrowDown,ArrowRight"":17}","true","ArrowUp,ArrowLeft","false","revaluation","1","30","","",""
"html-keyboard-response","148","696361","0.0-4.0-2.0-1.15","spark_pilot_norest","10038","8","18","Male","","","","","","","null","<div style=""font-size:60px;"">+</div>","null","fixation","","","","","","","","","31","","",""
"revaluation","149","700369","0.0-4.0-2.0-0.16","spark_pilot_norest","10038","8","18","Male","","false","","","","","[823.7999999523163]","./assets/img/canyon/catch/6.jpg","[""spaceBar""]","value training","canyon","0","{""ArrowUp,ArrowLeft"":26,""ArrowUp,ArrowRight"":10,""ArrowDown,ArrowLeft"":5,""ArrowDown,ArrowRight"":17}","true","spaceBar","true","revaluation","1","32","","",""
"html-keyboard-response","150","700874","0.0-4.0-2.0-1.16","spark_pilot_norest","10038","8","18","Male","","","","","","","null","<div style=""font-size:60px;"">+</div>","null","fixation","","","","","","","","","33","","",""
"revaluation","151","706885","0.0-4.0-2.0-0.17","spark_pilot_norest","10038","8","18","Male","","false","","","","","[744.5,340.5]","./assets/img/canyon/memory/30.jpg","[""ArrowUp"",""ArrowLeft""]","value training","canyon","26","{""ArrowUp,ArrowLeft"":26,""ArrowUp,ArrowRight"":10,""ArrowDown,ArrowLeft"":5,""ArrowDown,ArrowRight"":17}","true","ArrowUp,ArrowLeft","false","revaluation","1","34","","",""
"html-keyboard-response","152","707387","0.0-4.0-2.0-1.17","spark_pilot_norest","10038","8","18","Male","","","","","","","null","<div style=""font-size:60px;"">+</div>","null","fixation","","","","","","","","","35","","",""
"revaluation","153","713412","0.0-4.0-2.0-0.18","spark_pilot_norest","10038","8","18","Male","","false","","","","","[582.1000001430511,289.7000000476837]","./assets/img/canyon/memory/1.jpg","[""ArrowUp"",""ArrowLeft""]","value training","canyon","26","{""ArrowUp,ArrowLeft"":26,""ArrowUp,ArrowRight"":10,""ArrowDown,ArrowLeft"":5,""ArrowDown,ArrowRight"":17}","true","ArrowUp,ArrowLeft","false","revaluation","1","36","","",""
"html-keyboard-response","154","713914","0.0-4.0-2.0-1.18","spark_pilot_norest","10038","8","18","Male","","","","","","","null","<div style=""font-size:60px;"">+</div>","null","fixation","","","","","","","","","37","","",""
"revaluation","155","717919","0.0-4.0-2.0-0.19","spark_pilot_norest","10038","8","18","Male","","false","","","","","[865.2999999523163]","./assets/img/canyon/catch/7.jpg","[""spaceBar""]","value training","canyon","0","{""ArrowUp,ArrowLeft"":26,""ArrowUp,ArrowRight"":10,""ArrowDown,ArrowLeft"":5,""ArrowDown,ArrowRight"":17}","true","spaceBar","true","revaluation","1","38","","",""
"html-keyboard-response","156","718421","0.0-4.0-2.0-1.19","spark_pilot_norest","10038","8","18","Male","","","","","","","null","<div style=""font-size:60px;"">+</div>","null","fixation","","","","","","","","","39","","",""
"revaluation","157","724432","0.0-4.0-2.0-0.20","spark_pilot_norest","10038","8","18","Male","","false","","","","","[678.5,640.6000001430511]","./assets/img/canyon/memory/32.jpg","[""ArrowUp"",""ArrowLeft""]","value training","canyon","26","{""ArrowUp,ArrowLeft"":26,""ArrowUp,ArrowRight"":10,""ArrowDown,ArrowLeft"":5,""ArrowDown,ArrowRight"":17}","true","ArrowUp,ArrowLeft","false","revaluation","1","40","","",""
"html-keyboard-response","158","724935","0.0-4.0-2.0-1.20","spark_pilot_norest","10038","8","18","Male","","","","","","","null","<div style=""font-size:60px;"">+</div>","null","fixation","","","","","","","","","41","","",""
"revaluation","159","728943","0.0-4.0-2.0-0.21","spark_pilot_norest","10038","8","18","Male","","false","","","","","[876.5]","./assets/img/canyon/catch/2.jpg","[""spaceBar""]","value training","canyon","0","{""ArrowUp,ArrowLeft"":26,""ArrowUp,ArrowRight"":10,""ArrowDown,ArrowLeft"":5,""ArrowDown,ArrowRight"":17}","true","spaceBar","true","revaluation","1","42","","",""
"html-keyboard-response","160","729446","0.0-4.0-2.0-1.21","spark_pilot_norest","10038","8","18","Male","","","","","","","null","<div style=""font-size:60px;"">+</div>","null","fixation","","","","","","","","","43","","",""
"revaluation","161","735457","0.0-4.0-2.0-0.22","spark_pilot_norest","10038","8","18","Male","","false","","","","","[904.2000000476837,356.10000014305115]","./assets/img/canyon/memory/10.jpg","[""ArrowUp"",""ArrowLeft""]","value training","canyon","26","{""ArrowUp,ArrowLeft"":26,""ArrowUp,ArrowRight"":10,""ArrowDown,ArrowLeft"":5,""ArrowDown,ArrowRight"":17}","true","ArrowUp,ArrowLeft","false","revaluation","1","44","","",""
"html-keyboard-response","162","735961","0.0-4.0-2.0-1.22","spark_pilot_norest","10038","8","18","Male","","","","","","","null","<div style=""font-size:60px;"">+</div>","null","fixation","","","","","","","","","45","","",""
"revaluation","163","741970","0.0-4.0-2.0-0.23","spark_pilot_norest","10038","8","18","Male","","false","","","","","[591.2000000476837,347.09999990463257]","./assets/img/canyon/memory/6.jpg","[""ArrowUp"",""ArrowLeft""]","value training","canyon","26","{""ArrowUp,ArrowLeft"":26,""ArrowUp,ArrowRight"":10,""ArrowDown,ArrowLeft"":5,""ArrowDown,ArrowRight"":17}","true","ArrowUp,ArrowLeft","false","revaluation","1","46","","",""
"html-keyboard-response","164","742472","0.0-4.0-2.0-1.23","spark_pilot_norest","10038","8","18","Male","","","","","","","null","<div style=""font-size:60px;"">+</div>","null","fixation","","","","","","","","","47","","",""
"revaluation","165","748483","0.0-4.0-2.0-0.24","spark_pilot_norest","10038","8","18","Male","","false","","","","","[806.2999999523163,463.7999999523163]","./assets/img/canyon/memory/1.jpg","[""ArrowUp"",""ArrowLeft""]","value training","canyon","26","{""ArrowUp,ArrowLeft"":26,""ArrowUp,ArrowRight"":10,""ArrowDown,ArrowLeft"":5,""ArrowDown,ArrowRight"":17}","true","ArrowUp,ArrowLeft","false","revaluation","1","48","","",""
"html-keyboard-response","166","748986","0.0-4.0-2.0-1.24","spark_pilot_norest","10038","8","18","Male","","","","","","","null","<div style=""font-size:60px;"">+</div>","null","fixation","","","","","","","","","49","","",""
"revaluation","167","755004","0.0-4.0-2.0-0.25","spark_pilot_norest","10038","8","18","Male","","false","","","","","[806.4000000953674,417.5]","./assets/img/canyon/memory/20.jpg","[""ArrowUp"",""ArrowLeft""]","value training","canyon","26","{""ArrowUp,ArrowLeft"":26,""ArrowUp,ArrowRight"":10,""ArrowDown,ArrowLeft"":5,""ArrowDown,ArrowRight"":17}","true","ArrowUp,ArrowLeft","false","revaluation","1","50","","",""
"html-keyboard-response","168","755507","0.0-4.0-2.0-1.25","spark_pilot_norest","10038","8","18","Male","","","","","","","null","<div style=""font-size:60px;"">+</div>","null","fixation","","","","","","","","","51","","",""
"revaluation","169","761517","0.0-4.0-2.0-0.26","spark_pilot_norest","10038","8","18","Male","","false","","","","","[719.5999999046326,495.39999985694885]","./assets/img/canyon/memory/35.jpg","[""ArrowUp"",""ArrowLeft""]","value training","canyon","26","{""ArrowUp,ArrowLeft"":26,""ArrowUp,ArrowRight"":10,""ArrowDown,ArrowLeft"":5,""ArrowDown,ArrowRight"":17}","true","ArrowUp,ArrowLeft","false","revaluation","1","52","","",""
"html-keyboard-response","170","762019","0.0-4.0-2.0-1.26","spark_pilot_norest","10038","8","18","Male","","","","","","","null","<div style=""font-size:60px;"">+</div>","null","fixation","","","","","","","","","53","","",""
"revaluation","171","768029","0.0-4.0-2.0-0.27","spark_pilot_norest","10038","8","18","Male","","false","","","","","[457.89999985694885,250]","./assets/img/canyon/memory/27.jpg","[""ArrowUp"",""ArrowLeft""]","value training","canyon","26","{""ArrowUp,ArrowLeft"":26,""ArrowUp,ArrowRight"":10,""ArrowDown,ArrowLeft"":5,""ArrowDown,ArrowRight"":17}","true","ArrowUp,ArrowLeft","false","revaluation","1","54","","",""
"html-keyboard-response","172","768532","0.0-4.0-2.0-1.27","spark_pilot_norest","10038","8","18","Male","","","","","","","null","<div style=""font-size:60px;"">+</div>","null","fixation","","","","","","","","","55","","",""
"revaluation","173","774544","0.0-4.0-2.0-0.28","spark_pilot_norest","10038","8","18","Male","","false","","","","","[861.2999999523163,333.90000009536743]","./assets/img/canyon/memory/38.jpg","[""ArrowUp"",""ArrowLeft""]","value training","canyon","26","{""ArrowUp,ArrowLeft"":26,""ArrowUp,ArrowRight"":10,""ArrowDown,ArrowLeft"":5,""ArrowDown,ArrowRight"":17}","true","ArrowUp,ArrowLeft","false","revaluation","1","56","","",""
"html-keyboard-response","174","775046","0.0-4.0-2.0-1.28","spark_pilot_norest","10038","8","18","Male","","","","","","","null","<div style=""font-size:60px;"">+</div>","null","fixation","","","","","","","","","57","","",""
"revaluation","175","781056","0.0-4.0-2.0-0.29","spark_pilot_norest","10038","8","18","Male","","false","","","","","[938.6000001430511,721.1000001430511]","./assets/img/canyon/memory/12.jpg","[""ArrowUp"",""ArrowLeft""]","value training","canyon","26","{""ArrowUp,ArrowLeft"":26,""ArrowUp,ArrowRight"":10,""ArrowDown,ArrowLeft"":5,""ArrowDown,ArrowRight"":17}","true","ArrowUp,ArrowLeft","false","revaluation","1","58","","",""
"html-keyboard-response","176","781559","0.0-4.0-2.0-1.29","spark_pilot_norest","10038","8","18","Male","","","","","","","null","<div style=""font-size:60px;"">+</div>","null","fixation","","","","","","","","","59","","",""
"revaluation","177","787567","0.0-4.0-2.0-0.30","spark_pilot_norest","10038","8","18","Male","","false","","","","","[556.4000000953674,338.09999990463257]","./assets/img/canyon/memory/27.jpg","[""ArrowUp"",""ArrowLeft""]","value training","canyon","26","{""ArrowUp,ArrowLeft"":26,""ArrowUp,ArrowRight"":10,""ArrowDown,ArrowLeft"":5,""ArrowDown,ArrowRight"":17}","true","ArrowUp,ArrowLeft","false","revaluation","1","60","","",""
"html-keyboard-response","178","788070","0.0-4.0-2.0-1.30","spark_pilot_norest","10038","8","18","Male","","","","","","","null","<div style=""font-size:60px;"">+</div>","null","fixation","","","","","","","","","61","","",""
"revaluation","179","794079","0.0-4.0-2.0-0.31","spark_pilot_norest","10038","8","18","Male","","false","","","","","[877.2000000476837,475.7000000476837]","./assets/img/canyon/memory/2.jpg","[""ArrowUp"",""ArrowLeft""]","value training","canyon","26","{""ArrowUp,ArrowLeft"":26,""ArrowUp,ArrowRight"":10,""ArrowDown,ArrowLeft"":5,""ArrowDown,ArrowRight"":17}","true","ArrowUp,ArrowLeft","false","revaluation","1","62","","",""
"html-keyboard-response","180","794586","0.0-4.0-2.0-1.31","spark_pilot_norest","10038","8","18","Male","","","","","","","null","<div style=""font-size:60px;"">+</div>","null","fixation","","","","","","","","","63","","",""
"revaluation","181","798596","0.0-4.0-2.0-0.32","spark_pilot_norest","10038","8","18","Male","","false","","","","","[888.7999999523163]","./assets/img/canyon/catch/4.jpg","[""spaceBar""]","value training","canyon","0","{""ArrowUp,ArrowLeft"":26,""ArrowUp,ArrowRight"":10,""ArrowDown,ArrowLeft"":5,""ArrowDown,ArrowRight"":17}","true","spaceBar","true","revaluation","1","64","","",""
"html-keyboard-response","182","799098","0.0-4.0-2.0-1.32","spark_pilot_norest","10038","8","18","Male","","","","","","","null","<div style=""font-size:60px;"">+</div>","null","fixation","","","","","","","","","65","","",""
"revaluation","183","805118","0.0-4.0-2.0-0.33","spark_pilot_norest","10038","8","18","Male","","false","","","","","[869,391.09999990463257]","./assets/img/canyon/memory/18.jpg","[""ArrowUp"",""ArrowLeft""]","value training","canyon","26","{""ArrowUp,ArrowLeft"":26,""ArrowUp,ArrowRight"":10,""ArrowDown,ArrowLeft"":5,""ArrowDown,ArrowRight"":17}","true","ArrowUp,ArrowLeft","false","revaluation","1","66","","",""
"html-keyboard-response","184","805623","0.0-4.0-2.0-1.33","spark_pilot_norest","10038","8","18","Male","","","","","","","null","<div style=""font-size:60px;"">+</div>","null","fixation","","","","","","","","","67","","",""
"revaluation","185","811632","0.0-4.0-2.0-0.34","spark_pilot_norest","10038","8","18","Male","","false","","","","","[892.9000000953674,357.2000000476837]","./assets/img/canyon/memory/5.jpg","[""ArrowUp"",""ArrowLeft""]","value training","canyon","26","{""ArrowUp,ArrowLeft"":26,""ArrowUp,ArrowRight"":10,""ArrowDown,ArrowLeft"":5,""ArrowDown,ArrowRight"":17}","true","ArrowUp,ArrowLeft","false","revaluation","1","68","","",""
"html-keyboard-response","186","812134","0.0-4.0-2.0-1.34","spark_pilot_norest","10038","8","18","Male","","","","","","","null","<div style=""font-size:60px;"">+</div>","null","fixation","","","","","","","","","69","","",""
"revaluation","187","818141","0.0-4.0-2.0-0.35","spark_pilot_norest","10038","8","18","Male","","false","","","","","[641.1000001430511,457.89999985694885]","./assets/img/canyon/memory/35.jpg","[""ArrowUp"",""ArrowLeft""]","value training","canyon","26","{""ArrowUp,ArrowLeft"":26,""ArrowUp,ArrowRight"":10,""ArrowDown,ArrowLeft"":5,""ArrowDown,ArrowRight"":17}","true","ArrowUp,ArrowLeft","false","revaluation","1","70","","",""
"html-keyboard-response","188","818645","0.0-4.0-2.0-1.35","spark_pilot_norest","10038","8","18","Male","","","","","","","null","<div style=""font-size:60px;"">+</div>","null","fixation","","","","","","","","","71","","",""
"revaluation","189","824652","0.0-4.0-2.0-0.36","spark_pilot_norest","10038","8","18","Male","","false","","","","","[687.5,427.89999985694885]","./assets/img/canyon/memory/22.jpg","[""ArrowUp"",""ArrowLeft""]","value training","canyon","26","{""ArrowUp,ArrowLeft"":26,""ArrowUp,ArrowRight"":10,""ArrowDown,ArrowLeft"":5,""ArrowDown,ArrowRight"":17}","true","ArrowUp,ArrowLeft","false","revaluation","1","72","","",""
"html-keyboard-response","190","825154","0.0-4.0-2.0-1.36","spark_pilot_norest","10038","8","18","Male","","","","","","","null","<div style=""font-size:60px;"">+</div>","null","fixation","","","","","","","","","73","","",""
"revaluation","191","831165","0.0-4.0-2.0-0.37","spark_pilot_norest","10038","8","18","Male","","false","","","","","[610.7999999523163,389.5]","./assets/img/canyon/memory/2.jpg","[""ArrowUp"",""ArrowLeft""]","value training","canyon","26","{""ArrowUp,ArrowLeft"":26,""ArrowUp,ArrowRight"":10,""ArrowDown,ArrowLeft"":5,""ArrowDown,ArrowRight"":17}","true","ArrowUp,ArrowLeft","false","revaluation","1","74","","",""
"html-keyboard-response","192","831667","0.0-4.0-2.0-1.37","spark_pilot_norest","10038","8","18","Male","","","","","","","null","<div style=""font-size:60px;"">+</div>","null","fixation","","","","","","","","","75","","",""
"revaluation","193","837674","0.0-4.0-2.0-0.38","spark_pilot_norest","10038","8","18","Male","","false","","","","","[662.2999999523163,386.5]","./assets/img/canyon/memory/41.jpg","[""ArrowUp"",""ArrowLeft""]","value training","canyon","26","{""ArrowUp,ArrowLeft"":26,""ArrowUp,ArrowRight"":10,""ArrowDown,ArrowLeft"":5,""ArrowDown,ArrowRight"":17}","true","ArrowUp,ArrowLeft","false","revaluation","1","76","","",""
"html-keyboard-response","194","838177","0.0-4.0-2.0-1.38","spark_pilot_norest","10038","8","18","Male","","","","","","","null","<div style=""font-size:60px;"">+</div>","null","fixation","","","","","","","","","77","","",""
"revaluation","195","844183","0.0-4.0-2.0-0.39","spark_pilot_norest","10038","8","18","Male","","false","","","","","[714.6000001430511,334.2999999523163]","./assets/img/canyon/memory/19.jpg","[""ArrowUp"",""ArrowLeft""]","value training","canyon","26","{""ArrowUp,ArrowLeft"":26,""ArrowUp,ArrowRight"":10,""ArrowDown,ArrowLeft"":5,""ArrowDown,ArrowRight"":17}","true","ArrowUp,ArrowLeft","false","revaluation","1","78","","",""
"html-keyboard-response","196","844685","0.0-4.0-2.0-1.39","spark_pilot_norest","10038","8","18","Male","","","","","","","null","<div style=""font-size:60px;"">+</div>","null","fixation","","","","","","","","","79","","",""
"revaluation","197","848694","0.0-4.0-2.0-0.40","spark_pilot_norest","10038","8","18","Male","","false","","","","","[1043.3999998569489]","./assets/img/canyon/catch/3.jpg","[""spaceBar""]","value training","canyon","0","{""ArrowUp,ArrowLeft"":26,""ArrowUp,ArrowRight"":10,""ArrowDown,ArrowLeft"":5,""ArrowDown,ArrowRight"":17}","true","spaceBar","true","revaluation","1","80","","",""
"html-keyboard-response","198","849197","0.0-4.0-2.0-1.40","spark_pilot_norest","10038","8","18","Male","","","","","","","null","<div style=""font-size:60px;"">+</div>","null","fixation","","","","","","","","","81","","",""
"revaluation","199","853210","0.0-4.0-2.0-0.41","spark_pilot_norest","10038","8","18","Male","","false","","","","","[934.4000000953674]","./assets/img/canyon/catch/5.jpg","[""spaceBar""]","value training","canyon","0","{""ArrowUp,ArrowLeft"":26,""ArrowUp,ArrowRight"":10,""ArrowDown,ArrowLeft"":5,""ArrowDown,ArrowRight"":17}","true","spaceBar","true","revaluation","1","82","","",""
"html-keyboard-response","200","853711","0.0-4.0-2.0-1.41","spark_pilot_norest","10038","8","18","Male","","","","","","","null","<div style=""font-size:60px;"">+</div>","null","fixation","","","","","","","","","83","","",""
"revaluation","201","859723","0.0-4.0-2.0-0.42","spark_pilot_norest","10038","8","18","Male","","false","","","","","[693.5,337.7999999523163]","./assets/img/canyon/memory/41.jpg","[""ArrowUp"",""ArrowLeft""]","value training","canyon","26","{""ArrowUp,ArrowLeft"":26,""ArrowUp,ArrowRight"":10,""ArrowDown,ArrowLeft"":5,""ArrowDown,ArrowRight"":17}","true","ArrowUp,ArrowLeft","false","revaluation","1","84","","",""
"html-keyboard-response","202","860225","0.0-4.0-2.0-1.42","spark_pilot_norest","10038","8","18","Male","","","","","","","null","<div style=""font-size:60px;"">+</div>","null","fixation","","","","","","","","","85","","",""
"revaluation","203","866234","0.0-4.0-2.0-0.43","spark_pilot_norest","10038","8","18","Male","","false","","","","","[752.4000000953674,336.09999990463257]","./assets/img/canyon/memory/18.jpg","[""ArrowUp"",""ArrowLeft""]","value training","canyon","26","{""ArrowUp,ArrowLeft"":26,""ArrowUp,ArrowRight"":10,""ArrowDown,ArrowLeft"":5,""ArrowDown,ArrowRight"":17}","true","ArrowUp,ArrowLeft","false","revaluation","1","86","","",""
"html-keyboard-response","204","866736","0.0-4.0-2.0-1.43","spark_pilot_norest","10038","8","18","Male","","","","","","","null","<div style=""font-size:60px;"">+</div>","null","fixation","","","","","","","","","87","","",""
"revaluation","205","872756","0.0-4.0-2.0-0.44","spark_pilot_norest","10038","8","18","Male","","false","","","","","[910.5,410]","./assets/img/canyon/memory/15.jpg","[""ArrowUp"",""ArrowLeft""]","value training","canyon","26","{""ArrowUp,ArrowLeft"":26,""ArrowUp,ArrowRight"":10,""ArrowDown,ArrowLeft"":5,""ArrowDown,ArrowRight"":17}","true","ArrowUp,ArrowLeft","false","revaluation","1","88","","",""
"html-keyboard-response","206","873259","0.0-4.0-2.0-1.44","spark_pilot_norest","10038","8","18","Male","","","","","","","null","<div style=""font-size:60px;"">+</div>","null","fixation","","","","","","","","","89","","",""
"revaluation","207","879278","0.0-4.0-2.0-0.45","spark_pilot_norest","10038","8","18","Male","","false","","","","","[679.8000001907349,375.09999990463257]","./assets/img/canyon/memory/0.jpg","[""ArrowUp"",""ArrowLeft""]","value training","canyon","26","{""ArrowUp,ArrowLeft"":26,""ArrowUp,ArrowRight"":10,""ArrowDown,ArrowLeft"":5,""ArrowDown,ArrowRight"":17}","true","ArrowUp,ArrowLeft","false","revaluation","1","90","","",""
"html-keyboard-response","208","879784","0.0-4.0-2.0-1.45","spark_pilot_norest","10038","8","18","Male","","","","","","","null","<div style=""font-size:60px;"">+</div>","null","fixation","","","","","","","","","91","","",""
"revaluation","209","885803","0.0-4.0-2.0-0.46","spark_pilot_norest","10038","8","18","Male","","false","","","","","[644.5,358.7000000476837]","./assets/img/canyon/memory/0.jpg","[""ArrowUp"",""ArrowLeft""]","value training","canyon","26","{""ArrowUp,ArrowLeft"":26,""ArrowUp,ArrowRight"":10,""ArrowDown,ArrowLeft"":5,""ArrowDown,ArrowRight"":17}","true","ArrowUp,ArrowLeft","false","revaluation","1","92","","",""
"html-keyboard-response","210","886306","0.0-4.0-2.0-1.46","spark_pilot_norest","10038","8","18","Male","","","","","","","null","<div style=""font-size:60px;"">+</div>","null","fixation","","","","","","","","","93","","",""
"revaluation","211","892317","0.0-4.0-2.0-0.47","spark_pilot_norest","10038","8","18","Male","","false","","","","","[790.2000000476837,469.7999999523163]","./assets/img/canyon/memory/4.jpg","[""ArrowUp"",""ArrowLeft""]","value training","canyon","26","{""ArrowUp,ArrowLeft"":26,""ArrowUp,ArrowRight"":10,""ArrowDown,ArrowLeft"":5,""ArrowDown,ArrowRight"":17}","true","ArrowUp,ArrowLeft","false","revaluation","1","94","","",""
"html-keyboard-response","212","892819","0.0-4.0-2.0-1.47","spark_pilot_norest","10038","8","18","Male","","","","","","","null","<div style=""font-size:60px;"">+</div>","null","fixation","","","","","","","","","95","","",""
"revaluation","213","898835","0.0-4.0-2.0-0.48","spark_pilot_norest","10038","8","18","Male","","false","","","","","[788.1000001430511,453.90000009536743]","./assets/img/canyon/memory/10.jpg","[""ArrowUp"",""ArrowLeft""]","value training","canyon","26","{""ArrowUp,ArrowLeft"":26,""ArrowUp,ArrowRight"":10,""ArrowDown,ArrowLeft"":5,""ArrowDown,ArrowRight"":17}","true","ArrowUp,ArrowLeft","false","revaluation","1","96","","",""
"html-keyboard-response","214","899337","0.0-4.0-2.0-1.48","spark_pilot_norest","10038","8","18","Male","","","","","","","null","<div style=""font-size:60px;"">+</div>","null","fixation","","","","","","","","","97","","",""
"revaluation","215","905348","0.0-4.0-2.0-0.49","spark_pilot_norest","10038","8","18","Male","","false","","","","","[671.7999999523163,390.5]","./assets/img/canyon/memory/30.jpg","[""ArrowUp"",""ArrowLeft""]","value training","canyon","26","{""ArrowUp,ArrowLeft"":26,""ArrowUp,ArrowRight"":10,""ArrowDown,ArrowLeft"":5,""ArrowDown,ArrowRight"":17}","true","ArrowUp,ArrowLeft","false","revaluation","1","98","","",""
"html-keyboard-response","216","905851","0.0-4.0-2.0-1.49","spark_pilot_norest","10038","8","18","Male","","","","","","","null","<div style=""font-size:60px;"">+</div>","null","fixation","","","","","","","","","99","","",""
"learning-instructions","217","919931","0.0-4.0-3.0-0.0","spark_pilot_norest","10038","8","18","Male","","","","","","","1148.3999998569489","<p> Now, you will travel with a friend who will choose whether you go up or down first. </p>
            <p> On these turns, you will just see the animal that they found. You will still get to choose which chest to search for treasure.</p>","","instructions","","","","","","","","","","","",""
"revaluation","218","923952","0.0-4.0-4.0-0.0","spark_pilot_norest","10038","8","18","Male","","false","","","","","[848.9000000953674]","./assets/img/canyon/animals/giraffe.jpg","[""ArrowLeft""]","revaluation","canyon","8","{""ArrowUp,ArrowLeft"":2,""ArrowUp,ArrowRight"":11,""ArrowDown,ArrowLeft"":8,""ArrowDown,ArrowRight"":27}","false","ArrowDown,ArrowLeft","","revaluation","1","0","","",""
"html-keyboard-response","219","924470","0.0-4.0-4.0-1.0","spark_pilot_norest","10038","8","18","Male","","","","","","","null","<div style=""font-size:60px;"">+</div>","null","fixation","","","","","","","","","1","","",""
"revaluation","220","928484","0.0-4.0-4.0-0.1","spark_pilot_norest","10038","8","18","Male","","false","","","","","[954.2000000476837]","./assets/img/canyon/animals/giraffe.jpg","[""ArrowRight""]","revaluation","canyon","27","{""ArrowUp,ArrowLeft"":2,""ArrowUp,ArrowRight"":11,""ArrowDown,ArrowLeft"":8,""ArrowDown,ArrowRight"":27}","true","ArrowDown,ArrowRight","","revaluation","1","2","","",""
"html-keyboard-response","221","928990","0.0-4.0-4.0-1.1","spark_pilot_norest","10038","8","18","Male","","","","","","","null","<div style=""font-size:60px;"">+</div>","null","fixation","","","","","","","","","3","","",""
"revaluation","222","933012","0.0-4.0-4.0-0.2","spark_pilot_norest","10038","8","18","Male","","false","","","","","[799.5]","./assets/img/canyon/animals/giraffe.jpg","[""ArrowRight""]","revaluation","canyon","27","{""ArrowUp,ArrowLeft"":2,""ArrowUp,ArrowRight"":11,""ArrowDown,ArrowLeft"":8,""ArrowDown,ArrowRight"":27}","true","ArrowDown,ArrowRight","","revaluation","1","4","","",""
"html-keyboard-response","223","933522","0.0-4.0-4.0-1.2","spark_pilot_norest","10038","8","18","Male","","","","","","","null","<div style=""font-size:60px;"">+</div>","null","fixation","","","","","","","","","5","","",""
"revaluation","224","937541","0.0-4.0-4.0-0.3","spark_pilot_norest","10038","8","18","Male","","false","","","","","[487.2000000476837]","./assets/img/canyon/animals/lion.jpg","[""ArrowLeft""]","revaluation","canyon","2","{""ArrowUp,ArrowLeft"":2,""ArrowUp,ArrowRight"":11,""ArrowDown,ArrowLeft"":8,""ArrowDown,ArrowRight"":27}","false","ArrowUp,ArrowLeft","","revaluation","1","6","","",""
"html-keyboard-response","225","938050","0.0-4.0-4.0-1.3","spark_pilot_norest","10038","8","18","Male","","","","","","","null","<div style=""font-size:60px;"">+</div>","null","fixation","","","","","","","","","7","","",""
"revaluation","226","942071","0.0-4.0-4.0-0.4","spark_pilot_norest","10038","8","18","Male","","false","","","","","[619]","./assets/img/canyon/animals/lion.jpg","[""ArrowRight""]","revaluation","canyon","11","{""ArrowUp,ArrowLeft"":2,""ArrowUp,ArrowRight"":11,""ArrowDown,ArrowLeft"":8,""ArrowDown,ArrowRight"":27}","true","ArrowUp,ArrowRight","","revaluation","1","8","","",""
"html-keyboard-response","227","942581","0.0-4.0-4.0-1.4","spark_pilot_norest","10038","8","18","Male","","","","","","","null","<div style=""font-size:60px;"">+</div>","null","fixation","","","","","","","","","9","","",""
"revaluation","228","946601","0.0-4.0-4.0-0.5","spark_pilot_norest","10038","8","18","Male","","false","","","","","[688.2999999523163]","./assets/img/canyon/animals/lion.jpg","[""ArrowRight""]","revaluation","canyon","11","{""ArrowUp,ArrowLeft"":2,""ArrowUp,ArrowRight"":11,""ArrowDown,ArrowLeft"":8,""ArrowDown,ArrowRight"":27}","true","ArrowUp,ArrowRight","","revaluation","1","10","","",""
"html-keyboard-response","229","947110","0.0-4.0-4.0-1.5","spark_pilot_norest","10038","8","18","Male","","","","","","","null","<div style=""font-size:60px;"">+</div>","null","fixation","","","","","","","","","11","","",""
"revaluation","230","951119","0.0-4.0-4.0-0.6","spark_pilot_norest","10038","8","18","Male","","false","","","","","[410.2999999523163]","./assets/img/canyon/animals/giraffe.jpg","[""ArrowRight""]","revaluation","canyon","27","{""ArrowUp,ArrowLeft"":2,""ArrowUp,ArrowRight"":11,""ArrowDown,ArrowLeft"":8,""ArrowDown,ArrowRight"":27}","true","ArrowDown,ArrowRight","","revaluation","1","12","","",""
"html-keyboard-response","231","951622","0.0-4.0-4.0-1.6","spark_pilot_norest","10038","8","18","Male","","","","","","","null","<div style=""font-size:60px;"">+</div>","null","fixation","","","","","","","","","13","","",""
"revaluation","232","955632","0.0-4.0-4.0-0.7","spark_pilot_norest","10038","8","18","Male","","false","","","","","[503.5]","./assets/img/canyon/animals/lion.jpg","[""ArrowRight""]","revaluation","canyon","11","{""ArrowUp,ArrowLeft"":2,""ArrowUp,ArrowRight"":11,""ArrowDown,ArrowLeft"":8,""ArrowDown,ArrowRight"":27}","true","ArrowUp,ArrowRight","","revaluation","1","14","","",""
"html-keyboard-response","233","956134","0.0-4.0-4.0-1.7","spark_pilot_norest","10038","8","18","Male","","","","","","","null","<div style=""font-size:60px;"">+</div>","null","fixation","","","","","","","","","15","","",""
"revaluation","234","960143","0.0-4.0-4.0-0.8","spark_pilot_norest","10038","8","18","Male","","false","","","","","[404]","./assets/img/canyon/animals/giraffe.jpg","[""ArrowRight""]","revaluation","canyon","27","{""ArrowUp,ArrowLeft"":2,""ArrowUp,ArrowRight"":11,""ArrowDown,ArrowLeft"":8,""ArrowDown,ArrowRight"":27}","true","ArrowDown,ArrowRight","","revaluation","1","16","","",""
"html-keyboard-response","235","960648","0.0-4.0-4.0-1.8","spark_pilot_norest","10038","8","18","Male","","","","","","","null","<div style=""font-size:60px;"">+</div>","null","fixation","","","","","","","","","17","","",""
"revaluation","236","964658","0.0-4.0-4.0-0.9","spark_pilot_norest","10038","8","18","Male","","false","","","","","[455.5]","./assets/img/canyon/animals/giraffe.jpg","[""ArrowRight""]","revaluation","canyon","27","{""ArrowUp,ArrowLeft"":2,""ArrowUp,ArrowRight"":11,""ArrowDown,ArrowLeft"":8,""ArrowDown,ArrowRight"":27}","true","ArrowDown,ArrowRight","","revaluation","1","18","","",""
"html-keyboard-response","237","965161","0.0-4.0-4.0-1.9","spark_pilot_norest","10038","8","18","Male","","","","","","","null","<div style=""font-size:60px;"">+</div>","null","fixation","","","","","","","","","19","","",""
"revaluation","238","969169","0.0-4.0-4.0-0.10","spark_pilot_norest","10038","8","18","Male","","false","","","","","[359.7999999523163]","./assets/img/canyon/animals/lion.jpg","[""ArrowRight""]","revaluation","canyon","11","{""ArrowUp,ArrowLeft"":2,""ArrowUp,ArrowRight"":11,""ArrowDown,ArrowLeft"":8,""ArrowDown,ArrowRight"":27}","true","ArrowUp,ArrowRight","","revaluation","1","20","","",""
"html-keyboard-response","239","969671","0.0-4.0-4.0-1.10","spark_pilot_norest","10038","8","18","Male","","","","","","","null","<div style=""font-size:60px;"">+</div>","null","fixation","","","","","","","","","21","","",""
"revaluation","240","973680","0.0-4.0-4.0-0.11","spark_pilot_norest","10038","8","18","Male","","false","","","","","[254.69999980926514]","./assets/img/canyon/animals/lion.jpg","[""ArrowRight""]","revaluation","canyon","11","{""ArrowUp,ArrowLeft"":2,""ArrowUp,ArrowRight"":11,""ArrowDown,ArrowLeft"":8,""ArrowDown,ArrowRight"":27}","true","ArrowUp,ArrowRight","","revaluation","1","22","","",""
"html-keyboard-response","241","974182","0.0-4.0-4.0-1.11","spark_pilot_norest","10038","8","18","Male","","","","","","","null","<div style=""font-size:60px;"">+</div>","null","fixation","","","","","","","","","23","","",""
"revaluation","242","978187","0.0-4.0-4.0-0.12","spark_pilot_norest","10038","8","18","Male","","false","","","","","[324.40000009536743]","./assets/img/canyon/animals/giraffe.jpg","[""ArrowRight""]","revaluation","canyon","27","{""ArrowUp,ArrowLeft"":2,""ArrowUp,ArrowRight"":11,""ArrowDown,ArrowLeft"":8,""ArrowDown,ArrowRight"":27}","true","ArrowDown,ArrowRight","","revaluation","1","24","","",""
"html-keyboard-response","243","978696","0.0-4.0-4.0-1.12","spark_pilot_norest","10038","8","18","Male","","","","","","","null","<div style=""font-size:60px;"">+</div>","null","fixation","","","","","","","","","25","","",""
"revaluation","244","982715","0.0-4.0-4.0-0.13","spark_pilot_norest","10038","8","18","Male","","false","","","","","[348.90000009536743]","./assets/img/canyon/animals/lion.jpg","[""ArrowRight""]","revaluation","canyon","11","{""ArrowUp,ArrowLeft"":2,""ArrowUp,ArrowRight"":11,""ArrowDown,ArrowLeft"":8,""ArrowDown,ArrowRight"":27}","true","ArrowUp,ArrowRight","","revaluation","1","26","","",""
"html-keyboard-response","245","983217","0.0-4.0-4.0-1.13","spark_pilot_norest","10038","8","18","Male","","","","","","","null","<div style=""font-size:60px;"">+</div>","null","fixation","","","","","","","","","27","","",""
"revaluation","246","987228","0.0-4.0-4.0-0.14","spark_pilot_norest","10038","8","18","Male","","false","","","","","[208.79999995231628]","./assets/img/canyon/animals/giraffe.jpg","[""ArrowRight""]","revaluation","canyon","27","{""ArrowUp,ArrowLeft"":2,""ArrowUp,ArrowRight"":11,""ArrowDown,ArrowLeft"":8,""ArrowDown,ArrowRight"":27}","true","ArrowDown,ArrowRight","","revaluation","1","28","","",""
"html-keyboard-response","247","987731","0.0-4.0-4.0-1.14","spark_pilot_norest","10038","8","18","Male","","","","","","","null","<div style=""font-size:60px;"">+</div>","null","fixation","","","","","","","","","29","","",""
"revaluation","248","991741","0.0-4.0-4.0-0.15","spark_pilot_norest","10038","8","18","Male","","false","","","","","[423.40000009536743]","./assets/img/canyon/animals/lion.jpg","[""ArrowRight""]","revaluation","canyon","11","{""ArrowUp,ArrowLeft"":2,""ArrowUp,ArrowRight"":11,""ArrowDown,ArrowLeft"":8,""ArrowDown,ArrowRight"":27}","true","ArrowUp,ArrowRight","","revaluation","1","30","","",""
"html-keyboard-response","249","992243","0.0-4.0-4.0-1.15","spark_pilot_norest","10038","8","18","Male","","","","","","","null","<div style=""font-size:60px;"">+</div>","null","fixation","","","","","","","","","31","","",""
"revaluation","250","996252","0.0-4.0-4.0-0.16","spark_pilot_norest","10038","8","18","Male","","false","","","","","[540.2000000476837]","./assets/img/canyon/animals/lion.jpg","[""ArrowLeft""]","revaluation","canyon","2","{""ArrowUp,ArrowLeft"":2,""ArrowUp,ArrowRight"":11,""ArrowDown,ArrowLeft"":8,""ArrowDown,ArrowRight"":27}","false","ArrowUp,ArrowLeft","","revaluation","1","32","","",""
"html-keyboard-response","251","996754","0.0-4.0-4.0-1.16","spark_pilot_norest","10038","8","18","Male","","","","","","","null","<div style=""font-size:60px;"">+</div>","null","fixation","","","","","","","","","33","","",""
"revaluation","252","1000764","0.0-4.0-4.0-0.17","spark_pilot_norest","10038","8","18","Male","","false","","","","","[364.69999980926514]","./assets/img/canyon/animals/giraffe.jpg","[""ArrowRight""]","revaluation","canyon","27","{""ArrowUp,ArrowLeft"":2,""ArrowUp,ArrowRight"":11,""ArrowDown,ArrowLeft"":8,""ArrowDown,ArrowRight"":27}","true","ArrowDown,ArrowRight","","revaluation","1","34","","",""
"html-keyboard-response","253","1001266","0.0-4.0-4.0-1.17","spark_pilot_norest","10038","8","18","Male","","","","","","","null","<div style=""font-size:60px;"">+</div>","null","fixation","","","","","","","","","35","","",""
"learning-instructions","254","1009423","0.0-4.0-5.0-0.0","spark_pilot_norest","10038","8","18","Male","","","","","","","null","<p> You have almost finished this part of the game! </p>
            <p> We are going to ask you to make a few more choices. </p>","","instructions","","","","","","","","","","","",""
"learning-instructions","255","1025410","0.0-4.0-5.0-0.1","spark_pilot_norest","10038","8","18","Male","","","","","","","null","<p> First, you need to decide whether to go up or down. When you see each picture, use the arrow keys to make your choice. </p>
            <p><b>You will not see which animal you found, but try to get to the one that will give you the most treasure.</b></p>","","instructions","","","","","","","","","","","",""
"html-keyboard-response","256","1026420","0.0-4.0-6.0-0.0","spark_pilot_norest","10038","8","18","Male","","","","","","","null","<div style=""font-size:100px;color:red;"">Starting in...</div>","null","","","","","","","","","","","","",""
"html-keyboard-response","257","1027431","0.0-4.0-6.0-1.0","spark_pilot_norest","10038","8","18","Male","","","","","","","null","<div style=""font-size:200px;color:red;"">3</div>","null","","","","","","","","","","","","",""
"html-keyboard-response","258","1028441","0.0-4.0-6.0-2.0","spark_pilot_norest","10038","8","18","Male","","","","","","","null","<div style=""font-size:200px;color:red;"">2</div>","null","","","","","","","","","","","","",""
"html-keyboard-response","259","1029450","0.0-4.0-6.0-3.0","spark_pilot_norest","10038","8","18","Male","","","","","","","null","<div style=""font-size:200px;color:red;"">1</div>","null","","","","","","","","","","","","",""
"revaluation","260","1030147","0.0-4.0-7.0-0.0","spark_pilot_norest","10038","8","18","Male","","false","","","","","[689]","./assets/img/canyon/test/0.jpg","[""ArrowUp""]","first stage test","canyon","0","{""ArrowUp,ArrowLeft"":2,""ArrowUp,ArrowRight"":11,""ArrowDown,ArrowLeft"":8,""ArrowDown,ArrowRight"":27}","false","ArrowUp","false","revaluation","1","","","",""
"html-keyboard-response","261","1030659","0.0-4.0-7.0-1.0","spark_pilot_norest","10038","8","18","Male","","","","","","","null","<div style=""font-size:60px;"">+</div>","null","fixation","","","","","","","","","","","",""
"revaluation","262","1031357","0.0-4.0-7.0-0.1","spark_pilot_norest","10038","8","18","Male","","false","","","","","[688.7000000476837]","./assets/img/canyon/test/3.jpg","[""ArrowUp""]","first stage test","canyon","0","{""ArrowUp,ArrowLeft"":2,""ArrowUp,ArrowRight"":11,""ArrowDown,ArrowLeft"":8,""ArrowDown,ArrowRight"":27}","false","ArrowUp","false","revaluation","1","","","",""
"html-keyboard-response","263","1031870","0.0-4.0-7.0-1.1","spark_pilot_norest","10038","8","18","Male","","","","","","","null","<div style=""font-size:60px;"">+</div>","null","fixation","","","","","","","","","","","",""
"revaluation","264","1032208","0.0-4.0-7.0-0.2","spark_pilot_norest","10038","8","18","Male","","false","","","","","[331.5]","./assets/img/canyon/test/1.jpg","[""ArrowUp""]","first stage test","canyon","0","{""ArrowUp,ArrowLeft"":2,""ArrowUp,ArrowRight"":11,""ArrowDown,ArrowLeft"":8,""ArrowDown,ArrowRight"":27}","false","ArrowUp","false","revaluation","1","","","",""
"html-keyboard-response","265","1032710","0.0-4.0-7.0-1.2","spark_pilot_norest","10038","8","18","Male","","","","","","","null","<div style=""font-size:60px;"">+</div>","null","fixation","","","","","","","","","","","",""
"revaluation","266","1033127","0.0-4.0-7.0-0.3","spark_pilot_norest","10038","8","18","Male","","false","","","","","[413.7999999523163]","./assets/img/canyon/test/2.jpg","[""ArrowUp""]","first stage test","canyon","0","{""ArrowUp,ArrowLeft"":2,""ArrowUp,ArrowRight"":11,""ArrowDown,ArrowLeft"":8,""ArrowDown,ArrowRight"":27}","false","ArrowUp","false","revaluation","1","","","",""
"html-keyboard-response","267","1033632","0.0-4.0-7.0-1.3","spark_pilot_norest","10038","8","18","Male","","","","","","","null","<div style=""font-size:60px;"">+</div>","null","fixation","","","","","","","","","","","",""
"learning-instructions","268","1046981","0.0-4.0-8.0-0.0","spark_pilot_norest","10038","8","18","Male","","","","","","","null","<p> Now you will see the animals again and can search their chests for treasure. </p>
            <p> This time, you will not see how much treasure you earned, but you will earn more bonus money for making better choices. </p>","","instructions","","","","","","","","","","","",""
"html-keyboard-response","269","1047990","0.0-4.0-9.0-0.0","spark_pilot_norest","10038","8","18","Male","","","","","","","null","<div style=""font-size:100px;color:red;"">Starting in...</div>","null","","","","","","","","","","","","",""
"html-keyboard-response","270","1049000","0.0-4.0-9.0-1.0","spark_pilot_norest","10038","8","18","Male","","","","","","","null","<div style=""font-size:200px;color:red;"">3</div>","null","","","","","","","","","","","","",""
"html-keyboard-response","271","1050010","0.0-4.0-9.0-2.0","spark_pilot_norest","10038","8","18","Male","","","","","","","null","<div style=""font-size:200px;color:red;"">2</div>","null","","","","","","","","","","","","",""
"html-keyboard-response","272","1051021","0.0-4.0-9.0-3.0","spark_pilot_norest","10038","8","18","Male","","","","","","","null","<div style=""font-size:200px;color:red;"">1</div>","null","","","","","","","","","","","","",""
"revaluation","273","1051788","0.0-4.0-10.0-0.0","spark_pilot_norest","10038","8","18","Male","","false","","","","","[759.8999998569489]","./assets/img/canyon/animals/lion.jpg","[""ArrowLeft""]","second stage test","canyon","0","{""ArrowUp,ArrowLeft"":2,""ArrowUp,ArrowRight"":11,""ArrowDown,ArrowLeft"":8,""ArrowDown,ArrowRight"":27}","false","ArrowUp,ArrowLeft","","revaluation","1","","","",""
"html-keyboard-response","274","1052290","0.0-4.0-10.0-1.0","spark_pilot_norest","10038","8","18","Male","","","","","","","null","<div style=""font-size:60px;"">+</div>","null","fixation","","","","","","","","","","","",""
"revaluation","275","1052765","0.0-4.0-10.0-0.1","spark_pilot_norest","10038","8","18","Male","","false","","","","","[468]","./assets/img/canyon/animals/lion.jpg","[""ArrowRight""]","second stage test","canyon","0","{""ArrowUp,ArrowLeft"":2,""ArrowUp,ArrowRight"":11,""ArrowDown,ArrowLeft"":8,""ArrowDown,ArrowRight"":27}","true","ArrowUp,ArrowRight","","revaluation","1","","","",""
"html-keyboard-response","276","1053270","0.0-4.0-10.0-1.1","spark_pilot_norest","10038","8","18","Male","","","","","","","null","<div style=""font-size:60px;"">+</div>","null","fixation","","","","","","","","","","","",""
"revaluation","277","1053750","0.0-4.0-10.0-0.2","spark_pilot_norest","10038","8","18","Male","","false","","","","","[472]","./assets/img/canyon/animals/lion.jpg","[""ArrowLeft""]","second stage test","canyon","0","{""ArrowUp,ArrowLeft"":2,""ArrowUp,ArrowRight"":11,""ArrowDown,ArrowLeft"":8,""ArrowDown,ArrowRight"":27}","false","ArrowUp,ArrowLeft","","revaluation","1","","","",""
"html-keyboard-response","278","1054260","0.0-4.0-10.0-1.2","spark_pilot_norest","10038","8","18","Male","","","","","","","null","<div style=""font-size:60px;"">+</div>","null","fixation","","","","","","","","","","","",""
"revaluation","279","1054641","0.0-4.0-10.0-0.3","spark_pilot_norest","10038","8","18","Male","","false","","","","","[372.5]","./assets/img/canyon/animals/lion.jpg","[""ArrowRight""]","second stage test","canyon","0","{""ArrowUp,ArrowLeft"":2,""ArrowUp,ArrowRight"":11,""ArrowDown,ArrowLeft"":8,""ArrowDown,ArrowRight"":27}","true","ArrowUp,ArrowRight","","revaluation","1","","","",""
"html-keyboard-response","280","1055150","0.0-4.0-10.0-1.3","spark_pilot_norest","10038","8","18","Male","","","","","","","null","<div style=""font-size:60px;"">+</div>","null","fixation","","","","","","","","","","","",""
"revaluation","281","1055647","0.0-4.0-10.0-0.4","spark_pilot_norest","10038","8","18","Male","","false","","","","","[490]","./assets/img/canyon/animals/giraffe.jpg","[""ArrowLeft""]","second stage test","canyon","0","{""ArrowUp,ArrowLeft"":2,""ArrowUp,ArrowRight"":11,""ArrowDown,ArrowLeft"":8,""ArrowDown,ArrowRight"":27}","false","ArrowDown,ArrowLeft","","revaluation","1","","","",""
"html-keyboard-response","282","1056150","0.0-4.0-10.0-1.4","spark_pilot_norest","10038","8","18","Male","","","","","","","null","<div style=""font-size:60px;"">+</div>","null","fixation","","","","","","","","","","","",""
"revaluation","283","1056428","0.0-4.0-10.0-0.5","spark_pilot_norest","10038","8","18","Male","","false","","","","","[270.10000014305115]","./assets/img/canyon/animals/giraffe.jpg","[""ArrowRight""]","second stage test","canyon","0","{""ArrowUp,ArrowLeft"":2,""ArrowUp,ArrowRight"":11,""ArrowDown,ArrowLeft"":8,""ArrowDown,ArrowRight"":27}","true","ArrowDown,ArrowRight","","revaluation","1","","","",""
"html-keyboard-response","284","1056931","0.0-4.0-10.0-1.5","spark_pilot_norest","10038","8","18","Male","","","","","","","null","<div style=""font-size:60px;"">+</div>","null","fixation","","","","","","","","","","","",""
"revaluation","285","1057326","0.0-4.0-10.0-0.6","spark_pilot_norest","10038","8","18","Male","","false","","","","","[388]","./assets/img/canyon/animals/giraffe.jpg","[""ArrowLeft""]","second stage test","canyon","0","{""ArrowUp,ArrowLeft"":2,""ArrowUp,ArrowRight"":11,""ArrowDown,ArrowLeft"":8,""ArrowDown,ArrowRight"":27}","false","ArrowDown,ArrowLeft","","revaluation","1","","","",""
"html-keyboard-response","286","1057829","0.0-4.0-10.0-1.6","spark_pilot_norest","10038","8","18","Male","","","","","","","null","<div style=""font-size:60px;"">+</div>","null","fixation","","","","","","","","","","","",""
"revaluation","287","1058122","0.0-4.0-10.0-0.7","spark_pilot_norest","10038","8","18","Male","","false","","","","","[285.2999999523163]","./assets/img/canyon/animals/giraffe.jpg","[""ArrowRight""]","second stage test","canyon","0","{""ArrowUp,ArrowLeft"":2,""ArrowUp,ArrowRight"":11,""ArrowDown,ArrowLeft"":8,""ArrowDown,ArrowRight"":27}","true","ArrowDown,ArrowRight","","revaluation","1","","","",""
"html-keyboard-response","288","1058630","0.0-4.0-10.0-1.7","spark_pilot_norest","10038","8","18","Male","","","","","","","null","<div style=""font-size:60px;"">+</div>","null","fixation","","","","","","","","","","","",""
"learning-instructions","289","1064673","0.0-4.0-0.1-0.2","spark_pilot_norest","10038","8","18","Male","","","","","","","3300.7000000476837","<p> This time you are searching for treasure in the <b>ocean</b>.</p>","","instructions","","","","","","","","","","","",""
"learning-instructions","290","1087155","0.0-4.0-0.1-0.3","spark_pilot_norest","10038","8","18","Male","","","","","","","5232.599999904633","<p><b>New</b> animals with <b>new</b> treasure chests live here. You need to explore to discover where the animal with the best treasure chest is.</p>
                    <p> Like before, once you figure out which animal has the chest with the most treasure, you should try to get to that animal and select that chest! </p>","","instructions","","","","","","","","","","","",""
"learning-instructions","291","1106860","0.0-4.0-1.1-0.1","spark_pilot_norest","10038","8","18","Male","","","","","","","4977.799999952316","<p> Remember, when you see a picture of the place, use the up and down keys to <b>find an animal</b>.</p>
            <p> When you encounter an animal, you should use the left and right keys to <b>select a treasure chest</b>.</p>
            <p> Don't forget to look out for the robber! </p>","","instructions","","","","","","","","","","","",""
"revaluation","292","1110880","0.0-4.0-2.1-0.50","spark_pilot_norest","10038","8","18","Male","","true","","","","","[]","./assets/img/ocean/catch/4.jpg","[]","value training","ocean","-5","{""ArrowUp,ArrowLeft"":23,""ArrowUp,ArrowRight"":10,""ArrowDown,ArrowLeft"":8,""ArrowDown,ArrowRight"":30}","false","","true","original","2","0","","",""
"html-keyboard-response","293","1111390","0.0-4.0-2.1-1.50","spark_pilot_norest","10038","8","18","Male","","","","","","","null","<div style=""font-size:60px;"">+</div>","null","fixation","","","","","","","","","1","","",""
"revaluation","294","1115411","0.0-4.0-2.1-0.51","spark_pilot_norest","10038","8","18","Male","","true","","","","","[]","./assets/img/ocean/memory/21.jpg","[]","value training","ocean","-5","{""ArrowUp,ArrowLeft"":23,""ArrowUp,ArrowRight"":10,""ArrowDown,ArrowLeft"":8,""ArrowDown,ArrowRight"":30}","false","","false","original","2","2","","",""
"html-keyboard-response","295","1115920","0.0-4.0-2.1-1.51","spark_pilot_norest","10038","8","18","Male","","","","","","","null","<div style=""font-size:60px;"">+</div>","null","fixation","","","","","","","","","3","","",""
"revaluation","296","1119941","0.0-4.0-2.1-0.52","spark_pilot_norest","10038","8","18","Male","","true","","","","","[]","./assets/img/ocean/catch/5.jpg","[]","value training","ocean","-5","{""ArrowUp,ArrowLeft"":23,""ArrowUp,ArrowRight"":10,""ArrowDown,ArrowLeft"":8,""ArrowDown,ArrowRight"":30}","false","","true","original","2","4","","",""
"html-keyboard-response","297","1120450","0.0-4.0-2.1-1.52","spark_pilot_norest","10038","8","18","Male","","","","","","","null","<div style=""font-size:60px;"">+</div>","null","fixation","","","","","","","","","5","","",""
"revaluation","298","1124471","0.0-4.0-2.1-0.53","spark_pilot_norest","10038","8","18","Male","","true","","","","","[]","./assets/img/ocean/memory/8.jpg","[]","value training","ocean","-5","{""ArrowUp,ArrowLeft"":23,""ArrowUp,ArrowRight"":10,""ArrowDown,ArrowLeft"":8,""ArrowDown,ArrowRight"":30}","false","","false","original","2","6","","",""
"html-keyboard-response","299","1124980","0.0-4.0-2.1-1.53","spark_pilot_norest","10038","8","18","Male","","","","","","","null","<div style=""font-size:60px;"">+</div>","null","fixation","","","","","","","","","7","","",""
"revaluation","300","1131010","0.0-4.0-2.1-0.54","spark_pilot_norest","10038","8","18","Male","","false","","","","","[792,415.2999999523163]","./assets/img/ocean/memory/6.jpg","[""ArrowUp"",""ArrowLeft""]","value training","ocean","23","{""ArrowUp,ArrowLeft"":23,""ArrowUp,ArrowRight"":10,""ArrowDown,ArrowLeft"":8,""ArrowDown,ArrowRight"":30}","false","ArrowUp,ArrowLeft","false","original","2","8","","",""
"html-keyboard-response","301","1131519","0.0-4.0-2.1-1.54","spark_pilot_norest","10038","8","18","Male","","","","","","","null","<div style=""font-size:60px;"">+</div>","null","fixation","","","","","","","","","9","","",""
"revaluation","302","1135528","0.0-4.0-2.1-0.55","spark_pilot_norest","10038","8","18","Male","","false","","","","","[1091.3999998569489]","./assets/img/ocean/catch/6.jpg","[""spaceBar""]","value training","ocean","0","{""ArrowUp,ArrowLeft"":23,""ArrowUp,ArrowRight"":10,""ArrowDown,ArrowLeft"":8,""ArrowDown,ArrowRight"":30}","true","spaceBar","true","original","2","10","","",""
"html-keyboard-response","303","1136031","0.0-4.0-2.1-1.55","spark_pilot_norest","10038","8","18","Male","","","","","","","null","<div style=""font-size:60px;"">+</div>","null","fixation","","","","","","","","","11","","",""
"revaluation","304","1142042","0.0-4.0-2.1-0.56","spark_pilot_norest","10038","8","18","Male","","false","","","","","[261.2000000476837,233.79999995231628]","./assets/img/ocean/memory/18.jpg","[""ArrowUp"",""ArrowRight""]","value training","ocean","10","{""ArrowUp,ArrowLeft"":23,""ArrowUp,ArrowRight"":10,""ArrowDown,ArrowLeft"":8,""ArrowDown,ArrowRight"":30}","false","ArrowUp,ArrowRight","false","original","2","12","","",""
"html-keyboard-response","305","1142544","0.0-4.0-2.1-1.56","spark_pilot_norest","10038","8","18","Male","","","","","","","null","<div style=""font-size:60px;"">+</div>","null","fixation","","","","","","","","","13","","",""
"revaluation","306","1148555","0.0-4.0-2.1-0.57","spark_pilot_norest","10038","8","18","Male","","false","","","","","[82.90000009536743,215]","./assets/img/ocean/memory/6.jpg","[""ArrowDown"",""ArrowLeft""]","value training","ocean","8","{""ArrowUp,ArrowLeft"":23,""ArrowUp,ArrowRight"":10,""ArrowDown,ArrowLeft"":8,""ArrowDown,ArrowRight"":30}","false","ArrowDown,ArrowLeft","false","original","2","14","","",""
"html-keyboard-response","307","1149057","0.0-4.0-2.1-1.57","spark_pilot_norest","10038","8","18","Male","","","","","","","null","<div style=""font-size:60px;"">+</div>","null","fixation","","","","","","","","","15","","",""
"revaluation","308","1155067","0.0-4.0-2.1-0.58","spark_pilot_norest","10038","8","18","Male","","false","","","","","[262.2999999523163,476.5]","./assets/img/ocean/memory/19.jpg","[""ArrowDown"",""ArrowRight""]","value training","ocean","30","{""ArrowUp,ArrowLeft"":23,""ArrowUp,ArrowRight"":10,""ArrowDown,ArrowLeft"":8,""ArrowDown,ArrowRight"":30}","true","ArrowDown,ArrowRight","false","original","2","16","","",""
"html-keyboard-response","309","1155569","0.0-4.0-2.1-1.58","spark_pilot_norest","10038","8","18","Male","","","","","","","null","<div style=""font-size:60px;"">+</div>","null","fixation","","","","","","","","","17","","",""
"revaluation","310","1161579","0.0-4.0-2.1-0.59","spark_pilot_norest","10038","8","18","Male","","false","","","","","[350.2999999523163,229.30000019073486]","./assets/img/ocean/memory/41.jpg","[""ArrowDown"",""ArrowRight""]","value training","ocean","30","{""ArrowUp,ArrowLeft"":23,""ArrowUp,ArrowRight"":10,""ArrowDown,ArrowLeft"":8,""ArrowDown,ArrowRight"":30}","true","ArrowDown,ArrowRight","false","original","2","18","","",""
"html-keyboard-response","311","1162082","0.0-4.0-2.1-1.59","spark_pilot_norest","10038","8","18","Male","","","","","","","null","<div style=""font-size:60px;"">+</div>","null","fixation","","","","","","","","","19","","",""
"revaluation","312","1168093","0.0-4.0-2.1-0.60","spark_pilot_norest","10038","8","18","Male","","false","","","","","[419.7000000476837,298.90000009536743]","./assets/img/ocean/memory/5.jpg","[""ArrowDown"",""ArrowRight""]","value training","ocean","30","{""ArrowUp,ArrowLeft"":23,""ArrowUp,ArrowRight"":10,""ArrowDown,ArrowLeft"":8,""ArrowDown,ArrowRight"":30}","true","ArrowDown,ArrowRight","false","original","2","20","","",""
"html-keyboard-response","313","1168595","0.0-4.0-2.1-1.60","spark_pilot_norest","10038","8","18","Male","","","","","","","null","<div style=""font-size:60px;"">+</div>","null","fixation","","","","","","","","","21","","",""
