"trial_type","trial_index","time_elapsed","internal_node_id","task_version","subject_id","assigned_condition","age","gender","browser_interaction","success","timeout","failed_images","failed_audio","failed_video","rt","stimulus","response","task_part","environment","score","rewardMap","correct","fullState","isCatch","condition","order","trial_num","key_press","ground_truth","bonus"
"pavlovia","0","1185","0.0-0.0","spark_pilot_norest","8778","6","22","Female","[{""event"":""blur"",""trial"":1,""time"":3984},{""event"":""focus"",""trial"":1,""time"":12135},{""event"":""blur"",""trial"":1,""time"":13149},{""event"":""focus"",""trial"":2,""time"":37651},{""event"":""blur"",""trial"":2,""time"":38500},{""event"":""focus"",""trial"":2,""time"":63117},{""event"":""fullscreenenter"",""trial"":2,""time"":64186}]","","","","","","","","","","","","","","","","","","","","",""
"preload","1","22566","0.0-1.0","spark_pilot_norest","8778","6","22","Female","[{""event"":""blur"",""trial"":1,""time"":3984},{""event"":""focus"",""trial"":1,""time"":12135},{""event"":""blur"",""trial"":1,""time"":13149},{""event"":""focus"",""trial"":2,""time"":37651},{""event"":""blur"",""trial"":2,""time"":38500},{""event"":""focus"",""trial"":2,""time"":63117},{""event"":""fullscreenenter"",""trial"":2,""time"":64186}]","true","false","[]","[]","[]","","","","","","","","","","","","","","","",""
"fullscreen","2","64981","0.0-2.0","spark_pilot_norest","8778","6","22","Female","","true","","","","","","","","","","","","","","","","","","","",""
"audio-button-response","3","66342","0.0-3.0-0.0-0.0","spark_pilot_norest","8778","6","22","Female","","","","","","","1259","./assets/audio/audiotest/turtle.mp3","2","audio_test","","","","","","","","","","","",""
"learning-instructions","4","81689","0.0-3.0-1.0-0.0","spark_pilot_norest","8778","6","22","Female","","","","","","","8339","<p> Welcome! Please remember to stay in fullscreen mode and don't click away from the experiment. </p>","","instructions","","","","","","","","","","","",""
"learning-instructions","5","91823","0.0-3.0-1.0-0.1","spark_pilot_norest","8778","6","22","Female","","","","","","","1682","<p> Today you will be playing a game to earn treasure. </p>
            <p> At the end of the experiment, you will earn a bonus based on how much treasure you find. </p>
            <img src='./assets/img/instructions/treasure.jpg' class='instructions-image'>","","instructions","","","","","","","","","","","",""
"learning-instructions","6","102757","0.0-3.0-1.0-0.2","spark_pilot_norest","8778","6","22","Female","","","","","","","2634","<p> Animals have hidden treasure in treasure chests. </p>
            <p> You need to first find an animal and then choose which of their treasure chests to search. </p>
            <img src='./assets/img/space/animals/cat.jpg' class='instructions-image'>","","instructions","","","","","","","","","","","",""
"learning-instructions","7","119443","0.0-3.0-1.0-0.3","spark_pilot_norest","8778","6","22","Female","","","","","","","3491","<p> In each round, you will search for treasure in a different place. In the real game, there will be two rounds. </p>
            <p> You will begin with a separate, practice round where you will search for treasure in outer space. </p>
            <img src='./assets/img/space/0.jpg' class='instructions-image'>","","instructions","","","","","","","","","","","",""
"learning-instructions","8","132043","0.0-3.0-1.0-0.4","spark_pilot_norest","8778","6","22","Female","","","","","","","1146","<p> On every turn, you will see a picture of the place that you are in, but the specific image may be different each time. </p>
            <p> For example, both of these images mean you are in outer space. </p>
            <img src='./assets/img/instructions/outerspace.jpg' class='instructions-image'>","","instructions","","","","","","","","","","","",""
"learning-instructions","9","141159","0.0-3.0-1.0-0.5","spark_pilot_norest","8778","6","22","Female","","","","","","","1248","<p> You need to decide which direction to travel in. </p>
            <p> You can choose between going <b>up or down</b> by using the arrow keys. </p>
            <img src='./assets/img/instructions/updown.jpg' class='instructions-image'>","","instructions","","","","","","","","","","","",""
"learning-instructions","10","151260","0.0-3.0-1.0-0.6","spark_pilot_norest","8778","6","22","Female","","","","","","","1248","<p> You will have <b>2 seconds</b> to make your choice. </p>
            <p> If you do not make a choice within 2 seconds, you will not find an animal or earn treasure. </p>
            <img src='./assets/img/instructions/2seconds.jpg' class='instructions-image'>","","instructions","","","","","","","","","","","",""
"learning-instructions","11","159488","0.0-3.0-1.0-0.7","spark_pilot_norest","8778","6","22","Female","","","","","","","1147","<p> Let’s try practicing that now! </p>
            <p> When you see a picture of the place you are in, press the <b>up</b> key to travel up. </p>
            <img src='./assets/img/instructions/pressUp.jpg' class='instructions-image'>","","instructions","","","","","","","","","","","",""
"revaluation","12","163506","0.0-3.0-2.0-0.0","spark_pilot_norest","8778","6","22","Female","","","false","","","","[794]","./assets/img/space/0.jpg","[""ArrowUp""]","first stage practice","space","0","null","null","ArrowUp","false","","","","","",""
"html-keyboard-response","13","164013","0.0-3.0-2.0-1.0","spark_pilot_norest","8778","6","22","Female","","","","","","","null","<div style=""font-size:60px;"">+</div>","null","fixation","","","","","","","","","","","",""
"revaluation","14","168028","0.0-3.0-2.0-0.1","spark_pilot_norest","8778","6","22","Female","","","false","","","","[877]","./assets/img/space/1.jpg","[""ArrowUp""]","first stage practice","space","0","null","null","ArrowUp","false","","","","","",""
"html-keyboard-response","15","168531","0.0-3.0-2.0-1.1","spark_pilot_norest","8778","6","22","Female","","","","","","","null","<div style=""font-size:60px;"">+</div>","null","fixation","","","","","","","","","","","",""
"revaluation","16","172547","0.0-3.0-2.0-0.2","spark_pilot_norest","8778","6","22","Female","","","false","","","","[495]","./assets/img/space/2.jpg","[""ArrowUp""]","first stage practice","space","0","null","null","ArrowUp","false","","","","","",""
"html-keyboard-response","17","173053","0.0-3.0-2.0-1.2","spark_pilot_norest","8778","6","22","Female","","","","","","","null","<div style=""font-size:60px;"">+</div>","null","fixation","","","","","","","","","","","",""
"learning-instructions","18","178724","0.0-3.0-3.0-0.0","spark_pilot_norest","8778","6","22","Female","","","","","","","937","<p> Great job! Now try pressing the <b>down</b> key to travel down. </p>
            <img src='./assets/img/instructions/pressDown.jpg' class='instructions-image'>","","instructions","","","","","","","","","","","",""
"revaluation","19","182736","0.0-3.0-4.0-0.0","spark_pilot_norest","8778","6","22","Female","","","false","","","","[692]","./assets/img/space/3.jpg","[""ArrowDown""]","first stage practice","space","0","null","null","ArrowDown","false","","","","","",""
"html-keyboard-response","20","183239","0.0-3.0-4.0-1.0","spark_pilot_norest","8778","6","22","Female","","","","","","","null","<div style=""font-size:60px;"">+</div>","null","fixation","","","","","","","","","","","",""
"revaluation","21","187254","0.0-3.0-4.0-0.1","spark_pilot_norest","8778","6","22","Female","","","false","","","","[493]","./assets/img/space/4.jpg","[""ArrowDown""]","first stage practice","space","0","null","null","ArrowDown","false","","","","","",""
"html-keyboard-response","22","187756","0.0-3.0-4.0-1.1","spark_pilot_norest","8778","6","22","Female","","","","","","","null","<div style=""font-size:60px;"">+</div>","null","fixation","","","","","","","","","","","",""
"revaluation","23","191771","0.0-3.0-4.0-0.2","spark_pilot_norest","8778","6","22","Female","","","false","","","","[679]","./assets/img/space/5.jpg","[""ArrowDown""]","first stage practice","space","0","null","null","ArrowDown","false","","","","","",""
"html-keyboard-response","24","192278","0.0-3.0-4.0-1.2","spark_pilot_norest","8778","6","22","Female","","","","","","","null","<div style=""font-size:60px;"">+</div>","null","fixation","","","","","","","","","","","",""
"learning-instructions","25","206508","0.0-3.0-5.0-0.0","spark_pilot_norest","8778","6","22","Female","","","","","","","4326","<p> The animals don’t move, so the animal in the upper part of a place will stay in the upper part of a place, and the animal in the lower part of a place will stay in the lower part of a place. </p>","","instructions","","","","","","","","","","","",""
"learning-instructions","26","217221","0.0-3.0-5.0-0.1","spark_pilot_norest","8778","6","22","Female","","","","","","","1536","<p> Each animal has two treasure chests for you to choose from. </p>
            <p> The amount of treasure in each chest can range from <b> 0 to 40 pieces.</b></p>","","instructions","","","","","","","","","","","",""
"learning-instructions","27","229309","0.0-3.0-5.0-0.2","spark_pilot_norest","8778","6","22","Female","","","","","","","844","<p> You should decide which chest to search for treasure by using the <b>left</b> and <b>right</b> arrow keys. </p>
            <p><b> Pay attention to which animal is on the screen, as the animals have different treasure chests. </b></p>
            <img src='./assets/img/instructions/leftright.jpg' class='instructions-image'>","","instructions","","","","","","","","","","","",""
"learning-instructions","28","236358","0.0-3.0-5.0-0.3","spark_pilot_norest","8778","6","22","Female","","","","","","","652","<p> Let’s try practicing that now. </p>
            <p> When you see an animal, choose which chest to search for treasure. </p>
            <img src='./assets/img/instructions/chooseChest.jpg' class='instructions-image'>","","instructions","","","","","","","","","","","",""
"revaluation","29","240369","0.0-3.0-6.0-0.0","spark_pilot_norest","8778","6","22","Female","","","false","","","","[1006]","./assets/img/space/animals/rabbit.jpg","[""ArrowLeft""]","second stage practice","space","15","{""ArrowUp,ArrowLeft"":3,""ArrowUp,ArrowRight"":36,""ArrowDown,ArrowLeft"":15,""ArrowDown,ArrowRight"":23}","false","ArrowDown,ArrowLeft","","","","","","",""
"html-keyboard-response","30","240875","0.0-3.0-6.0-1.0","spark_pilot_norest","8778","6","22","Female","","","","","","","null","<div style=""font-size:60px;"">+</div>","null","fixation","","","","","","","","","","","",""
"revaluation","31","244890","0.0-3.0-6.0-0.1","spark_pilot_norest","8778","6","22","Female","","","false","","","","[832]","./assets/img/space/animals/cat.jpg","[""ArrowRight""]","second stage practice","space","36","{""ArrowUp,ArrowLeft"":3,""ArrowUp,ArrowRight"":36,""ArrowDown,ArrowLeft"":15,""ArrowDown,ArrowRight"":23}","true","ArrowUp,ArrowRight","","","","","","",""
"html-keyboard-response","32","245392","0.0-3.0-6.0-1.1","spark_pilot_norest","8778","6","22","Female","","","","","","","null","<div style=""font-size:60px;"">+</div>","null","fixation","","","","","","","","","","","",""
"revaluation","33","249403","0.0-3.0-6.0-0.2","spark_pilot_norest","8778","6","22","Female","","","false","","","","[506]","./assets/img/space/animals/cat.jpg","[""ArrowRight""]","second stage practice","space","36","{""ArrowUp,ArrowLeft"":3,""ArrowUp,ArrowRight"":36,""ArrowDown,ArrowLeft"":15,""ArrowDown,ArrowRight"":23}","true","ArrowUp,ArrowRight","","","","","","",""
"html-keyboard-response","34","249909","0.0-3.0-6.0-1.2","spark_pilot_norest","8778","6","22","Female","","","","","","","null","<div style=""font-size:60px;"">+</div>","null","fixation","","","","","","","","","","","",""
"revaluation","35","253925","0.0-3.0-6.0-0.3","spark_pilot_norest","8778","6","22","Female","","","false","","","","[984]","./assets/img/space/animals/rabbit.jpg","[""ArrowRight""]","second stage practice","space","23","{""ArrowUp,ArrowLeft"":3,""ArrowUp,ArrowRight"":36,""ArrowDown,ArrowLeft"":15,""ArrowDown,ArrowRight"":23}","true","ArrowDown,ArrowRight","","","","","","",""
"html-keyboard-response","36","254431","0.0-3.0-6.0-1.3","spark_pilot_norest","8778","6","22","Female","","","","","","","null","<div style=""font-size:60px;"">+</div>","null","fixation","","","","","","","","","","","",""
"learning-instructions","37","274321","0.0-3.0-7.0-0.0","spark_pilot_norest","8778","6","22","Female","","","","","","","3010","<p> Great job. Now let’s try putting it together. </p>
            <p> On each turn, you will first see a picture to remind you of the place you are in, and you need to choose whether to go up or down. </p>
            <p> Then you will see an animal and choose which of its chests to search for treasure. </p>","","instructions","","","","","","","","","","","",""
"learning-instructions","38","285008","0.0-3.0-7.0-0.1","spark_pilot_norest","8778","6","22","Female","","","","","","","2391","<p> When you choose whether to go up or down, try to go to the animal with the chest with the most treasure. </p>
            <p> Try practicing that now! </p>","","instructions","","","","","","","","","","","",""
"revaluation","39","291023","0.0-3.0-8.0-0.0","spark_pilot_norest","8778","6","22","Female","","","false","","","","[1049,651]","./assets/img/space/6.jpg","[""ArrowUp"",""ArrowRight""]","full practice","space","36","{""ArrowUp,ArrowLeft"":3,""ArrowUp,ArrowRight"":36,""ArrowDown,ArrowLeft"":15,""ArrowDown,ArrowRight"":23}","true","ArrowUp,ArrowRight","false","","","","","",""
"html-keyboard-response","40","291531","0.0-3.0-8.0-1.0","spark_pilot_norest","8778","6","22","Female","","","","","","","null","<div style=""font-size:60px;"">+</div>","null","fixation","","","","","","","","","","","",""
"revaluation","41","297551","0.0-3.0-8.0-0.1","spark_pilot_norest","8778","6","22","Female","","","false","","","","[993,908]","./assets/img/space/7.jpg","[""ArrowUp"",""ArrowLeft""]","full practice","space","3","{""ArrowUp,ArrowLeft"":3,""ArrowUp,ArrowRight"":36,""ArrowDown,ArrowLeft"":15,""ArrowDown,ArrowRight"":23}","false","ArrowUp,ArrowLeft","false","","","","","",""
"html-keyboard-response","42","298057","0.0-3.0-8.0-1.1","spark_pilot_norest","8778","6","22","Female","","","","","","","null","<div style=""font-size:60px;"">+</div>","null","fixation","","","","","","","","","","","",""
"revaluation","43","304068","0.0-3.0-8.0-0.2","spark_pilot_norest","8778","6","22","Female","","","false","","","","[763,1027]","./assets/img/space/8.jpg","[""ArrowDown"",""ArrowRight""]","full practice","space","23","{""ArrowUp,ArrowLeft"":3,""ArrowUp,ArrowRight"":36,""ArrowDown,ArrowLeft"":15,""ArrowDown,ArrowRight"":23}","false","ArrowDown,ArrowRight","false","","","","","",""
"html-keyboard-response","44","304575","0.0-3.0-8.0-1.2","spark_pilot_norest","8778","6","22","Female","","","","","","","null","<div style=""font-size:60px;"">+</div>","null","fixation","","","","","","","","","","","",""
"revaluation","45","310586","0.0-3.0-8.0-0.3","spark_pilot_norest","8778","6","22","Female","","","false","","","","[537,472]","./assets/img/space/9.jpg","[""ArrowUp"",""ArrowRight""]","full practice","space","36","{""ArrowUp,ArrowLeft"":3,""ArrowUp,ArrowRight"":36,""ArrowDown,ArrowLeft"":15,""ArrowDown,ArrowRight"":23}","true","ArrowUp,ArrowRight","false","","","","","",""
"html-keyboard-response","46","311090","0.0-3.0-8.0-1.3","spark_pilot_norest","8778","6","22","Female","","","","","","","null","<div style=""font-size:60px;"">+</div>","null","fixation","","","","","","","","","","","",""
"revaluation","47","317106","0.0-3.0-8.0-0.4","spark_pilot_norest","8778","6","22","Female","","","false","","","","[471,531]","./assets/img/space/10.jpg","[""ArrowUp"",""ArrowRight""]","full practice","space","36","{""ArrowUp,ArrowLeft"":3,""ArrowUp,ArrowRight"":36,""ArrowDown,ArrowLeft"":15,""ArrowDown,ArrowRight"":23}","true","ArrowUp,ArrowRight","false","","","","","",""
"html-keyboard-response","48","317612","0.0-3.0-8.0-1.4","spark_pilot_norest","8778","6","22","Female","","","","","","","null","<div style=""font-size:60px;"">+</div>","null","fixation","","","","","","","","","","","",""
"learning-instructions","49","332090","0.0-3.0-9.0-0.0","spark_pilot_norest","8778","6","22","Female","","","","","","","4118","<p> One last thing: sometimes, you will see a robber. The robber can be anywhere in the picture. </p>
            <p> If you do not stop them, you will lose treasure. </p>
            <img src='./assets/img/instructions/robber.jpg' class='instructions-image'>","","instructions","","","","","","","","","","","",""
"learning-instructions","50","341221","0.0-3.0-9.0-0.1","spark_pilot_norest","8778","6","22","Female","","","","","","","1921","<p> If you see the robber, you should <b>press the space bar</b> rather than using the arrow keys. </p>
            <p> Try practicing that now! </p>","","instructions","","","","","","","","","","","",""
"revaluation","51","345235","0.0-3.0-10.0-0.0","spark_pilot_norest","8778","6","22","Female","","","false","","","","[797]","./assets/img/space/catch/0.jpg","[""spaceBar""]","catch practice","space","0","{""ArrowUp,ArrowLeft"":3,""ArrowUp,ArrowRight"":36,""ArrowDown,ArrowLeft"":15,""ArrowDown,ArrowRight"":23}","true","spaceBar","true","","","","","",""
"html-keyboard-response","52","345742","0.0-3.0-10.0-1.0","spark_pilot_norest","8778","6","22","Female","","","","","","","null","<div style=""font-size:60px;"">+</div>","null","fixation","","","","","","","","","","","",""
"revaluation","53","349757","0.0-3.0-10.0-0.1","spark_pilot_norest","8778","6","22","Female","","","false","","","","[616]","./assets/img/space/catch/1.jpg","[""spaceBar""]","catch practice","space","0","{""ArrowUp,ArrowLeft"":3,""ArrowUp,ArrowRight"":36,""ArrowDown,ArrowLeft"":15,""ArrowDown,ArrowRight"":23}","true","spaceBar","true","","","","","",""
"html-keyboard-response","54","350264","0.0-3.0-10.0-1.1","spark_pilot_norest","8778","6","22","Female","","","","","","","null","<div style=""font-size:60px;"">+</div>","null","fixation","","","","","","","","","","","",""
"revaluation","55","354272","0.0-3.0-10.0-0.2","spark_pilot_norest","8778","6","22","Female","","","false","","","","[543]","./assets/img/space/catch/2.jpg","[""spaceBar""]","catch practice","space","0","{""ArrowUp,ArrowLeft"":3,""ArrowUp,ArrowRight"":36,""ArrowDown,ArrowLeft"":15,""ArrowDown,ArrowRight"":23}","true","spaceBar","true","","","","","",""
"html-keyboard-response","56","354778","0.0-3.0-10.0-1.2","spark_pilot_norest","8778","6","22","Female","","","","","","","null","<div style=""font-size:60px;"">+</div>","null","fixation","","","","","","","","","","","",""
"learning-instructions","57","360672","0.0-3.0-11.0-0.0-0.0","spark_pilot_norest","8778","6","22","Female","","","","","","","595","<p> Now, you will practice a shortened version of the game to get a sense of how it all fits together. </p>","","instructions","","","","","","","","","","","",""
"learning-instructions","58","365056","0.0-3.0-11.0-0.0-0.1","spark_pilot_norest","8778","6","22","Female","","","","","","","1159","<p>This time you are searching for treasure in outer space.</p>","","instructions","","","","","","","","","","","",""
"learning-instructions","59","383525","0.0-3.0-11.0-1.0-0.0","spark_pilot_norest","8778","6","22","Female","","","","","","","3649","<p> Remember, when you see a picture of the place, use the up and down keys to <b>find an animal</b>.</p>
            <p> When you encounter an animal, you should use the left and right keys to <b>select a treasure chest</b>.</p>
            <p> Don't forget to look out for the robber! </p>","","instructions","","","","","","","","","","","",""
"revaluation","60","389534","0.0-3.0-11.0-2.0-0.0","spark_pilot_norest","8778","6","22","Female","","","false","","","","[808,681]","./assets/img/space/11.jpg","[""ArrowUp"",""ArrowRight""]","practice block","space","36","{""ArrowUp,ArrowLeft"":3,""ArrowUp,ArrowRight"":36,""ArrowDown,ArrowLeft"":15,""ArrowDown,ArrowRight"":23}","true","ArrowUp,ArrowRight","false","","","","","",""
"html-keyboard-response","61","390041","0.0-3.0-11.0-2.0-1.0","spark_pilot_norest","8778","6","22","Female","","","","","","","null","<div style=""font-size:60px;"">+</div>","null","fixation","","","","","","","","","","","",""
"revaluation","62","396061","0.0-3.0-11.0-2.0-0.1","spark_pilot_norest","8778","6","22","Female","","","false","","","","[925,590]","./assets/img/space/12.jpg","[""ArrowUp"",""ArrowRight""]","practice block","space","36","{""ArrowUp,ArrowLeft"":3,""ArrowUp,ArrowRight"":36,""ArrowDown,ArrowLeft"":15,""ArrowDown,ArrowRight"":23}","true","ArrowUp,ArrowRight","false","","","","","",""
"html-keyboard-response","63","396568","0.0-3.0-11.0-2.0-1.1","spark_pilot_norest","8778","6","22","Female","","","","","","","null","<div style=""font-size:60px;"">+</div>","null","fixation","","","","","","","","","","","",""
"revaluation","64","402586","0.0-3.0-11.0-2.0-0.2","spark_pilot_norest","8778","6","22","Female","","","false","","","","[678,686]","./assets/img/space/13.jpg","[""ArrowUp"",""ArrowRight""]","practice block","space","36","{""ArrowUp,ArrowLeft"":3,""ArrowUp,ArrowRight"":36,""ArrowDown,ArrowLeft"":15,""ArrowDown,ArrowRight"":23}","true","ArrowUp,ArrowRight","false","","","","","",""
"html-keyboard-response","65","403092","0.0-3.0-11.0-2.0-1.2","spark_pilot_norest","8778","6","22","Female","","","","","","","null","<div style=""font-size:60px;"">+</div>","null","fixation","","","","","","","","","","","",""
"revaluation","66","409113","0.0-3.0-11.0-2.0-0.3","spark_pilot_norest","8778","6","22","Female","","","false","","","","[698,488]","./assets/img/space/14.jpg","[""ArrowUp"",""ArrowRight""]","practice block","space","36","{""ArrowUp,ArrowLeft"":3,""ArrowUp,ArrowRight"":36,""ArrowDown,ArrowLeft"":15,""ArrowDown,ArrowRight"":23}","true","ArrowUp,ArrowRight","false","","","","","",""
"html-keyboard-response","67","409619","0.0-3.0-11.0-2.0-1.3","spark_pilot_norest","8778","6","22","Female","","","","","","","null","<div style=""font-size:60px;"">+</div>","null","fixation","","","","","","","","","","","",""
"revaluation","68","415639","0.0-3.0-11.0-2.0-0.4","spark_pilot_norest","8778","6","22","Female","","","false","","","","[839,525]","./assets/img/space/11.jpg","[""ArrowUp"",""ArrowRight""]","practice block","space","36","{""ArrowUp,ArrowLeft"":3,""ArrowUp,ArrowRight"":36,""ArrowDown,ArrowLeft"":15,""ArrowDown,ArrowRight"":23}","true","ArrowUp,ArrowRight","false","","","","","",""
"html-keyboard-response","69","416146","0.0-3.0-11.0-2.0-1.4","spark_pilot_norest","8778","6","22","Female","","","","","","","null","<div style=""font-size:60px;"">+</div>","null","fixation","","","","","","","","","","","",""
"revaluation","70","422164","0.0-3.0-11.0-2.0-0.5","spark_pilot_norest","8778","6","22","Female","","","false","","","","[788,761]","./assets/img/space/12.jpg","[""ArrowUp"",""ArrowRight""]","practice block","space","36","{""ArrowUp,ArrowLeft"":3,""ArrowUp,ArrowRight"":36,""ArrowDown,ArrowLeft"":15,""ArrowDown,ArrowRight"":23}","true","ArrowUp,ArrowRight","false","","","","","",""
"html-keyboard-response","71","422671","0.0-3.0-11.0-2.0-1.5","spark_pilot_norest","8778","6","22","Female","","","","","","","null","<div style=""font-size:60px;"">+</div>","null","fixation","","","","","","","","","","","",""
"revaluation","72","428683","0.0-3.0-11.0-2.0-0.6","spark_pilot_norest","8778","6","22","Female","","","false","","","","[637,559]","./assets/img/space/13.jpg","[""ArrowUp"",""ArrowRight""]","practice block","space","36","{""ArrowUp,ArrowLeft"":3,""ArrowUp,ArrowRight"":36,""ArrowDown,ArrowLeft"":15,""ArrowDown,ArrowRight"":23}","true","ArrowUp,ArrowRight","false","","","","","",""
"html-keyboard-response","73","429189","0.0-3.0-11.0-2.0-1.6","spark_pilot_norest","8778","6","22","Female","","","","","","","null","<div style=""font-size:60px;"">+</div>","null","fixation","","","","","","","","","","","",""
"revaluation","74","435210","0.0-3.0-11.0-2.0-0.7","spark_pilot_norest","8778","6","22","Female","","","false","","","","[804,587]","./assets/img/space/14.jpg","[""ArrowUp"",""ArrowRight""]","practice block","space","36","{""ArrowUp,ArrowLeft"":3,""ArrowUp,ArrowRight"":36,""ArrowDown,ArrowLeft"":15,""ArrowDown,ArrowRight"":23}","true","ArrowUp,ArrowRight","false","","","","","",""
"html-keyboard-response","75","435717","0.0-3.0-11.0-2.0-1.7","spark_pilot_norest","8778","6","22","Female","","","","","","","null","<div style=""font-size:60px;"">+</div>","null","fixation","","","","","","","","","","","",""
"revaluation","76","439727","0.0-3.0-11.0-2.0-0.8","spark_pilot_norest","8778","6","22","Female","","","false","","","","[881]","./assets/img/space/catch/3.jpg","[""spaceBar""]","practice block","space","0","{""ArrowUp,ArrowLeft"":3,""ArrowUp,ArrowRight"":36,""ArrowDown,ArrowLeft"":15,""ArrowDown,ArrowRight"":23}","true","spaceBar","true","","","","","",""
"html-keyboard-response","77","440234","0.0-3.0-11.0-2.0-1.8","spark_pilot_norest","8778","6","22","Female","","","","","","","null","<div style=""font-size:60px;"">+</div>","null","fixation","","","","","","","","","","","",""
"learning-instructions","78","454303","0.0-3.0-11.0-3.0-0.0","spark_pilot_norest","8778","6","22","Female","","","","","","","1094","<p> Now, you will travel with a friend who will choose whether you go up or down first. </p>
            <p> On these turns, you will just see the animal that they found. You will still get to choose which chest to search for treasure.</p>","","instructions","","","","","","","","","","","",""
"revaluation","79","458317","0.0-3.0-11.0-4.0-0.0","spark_pilot_norest","8778","6","22","Female","","","false","","","","[657]","./assets/img/space/animals/cat.jpg","[""ArrowRight""]","practice block","space","36","{""ArrowUp,ArrowLeft"":3,""ArrowUp,ArrowRight"":36,""ArrowDown,ArrowLeft"":15,""ArrowDown,ArrowRight"":23}","true","ArrowUp,ArrowRight","","","","","","",""
"html-keyboard-response","80","458823","0.0-3.0-11.0-4.0-1.0","spark_pilot_norest","8778","6","22","Female","","","","","","","null","<div style=""font-size:60px;"">+</div>","null","fixation","","","","","","","","","","","",""
"revaluation","81","462838","0.0-3.0-11.0-4.0-0.1","spark_pilot_norest","8778","6","22","Female","","","false","","","","[483]","./assets/img/space/animals/rabbit.jpg","[""ArrowRight""]","practice block","space","23","{""ArrowUp,ArrowLeft"":3,""ArrowUp,ArrowRight"":36,""ArrowDown,ArrowLeft"":15,""ArrowDown,ArrowRight"":23}","true","ArrowDown,ArrowRight","","","","","","",""
"html-keyboard-response","82","463345","0.0-3.0-11.0-4.0-1.1","spark_pilot_norest","8778","6","22","Female","","","","","","","null","<div style=""font-size:60px;"">+</div>","null","fixation","","","","","","","","","","","",""
"revaluation","83","467357","0.0-3.0-11.0-4.0-0.2","spark_pilot_norest","8778","6","22","Female","","","false","","","","[432]","./assets/img/space/animals/rabbit.jpg","[""ArrowRight""]","practice block","space","23","{""ArrowUp,ArrowLeft"":3,""ArrowUp,ArrowRight"":36,""ArrowDown,ArrowLeft"":15,""ArrowDown,ArrowRight"":23}","true","ArrowDown,ArrowRight","","","","","","",""
"html-keyboard-response","84","467863","0.0-3.0-11.0-4.0-1.2","spark_pilot_norest","8778","6","22","Female","","","","","","","null","<div style=""font-size:60px;"">+</div>","null","fixation","","","","","","","","","","","",""
"revaluation","85","471875","0.0-3.0-11.0-4.0-0.3","spark_pilot_norest","8778","6","22","Female","","","false","","","","[433]","./assets/img/space/animals/cat.jpg","[""ArrowRight""]","practice block","space","36","{""ArrowUp,ArrowLeft"":3,""ArrowUp,ArrowRight"":36,""ArrowDown,ArrowLeft"":15,""ArrowDown,ArrowRight"":23}","true","ArrowUp,ArrowRight","","","","","","",""
"html-keyboard-response","86","472382","0.0-3.0-11.0-4.0-1.3","spark_pilot_norest","8778","6","22","Female","","","","","","","null","<div style=""font-size:60px;"">+</div>","null","fixation","","","","","","","","","","","",""
"learning-instructions","87","480545","0.0-3.0-11.0-5.0-0.0","spark_pilot_norest","8778","6","22","Female","","","","","","","null","<p> You have almost finished this part of the game! </p>
            <p> We are going to ask you to make a few more choices. </p>","","instructions","","","","","","","","","","","",""
"learning-instructions","88","496609","0.0-3.0-11.0-5.0-0.1","spark_pilot_norest","8778","6","22","Female","","","","","","","null","<p> First, you need to decide whether to go up or down. When you see each picture, use the arrow keys to make your choice. </p>
            <p><b>You will not see which animal you found, but try to get to the one that will give you the most treasure.</b></p>","","instructions","","","","","","","","","","","",""
"html-keyboard-response","89","497616","0.0-3.0-11.0-6.0-0.0","spark_pilot_norest","8778","6","22","Female","","","","","","","null","<div style=""font-size:100px;color:red;"">Starting in...</div>","null","","","","","","","","","","","","",""
"html-keyboard-response","90","498622","0.0-3.0-11.0-6.0-1.0","spark_pilot_norest","8778","6","22","Female","","","","","","","null","<div style=""font-size:200px;color:red;"">3</div>","null","","","","","","","","","","","","",""
"html-keyboard-response","91","499625","0.0-3.0-11.0-6.0-2.0","spark_pilot_norest","8778","6","22","Female","","","","","","","null","<div style=""font-size:200px;color:red;"">2</div>","null","","","","","","","","","","","","",""
"html-keyboard-response","92","500629","0.0-3.0-11.0-6.0-3.0","spark_pilot_norest","8778","6","22","Female","","","","","","","null","<div style=""font-size:200px;color:red;"">1</div>","null","","","","","","","","","","","","",""
"revaluation","93","501212","0.0-3.0-11.0-7.0","spark_pilot_norest","8778","6","22","Female","","","false","","","","[578]","./assets/img/space/15.jpg","[""ArrowUp""]","practice block","space","0","{""ArrowUp,ArrowLeft"":3,""ArrowUp,ArrowRight"":36,""ArrowDown,ArrowLeft"":15,""ArrowDown,ArrowRight"":23}","true","ArrowUp","false","","","","","",""
"html-keyboard-response","94","501717","0.0-3.0-11.0-8.0","spark_pilot_norest","8778","6","22","Female","","","","","","","null","<div style=""font-size:60px;"">+</div>","null","fixation","","","","","","","","","","","",""
"learning-instructions","95","515148","0.0-3.0-11.0-9.0-0.0","spark_pilot_norest","8778","6","22","Female","","","","","","","null","<p> Now you will see the animals again and can search their chests for treasure. </p>
            <p> This time, you will not see how much treasure you earned, but you will earn more bonus money for making better choices. </p>","","instructions","","","","","","","","","","","",""
"html-keyboard-response","96","516151","0.0-3.0-11.0-10.0-0.0","spark_pilot_norest","8778","6","22","Female","","","","","","","null","<div style=""font-size:100px;color:red;"">Starting in...</div>","null","","","","","","","","","","","","",""
"html-keyboard-response","97","517154","0.0-3.0-11.0-10.0-1.0","spark_pilot_norest","8778","6","22","Female","","","","","","","null","<div style=""font-size:200px;color:red;"">3</div>","null","","","","","","","","","","","","",""
"html-keyboard-response","98","518161","0.0-3.0-11.0-10.0-2.0","spark_pilot_norest","8778","6","22","Female","","","","","","","null","<div style=""font-size:200px;color:red;"">2</div>","null","","","","","","","","","","","","",""
"html-keyboard-response","99","519164","0.0-3.0-11.0-10.0-3.0","spark_pilot_norest","8778","6","22","Female","","","","","","","null","<div style=""font-size:200px;color:red;"">1</div>","null","","","","","","","","","","","","",""
"revaluation","100","519574","0.0-3.0-11.0-11.0-0.0","spark_pilot_norest","8778","6","22","Female","","","false","","","","[405]","./assets/img/space/animals/cat.jpg","[""ArrowRight""]","practice block","space","0","{""ArrowUp,ArrowLeft"":3,""ArrowUp,ArrowRight"":36,""ArrowDown,ArrowLeft"":15,""ArrowDown,ArrowRight"":23}","true","ArrowUp,ArrowRight","","","","","","",""
"html-keyboard-response","101","520080","0.0-3.0-11.0-11.0-1.0","spark_pilot_norest","8778","6","22","Female","","","","","","","null","<div style=""font-size:60px;"">+</div>","null","fixation","","","","","","","","","","","",""
"revaluation","102","520594","0.0-3.0-11.0-11.0-0.1","spark_pilot_norest","8778","6","22","Female","","","false","","","","[509]","./assets/img/space/animals/rabbit.jpg","[""ArrowRight""]","practice block","space","0","{""ArrowUp,ArrowLeft"":3,""ArrowUp,ArrowRight"":36,""ArrowDown,ArrowLeft"":15,""ArrowDown,ArrowRight"":23}","true","ArrowDown,ArrowRight","","","","","","",""
"html-keyboard-response","103","521101","0.0-3.0-11.0-11.0-1.1","spark_pilot_norest","8778","6","22","Female","","","","","","","null","<div style=""font-size:60px;"">+</div>","null","fixation","","","","","","","","","","","",""
"learning-instructions","104","526804","0.0-3.0-12.0-0.0","spark_pilot_norest","8778","6","22","Female","","","","","","","1083","<p> Before you start, we're going to ask you a few questions about how the game works. </p>","","instructions","","","","","","","","","","","",""
"comp-q","105","533436","0.0-3.0-13.0-0.0-0.0","spark_pilot_norest","8778","6","22","Female","","","","","","","1007","<p> <b> True or False? </b> </p>
            <p> There can be 50 pieces of treasure in a given animal's chest. </p>","0","comp_question","","","","false","","","","","","","",""
"comp-q","106","544019","0.0-3.0-13.0-0.0-1.0","spark_pilot_norest","8778","6","22","Female","","","","","","","4016","<p> <b>Incorrect.</b> The amount of treasure in each chest can range from 0 to 40 pieces. </p>","0","comp_answer","","","","","","","","","","","",""
"comp-q","107","554840","0.0-3.0-13.0-0.1-0.1","spark_pilot_norest","8778","6","22","Female","","","","","","","5246","<p> <b> True or False? </b> </p>
            <p> There can be 50 pieces of treasure in a given animal's chest. </p>","1","comp_question","","","","true","","","","","","","",""
"comp-q","108","562862","0.0-3.0-13.0-0.1-1.1","spark_pilot_norest","8778","6","22","Female","","","","","","","1324","<p> <b> That's right! </b> The amount of treasure in each chest can range from 0 to 40 pieces. </p>","0","comp_answer","","","","","","","","","","","",""
"comp-q","109","570533","0.0-3.0-13.0-0.2-0.2","spark_pilot_norest","8778","6","22","Female","","","","","","","512","<p> <b> True or False? </b> </p><p> In this game, all animals have the same amount of treasure in their left and right chests. </p>","1","comp_question","","","","true","","","","","","","",""
"comp-q","110","577851","0.0-3.0-13.0-0.2-1.2","spark_pilot_norest","8778","6","22","Female","","","","","","","2048","<p> <b> That's right! </b> Animals have different amounts of treasure in their treasure chests. </p>","0","comp_answer","","","","","","","","","","","",""
"comp-q","111","585287","0.0-3.0-13.0-0.3-0.3","spark_pilot_norest","8778","6","22","Female","","","","","","","1555","<p> <b> True or False? </b> </p><p> The same animal will always be there if you go up in the same place. </p>","0","comp_question","","","","true","","","","","","","",""
"comp-q","112","593537","0.0-3.0-13.0-0.3-1.3","spark_pilot_norest","8778","6","22","Female","","","","","","","1774","<p> <b> That's right! </b> One animal lives in the upper part and one lives in the lower part of every place. </p>","0","comp_answer","","","","","","","","","","","",""
"comp-q","113","599938","0.0-3.0-13.0-0.4-0.4","spark_pilot_norest","8778","6","22","Female","","","","","","","845","<p> <b> True or False? </b> </p><p> If you see a different picture, it means you are in a new place. </p>","0","comp_question","","","","false","","","","","","","",""
"comp-q","114","613721","0.0-3.0-13.0-0.4-1.4","spark_pilot_norest","8778","6","22","Female","","","","","","","2640","<p> <b>Incorrect.</b> Lots of different images may show the same place. For example,  you may see three different images that all remind you that you are in outer space. </p>","0","comp_answer","","","","","","","","","","","",""
"comp-q","115","633708","0.0-3.0-13.0-0.5-0.5","spark_pilot_norest","8778","6","22","Female","","","","","","","14478","<p> <b> True or False? </b> </p><p> If you see a different picture, it means you are in a new place. </p>","1","comp_question","","","","true","","","","","","","",""
"comp-q","116","646907","0.0-3.0-13.0-0.5-1.5","spark_pilot_norest","8778","6","22","Female","","","","","","","1926","<p> <b> That's right! </b> Lots of different images may show the same place. For example,  you may see three different images that all remind you that you are in outer space. </p>","0","comp_answer","","","","","","","","","","","",""
"learning-instructions","117","657872","0.0-3.0-14.0-0.0","spark_pilot_norest","8778","6","22","Female","","","","","","","1073","<p> Good job. Remember to do your best because the amount of treasure you earn will be converted into bonus money. </p>
            <p> It’s time to start the real game! </p>","","instructions","","","","","","","","","","","",""
"learning-instructions","118","661721","0.0-4.0-0.0-0.0","spark_pilot_norest","8778","6","22","Female","","","","","","","1062","<p> This time you are searching for treasure in the <b>canyon</b>.</p>","","instructions","","","","","","","","","","","",""
"learning-instructions","119","679575","0.0-4.0-0.0-0.1","spark_pilot_norest","8778","6","22","Female","","","","","","","493","<p><b>New</b> animals with <b>new</b> treasure chests live here. You need to explore to discover where the animal with the best treasure chest is.</p>
                    <p> Like before, once you figure out which animal has the chest with the most treasure, you should try to get to that animal and select that chest! </p>","","instructions","","","","","","","","","","","",""
"learning-instructions","120","695737","0.0-4.0-1.0-0.0","spark_pilot_norest","8778","6","22","Female","","","","","","","1424","<p> Remember, when you see a picture of the place, use the up and down keys to <b>find an animal</b>.</p>
            <p> When you encounter an animal, you should use the left and right keys to <b>select a treasure chest</b>.</p>
            <p> Don't forget to look out for the robber! </p>","","instructions","","","","","","","","","","","",""
"revaluation","121","701755","0.0-4.0-2.0-0.0","spark_pilot_norest","8778","6","22","Female","","","false","","","","[1310,440]","./assets/img/canyon/memory/10.jpg","[""ArrowUp"",""ArrowRight""]","value training","canyon","10","{""ArrowUp,ArrowLeft"":23,""ArrowUp,ArrowRight"":10,""ArrowDown,ArrowLeft"":8,""ArrowDown,ArrowRight"":30}","false","ArrowUp,ArrowRight","false","revaluation","1","0","","",""
"html-keyboard-response","122","702262","0.0-4.0-2.0-1.0","spark_pilot_norest","8778","6","22","Female","","","","","","","null","<div style=""font-size:60px;"">+</div>","null","fixation","","","","","","","","","1","","",""
"revaluation","123","706276","0.0-4.0-2.0-0.1","spark_pilot_norest","8778","6","22","Female","","","false","","","","[368]","./assets/img/canyon/catch/6.jpg","[""ArrowUp""]","value training","canyon","-10","{""ArrowUp,ArrowLeft"":23,""ArrowUp,ArrowRight"":10,""ArrowDown,ArrowLeft"":8,""ArrowDown,ArrowRight"":30}","false","ArrowUp","true","revaluation","1","2","","",""
"html-keyboard-response","124","706783","0.0-4.0-2.0-1.1","spark_pilot_norest","8778","6","22","Female","","","","","","","null","<div style=""font-size:60px;"">+</div>","null","fixation","","","","","","","","","3","","",""
"revaluation","125","712799","0.0-4.0-2.0-0.2","spark_pilot_norest","8778","6","22","Female","","","false","","","","[637,518]","./assets/img/canyon/memory/4.jpg","[""ArrowUp"",""ArrowLeft""]","value training","canyon","23","{""ArrowUp,ArrowLeft"":23,""ArrowUp,ArrowRight"":10,""ArrowDown,ArrowLeft"":8,""ArrowDown,ArrowRight"":30}","false","ArrowUp,ArrowLeft","false","revaluation","1","4","","",""
"html-keyboard-response","126","713305","0.0-4.0-2.0-1.2","spark_pilot_norest","8778","6","22","Female","","","","","","","null","<div style=""font-size:60px;"">+</div>","null","fixation","","","","","","","","","5","","",""
"revaluation","127","719324","0.0-4.0-2.0-0.3","spark_pilot_norest","8778","6","22","Female","","","false","","","","[462,955]","./assets/img/canyon/memory/19.jpg","[""ArrowDown"",""ArrowRight""]","value training","canyon","30","{""ArrowUp,ArrowLeft"":23,""ArrowUp,ArrowRight"":10,""ArrowDown,ArrowLeft"":8,""ArrowDown,ArrowRight"":30}","true","ArrowDown,ArrowRight","false","revaluation","1","6","","",""
"html-keyboard-response","128","719827","0.0-4.0-2.0-1.3","spark_pilot_norest","8778","6","22","Female","","","","","","","null","<div style=""font-size:60px;"">+</div>","null","fixation","","","","","","","","","7","","",""
"revaluation","129","725846","0.0-4.0-2.0-0.4","spark_pilot_norest","8778","6","22","Female","","","false","","","","[441,430]","./assets/img/canyon/memory/8.jpg","[""ArrowDown"",""ArrowLeft""]","value training","canyon","8","{""ArrowUp,ArrowLeft"":23,""ArrowUp,ArrowRight"":10,""ArrowDown,ArrowLeft"":8,""ArrowDown,ArrowRight"":30}","false","ArrowDown,ArrowLeft","false","revaluation","1","8","","",""
"html-keyboard-response","130","726353","0.0-4.0-2.0-1.4","spark_pilot_norest","8778","6","22","Female","","","","","","","null","<div style=""font-size:60px;"">+</div>","null","fixation","","","","","","","","","9","","",""
"revaluation","131","732368","0.0-4.0-2.0-0.5","spark_pilot_norest","8778","6","22","Female","","","false","","","","[451,353]","./assets/img/canyon/memory/1.jpg","[""ArrowDown"",""ArrowRight""]","value training","canyon","30","{""ArrowUp,ArrowLeft"":23,""ArrowUp,ArrowRight"":10,""ArrowDown,ArrowLeft"":8,""ArrowDown,ArrowRight"":30}","true","ArrowDown,ArrowRight","false","revaluation","1","10","","",""
"html-keyboard-response","132","732874","0.0-4.0-2.0-1.5","spark_pilot_norest","8778","6","22","Female","","","","","","","null","<div style=""font-size:60px;"">+</div>","null","fixation","","","","","","","","","11","","",""
"revaluation","133","738886","0.0-4.0-2.0-0.6","spark_pilot_norest","8778","6","22","Female","","","false","","","","[515,588]","./assets/img/canyon/memory/13.jpg","[""ArrowDown"",""ArrowRight""]","value training","canyon","30","{""ArrowUp,ArrowLeft"":23,""ArrowUp,ArrowRight"":10,""ArrowDown,ArrowLeft"":8,""ArrowDown,ArrowRight"":30}","true","ArrowDown,ArrowRight","false","revaluation","1","12","","",""
"html-keyboard-response","134","739392","0.0-4.0-2.0-1.6","spark_pilot_norest","8778","6","22","Female","","","","","","","null","<div style=""font-size:60px;"">+</div>","null","fixation","","","","","","","","","13","","",""
"revaluation","135","745413","0.0-4.0-2.0-0.7","spark_pilot_norest","8778","6","22","Female","","","false","","","","[497,600]","./assets/img/canyon/memory/2.jpg","[""ArrowDown"",""ArrowRight""]","value training","canyon","30","{""ArrowUp,ArrowLeft"":23,""ArrowUp,ArrowRight"":10,""ArrowDown,ArrowLeft"":8,""ArrowDown,ArrowRight"":30}","true","ArrowDown,ArrowRight","false","revaluation","1","14","","",""
"html-keyboard-response","136","745918","0.0-4.0-2.0-1.7","spark_pilot_norest","8778","6","22","Female","","","","","","","null","<div style=""font-size:60px;"">+</div>","null","fixation","","","","","","","","","15","","",""
"revaluation","137","751936","0.0-4.0-2.0-0.8","spark_pilot_norest","8778","6","22","Female","","","false","","","","[464,479]","./assets/img/canyon/memory/5.jpg","[""ArrowDown"",""ArrowRight""]","value training","canyon","30","{""ArrowUp,ArrowLeft"":23,""ArrowUp,ArrowRight"":10,""ArrowDown,ArrowLeft"":8,""ArrowDown,ArrowRight"":30}","true","ArrowDown,ArrowRight","false","revaluation","1","16","","",""
"html-keyboard-response","138","752441","0.0-4.0-2.0-1.8","spark_pilot_norest","8778","6","22","Female","","","","","","","null","<div style=""font-size:60px;"">+</div>","null","fixation","","","","","","","","","17","","",""
"revaluation","139","756456","0.0-4.0-2.0-0.9","spark_pilot_norest","8778","6","22","Female","","","false","","","","[699]","./assets/img/canyon/catch/7.jpg","[""spaceBar""]","value training","canyon","0","{""ArrowUp,ArrowLeft"":23,""ArrowUp,ArrowRight"":10,""ArrowDown,ArrowLeft"":8,""ArrowDown,ArrowRight"":30}","true","spaceBar","true","revaluation","1","18","","",""
"html-keyboard-response","140","756963","0.0-4.0-2.0-1.9","spark_pilot_norest","8778","6","22","Female","","","","","","","null","<div style=""font-size:60px;"">+</div>","null","fixation","","","","","","","","","19","","",""
"revaluation","141","762983","0.0-4.0-2.0-0.10","spark_pilot_norest","8778","6","22","Female","","","false","","","","[481,460]","./assets/img/canyon/memory/15.jpg","[""ArrowDown"",""ArrowRight""]","value training","canyon","30","{""ArrowUp,ArrowLeft"":23,""ArrowUp,ArrowRight"":10,""ArrowDown,ArrowLeft"":8,""ArrowDown,ArrowRight"":30}","true","ArrowDown,ArrowRight","false","revaluation","1","20","","",""
"html-keyboard-response","142","763489","0.0-4.0-2.0-1.10","spark_pilot_norest","8778","6","22","Female","","","","","","","null","<div style=""font-size:60px;"">+</div>","null","fixation","","","","","","","","","21","","",""
"revaluation","143","767497","0.0-4.0-2.0-0.11","spark_pilot_norest","8778","6","22","Female","","","false","","","","[646]","./assets/img/canyon/catch/3.jpg","[""spaceBar""]","value training","canyon","0","{""ArrowUp,ArrowLeft"":23,""ArrowUp,ArrowRight"":10,""ArrowDown,ArrowLeft"":8,""ArrowDown,ArrowRight"":30}","true","spaceBar","true","revaluation","1","22","","",""
"html-keyboard-response","144","768004","0.0-4.0-2.0-1.11","spark_pilot_norest","8778","6","22","Female","","","","","","","null","<div style=""font-size:60px;"">+</div>","null","fixation","","","","","","","","","23","","",""
"revaluation","145","774024","0.0-4.0-2.0-0.12","spark_pilot_norest","8778","6","22","Female","","","false","","","","[566,390]","./assets/img/canyon/memory/0.jpg","[""ArrowDown"",""ArrowRight""]","value training","canyon","30","{""ArrowUp,ArrowLeft"":23,""ArrowUp,ArrowRight"":10,""ArrowDown,ArrowLeft"":8,""ArrowDown,ArrowRight"":30}","true","ArrowDown,ArrowRight","false","revaluation","1","24","","",""
"html-keyboard-response","146","774530","0.0-4.0-2.0-1.12","spark_pilot_norest","8778","6","22","Female","","","","","","","null","<div style=""font-size:60px;"">+</div>","null","fixation","","","","","","","","","25","","",""
"revaluation","147","780550","0.0-4.0-2.0-0.13","spark_pilot_norest","8778","6","22","Female","","","false","","","","[529,580]","./assets/img/canyon/memory/11.jpg","[""ArrowDown"",""ArrowRight""]","value training","canyon","30","{""ArrowUp,ArrowLeft"":23,""ArrowUp,ArrowRight"":10,""ArrowDown,ArrowLeft"":8,""ArrowDown,ArrowRight"":30}","true","ArrowDown,ArrowRight","false","revaluation","1","26","","",""
"html-keyboard-response","148","781056","0.0-4.0-2.0-1.13","spark_pilot_norest","8778","6","22","Female","","","","","","","null","<div style=""font-size:60px;"">+</div>","null","fixation","","","","","","","","","27","","",""
"revaluation","149","785071","0.0-4.0-2.0-0.14","spark_pilot_norest","8778","6","22","Female","","","false","","","","[796]","./assets/img/canyon/catch/4.jpg","[""spaceBar""]","value training","canyon","0","{""ArrowUp,ArrowLeft"":23,""ArrowUp,ArrowRight"":10,""ArrowDown,ArrowLeft"":8,""ArrowDown,ArrowRight"":30}","true","spaceBar","true","revaluation","1","28","","",""
"html-keyboard-response","150","785577","0.0-4.0-2.0-1.14","spark_pilot_norest","8778","6","22","Female","","","","","","","null","<div style=""font-size:60px;"">+</div>","null","fixation","","","","","","","","","29","","",""
"revaluation","151","791595","0.0-4.0-2.0-0.15","spark_pilot_norest","8778","6","22","Female","","","false","","","","[618,412]","./assets/img/canyon/memory/3.jpg","[""ArrowDown"",""ArrowRight""]","value training","canyon","30","{""ArrowUp,ArrowLeft"":23,""ArrowUp,ArrowRight"":10,""ArrowDown,ArrowLeft"":8,""ArrowDown,ArrowRight"":30}","true","ArrowDown,ArrowRight","false","revaluation","1","30","","",""
"html-keyboard-response","152","792101","0.0-4.0-2.0-1.15","spark_pilot_norest","8778","6","22","Female","","","","","","","null","<div style=""font-size:60px;"">+</div>","null","fixation","","","","","","","","","31","","",""
"revaluation","153","798122","0.0-4.0-2.0-0.16","spark_pilot_norest","8778","6","22","Female","","","false","","","","[657,338]","./assets/img/canyon/memory/10.jpg","[""ArrowDown"",""ArrowRight""]","value training","canyon","30","{""ArrowUp,ArrowLeft"":23,""ArrowUp,ArrowRight"":10,""ArrowDown,ArrowLeft"":8,""ArrowDown,ArrowRight"":30}","true","ArrowDown,ArrowRight","false","revaluation","1","32","","",""
"html-keyboard-response","154","798626","0.0-4.0-2.0-1.16","spark_pilot_norest","8778","6","22","Female","","","","","","","null","<div style=""font-size:60px;"">+</div>","null","fixation","","","","","","","","","33","","",""
"revaluation","155","804647","0.0-4.0-2.0-0.17","spark_pilot_norest","8778","6","22","Female","","","false","","","","[505,489]","./assets/img/canyon/memory/5.jpg","[""ArrowDown"",""ArrowRight""]","value training","canyon","30","{""ArrowUp,ArrowLeft"":23,""ArrowUp,ArrowRight"":10,""ArrowDown,ArrowLeft"":8,""ArrowDown,ArrowRight"":30}","true","ArrowDown,ArrowRight","false","revaluation","1","34","","",""
"html-keyboard-response","156","805154","0.0-4.0-2.0-1.17","spark_pilot_norest","8778","6","22","Female","","","","","","","null","<div style=""font-size:60px;"">+</div>","null","fixation","","","","","","","","","35","","",""
"revaluation","157","811171","0.0-4.0-2.0-0.18","spark_pilot_norest","8778","6","22","Female","","","false","","","","[739,527]","./assets/img/canyon/memory/16.jpg","[""ArrowDown"",""ArrowRight""]","value training","canyon","30","{""ArrowUp,ArrowLeft"":23,""ArrowUp,ArrowRight"":10,""ArrowDown,ArrowLeft"":8,""ArrowDown,ArrowRight"":30}","true","ArrowDown,ArrowRight","false","revaluation","1","36","","",""
"html-keyboard-response","158","811677","0.0-4.0-2.0-1.18","spark_pilot_norest","8778","6","22","Female","","","","","","","null","<div style=""font-size:60px;"">+</div>","null","fixation","","","","","","","","","37","","",""
"revaluation","159","817693","0.0-4.0-2.0-0.19","spark_pilot_norest","8778","6","22","Female","","","false","","","","[684,559]","./assets/img/canyon/memory/0.jpg","[""ArrowDown"",""ArrowRight""]","value training","canyon","30","{""ArrowUp,ArrowLeft"":23,""ArrowUp,ArrowRight"":10,""ArrowDown,ArrowLeft"":8,""ArrowDown,ArrowRight"":30}","true","ArrowDown,ArrowRight","false","revaluation","1","38","","",""
"html-keyboard-response","160","818200","0.0-4.0-2.0-1.19","spark_pilot_norest","8778","6","22","Female","","","","","","","null","<div style=""font-size:60px;"">+</div>","null","fixation","","","","","","","","","39","","",""
"revaluation","161","824216","0.0-4.0-2.0-0.20","spark_pilot_norest","8778","6","22","Female","","","false","","","","[592,412]","./assets/img/canyon/memory/16.jpg","[""ArrowDown"",""ArrowRight""]","value training","canyon","30","{""ArrowUp,ArrowLeft"":23,""ArrowUp,ArrowRight"":10,""ArrowDown,ArrowLeft"":8,""ArrowDown,ArrowRight"":30}","true","ArrowDown,ArrowRight","false","revaluation","1","40","","",""
"html-keyboard-response","162","824723","0.0-4.0-2.0-1.20","spark_pilot_norest","8778","6","22","Female","","","","","","","null","<div style=""font-size:60px;"">+</div>","null","fixation","","","","","","","","","41","","",""
"revaluation","163","830740","0.0-4.0-2.0-0.21","spark_pilot_norest","8778","6","22","Female","","","false","","","","[531,319]","./assets/img/canyon/memory/17.jpg","[""ArrowDown"",""ArrowRight""]","value training","canyon","30","{""ArrowUp,ArrowLeft"":23,""ArrowUp,ArrowRight"":10,""ArrowDown,ArrowLeft"":8,""ArrowDown,ArrowRight"":30}","true","ArrowDown,ArrowRight","false","revaluation","1","42","","",""
"html-keyboard-response","164","831247","0.0-4.0-2.0-1.21","spark_pilot_norest","8778","6","22","Female","","","","","","","null","<div style=""font-size:60px;"">+</div>","null","fixation","","","","","","","","","43","","",""
"revaluation","165","835261","0.0-4.0-2.0-0.22","spark_pilot_norest","8778","6","22","Female","","","false","","","","[697]","./assets/img/canyon/catch/1.jpg","[""spaceBar""]","value training","canyon","0","{""ArrowUp,ArrowLeft"":23,""ArrowUp,ArrowRight"":10,""ArrowDown,ArrowLeft"":8,""ArrowDown,ArrowRight"":30}","true","spaceBar","true","revaluation","1","44","","",""
"html-keyboard-response","166","835763","0.0-4.0-2.0-1.22","spark_pilot_norest","8778","6","22","Female","","","","","","","null","<div style=""font-size:60px;"">+</div>","null","fixation","","","","","","","","","45","","",""
"revaluation","167","841780","0.0-4.0-2.0-0.23","spark_pilot_norest","8778","6","22","Female","","","false","","","","[670,545]","./assets/img/canyon/memory/12.jpg","[""ArrowDown"",""ArrowRight""]","value training","canyon","30","{""ArrowUp,ArrowLeft"":23,""ArrowUp,ArrowRight"":10,""ArrowDown,ArrowLeft"":8,""ArrowDown,ArrowRight"":30}","true","ArrowDown,ArrowRight","false","revaluation","1","46","","",""
"html-keyboard-response","168","842282","0.0-4.0-2.0-1.23","spark_pilot_norest","8778","6","22","Female","","","","","","","null","<div style=""font-size:60px;"">+</div>","null","fixation","","","","","","","","","47","","",""
"revaluation","169","848296","0.0-4.0-2.0-0.24","spark_pilot_norest","8778","6","22","Female","","","false","","","","[516,443]","./assets/img/canyon/memory/13.jpg","[""ArrowDown"",""ArrowRight""]","value training","canyon","30","{""ArrowUp,ArrowLeft"":23,""ArrowUp,ArrowRight"":10,""ArrowDown,ArrowLeft"":8,""ArrowDown,ArrowRight"":30}","true","ArrowDown,ArrowRight","false","revaluation","1","48","","",""
"html-keyboard-response","170","848798","0.0-4.0-2.0-1.24","spark_pilot_norest","8778","6","22","Female","","","","","","","null","<div style=""font-size:60px;"">+</div>","null","fixation","","","","","","","","","49","","",""
"revaluation","171","852809","0.0-4.0-2.0-0.25","spark_pilot_norest","8778","6","22","Female","","","false","","","","[840]","./assets/img/canyon/catch/5.jpg","[""spaceBar""]","value training","canyon","0","{""ArrowUp,ArrowLeft"":23,""ArrowUp,ArrowRight"":10,""ArrowDown,ArrowLeft"":8,""ArrowDown,ArrowRight"":30}","true","spaceBar","true","revaluation","1","50","","",""
"html-keyboard-response","172","853316","0.0-4.0-2.0-1.25","spark_pilot_norest","8778","6","22","Female","","","","","","","null","<div style=""font-size:60px;"">+</div>","null","fixation","","","","","","","","","51","","",""
"revaluation","173","859336","0.0-4.0-2.0-0.26","spark_pilot_norest","8778","6","22","Female","","","false","","","","[719,552]","./assets/img/canyon/memory/6.jpg","[""ArrowDown"",""ArrowRight""]","value training","canyon","30","{""ArrowUp,ArrowLeft"":23,""ArrowUp,ArrowRight"":10,""ArrowDown,ArrowLeft"":8,""ArrowDown,ArrowRight"":30}","true","ArrowDown,ArrowRight","false","revaluation","1","52","","",""
"html-keyboard-response","174","859842","0.0-4.0-2.0-1.26","spark_pilot_norest","8778","6","22","Female","","","","","","","null","<div style=""font-size:60px;"">+</div>","null","fixation","","","","","","","","","53","","",""
"revaluation","175","865862","0.0-4.0-2.0-0.27","spark_pilot_norest","8778","6","22","Female","","","false","","","","[499,519]","./assets/img/canyon/memory/9.jpg","[""ArrowDown"",""ArrowRight""]","value training","canyon","30","{""ArrowUp,ArrowLeft"":23,""ArrowUp,ArrowRight"":10,""ArrowDown,ArrowLeft"":8,""ArrowDown,ArrowRight"":30}","true","ArrowDown,ArrowRight","false","revaluation","1","54","","",""
"html-keyboard-response","176","866369","0.0-4.0-2.0-1.27","spark_pilot_norest","8778","6","22","Female","","","","","","","null","<div style=""font-size:60px;"">+</div>","null","fixation","","","","","","","","","55","","",""
"revaluation","177","872388","0.0-4.0-2.0-0.28","spark_pilot_norest","8778","6","22","Female","","","false","","","","[828,425]","./assets/img/canyon/memory/2.jpg","[""ArrowDown"",""ArrowRight""]","value training","canyon","30","{""ArrowUp,ArrowLeft"":23,""ArrowUp,ArrowRight"":10,""ArrowDown,ArrowLeft"":8,""ArrowDown,ArrowRight"":30}","true","ArrowDown,ArrowRight","false","revaluation","1","56","","",""
"html-keyboard-response","178","872895","0.0-4.0-2.0-1.28","spark_pilot_norest","8778","6","22","Female","","","","","","","null","<div style=""font-size:60px;"">+</div>","null","fixation","","","","","","","","","57","","",""
"revaluation","179","878913","0.0-4.0-2.0-0.29","spark_pilot_norest","8778","6","22","Female","","","false","","","","[481,389]","./assets/img/canyon/memory/17.jpg","[""ArrowDown"",""ArrowRight""]","value training","canyon","30","{""ArrowUp,ArrowLeft"":23,""ArrowUp,ArrowRight"":10,""ArrowDown,ArrowLeft"":8,""ArrowDown,ArrowRight"":30}","true","ArrowDown,ArrowRight","false","revaluation","1","58","","",""
"html-keyboard-response","180","879419","0.0-4.0-2.0-1.29","spark_pilot_norest","8778","6","22","Female","","","","","","","null","<div style=""font-size:60px;"">+</div>","null","fixation","","","","","","","","","59","","",""
"revaluation","181","885439","0.0-4.0-2.0-0.30","spark_pilot_norest","8778","6","22","Female","","","false","","","","[680,500]","./assets/img/canyon/memory/7.jpg","[""ArrowDown"",""ArrowRight""]","value training","canyon","30","{""ArrowUp,ArrowLeft"":23,""ArrowUp,ArrowRight"":10,""ArrowDown,ArrowLeft"":8,""ArrowDown,ArrowRight"":30}","true","ArrowDown,ArrowRight","false","revaluation","1","60","","",""
"html-keyboard-response","182","885945","0.0-4.0-2.0-1.30","spark_pilot_norest","8778","6","22","Female","","","","","","","null","<div style=""font-size:60px;"">+</div>","null","fixation","","","","","","","","","61","","",""
"revaluation","183","891966","0.0-4.0-2.0-0.31","spark_pilot_norest","8778","6","22","Female","","","false","","","","[815,450]","./assets/img/canyon/memory/15.jpg","[""ArrowDown"",""ArrowRight""]","value training","canyon","30","{""ArrowUp,ArrowLeft"":23,""ArrowUp,ArrowRight"":10,""ArrowDown,ArrowLeft"":8,""ArrowDown,ArrowRight"":30}","true","ArrowDown,ArrowRight","false","revaluation","1","62","","",""
"html-keyboard-response","184","892472","0.0-4.0-2.0-1.31","spark_pilot_norest","8778","6","22","Female","","","","","","","null","<div style=""font-size:60px;"">+</div>","null","fixation","","","","","","","","","63","","",""
"revaluation","185","898489","0.0-4.0-2.0-0.32","spark_pilot_norest","8778","6","22","Female","","","false","","","","[532,359]","./assets/img/canyon/memory/20.jpg","[""ArrowDown"",""ArrowRight""]","value training","canyon","30","{""ArrowUp,ArrowLeft"":23,""ArrowUp,ArrowRight"":10,""ArrowDown,ArrowLeft"":8,""ArrowDown,ArrowRight"":30}","true","ArrowDown,ArrowRight","false","revaluation","1","64","","",""
"html-keyboard-response","186","898996","0.0-4.0-2.0-1.32","spark_pilot_norest","8778","6","22","Female","","","","","","","null","<div style=""font-size:60px;"">+</div>","null","fixation","","","","","","","","","65","","",""
"revaluation","187","903011","0.0-4.0-2.0-0.33","spark_pilot_norest","8778","6","22","Female","","","false","","","","[541]","./assets/img/canyon/catch/2.jpg","[""ArrowDown""]","value training","canyon","-10","{""ArrowUp,ArrowLeft"":23,""ArrowUp,ArrowRight"":10,""ArrowDown,ArrowLeft"":8,""ArrowDown,ArrowRight"":30}","false","ArrowDown","true","revaluation","1","66","","",""
"html-keyboard-response","188","903514","0.0-4.0-2.0-1.33","spark_pilot_norest","8778","6","22","Female","","","","","","","null","<div style=""font-size:60px;"">+</div>","null","fixation","","","","","","","","","67","","",""
"revaluation","189","909532","0.0-4.0-2.0-0.34","spark_pilot_norest","8778","6","22","Female","","","false","","","","[747,483]","./assets/img/canyon/memory/20.jpg","[""ArrowDown"",""ArrowRight""]","value training","canyon","30","{""ArrowUp,ArrowLeft"":23,""ArrowUp,ArrowRight"":10,""ArrowDown,ArrowLeft"":8,""ArrowDown,ArrowRight"":30}","true","ArrowDown,ArrowRight","false","revaluation","1","68","","",""
"html-keyboard-response","190","910039","0.0-4.0-2.0-1.34","spark_pilot_norest","8778","6","22","Female","","","","","","","null","<div style=""font-size:60px;"">+</div>","null","fixation","","","","","","","","","69","","",""
"revaluation","191","916051","0.0-4.0-2.0-0.35","spark_pilot_norest","8778","6","22","Female","","","false","","","","[474,413]","./assets/img/canyon/memory/8.jpg","[""ArrowDown"",""ArrowRight""]","value training","canyon","30","{""ArrowUp,ArrowLeft"":23,""ArrowUp,ArrowRight"":10,""ArrowDown,ArrowLeft"":8,""ArrowDown,ArrowRight"":30}","true","ArrowDown,ArrowRight","false","revaluation","1","70","","",""
"html-keyboard-response","192","916558","0.0-4.0-2.0-1.35","spark_pilot_norest","8778","6","22","Female","","","","","","","null","<div style=""font-size:60px;"">+</div>","null","fixation","","","","","","","","","71","","",""
"revaluation","193","922579","0.0-4.0-2.0-0.36","spark_pilot_norest","8778","6","22","Female","","","false","","","","[559,442]","./assets/img/canyon/memory/18.jpg","[""ArrowDown"",""ArrowRight""]","value training","canyon","30","{""ArrowUp,ArrowLeft"":23,""ArrowUp,ArrowRight"":10,""ArrowDown,ArrowLeft"":8,""ArrowDown,ArrowRight"":30}","true","ArrowDown,ArrowRight","false","revaluation","1","72","","",""
"html-keyboard-response","194","923085","0.0-4.0-2.0-1.36","spark_pilot_norest","8778","6","22","Female","","","","","","","null","<div style=""font-size:60px;"">+</div>","null","fixation","","","","","","","","","73","","",""
"revaluation","195","929104","0.0-4.0-2.0-0.37","spark_pilot_norest","8778","6","22","Female","","","false","","","","[620,397]","./assets/img/canyon/memory/6.jpg","[""ArrowDown"",""ArrowRight""]","value training","canyon","30","{""ArrowUp,ArrowLeft"":23,""ArrowUp,ArrowRight"":10,""ArrowDown,ArrowLeft"":8,""ArrowDown,ArrowRight"":30}","true","ArrowDown,ArrowRight","false","revaluation","1","74","","",""
"html-keyboard-response","196","929609","0.0-4.0-2.0-1.37","spark_pilot_norest","8778","6","22","Female","","","","","","","null","<div style=""font-size:60px;"">+</div>","null","fixation","","","","","","","","","75","","",""
"revaluation","197","935626","0.0-4.0-2.0-0.38","spark_pilot_norest","8778","6","22","Female","","","false","","","","[476,473]","./assets/img/canyon/memory/19.jpg","[""ArrowDown"",""ArrowRight""]","value training","canyon","30","{""ArrowUp,ArrowLeft"":23,""ArrowUp,ArrowRight"":10,""ArrowDown,ArrowLeft"":8,""ArrowDown,ArrowRight"":30}","true","ArrowDown,ArrowRight","false","revaluation","1","76","","",""
"html-keyboard-response","198","936133","0.0-4.0-2.0-1.38","spark_pilot_norest","8778","6","22","Female","","","","","","","null","<div style=""font-size:60px;"">+</div>","null","fixation","","","","","","","","","77","","",""
"revaluation","199","942151","0.0-4.0-2.0-0.39","spark_pilot_norest","8778","6","22","Female","","","false","","","","[723,757]","./assets/img/canyon/memory/7.jpg","[""ArrowDown"",""ArrowRight""]","value training","canyon","30","{""ArrowUp,ArrowLeft"":23,""ArrowUp,ArrowRight"":10,""ArrowDown,ArrowLeft"":8,""ArrowDown,ArrowRight"":30}","true","ArrowDown,ArrowRight","false","revaluation","1","78","","",""
"html-keyboard-response","200","942657","0.0-4.0-2.0-1.39","spark_pilot_norest","8778","6","22","Female","","","","","","","null","<div style=""font-size:60px;"">+</div>","null","fixation","","","","","","","","","79","","",""
"revaluation","201","948676","0.0-4.0-2.0-0.40","spark_pilot_norest","8778","6","22","Female","","","false","","","","[781,403]","./assets/img/canyon/memory/1.jpg","[""ArrowDown"",""ArrowRight""]","value training","canyon","30","{""ArrowUp,ArrowLeft"":23,""ArrowUp,ArrowRight"":10,""ArrowDown,ArrowLeft"":8,""ArrowDown,ArrowRight"":30}","true","ArrowDown,ArrowRight","false","revaluation","1","80","","",""
"html-keyboard-response","202","949183","0.0-4.0-2.0-1.40","spark_pilot_norest","8778","6","22","Female","","","","","","","null","<div style=""font-size:60px;"">+</div>","null","fixation","","","","","","","","","81","","",""
"revaluation","203","955203","0.0-4.0-2.0-0.41","spark_pilot_norest","8778","6","22","Female","","","false","","","","[492,454]","./assets/img/canyon/memory/14.jpg","[""ArrowDown"",""ArrowRight""]","value training","canyon","30","{""ArrowUp,ArrowLeft"":23,""ArrowUp,ArrowRight"":10,""ArrowDown,ArrowLeft"":8,""ArrowDown,ArrowRight"":30}","true","ArrowDown,ArrowRight","false","revaluation","1","82","","",""
"html-keyboard-response","204","955709","0.0-4.0-2.0-1.41","spark_pilot_norest","8778","6","22","Female","","","","","","","null","<div style=""font-size:60px;"">+</div>","null","fixation","","","","","","","","","83","","",""
"revaluation","205","961726","0.0-4.0-2.0-0.42","spark_pilot_norest","8778","6","22","Female","","","false","","","","[548,405]","./assets/img/canyon/memory/18.jpg","[""ArrowDown"",""ArrowRight""]","value training","canyon","30","{""ArrowUp,ArrowLeft"":23,""ArrowUp,ArrowRight"":10,""ArrowDown,ArrowLeft"":8,""ArrowDown,ArrowRight"":30}","true","ArrowDown,ArrowRight","false","revaluation","1","84","","",""
"html-keyboard-response","206","962232","0.0-4.0-2.0-1.42","spark_pilot_norest","8778","6","22","Female","","","","","","","null","<div style=""font-size:60px;"">+</div>","null","fixation","","","","","","","","","85","","",""
"revaluation","207","968251","0.0-4.0-2.0-0.43","spark_pilot_norest","8778","6","22","Female","","","false","","","","[585,569]","./assets/img/canyon/memory/4.jpg","[""ArrowDown"",""ArrowRight""]","value training","canyon","30","{""ArrowUp,ArrowLeft"":23,""ArrowUp,ArrowRight"":10,""ArrowDown,ArrowLeft"":8,""ArrowDown,ArrowRight"":30}","true","ArrowDown,ArrowRight","false","revaluation","1","86","","",""
"html-keyboard-response","208","968755","0.0-4.0-2.0-1.43","spark_pilot_norest","8778","6","22","Female","","","","","","","null","<div style=""font-size:60px;"">+</div>","null","fixation","","","","","","","","","87","","",""
"revaluation","209","974775","0.0-4.0-2.0-0.44","spark_pilot_norest","8778","6","22","Female","","","false","","","","[719,494]","./assets/img/canyon/memory/9.jpg","[""ArrowDown"",""ArrowRight""]","value training","canyon","30","{""ArrowUp,ArrowLeft"":23,""ArrowUp,ArrowRight"":10,""ArrowDown,ArrowLeft"":8,""ArrowDown,ArrowRight"":30}","true","ArrowDown,ArrowRight","false","revaluation","1","88","","",""
"html-keyboard-response","210","975281","0.0-4.0-2.0-1.44","spark_pilot_norest","8778","6","22","Female","","","","","","","null","<div style=""font-size:60px;"">+</div>","null","fixation","","","","","","","","","89","","",""
"revaluation","211","981300","0.0-4.0-2.0-0.45","spark_pilot_norest","8778","6","22","Female","","","false","","","","[482,498]","./assets/img/canyon/memory/3.jpg","[""ArrowDown"",""ArrowRight""]","value training","canyon","30","{""ArrowUp,ArrowLeft"":23,""ArrowUp,ArrowRight"":10,""ArrowDown,ArrowLeft"":8,""ArrowDown,ArrowRight"":30}","true","ArrowDown,ArrowRight","false","revaluation","1","90","","",""
"html-keyboard-response","212","981807","0.0-4.0-2.0-1.45","spark_pilot_norest","8778","6","22","Female","","","","","","","null","<div style=""font-size:60px;"">+</div>","null","fixation","","","","","","","","","91","","",""
"revaluation","213","987828","0.0-4.0-2.0-0.46","spark_pilot_norest","8778","6","22","Female","","","false","","","","[580,417]","./assets/img/canyon/memory/14.jpg","[""ArrowDown"",""ArrowRight""]","value training","canyon","30","{""ArrowUp,ArrowLeft"":23,""ArrowUp,ArrowRight"":10,""ArrowDown,ArrowLeft"":8,""ArrowDown,ArrowRight"":30}","true","ArrowDown,ArrowRight","false","revaluation","1","92","","",""
"html-keyboard-response","214","988334","0.0-4.0-2.0-1.46","spark_pilot_norest","8778","6","22","Female","","","","","","","null","<div style=""font-size:60px;"">+</div>","null","fixation","","","","","","","","","93","","",""
"revaluation","215","994354","0.0-4.0-2.0-0.47","spark_pilot_norest","8778","6","22","Female","","","false","","","","[877,1319]","./assets/img/canyon/memory/11.jpg","[""ArrowDown"",""ArrowRight""]","value training","canyon","30","{""ArrowUp,ArrowLeft"":23,""ArrowUp,ArrowRight"":10,""ArrowDown,ArrowLeft"":8,""ArrowDown,ArrowRight"":30}","true","ArrowDown,ArrowRight","false","revaluation","1","94","","",""
"html-keyboard-response","216","994859","0.0-4.0-2.0-1.47","spark_pilot_norest","8778","6","22","Female","","","","","","","null","<div style=""font-size:60px;"">+</div>","null","fixation","","","","","","","","","95","","",""
"revaluation","217","1000873","0.0-4.0-2.0-0.48","spark_pilot_norest","8778","6","22","Female","","","false","","","","[845,1492]","./assets/img/canyon/memory/12.jpg","[""ArrowDown"",""ArrowRight""]","value training","canyon","30","{""ArrowUp,ArrowLeft"":23,""ArrowUp,ArrowRight"":10,""ArrowDown,ArrowLeft"":8,""ArrowDown,ArrowRight"":30}","true","ArrowDown,ArrowRight","false","revaluation","1","96","","",""
"html-keyboard-response","218","1001377","0.0-4.0-2.0-1.48","spark_pilot_norest","8778","6","22","Female","","","","","","","null","<div style=""font-size:60px;"">+</div>","null","fixation","","","","","","","","","97","","",""
"revaluation","219","1005391","0.0-4.0-2.0-0.49","spark_pilot_norest","8778","6","22","Female","","","false","","","","[756]","./assets/img/canyon/catch/0.jpg","[""spaceBar""]","value training","canyon","0","{""ArrowUp,ArrowLeft"":23,""ArrowUp,ArrowRight"":10,""ArrowDown,ArrowLeft"":8,""ArrowDown,ArrowRight"":30}","true","spaceBar","true","revaluation","1","98","","",""
"html-keyboard-response","220","1005898","0.0-4.0-2.0-1.49","spark_pilot_norest","8778","6","22","Female","","","","","","","null","<div style=""font-size:60px;"">+</div>","null","fixation","","","","","","","","","99","","",""
"learning-instructions","221","1028772","0.0-4.0-3.0-0.0","spark_pilot_norest","8778","6","22","Female","","","","","","","9979","<p> Now, you will travel with a friend who will choose whether you go up or down first. </p>
            <p> On these turns, you will just see the animal that they found. You will still get to choose which chest to search for treasure.</p>","","instructions","","","","","","","","","","","",""
"revaluation","222","1032784","0.0-4.0-4.0-0.0","spark_pilot_norest","8778","6","22","Female","","","false","","","","[1942]","./assets/img/canyon/animals/giraffe.jpg","[""ArrowRight""]","revaluation","canyon","7","{""ArrowUp,ArrowLeft"":27,""ArrowUp,ArrowRight"":15,""ArrowDown,ArrowLeft"":21,""ArrowDown,ArrowRight"":7}","false","ArrowDown,ArrowRight","","revaluation","1","0","","",""
"html-keyboard-response","223","1033289","0.0-4.0-4.0-1.0","spark_pilot_norest","8778","6","22","Female","","","","","","","null","<div style=""font-size:60px;"">+</div>","null","fixation","","","","","","","","","1","","",""
"revaluation","224","1037300","0.0-4.0-4.0-0.1","spark_pilot_norest","8778","6","22","Female","","","false","","","","[700]","./assets/img/canyon/animals/giraffe.jpg","[""ArrowLeft""]","revaluation","canyon","21","{""ArrowUp,ArrowLeft"":27,""ArrowUp,ArrowRight"":15,""ArrowDown,ArrowLeft"":21,""ArrowDown,ArrowRight"":7}","true","ArrowDown,ArrowLeft","","revaluation","1","2","","",""
"html-keyboard-response","225","1037804","0.0-4.0-4.0-1.1","spark_pilot_norest","8778","6","22","Female","","","","","","","null","<div style=""font-size:60px;"">+</div>","null","fixation","","","","","","","","","3","","",""
"revaluation","226","1041820","0.0-4.0-4.0-0.2","spark_pilot_norest","8778","6","22","Female","","","false","","","","[753]","./assets/img/canyon/animals/lion.jpg","[""ArrowRight""]","revaluation","canyon","15","{""ArrowUp,ArrowLeft"":27,""ArrowUp,ArrowRight"":15,""ArrowDown,ArrowLeft"":21,""ArrowDown,ArrowRight"":7}","false","ArrowUp,ArrowRight","","revaluation","1","4","","",""
"html-keyboard-response","227","1042326","0.0-4.0-4.0-1.2","spark_pilot_norest","8778","6","22","Female","","","","","","","null","<div style=""font-size:60px;"">+</div>","null","fixation","","","","","","","","","5","","",""
"revaluation","228","1046335","0.0-4.0-4.0-0.3","spark_pilot_norest","8778","6","22","Female","","","false","","","","[839]","./assets/img/canyon/animals/giraffe.jpg","[""ArrowLeft""]","revaluation","canyon","21","{""ArrowUp,ArrowLeft"":27,""ArrowUp,ArrowRight"":15,""ArrowDown,ArrowLeft"":21,""ArrowDown,ArrowRight"":7}","true","ArrowDown,ArrowLeft","","revaluation","1","6","","",""
"html-keyboard-response","229","1046841","0.0-4.0-4.0-1.3","spark_pilot_norest","8778","6","22","Female","","","","","","","null","<div style=""font-size:60px;"">+</div>","null","fixation","","","","","","","","","7","","",""
"revaluation","230","1050855","0.0-4.0-4.0-0.4","spark_pilot_norest","8778","6","22","Female","","","false","","","","[905]","./assets/img/canyon/animals/giraffe.jpg","[""ArrowLeft""]","revaluation","canyon","21","{""ArrowUp,ArrowLeft"":27,""ArrowUp,ArrowRight"":15,""ArrowDown,ArrowLeft"":21,""ArrowDown,ArrowRight"":7}","true","ArrowDown,ArrowLeft","","revaluation","1","8","","",""
"html-keyboard-response","231","1051362","0.0-4.0-4.0-1.4","spark_pilot_norest","8778","6","22","Female","","","","","","","null","<div style=""font-size:60px;"">+</div>","null","fixation","","","","","","","","","9","","",""
"revaluation","232","1055376","0.0-4.0-4.0-0.5","spark_pilot_norest","8778","6","22","Female","","","false","","","","[868]","./assets/img/canyon/animals/giraffe.jpg","[""ArrowLeft""]","revaluation","canyon","21","{""ArrowUp,ArrowLeft"":27,""ArrowUp,ArrowRight"":15,""ArrowDown,ArrowLeft"":21,""ArrowDown,ArrowRight"":7}","true","ArrowDown,ArrowLeft","","revaluation","1","10","","",""
"html-keyboard-response","233","1055880","0.0-4.0-4.0-1.5","spark_pilot_norest","8778","6","22","Female","","","","","","","null","<div style=""font-size:60px;"">+</div>","null","fixation","","","","","","","","","11","","",""
"revaluation","234","1059890","0.0-4.0-4.0-0.6","spark_pilot_norest","8778","6","22","Female","","","false","","","","[1771]","./assets/img/canyon/animals/lion.jpg","[""ArrowRight""]","revaluation","canyon","15","{""ArrowUp,ArrowLeft"":27,""ArrowUp,ArrowRight"":15,""ArrowDown,ArrowLeft"":21,""ArrowDown,ArrowRight"":7}","false","ArrowUp,ArrowRight","","revaluation","1","12","","",""
"html-keyboard-response","235","1060392","0.0-4.0-4.0-1.6","spark_pilot_norest","8778","6","22","Female","","","","","","","null","<div style=""font-size:60px;"">+</div>","null","fixation","","","","","","","","","13","","",""
"revaluation","236","1064401","0.0-4.0-4.0-0.7","spark_pilot_norest","8778","6","22","Female","","","false","","","","[1016]","./assets/img/canyon/animals/lion.jpg","[""ArrowRight""]","revaluation","canyon","15","{""ArrowUp,ArrowLeft"":27,""ArrowUp,ArrowRight"":15,""ArrowDown,ArrowLeft"":21,""ArrowDown,ArrowRight"":7}","false","ArrowUp,ArrowRight","","revaluation","1","14","","",""
"html-keyboard-response","237","1064908","0.0-4.0-4.0-1.7","spark_pilot_norest","8778","6","22","Female","","","","","","","null","<div style=""font-size:60px;"">+</div>","null","fixation","","","","","","","","","15","","",""
"revaluation","238","1068923","0.0-4.0-4.0-0.8","spark_pilot_norest","8778","6","22","Female","","","false","","","","[638]","./assets/img/canyon/animals/giraffe.jpg","[""ArrowLeft""]","revaluation","canyon","21","{""ArrowUp,ArrowLeft"":27,""ArrowUp,ArrowRight"":15,""ArrowDown,ArrowLeft"":21,""ArrowDown,ArrowRight"":7}","true","ArrowDown,ArrowLeft","","revaluation","1","16","","",""
"html-keyboard-response","239","1069430","0.0-4.0-4.0-1.8","spark_pilot_norest","8778","6","22","Female","","","","","","","null","<div style=""font-size:60px;"">+</div>","null","fixation","","","","","","","","","17","","",""
"revaluation","240","1073445","0.0-4.0-4.0-0.9","spark_pilot_norest","8778","6","22","Female","","","false","","","","[599]","./assets/img/canyon/animals/giraffe.jpg","[""ArrowLeft""]","revaluation","canyon","21","{""ArrowUp,ArrowLeft"":27,""ArrowUp,ArrowRight"":15,""ArrowDown,ArrowLeft"":21,""ArrowDown,ArrowRight"":7}","true","ArrowDown,ArrowLeft","","revaluation","1","18","","",""
"html-keyboard-response","241","1073952","0.0-4.0-4.0-1.9","spark_pilot_norest","8778","6","22","Female","","","","","","","null","<div style=""font-size:60px;"">+</div>","null","fixation","","","","","","","","","19","","",""
"revaluation","242","1077966","0.0-4.0-4.0-0.10","spark_pilot_norest","8778","6","22","Female","","","false","","","","[527]","./assets/img/canyon/animals/lion.jpg","[""ArrowLeft""]","revaluation","canyon","27","{""ArrowUp,ArrowLeft"":27,""ArrowUp,ArrowRight"":15,""ArrowDown,ArrowLeft"":21,""ArrowDown,ArrowRight"":7}","true","ArrowUp,ArrowLeft","","revaluation","1","20","","",""
"html-keyboard-response","243","1078472","0.0-4.0-4.0-1.10","spark_pilot_norest","8778","6","22","Female","","","","","","","null","<div style=""font-size:60px;"">+</div>","null","fixation","","","","","","","","","21","","",""
"revaluation","244","1082483","0.0-4.0-4.0-0.11","spark_pilot_norest","8778","6","22","Female","","","false","","","","[1114]","./assets/img/canyon/animals/giraffe.jpg","[""ArrowLeft""]","revaluation","canyon","21","{""ArrowUp,ArrowLeft"":27,""ArrowUp,ArrowRight"":15,""ArrowDown,ArrowLeft"":21,""ArrowDown,ArrowRight"":7}","true","ArrowDown,ArrowLeft","","revaluation","1","22","","",""
"html-keyboard-response","245","1082991","0.0-4.0-4.0-1.11","spark_pilot_norest","8778","6","22","Female","","","","","","","null","<div style=""font-size:60px;"">+</div>","null","fixation","","","","","","","","","23","","",""
"revaluation","246","1087001","0.0-4.0-4.0-0.12","spark_pilot_norest","8778","6","22","Female","","","false","","","","[1195]","./assets/img/canyon/animals/lion.jpg","[""ArrowLeft""]","revaluation","canyon","27","{""ArrowUp,ArrowLeft"":27,""ArrowUp,ArrowRight"":15,""ArrowDown,ArrowLeft"":21,""ArrowDown,ArrowRight"":7}","true","ArrowUp,ArrowLeft","","revaluation","1","24","","",""
"html-keyboard-response","247","1087507","0.0-4.0-4.0-1.12","spark_pilot_norest","8778","6","22","Female","","","","","","","null","<div style=""font-size:60px;"">+</div>","null","fixation","","","","","","","","","25","","",""
"revaluation","248","1091514","0.0-4.0-4.0-0.13","spark_pilot_norest","8778","6","22","Female","","","false","","","","[1167]","./assets/img/canyon/animals/lion.jpg","[""ArrowLeft""]","revaluation","canyon","27","{""ArrowUp,ArrowLeft"":27,""ArrowUp,ArrowRight"":15,""ArrowDown,ArrowLeft"":21,""ArrowDown,ArrowRight"":7}","true","ArrowUp,ArrowLeft","","revaluation","1","26","","",""
"html-keyboard-response","249","1092019","0.0-4.0-4.0-1.13","spark_pilot_norest","8778","6","22","Female","","","","","","","null","<div style=""font-size:60px;"">+</div>","null","fixation","","","","","","","","","27","","",""
"revaluation","250","1096034","0.0-4.0-4.0-0.14","spark_pilot_norest","8778","6","22","Female","","","false","","","","[372]","./assets/img/canyon/animals/lion.jpg","[""ArrowLeft""]","revaluation","canyon","27","{""ArrowUp,ArrowLeft"":27,""ArrowUp,ArrowRight"":15,""ArrowDown,ArrowLeft"":21,""ArrowDown,ArrowRight"":7}","true","ArrowUp,ArrowLeft","","revaluation","1","28","","",""
"html-keyboard-response","251","1096540","0.0-4.0-4.0-1.14","spark_pilot_norest","8778","6","22","Female","","","","","","","null","<div style=""font-size:60px;"">+</div>","null","fixation","","","","","","","","","29","","",""
"revaluation","252","1100557","0.0-4.0-4.0-0.15","spark_pilot_norest","8778","6","22","Female","","","false","","","","[673]","./assets/img/canyon/animals/lion.jpg","[""ArrowLeft""]","revaluation","canyon","27","{""ArrowUp,ArrowLeft"":27,""ArrowUp,ArrowRight"":15,""ArrowDown,ArrowLeft"":21,""ArrowDown,ArrowRight"":7}","true","ArrowUp,ArrowLeft","","revaluation","1","30","","",""
"html-keyboard-response","253","1101064","0.0-4.0-4.0-1.15","spark_pilot_norest","8778","6","22","Female","","","","","","","null","<div style=""font-size:60px;"">+</div>","null","fixation","","","","","","","","","31","","",""
"revaluation","254","1105075","0.0-4.0-4.0-0.16","spark_pilot_norest","8778","6","22","Female","","","false","","","","[774]","./assets/img/canyon/animals/lion.jpg","[""ArrowLeft""]","revaluation","canyon","27","{""ArrowUp,ArrowLeft"":27,""ArrowUp,ArrowRight"":15,""ArrowDown,ArrowLeft"":21,""ArrowDown,ArrowRight"":7}","true","ArrowUp,ArrowLeft","","revaluation","1","32","","",""
"html-keyboard-response","255","1105582","0.0-4.0-4.0-1.16","spark_pilot_norest","8778","6","22","Female","","","","","","","null","<div style=""font-size:60px;"">+</div>","null","fixation","","","","","","","","","33","","",""
"revaluation","256","1109597","0.0-4.0-4.0-0.17","spark_pilot_norest","8778","6","22","Female","","","false","","","","[1936]","./assets/img/canyon/animals/giraffe.jpg","[""ArrowLeft""]","revaluation","canyon","21","{""ArrowUp,ArrowLeft"":27,""ArrowUp,ArrowRight"":15,""ArrowDown,ArrowLeft"":21,""ArrowDown,ArrowRight"":7}","true","ArrowDown,ArrowLeft","","revaluation","1","34","","",""
"html-keyboard-response","257","1110104","0.0-4.0-4.0-1.17","spark_pilot_norest","8778","6","22","Female","","","","","","","null","<div style=""font-size:60px;"">+</div>","null","fixation","","","","","","","","","35","","",""
"learning-instructions","258","1118216","0.0-4.0-5.0-0.0","spark_pilot_norest","8778","6","22","Female","","","","","","","null","<p> You have almost finished this part of the game! </p>
            <p> We are going to ask you to make a few more choices. </p>","","instructions","","","","","","","","","","","",""
"learning-instructions","259","1134206","0.0-4.0-5.0-0.1","spark_pilot_norest","8778","6","22","Female","","","","","","","null","<p> First, you need to decide whether to go up or down. When you see each picture, use the arrow keys to make your choice. </p>
            <p><b>You will not see which animal you found, but try to get to the one that will give you the most treasure.</b></p>","","instructions","","","","","","","","","","","",""
"html-keyboard-response","260","1135211","0.0-4.0-6.0-0.0","spark_pilot_norest","8778","6","22","Female","","","","","","","null","<div style=""font-size:100px;color:red;"">Starting in...</div>","null","","","","","","","","","","","","",""
"html-keyboard-response","261","1136218","0.0-4.0-6.0-1.0","spark_pilot_norest","8778","6","22","Female","","","","","","","null","<div style=""font-size:200px;color:red;"">3</div>","null","","","","","","","","","","","","",""
"html-keyboard-response","262","1137220","0.0-4.0-6.0-2.0","spark_pilot_norest","8778","6","22","Female","","","","","","","null","<div style=""font-size:200px;color:red;"">2</div>","null","","","","","","","","","","","","",""
"html-keyboard-response","263","1138225","0.0-4.0-6.0-3.0","spark_pilot_norest","8778","6","22","Female","","","","","","","null","<div style=""font-size:200px;color:red;"">1</div>","null","","","","","","","","","","","","",""
"revaluation","264","1139951","0.0-4.0-7.0-0.0","spark_pilot_norest","8778","6","22","Female","","","false","","","","[1721]","./assets/img/canyon/test/2.jpg","[""ArrowDown""]","first stage test","canyon","0","{""ArrowUp,ArrowLeft"":27,""ArrowUp,ArrowRight"":15,""ArrowDown,ArrowLeft"":21,""ArrowDown,ArrowRight"":7}","false","ArrowDown","false","revaluation","1","","","",""
"html-keyboard-response","265","1140456","0.0-4.0-7.0-1.0","spark_pilot_norest","8778","6","22","Female","","","","","","","null","<div style=""font-size:60px;"">+</div>","null","fixation","","","","","","","","","","","",""
"revaluation","266","1140935","0.0-4.0-7.0-0.1","spark_pilot_norest","8778","6","22","Female","","","false","","","","[474]","./assets/img/canyon/test/3.jpg","[""ArrowDown""]","first stage test","canyon","0","{""ArrowUp,ArrowLeft"":27,""ArrowUp,ArrowRight"":15,""ArrowDown,ArrowLeft"":21,""ArrowDown,ArrowRight"":7}","false","ArrowDown","false","revaluation","1","","","",""
"html-keyboard-response","267","1141438","0.0-4.0-7.0-1.1","spark_pilot_norest","8778","6","22","Female","","","","","","","null","<div style=""font-size:60px;"">+</div>","null","fixation","","","","","","","","","","","",""
"revaluation","268","1141842","0.0-4.0-7.0-0.2","spark_pilot_norest","8778","6","22","Female","","","false","","","","[399]","./assets/img/canyon/test/1.jpg","[""ArrowDown""]","first stage test","canyon","0","{""ArrowUp,ArrowLeft"":27,""ArrowUp,ArrowRight"":15,""ArrowDown,ArrowLeft"":21,""ArrowDown,ArrowRight"":7}","false","ArrowDown","false","revaluation","1","","","",""
"html-keyboard-response","269","1142344","0.0-4.0-7.0-1.2","spark_pilot_norest","8778","6","22","Female","","","","","","","null","<div style=""font-size:60px;"">+</div>","null","fixation","","","","","","","","","","","",""
"revaluation","270","1142673","0.0-4.0-7.0-0.3","spark_pilot_norest","8778","6","22","Female","","","false","","","","[324]","./assets/img/canyon/test/0.jpg","[""ArrowDown""]","first stage test","canyon","0","{""ArrowUp,ArrowLeft"":27,""ArrowUp,ArrowRight"":15,""ArrowDown,ArrowLeft"":21,""ArrowDown,ArrowRight"":7}","false","ArrowDown","false","revaluation","1","","","",""
"html-keyboard-response","271","1143179","0.0-4.0-7.0-1.3","spark_pilot_norest","8778","6","22","Female","","","","","","","null","<div style=""font-size:60px;"">+</div>","null","fixation","","","","","","","","","","","",""
"learning-instructions","272","1156540","0.0-4.0-8.0-0.0","spark_pilot_norest","8778","6","22","Female","","","","","","","null","<p> Now you will see the animals again and can search their chests for treasure. </p>
            <p> This time, you will not see how much treasure you earned, but you will earn more bonus money for making better choices. </p>","","instructions","","","","","","","","","","","",""
"html-keyboard-response","273","1157546","0.0-4.0-9.0-0.0","spark_pilot_norest","8778","6","22","Female","","","","","","","null","<div style=""font-size:100px;color:red;"">Starting in...</div>","null","","","","","","","","","","","","",""
"html-keyboard-response","274","1158548","0.0-4.0-9.0-1.0","spark_pilot_norest","8778","6","22","Female","","","","","","","null","<div style=""font-size:200px;color:red;"">3</div>","null","","","","","","","","","","","","",""
"html-keyboard-response","275","1159555","0.0-4.0-9.0-2.0","spark_pilot_norest","8778","6","22","Female","","","","","","","null","<div style=""font-size:200px;color:red;"">2</div>","null","","","","","","","","","","","","",""
"html-keyboard-response","276","1160556","0.0-4.0-9.0-3.0","spark_pilot_norest","8778","6","22","Female","","","","","","","null","<div style=""font-size:200px;color:red;"">1</div>","null","","","","","","","","","","","","",""
"revaluation","277","1161042","0.0-4.0-10.0-0.0","spark_pilot_norest","8778","6","22","Female","","","false","","","","[481]","./assets/img/canyon/animals/lion.jpg","[""ArrowRight""]","second stage test","canyon","0","{""ArrowUp,ArrowLeft"":27,""ArrowUp,ArrowRight"":15,""ArrowDown,ArrowLeft"":21,""ArrowDown,ArrowRight"":7}","false","ArrowUp,ArrowRight","","revaluation","1","","","",""
"html-keyboard-response","278","1161548","0.0-4.0-10.0-1.0","spark_pilot_norest","8778","6","22","Female","","","","","","","null","<div style=""font-size:60px;"">+</div>","null","fixation","","","","","","","","","","","",""
"revaluation","279","1161884","0.0-4.0-10.0-0.1","spark_pilot_norest","8778","6","22","Female","","","false","","","","[331]","./assets/img/canyon/animals/lion.jpg","[""ArrowRight""]","second stage test","canyon","0","{""ArrowUp,ArrowLeft"":27,""ArrowUp,ArrowRight"":15,""ArrowDown,ArrowLeft"":21,""ArrowDown,ArrowRight"":7}","false","ArrowUp,ArrowRight","","revaluation","1","","","",""
"html-keyboard-response","280","1162390","0.0-4.0-10.0-1.1","spark_pilot_norest","8778","6","22","Female","","","","","","","null","<div style=""font-size:60px;"">+</div>","null","fixation","","","","","","","","","","","",""
"revaluation","281","1162769","0.0-4.0-10.0-0.2","spark_pilot_norest","8778","6","22","Female","","","false","","","","[374]","./assets/img/canyon/animals/lion.jpg","[""ArrowRight""]","second stage test","canyon","0","{""ArrowUp,ArrowLeft"":27,""ArrowUp,ArrowRight"":15,""ArrowDown,ArrowLeft"":21,""ArrowDown,ArrowRight"":7}","false","ArrowUp,ArrowRight","","revaluation","1","","","",""
"html-keyboard-response","282","1163276","0.0-4.0-10.0-1.2","spark_pilot_norest","8778","6","22","Female","","","","","","","null","<div style=""font-size:60px;"">+</div>","null","fixation","","","","","","","","","","","",""
"revaluation","283","1163643","0.0-4.0-10.0-0.3","spark_pilot_norest","8778","6","22","Female","","","false","","","","[364]","./assets/img/canyon/animals/lion.jpg","[""ArrowRight""]","second stage test","canyon","0","{""ArrowUp,ArrowLeft"":27,""ArrowUp,ArrowRight"":15,""ArrowDown,ArrowLeft"":21,""ArrowDown,ArrowRight"":7}","false","ArrowUp,ArrowRight","","revaluation","1","","","",""
"html-keyboard-response","284","1164145","0.0-4.0-10.0-1.3","spark_pilot_norest","8778","6","22","Female","","","","","","","null","<div style=""font-size:60px;"">+</div>","null","fixation","","","","","","","","","","","",""
"revaluation","285","1164628","0.0-4.0-10.0-0.4","spark_pilot_norest","8778","6","22","Female","","","false","","","","[477]","./assets/img/canyon/animals/giraffe.jpg","[""ArrowRight""]","second stage test","canyon","0","{""ArrowUp,ArrowLeft"":27,""ArrowUp,ArrowRight"":15,""ArrowDown,ArrowLeft"":21,""ArrowDown,ArrowRight"":7}","false","ArrowDown,ArrowRight","","revaluation","1","","","",""
"html-keyboard-response","286","1165134","0.0-4.0-10.0-1.4","spark_pilot_norest","8778","6","22","Female","","","","","","","null","<div style=""font-size:60px;"">+</div>","null","fixation","","","","","","","","","","","",""
"revaluation","287","1165415","0.0-4.0-10.0-0.5","spark_pilot_norest","8778","6","22","Female","","","false","","","","[276]","./assets/img/canyon/animals/giraffe.jpg","[""ArrowRight""]","second stage test","canyon","0","{""ArrowUp,ArrowLeft"":27,""ArrowUp,ArrowRight"":15,""ArrowDown,ArrowLeft"":21,""ArrowDown,ArrowRight"":7}","false","ArrowDown,ArrowRight","","revaluation","1","","","",""
"html-keyboard-response","288","1165917","0.0-4.0-10.0-1.5","spark_pilot_norest","8778","6","22","Female","","","","","","","null","<div style=""font-size:60px;"">+</div>","null","fixation","","","","","","","","","","","",""
"revaluation","289","1166263","0.0-4.0-10.0-0.6","spark_pilot_norest","8778","6","22","Female","","","false","","","","[342]","./assets/img/canyon/animals/giraffe.jpg","[""ArrowRight""]","second stage test","canyon","0","{""ArrowUp,ArrowLeft"":27,""ArrowUp,ArrowRight"":15,""ArrowDown,ArrowLeft"":21,""ArrowDown,ArrowRight"":7}","false","ArrowDown,ArrowRight","","revaluation","1","","","",""
"html-keyboard-response","290","1166765","0.0-4.0-10.0-1.6","spark_pilot_norest","8778","6","22","Female","","","","","","","null","<div style=""font-size:60px;"">+</div>","null","fixation","","","","","","","","","","","",""
"revaluation","291","1167049","0.0-4.0-10.0-0.7","spark_pilot_norest","8778","6","22","Female","","","false","","","","[280]","./assets/img/canyon/animals/giraffe.jpg","[""ArrowRight""]","second stage test","canyon","0","{""ArrowUp,ArrowLeft"":27,""ArrowUp,ArrowRight"":15,""ArrowDown,ArrowLeft"":21,""ArrowDown,ArrowRight"":7}","false","ArrowDown,ArrowRight","","revaluation","1","","","",""
"html-keyboard-response","292","1167555","0.0-4.0-10.0-1.7","spark_pilot_norest","8778","6","22","Female","","","","","","","null","<div style=""font-size:60px;"">+</div>","null","fixation","","","","","","","","","","","",""
"learning-instructions","293","1171724","0.0-4.0-0.1-0.2","spark_pilot_norest","8778","6","22","Female","","","","","","","1433","<p> This time you are searching for treasure in the <b>ocean</b>.</p>","","instructions","","","","","","","","","","","",""
"learning-instructions","294","1199254","0.0-4.0-0.1-0.3","spark_pilot_norest","8778","6","22","Female","","","","","","","10266","<p><b>New</b> animals with <b>new</b> treasure chests live here. You need to explore to discover where the animal with the best treasure chest is.</p>
                    <p> Like before, once you figure out which animal has the chest with the most treasure, you should try to get to that animal and select that chest! </p>","","instructions","","","","","","","","","","","",""
"learning-instructions","295","1215205","0.0-4.0-1.1-0.1","spark_pilot_norest","8778","6","22","Female","","","","","","","1212","<p> Remember, when you see a picture of the place, use the up and down keys to <b>find an animal</b>.</p>
            <p> When you encounter an animal, you should use the left and right keys to <b>select a treasure chest</b>.</p>
            <p> Don't forget to look out for the robber! </p>","","instructions","","","","","","","","","","","",""
"revaluation","296","1221225","0.0-4.0-2.1-0.50","spark_pilot_norest","8778","6","22","Female","","","false","","","","[1175,601]","./assets/img/ocean/memory/3.jpg","[""ArrowDown"",""ArrowRight""]","value training","ocean","17","{""ArrowUp,ArrowLeft"":26,""ArrowUp,ArrowRight"":10,""ArrowDown,ArrowLeft"":5,""ArrowDown,ArrowRight"":17}","false","ArrowDown,ArrowRight","false","original","2","0","","",""
"html-keyboard-response","297","1221732","0.0-4.0-2.1-1.50","spark_pilot_norest","8778","6","22","Female","","","","","","","null","<div style=""font-size:60px;"">+</div>","null","fixation","","","","","","","","","1","","",""
"revaluation","298","1227751","0.0-4.0-2.1-0.51","spark_pilot_norest","8778","6","22","Female","","","false","","","","[365,461]","./assets/img/ocean/memory/6.jpg","[""ArrowDown"",""ArrowLeft""]","value training","ocean","5","{""ArrowUp,ArrowLeft"":26,""ArrowUp,ArrowRight"":10,""ArrowDown,ArrowLeft"":5,""ArrowDown,ArrowRight"":17}","false","ArrowDown,ArrowLeft","false","original","2","2","","",""
"html-keyboard-response","299","1228257","0.0-4.0-2.1-1.51","spark_pilot_norest","8778","6","22","Female","","","","","","","null","<div style=""font-size:60px;"">+</div>","null","fixation","","","","","","","","","3","","",""
"revaluation","300","1234278","0.0-4.0-2.1-0.52","spark_pilot_norest","8778","6","22","Female","","","false","","","","[335,527]","./assets/img/ocean/memory/4.jpg","[""ArrowUp"",""ArrowRight""]","value training","ocean","10","{""ArrowUp,ArrowLeft"":26,""ArrowUp,ArrowRight"":10,""ArrowDown,ArrowLeft"":5,""ArrowDown,ArrowRight"":17}","false","ArrowUp,ArrowRight","false","original","2","4","","",""
"html-keyboard-response","301","1234784","0.0-4.0-2.1-1.52","spark_pilot_norest","8778","6","22","Female","","","","","","","null","<div style=""font-size:60px;"">+</div>","null","fixation","","","","","","","","","5","","",""
"revaluation","302","1240805","0.0-4.0-2.1-0.53","spark_pilot_norest","8778","6","22","Female","","","false","","","","[385,395]","./assets/img/ocean/memory/12.jpg","[""ArrowUp"",""ArrowLeft""]","value training","ocean","26","{""ArrowUp,ArrowLeft"":26,""ArrowUp,ArrowRight"":10,""ArrowDown,ArrowLeft"":5,""ArrowDown,ArrowRight"":17}","true","ArrowUp,ArrowLeft","false","original","2","6","","",""
"html-keyboard-response","303","1241310","0.0-4.0-2.1-1.53","spark_pilot_norest","8778","6","22","Female","","","","","","","null","<div style=""font-size:60px;"">+</div>","null","fixation","","","","","","","","","7","","",""
"revaluation","304","1247330","0.0-4.0-2.1-0.54","spark_pilot_norest","8778","6","22","Female","","","false","","","","[739,399]","./assets/img/ocean/memory/0.jpg","[""ArrowUp"",""ArrowLeft""]","value training","ocean","26","{""ArrowUp,ArrowLeft"":26,""ArrowUp,ArrowRight"":10,""ArrowDown,ArrowLeft"":5,""ArrowDown,ArrowRight"":17}","true","ArrowUp,ArrowLeft","false","original","2","8","","",""
"html-keyboard-response","305","1247836","0.0-4.0-2.1-1.54","spark_pilot_norest","8778","6","22","Female","","","","","","","null","<div style=""font-size:60px;"">+</div>","null","fixation","","","","","","","","","9","","",""
"revaluation","306","1251851","0.0-4.0-2.1-0.55","spark_pilot_norest","8778","6","22","Female","","","false","","","","[976]","./assets/img/ocean/catch/1.jpg","[""spaceBar""]","value training","ocean","0","{""ArrowUp,ArrowLeft"":26,""ArrowUp,ArrowRight"":10,""ArrowDown,ArrowLeft"":5,""ArrowDown,ArrowRight"":17}","true","spaceBar","true","original","2","10","","",""
"html-keyboard-response","307","1252358","0.0-4.0-2.1-1.55","spark_pilot_norest","8778","6","22","Female","","","","","","","null","<div style=""font-size:60px;"">+</div>","null","fixation","","","","","","","","","11","","",""
"revaluation","308","1258377","0.0-4.0-2.1-0.56","spark_pilot_norest","8778","6","22","Female","","","false","","","","[630,429]","./assets/img/ocean/memory/18.jpg","[""ArrowUp"",""ArrowLeft""]","value training","ocean","26","{""ArrowUp,ArrowLeft"":26,""ArrowUp,ArrowRight"":10,""ArrowDown,ArrowLeft"":5,""ArrowDown,ArrowRight"":17}","true","ArrowUp,ArrowLeft","false","original","2","12","","",""
"html-keyboard-response","309","1258884","0.0-4.0-2.1-1.56","spark_pilot_norest","8778","6","22","Female","","","","","","","null","<div style=""font-size:60px;"">+</div>","null","fixation","","","","","","","","","13","","",""
"revaluation","310","1264903","0.0-4.0-2.1-0.57","spark_pilot_norest","8778","6","22","Female","","","false","","","","[572,356]","./assets/img/ocean/memory/10.jpg","[""ArrowUp"",""ArrowLeft""]","value training","ocean","26","{""ArrowUp,ArrowLeft"":26,""ArrowUp,ArrowRight"":10,""ArrowDown,ArrowLeft"":5,""ArrowDown,ArrowRight"":17}","true","ArrowUp,ArrowLeft","false","original","2","14","","",""
"html-keyboard-response","311","1265409","0.0-4.0-2.1-1.57","spark_pilot_norest","8778","6","22","Female","","","","","","","null","<div style=""font-size:60px;"">+</div>","null","fixation","","","","","","","","","15","","",""
"revaluation","312","1269420","0.0-4.0-2.1-0.58","spark_pilot_norest","8778","6","22","Female","","","false","","","","[717]","./assets/img/ocean/catch/7.jpg","[""spaceBar""]","value training","ocean","0","{""ArrowUp,ArrowLeft"":26,""ArrowUp,ArrowRight"":10,""ArrowDown,ArrowLeft"":5,""ArrowDown,ArrowRight"":17}","true","spaceBar","true","original","2","16","","",""
"html-keyboard-response","313","1269927","0.0-4.0-2.1-1.58","spark_pilot_norest","8778","6","22","Female","","","","","","","null","<div style=""font-size:60px;"">+</div>","null","fixation","","","","","","","","","17","","",""
"revaluation","314","1273937","0.0-4.0-2.1-0.59","spark_pilot_norest","8778","6","22","Female","","","false","","","","[890]","./assets/img/ocean/catch/5.jpg","[""spaceBar""]","value training","ocean","0","{""ArrowUp,ArrowLeft"":26,""ArrowUp,ArrowRight"":10,""ArrowDown,ArrowLeft"":5,""ArrowDown,ArrowRight"":17}","true","spaceBar","true","original","2","18","","",""
"html-keyboard-response","315","1274443","0.0-4.0-2.1-1.59","spark_pilot_norest","8778","6","22","Female","","","","","","","null","<div style=""font-size:60px;"">+</div>","null","fixation","","","","","","","","","19","","",""
"revaluation","316","1278458","0.0-4.0-2.1-0.60","spark_pilot_norest","8778","6","22","Female","","","false","","","","[702]","./assets/img/ocean/catch/4.jpg","[""spaceBar""]","value training","ocean","0","{""ArrowUp,ArrowLeft"":26,""ArrowUp,ArrowRight"":10,""ArrowDown,ArrowLeft"":5,""ArrowDown,ArrowRight"":17}","true","spaceBar","true","original","2","20","","",""
