"trial_type","trial_index","time_elapsed","internal_node_id","task_version","subject_id","assigned_condition","age","gender","success","timeout","failed_images","failed_audio","failed_video","browser_interaction","rt","stimulus","response","task_part","environment","score","rewardMap","correct","fullState","isCatch","condition","order","trial_num","key_press","ground_truth","bonus"
"pavlovia","0","1303","0.0-0.0","spark_pilot_norest","8700","1","19","Female","","","","","","","","","","","","","","","","","","","","","",""
"preload","1","38140","0.0-1.0","spark_pilot_norest","8700","1","19","Female","true","false","[]","[]","[]","[{""event"":""fullscreenenter"",""trial"":2,""time"":43110}]","","","","","","","","","","","","","","","",""
"fullscreen","2","44085","0.0-2.0","spark_pilot_norest","8700","1","19","Female","true","","","","","","","","","","","","","","","","","","","","",""
"audio-button-response","3","46199","0.0-3.0-0.0-0.0","spark_pilot_norest","8700","1","19","Female","","","","","","","1440","./assets/audio/audiotest/turtle.mp3","2","audio_test","","","","","","","","","","","",""
"learning-instructions","4","57048","0.0-3.0-1.0-0.0","spark_pilot_norest","8700","1","19","Female","","","","","","","3845.1999999955297","<p> Welcome! Please remember to stay in fullscreen mode and don't click away from the experiment. </p>","","instructions","","","","","","","","","","","",""
"learning-instructions","5","66855","0.0-3.0-1.0-0.1","spark_pilot_norest","8700","1","19","Female","","","","","","","1373.3000000044703","<p> Today you will be playing a game to earn treasure. </p>
            <p> At the end of the experiment, you will earn a bonus based on how much treasure you find. </p>
            <img src='./assets/img/instructions/treasure.jpg' class='instructions-image'>","","instructions","","","","","","","","","","","",""
"learning-instructions","6","76251","0.0-3.0-1.0-0.2","spark_pilot_norest","8700","1","19","Female","","","","","","","1118.6000000014901","<p> Animals have hidden treasure in treasure chests. </p>
            <p> You need to first find an animal and then choose which of their treasure chests to search. </p>
            <img src='./assets/img/space/animals/cat.jpg' class='instructions-image'>","","instructions","","","","","","","","","","","",""
"learning-instructions","7","90858","0.0-3.0-1.0-0.3","spark_pilot_norest","8700","1","19","Female","","","","","","","1415.3999999985099","<p> In each round, you will search for treasure in a different place. In the real game, there will be two rounds. </p>
            <p> You will begin with a separate, practice round where you will search for treasure in outer space. </p>
            <img src='./assets/img/space/0.jpg' class='instructions-image'>","","instructions","","","","","","","","","","","",""
"learning-instructions","8","103304","0.0-3.0-1.0-0.4","spark_pilot_norest","8700","1","19","Female","","","","","","","1021.7999999970198","<p> On every turn, you will see a picture of the place that you are in, but the specific image may be different each time. </p>
            <p> For example, both of these images mean you are in outer space. </p>
            <img src='./assets/img/instructions/outerspace.jpg' class='instructions-image'>","","instructions","","","","","","","","","","","",""
"learning-instructions","9","112150","0.0-3.0-1.0-0.5","spark_pilot_norest","8700","1","19","Female","","","","","","","1016.8999999985099","<p> You need to decide which direction to travel in. </p>
            <p> You can choose between going <b>up or down</b> by using the arrow keys. </p>
            <img src='./assets/img/instructions/updown.jpg' class='instructions-image'>","","instructions","","","","","","","","","","","",""
"learning-instructions","10","121777","0.0-3.0-1.0-0.6","spark_pilot_norest","8700","1","19","Female","","","","","","","784.7000000029802","<p> You will have <b>2 seconds</b> to make your choice. </p>
            <p> If you do not make a choice within 2 seconds, you will not find an animal or earn treasure. </p>
            <img src='./assets/img/instructions/2seconds.jpg' class='instructions-image'>","","instructions","","","","","","","","","","","",""
"learning-instructions","11","132069","0.0-3.0-1.0-0.7","spark_pilot_norest","8700","1","19","Female","","","","","","","3235.89999999851","<p> Let’s try practicing that now! </p>
            <p> When you see a picture of the place you are in, press the <b>up</b> key to travel up. </p>
            <img src='./assets/img/instructions/pressUp.jpg' class='instructions-image'>","","instructions","","","","","","","","","","","",""
"revaluation","12","136119","0.0-3.0-2.0-0.0","spark_pilot_norest","8700","1","19","Female","","false","","","","","[1061.3999999985099]","./assets/img/space/0.jpg","[""ArrowUp""]","first stage practice","space","0","null","null","ArrowUp","false","","","","","",""
"html-keyboard-response","13","136635","0.0-3.0-2.0-1.0","spark_pilot_norest","8700","1","19","Female","","","","","","","null","<div style=""font-size:60px;"">+</div>","null","fixation","","","","","","","","","","","",""
"revaluation","14","140644","0.0-3.0-2.0-0.1","spark_pilot_norest","8700","1","19","Female","","true","","","","","[]","./assets/img/space/1.jpg","[]","first stage practice","space","-5","null","null","","false","","","","","",""
"html-keyboard-response","15","141150","0.0-3.0-2.0-1.1","spark_pilot_norest","8700","1","19","Female","","","","","","","null","<div style=""font-size:60px;"">+</div>","null","fixation","","","","","","","","","","","",""
"revaluation","16","145171","0.0-3.0-2.0-0.2","spark_pilot_norest","8700","1","19","Female","","false","","","","","[1011.7000000029802]","./assets/img/space/2.jpg","[""ArrowUp""]","first stage practice","space","0","null","null","ArrowUp","false","","","","","",""
"html-keyboard-response","17","145678","0.0-3.0-2.0-1.2","spark_pilot_norest","8700","1","19","Female","","","","","","","null","<div style=""font-size:60px;"">+</div>","null","fixation","","","","","","","","","","","",""
"learning-instructions","18","151912","0.0-3.0-3.0-0.0","spark_pilot_norest","8700","1","19","Female","","","","","","","1519.5999999940395","<p> Great job! Now try pressing the <b>down</b> key to travel down. </p>
            <img src='./assets/img/instructions/pressDown.jpg' class='instructions-image'>","","instructions","","","","","","","","","","","",""
"revaluation","19","155931","0.0-3.0-4.0-0.0","spark_pilot_norest","8700","1","19","Female","","false","","","","","[320.29999999701977]","./assets/img/space/3.jpg","[""ArrowDown""]","first stage practice","space","0","null","null","ArrowDown","false","","","","","",""
"html-keyboard-response","20","156439","0.0-3.0-4.0-1.0","spark_pilot_norest","8700","1","19","Female","","","","","","","null","<div style=""font-size:60px;"">+</div>","null","fixation","","","","","","","","","","","",""
"revaluation","21","160466","0.0-3.0-4.0-0.1","spark_pilot_norest","8700","1","19","Female","","false","","","","","[593.6999999955297]","./assets/img/space/4.jpg","[""ArrowDown""]","first stage practice","space","0","null","null","ArrowDown","false","","","","","",""
"html-keyboard-response","22","160980","0.0-3.0-4.0-1.1","spark_pilot_norest","8700","1","19","Female","","","","","","","null","<div style=""font-size:60px;"">+</div>","null","fixation","","","","","","","","","","","",""
"revaluation","23","165005","0.0-3.0-4.0-0.2","spark_pilot_norest","8700","1","19","Female","","false","","","","","[715.8000000044703]","./assets/img/space/5.jpg","[""ArrowDown""]","first stage practice","space","0","null","null","ArrowDown","false","","","","","",""
"html-keyboard-response","24","165510","0.0-3.0-4.0-1.2","spark_pilot_norest","8700","1","19","Female","","","","","","","null","<div style=""font-size:60px;"">+</div>","null","fixation","","","","","","","","","","","",""
"learning-instructions","25","176062","0.0-3.0-5.0-0.0","spark_pilot_norest","8700","1","19","Female","","","","","","","670.2999999970198","<p> The animals don’t move, so the animal in the upper part of a place will stay in the upper part of a place, and the animal in the lower part of a place will stay in the lower part of a place. </p>","","instructions","","","","","","","","","","","",""
"learning-instructions","26","185836","0.0-3.0-5.0-0.1","spark_pilot_norest","8700","1","19","Female","","","","","","","635.2999999970198","<p> Each animal has two treasure chests for you to choose from. </p>
            <p> The amount of treasure in each chest can range from <b> 0 to 40 pieces.</b></p>","","instructions","","","","","","","","","","","",""
"learning-instructions","27","199449","0.0-3.0-5.0-0.2","spark_pilot_norest","8700","1","19","Female","","","","","","","2417.2999999970198","<p> You should decide which chest to search for treasure by using the <b>left</b> and <b>right</b> arrow keys. </p>
            <p><b> Pay attention to which animal is on the screen, as the animals have different treasure chests. </b></p>
            <img src='./assets/img/instructions/leftright.jpg' class='instructions-image'>","","instructions","","","","","","","","","","","",""
"learning-instructions","28","206532","0.0-3.0-5.0-0.3","spark_pilot_norest","8700","1","19","Female","","","","","","","699.8999999985099","<p> Let’s try practicing that now. </p>
            <p> When you see an animal, choose which chest to search for treasure. </p>
            <img src='./assets/img/instructions/chooseChest.jpg' class='instructions-image'>","","instructions","","","","","","","","","","","",""
"revaluation","29","210560","0.0-3.0-6.0-0.0","spark_pilot_norest","8700","1","19","Female","","false","","","","","[621]","./assets/img/space/animals/cat.jpg","[""ArrowRight""]","second stage practice","space","36","{""ArrowUp,ArrowLeft"":3,""ArrowUp,ArrowRight"":36,""ArrowDown,ArrowLeft"":15,""ArrowDown,ArrowRight"":23}","true","ArrowUp,ArrowRight","","","","","","",""
"html-keyboard-response","30","211067","0.0-3.0-6.0-1.0","spark_pilot_norest","8700","1","19","Female","","","","","","","null","<div style=""font-size:60px;"">+</div>","null","fixation","","","","","","","","","","","",""
"revaluation","31","215094","0.0-3.0-6.0-0.1","spark_pilot_norest","8700","1","19","Female","","false","","","","","[621.6000000014901]","./assets/img/space/animals/rabbit.jpg","[""ArrowLeft""]","second stage practice","space","15","{""ArrowUp,ArrowLeft"":3,""ArrowUp,ArrowRight"":36,""ArrowDown,ArrowLeft"":15,""ArrowDown,ArrowRight"":23}","false","ArrowDown,ArrowLeft","","","","","","",""
"html-keyboard-response","32","215604","0.0-3.0-6.0-1.1","spark_pilot_norest","8700","1","19","Female","","","","","","","null","<div style=""font-size:60px;"">+</div>","null","fixation","","","","","","","","","","","",""
"revaluation","33","219626","0.0-3.0-6.0-0.2","spark_pilot_norest","8700","1","19","Female","","false","","","","","[305.79999999701977]","./assets/img/space/animals/cat.jpg","[""ArrowLeft""]","second stage practice","space","3","{""ArrowUp,ArrowLeft"":3,""ArrowUp,ArrowRight"":36,""ArrowDown,ArrowLeft"":15,""ArrowDown,ArrowRight"":23}","false","ArrowUp,ArrowLeft","","","","","","",""
"html-keyboard-response","34","220127","0.0-3.0-6.0-1.2","spark_pilot_norest","8700","1","19","Female","","","","","","","null","<div style=""font-size:60px;"">+</div>","null","fixation","","","","","","","","","","","",""
"revaluation","35","224136","0.0-3.0-6.0-0.3","spark_pilot_norest","8700","1","19","Female","","false","","","","","[352.1000000014901]","./assets/img/space/animals/rabbit.jpg","[""ArrowLeft""]","second stage practice","space","15","{""ArrowUp,ArrowLeft"":3,""ArrowUp,ArrowRight"":36,""ArrowDown,ArrowLeft"":15,""ArrowDown,ArrowRight"":23}","false","ArrowDown,ArrowLeft","","","","","","",""
"html-keyboard-response","36","224648","0.0-3.0-6.0-1.3","spark_pilot_norest","8700","1","19","Female","","","","","","","null","<div style=""font-size:60px;"">+</div>","null","fixation","","","","","","","","","","","",""
"learning-instructions","37","242616","0.0-3.0-7.0-0.0","spark_pilot_norest","8700","1","19","Female","","","","","","","1143.7999999970198","<p> Great job. Now let’s try putting it together. </p>
            <p> On each turn, you will first see a picture to remind you of the place you are in, and you need to choose whether to go up or down. </p>
            <p> Then you will see an animal and choose which of its chests to search for treasure. </p>","","instructions","","","","","","","","","","","",""
"learning-instructions","38","251492","0.0-3.0-7.0-0.1","spark_pilot_norest","8700","1","19","Female","","","","","","","609.8999999985099","<p> When you choose whether to go up or down, try to go to the animal with the chest with the most treasure. </p>
            <p> Try practicing that now! </p>","","instructions","","","","","","","","","","","",""
"revaluation","39","257523","0.0-3.0-8.0-0.0","spark_pilot_norest","8700","1","19","Female","","false","","","","","[773.6000000014901,586.7999999970198]","./assets/img/space/6.jpg","[""ArrowUp"",""ArrowRight""]","full practice","space","36","{""ArrowUp,ArrowLeft"":3,""ArrowUp,ArrowRight"":36,""ArrowDown,ArrowLeft"":15,""ArrowDown,ArrowRight"":23}","true","ArrowUp,ArrowRight","false","","","","","",""
"html-keyboard-response","40","258025","0.0-3.0-8.0-1.0","spark_pilot_norest","8700","1","19","Female","","","","","","","null","<div style=""font-size:60px;"">+</div>","null","fixation","","","","","","","","","","","",""
"revaluation","41","264040","0.0-3.0-8.0-0.1","spark_pilot_norest","8700","1","19","Female","","false","","","","","[650.6999999955297,499.8999999985099]","./assets/img/space/7.jpg","[""ArrowUp"",""ArrowLeft""]","full practice","space","3","{""ArrowUp,ArrowLeft"":3,""ArrowUp,ArrowRight"":36,""ArrowDown,ArrowLeft"":15,""ArrowDown,ArrowRight"":23}","false","ArrowUp,ArrowLeft","false","","","","","",""
"html-keyboard-response","42","264546","0.0-3.0-8.0-1.1","spark_pilot_norest","8700","1","19","Female","","","","","","","null","<div style=""font-size:60px;"">+</div>","null","fixation","","","","","","","","","","","",""
"revaluation","43","270581","0.0-3.0-8.0-0.2","spark_pilot_norest","8700","1","19","Female","","false","","","","","[1263.7999999970198,388.09999999403954]","./assets/img/space/8.jpg","[""ArrowUp"",""ArrowRight""]","full practice","space","36","{""ArrowUp,ArrowLeft"":3,""ArrowUp,ArrowRight"":36,""ArrowDown,ArrowLeft"":15,""ArrowDown,ArrowRight"":23}","true","ArrowUp,ArrowRight","false","","","","","",""
"html-keyboard-response","44","271084","0.0-3.0-8.0-1.2","spark_pilot_norest","8700","1","19","Female","","","","","","","null","<div style=""font-size:60px;"">+</div>","null","fixation","","","","","","","","","","","",""
"revaluation","45","277095","0.0-3.0-8.0-0.3","spark_pilot_norest","8700","1","19","Female","","false","","","","","[464.8999999985099,1035]","./assets/img/space/9.jpg","[""ArrowDown"",""ArrowLeft""]","full practice","space","15","{""ArrowUp,ArrowLeft"":3,""ArrowUp,ArrowRight"":36,""ArrowDown,ArrowLeft"":15,""ArrowDown,ArrowRight"":23}","false","ArrowDown,ArrowLeft","false","","","","","",""
"html-keyboard-response","46","277608","0.0-3.0-8.0-1.3","spark_pilot_norest","8700","1","19","Female","","","","","","","null","<div style=""font-size:60px;"">+</div>","null","fixation","","","","","","","","","","","",""
"revaluation","47","283622","0.0-3.0-8.0-0.4","spark_pilot_norest","8700","1","19","Female","","false","","","","","[297.6000000014901,318.1000000014901]","./assets/img/space/10.jpg","[""ArrowDown"",""ArrowRight""]","full practice","space","23","{""ArrowUp,ArrowLeft"":3,""ArrowUp,ArrowRight"":36,""ArrowDown,ArrowLeft"":15,""ArrowDown,ArrowRight"":23}","false","ArrowDown,ArrowRight","false","","","","","",""
"html-keyboard-response","48","284130","0.0-3.0-8.0-1.4","spark_pilot_norest","8700","1","19","Female","","","","","","","null","<div style=""font-size:60px;"">+</div>","null","fixation","","","","","","","","","","","",""
"learning-instructions","49","295152","0.0-3.0-9.0-0.0","spark_pilot_norest","8700","1","19","Female","","","","","","","689.5","<p> One last thing: sometimes, you will see a robber. The robber can be anywhere in the picture. </p>
            <p> If you do not stop them, you will lose treasure. </p>
            <img src='./assets/img/instructions/robber.jpg' class='instructions-image'>","","instructions","","","","","","","","","","","",""
"learning-instructions","50","302995","0.0-3.0-9.0-0.1","spark_pilot_norest","8700","1","19","Female","","","","","","","683.3999999985099","<p> If you see the robber, you should <b>press the space bar</b> rather than using the arrow keys. </p>
            <p> Try practicing that now! </p>","","instructions","","","","","","","","","","","",""
"revaluation","51","307010","0.0-3.0-10.0-0.0","spark_pilot_norest","8700","1","19","Female","","false","","","","","[1167.6000000014901]","./assets/img/space/catch/0.jpg","[""spaceBar""]","catch practice","space","0","{""ArrowUp,ArrowLeft"":3,""ArrowUp,ArrowRight"":36,""ArrowDown,ArrowLeft"":15,""ArrowDown,ArrowRight"":23}","true","spaceBar","true","","","","","",""
"html-keyboard-response","52","307514","0.0-3.0-10.0-1.0","spark_pilot_norest","8700","1","19","Female","","","","","","","null","<div style=""font-size:60px;"">+</div>","null","fixation","","","","","","","","","","","",""
"revaluation","53","311540","0.0-3.0-10.0-0.1","spark_pilot_norest","8700","1","19","Female","","false","","","","","[736.8000000044703]","./assets/img/space/catch/1.jpg","[""spaceBar""]","catch practice","space","0","{""ArrowUp,ArrowLeft"":3,""ArrowUp,ArrowRight"":36,""ArrowDown,ArrowLeft"":15,""ArrowDown,ArrowRight"":23}","true","spaceBar","true","","","","","",""
"html-keyboard-response","54","312053","0.0-3.0-10.0-1.1","spark_pilot_norest","8700","1","19","Female","","","","","","","null","<div style=""font-size:60px;"">+</div>","null","fixation","","","","","","","","","","","",""
"revaluation","55","316073","0.0-3.0-10.0-0.2","spark_pilot_norest","8700","1","19","Female","","false","","","","","[483]","./assets/img/space/catch/2.jpg","[""spaceBar""]","catch practice","space","0","{""ArrowUp,ArrowLeft"":3,""ArrowUp,ArrowRight"":36,""ArrowDown,ArrowLeft"":15,""ArrowDown,ArrowRight"":23}","true","spaceBar","true","","","","","",""
"html-keyboard-response","56","316578","0.0-3.0-10.0-1.2","spark_pilot_norest","8700","1","19","Female","","","","","","","null","<div style=""font-size:60px;"">+</div>","null","fixation","","","","","","","","","","","",""
"learning-instructions","57","323839","0.0-3.0-11.0-0.0-0.0","spark_pilot_norest","8700","1","19","Female","","","","","","","1997.7999999970198","<p> Now, you will practice a shortened version of the game to get a sense of how it all fits together. </p>","","instructions","","","","","","","","","","","",""
"learning-instructions","58","328365","0.0-3.0-11.0-0.0-0.1","spark_pilot_norest","8700","1","19","Female","","","","","","","1343.5","<p>This time you are searching for treasure in outer space.</p>","","instructions","","","","","","","","","","","",""
"learning-instructions","59","343822","0.0-3.0-11.0-1.0-0.0","spark_pilot_norest","8700","1","19","Female","","","","","","","680.3999999985099","<p> Remember, when you see a picture of the place, use the up and down keys to <b>find an animal</b>.</p>
            <p> When you encounter an animal, you should use the left and right keys to <b>select a treasure chest</b>.</p>
            <p> Don't forget to look out for the robber! </p>","","instructions","","","","","","","","","","","",""
"revaluation","60","349850","0.0-3.0-11.0-2.0-0.0","spark_pilot_norest","8700","1","19","Female","","false","","","","","[1323.5,561.5]","./assets/img/space/11.jpg","[""ArrowUp"",""ArrowRight""]","practice block","space","36","{""ArrowUp,ArrowLeft"":3,""ArrowUp,ArrowRight"":36,""ArrowDown,ArrowLeft"":15,""ArrowDown,ArrowRight"":23}","true","ArrowUp,ArrowRight","false","","","","","",""
"html-keyboard-response","61","350365","0.0-3.0-11.0-2.0-1.0","spark_pilot_norest","8700","1","19","Female","","","","","","","null","<div style=""font-size:60px;"">+</div>","null","fixation","","","","","","","","","","","",""
"revaluation","62","356406","0.0-3.0-11.0-2.0-0.1","spark_pilot_norest","8700","1","19","Female","","false","","","","","[673.7000000029802,285.19999999552965]","./assets/img/space/12.jpg","[""ArrowUp"",""ArrowRight""]","practice block","space","36","{""ArrowUp,ArrowLeft"":3,""ArrowUp,ArrowRight"":36,""ArrowDown,ArrowLeft"":15,""ArrowDown,ArrowRight"":23}","true","ArrowUp,ArrowRight","false","","","","","",""
"html-keyboard-response","63","356920","0.0-3.0-11.0-2.0-1.1","spark_pilot_norest","8700","1","19","Female","","","","","","","null","<div style=""font-size:60px;"">+</div>","null","fixation","","","","","","","","","","","",""
"revaluation","64","362956","0.0-3.0-11.0-2.0-0.2","spark_pilot_norest","8700","1","19","Female","","false","","","","","[955.3999999985099,316.20000000298023]","./assets/img/space/13.jpg","[""ArrowUp"",""ArrowRight""]","practice block","space","36","{""ArrowUp,ArrowLeft"":3,""ArrowUp,ArrowRight"":36,""ArrowDown,ArrowLeft"":15,""ArrowDown,ArrowRight"":23}","true","ArrowUp,ArrowRight","false","","","","","",""
"html-keyboard-response","65","363466","0.0-3.0-11.0-2.0-1.2","spark_pilot_norest","8700","1","19","Female","","","","","","","null","<div style=""font-size:60px;"">+</div>","null","fixation","","","","","","","","","","","",""
"revaluation","66","369500","0.0-3.0-11.0-2.0-0.3","spark_pilot_norest","8700","1","19","Female","","false","","","","","[817.0999999940395,559.3999999985099]","./assets/img/space/14.jpg","[""ArrowUp"",""ArrowRight""]","practice block","space","36","{""ArrowUp,ArrowLeft"":3,""ArrowUp,ArrowRight"":36,""ArrowDown,ArrowLeft"":15,""ArrowDown,ArrowRight"":23}","true","ArrowUp,ArrowRight","false","","","","","",""
"html-keyboard-response","67","370002","0.0-3.0-11.0-2.0-1.3","spark_pilot_norest","8700","1","19","Female","","","","","","","null","<div style=""font-size:60px;"">+</div>","null","fixation","","","","","","","","","","","",""
"revaluation","68","376016","0.0-3.0-11.0-2.0-0.4","spark_pilot_norest","8700","1","19","Female","","false","","","","","[1018.5999999940395,282]","./assets/img/space/11.jpg","[""ArrowUp"",""ArrowRight""]","practice block","space","36","{""ArrowUp,ArrowLeft"":3,""ArrowUp,ArrowRight"":36,""ArrowDown,ArrowLeft"":15,""ArrowDown,ArrowRight"":23}","true","ArrowUp,ArrowRight","false","","","","","",""
"html-keyboard-response","69","376519","0.0-3.0-11.0-2.0-1.4","spark_pilot_norest","8700","1","19","Female","","","","","","","null","<div style=""font-size:60px;"">+</div>","null","fixation","","","","","","","","","","","",""
"revaluation","70","382536","0.0-3.0-11.0-2.0-0.5","spark_pilot_norest","8700","1","19","Female","","false","","","","","[857,257.09999999403954]","./assets/img/space/12.jpg","[""ArrowUp"",""ArrowRight""]","practice block","space","36","{""ArrowUp,ArrowLeft"":3,""ArrowUp,ArrowRight"":36,""ArrowDown,ArrowLeft"":15,""ArrowDown,ArrowRight"":23}","true","ArrowUp,ArrowRight","false","","","","","",""
"html-keyboard-response","71","383042","0.0-3.0-11.0-2.0-1.5","spark_pilot_norest","8700","1","19","Female","","","","","","","null","<div style=""font-size:60px;"">+</div>","null","fixation","","","","","","","","","","","",""
"revaluation","72","389057","0.0-3.0-11.0-2.0-0.6","spark_pilot_norest","8700","1","19","Female","","false","","","","","[632.3999999985099,244.80000000447035]","./assets/img/space/13.jpg","[""ArrowUp"",""ArrowRight""]","practice block","space","36","{""ArrowUp,ArrowLeft"":3,""ArrowUp,ArrowRight"":36,""ArrowDown,ArrowLeft"":15,""ArrowDown,ArrowRight"":23}","true","ArrowUp,ArrowRight","false","","","","","",""
"html-keyboard-response","73","389563","0.0-3.0-11.0-2.0-1.6","spark_pilot_norest","8700","1","19","Female","","","","","","","null","<div style=""font-size:60px;"">+</div>","null","fixation","","","","","","","","","","","",""
"revaluation","74","395586","0.0-3.0-11.0-2.0-0.7","spark_pilot_norest","8700","1","19","Female","","false","","","","","[777.6999999955297,247.20000000298023]","./assets/img/space/14.jpg","[""ArrowUp"",""ArrowRight""]","practice block","space","36","{""ArrowUp,ArrowLeft"":3,""ArrowUp,ArrowRight"":36,""ArrowDown,ArrowLeft"":15,""ArrowDown,ArrowRight"":23}","true","ArrowUp,ArrowRight","false","","","","","",""
"html-keyboard-response","75","396093","0.0-3.0-11.0-2.0-1.7","spark_pilot_norest","8700","1","19","Female","","","","","","","null","<div style=""font-size:60px;"">+</div>","null","fixation","","","","","","","","","","","",""
"revaluation","76","400108","0.0-3.0-11.0-2.0-0.8","spark_pilot_norest","8700","1","19","Female","","false","","","","","[637.9000000059605]","./assets/img/space/catch/3.jpg","[""spaceBar""]","practice block","space","0","{""ArrowUp,ArrowLeft"":3,""ArrowUp,ArrowRight"":36,""ArrowDown,ArrowLeft"":15,""ArrowDown,ArrowRight"":23}","true","spaceBar","true","","","","","",""
"html-keyboard-response","77","400624","0.0-3.0-11.0-2.0-1.8","spark_pilot_norest","8700","1","19","Female","","","","","","","null","<div style=""font-size:60px;"">+</div>","null","fixation","","","","","","","","","","","",""
"learning-instructions","78","418601","0.0-3.0-11.0-3.0-0.0","spark_pilot_norest","8700","1","19","Female","","","","","","","4406.29999999702","<p> Now, you will travel with a friend who will choose whether you go up or down first. </p>
            <p> On these turns, you will just see the animal that they found. You will still get to choose which chest to search for treasure.</p>","","instructions","","","","","","","","","","","",""
"revaluation","79","422629","0.0-3.0-11.0-4.0-0.0","spark_pilot_norest","8700","1","19","Female","","false","","","","","[1036.2000000029802]","./assets/img/space/animals/cat.jpg","[""ArrowLeft""]","practice block","space","3","{""ArrowUp,ArrowLeft"":3,""ArrowUp,ArrowRight"":36,""ArrowDown,ArrowLeft"":15,""ArrowDown,ArrowRight"":23}","false","ArrowUp,ArrowLeft","","","","","","",""
"html-keyboard-response","80","423137","0.0-3.0-11.0-4.0-1.0","spark_pilot_norest","8700","1","19","Female","","","","","","","null","<div style=""font-size:60px;"">+</div>","null","fixation","","","","","","","","","","","",""
"revaluation","81","427162","0.0-3.0-11.0-4.0-0.1","spark_pilot_norest","8700","1","19","Female","","false","","","","","[793.2000000029802]","./assets/img/space/animals/cat.jpg","[""ArrowRight""]","practice block","space","36","{""ArrowUp,ArrowLeft"":3,""ArrowUp,ArrowRight"":36,""ArrowDown,ArrowLeft"":15,""ArrowDown,ArrowRight"":23}","true","ArrowUp,ArrowRight","","","","","","",""
"html-keyboard-response","82","427678","0.0-3.0-11.0-4.0-1.1","spark_pilot_norest","8700","1","19","Female","","","","","","","null","<div style=""font-size:60px;"">+</div>","null","fixation","","","","","","","","","","","",""
"revaluation","83","431694","0.0-3.0-11.0-4.0-0.2","spark_pilot_norest","8700","1","19","Female","","false","","","","","[467.09999999403954]","./assets/img/space/animals/rabbit.jpg","[""ArrowRight""]","practice block","space","23","{""ArrowUp,ArrowLeft"":3,""ArrowUp,ArrowRight"":36,""ArrowDown,ArrowLeft"":15,""ArrowDown,ArrowRight"":23}","true","ArrowDown,ArrowRight","","","","","","",""
"html-keyboard-response","84","432200","0.0-3.0-11.0-4.0-1.2","spark_pilot_norest","8700","1","19","Female","","","","","","","null","<div style=""font-size:60px;"">+</div>","null","fixation","","","","","","","","","","","",""
"revaluation","85","436228","0.0-3.0-11.0-4.0-0.3","spark_pilot_norest","8700","1","19","Female","","false","","","","","[337.1000000014901]","./assets/img/space/animals/rabbit.jpg","[""ArrowRight""]","practice block","space","23","{""ArrowUp,ArrowLeft"":3,""ArrowUp,ArrowRight"":36,""ArrowDown,ArrowLeft"":15,""ArrowDown,ArrowRight"":23}","true","ArrowDown,ArrowRight","","","","","","",""
"html-keyboard-response","86","436738","0.0-3.0-11.0-4.0-1.3","spark_pilot_norest","8700","1","19","Female","","","","","","","null","<div style=""font-size:60px;"">+</div>","null","fixation","","","","","","","","","","","",""
"learning-instructions","87","444877","0.0-3.0-11.0-5.0-0.0","spark_pilot_norest","8700","1","19","Female","","","","","","","null","<p> You have almost finished this part of the game! </p>
            <p> We are going to ask you to make a few more choices. </p>","","instructions","","","","","","","","","","","",""
"learning-instructions","88","460914","0.0-3.0-11.0-5.0-0.1","spark_pilot_norest","8700","1","19","Female","","","","","","","null","<p> First, you need to decide whether to go up or down. When you see each picture, use the arrow keys to make your choice. </p>
            <p><b>You will not see which animal you found, but try to get to the one that will give you the most treasure.</b></p>","","instructions","","","","","","","","","","","",""
"html-keyboard-response","89","461920","0.0-3.0-11.0-6.0-0.0","spark_pilot_norest","8700","1","19","Female","","","","","","","null","<div style=""font-size:100px;color:red;"">Starting in...</div>","null","","","","","","","","","","","","",""
"html-keyboard-response","90","462927","0.0-3.0-11.0-6.0-1.0","spark_pilot_norest","8700","1","19","Female","","","","","","","null","<div style=""font-size:200px;color:red;"">3</div>","null","","","","","","","","","","","","",""
"html-keyboard-response","91","463930","0.0-3.0-11.0-6.0-2.0","spark_pilot_norest","8700","1","19","Female","","","","","","","null","<div style=""font-size:200px;color:red;"">2</div>","null","","","","","","","","","","","","",""
"html-keyboard-response","92","464932","0.0-3.0-11.0-6.0-3.0","spark_pilot_norest","8700","1","19","Female","","","","","","","null","<div style=""font-size:200px;color:red;"">1</div>","null","","","","","","","","","","","","",""
"revaluation","93","465515","0.0-3.0-11.0-7.0","spark_pilot_norest","8700","1","19","Female","","false","","","","","[580.0999999940395]","./assets/img/space/15.jpg","[""ArrowUp""]","practice block","space","0","{""ArrowUp,ArrowLeft"":3,""ArrowUp,ArrowRight"":36,""ArrowDown,ArrowLeft"":15,""ArrowDown,ArrowRight"":23}","true","ArrowUp","false","","","","","",""
"html-keyboard-response","94","466030","0.0-3.0-11.0-8.0","spark_pilot_norest","8700","1","19","Female","","","","","","","null","<div style=""font-size:60px;"">+</div>","null","fixation","","","","","","","","","","","",""
"learning-instructions","95","479440","0.0-3.0-11.0-9.0-0.0","spark_pilot_norest","8700","1","19","Female","","","","","","","null","<p> Now you will see the animals again and can search their chests for treasure. </p>
            <p> This time, you will not see how much treasure you earned, but you will earn more bonus money for making better choices. </p>","","instructions","","","","","","","","","","","",""
"html-keyboard-response","96","480444","0.0-3.0-11.0-10.0-0.0","spark_pilot_norest","8700","1","19","Female","","","","","","","null","<div style=""font-size:100px;color:red;"">Starting in...</div>","null","","","","","","","","","","","","",""
"html-keyboard-response","97","481454","0.0-3.0-11.0-10.0-1.0","spark_pilot_norest","8700","1","19","Female","","","","","","","null","<div style=""font-size:200px;color:red;"">3</div>","null","","","","","","","","","","","","",""
"html-keyboard-response","98","482458","0.0-3.0-11.0-10.0-2.0","spark_pilot_norest","8700","1","19","Female","","","","","","","null","<div style=""font-size:200px;color:red;"">2</div>","null","","","","","","","","","","","","",""
"html-keyboard-response","99","483468","0.0-3.0-11.0-10.0-3.0","spark_pilot_norest","8700","1","19","Female","","","","","","","null","<div style=""font-size:200px;color:red;"">1</div>","null","","","","","","","","","","","","",""
"revaluation","100","484051","0.0-3.0-11.0-11.0-0.0","spark_pilot_norest","8700","1","19","Female","","false","","","","","[579.3999999985099]","./assets/img/space/animals/cat.jpg","[""ArrowRight""]","practice block","space","0","{""ArrowUp,ArrowLeft"":3,""ArrowUp,ArrowRight"":36,""ArrowDown,ArrowLeft"":15,""ArrowDown,ArrowRight"":23}","true","ArrowUp,ArrowRight","","","","","","",""
"html-keyboard-response","101","484556","0.0-3.0-11.0-11.0-1.0","spark_pilot_norest","8700","1","19","Female","","","","","","","null","<div style=""font-size:60px;"">+</div>","null","fixation","","","","","","","","","","","",""
"revaluation","102","485177","0.0-3.0-11.0-11.0-0.1","spark_pilot_norest","8700","1","19","Female","","false","","","","","[618.6000000014901]","./assets/img/space/animals/rabbit.jpg","[""ArrowRight""]","practice block","space","0","{""ArrowUp,ArrowLeft"":3,""ArrowUp,ArrowRight"":36,""ArrowDown,ArrowLeft"":15,""ArrowDown,ArrowRight"":23}","true","ArrowDown,ArrowRight","","","","","","",""
"html-keyboard-response","103","485687","0.0-3.0-11.0-11.0-1.1","spark_pilot_norest","8700","1","19","Female","","","","","","","null","<div style=""font-size:60px;"">+</div>","null","fixation","","","","","","","","","","","",""
"learning-instructions","104","491363","0.0-3.0-12.0-0.0","spark_pilot_norest","8700","1","19","Female","","","","","","","1099.2000000029802","<p> Before you start, we're going to ask you a few questions about how the game works. </p>","","instructions","","","","","","","","","","","",""
"comp-q","105","500084","0.0-3.0-13.0-0.0-0.0","spark_pilot_norest","8700","1","19","Female","","","","","","","3135.2000000029802","<p> <b> True or False? </b> </p>
            <p> There can be 50 pieces of treasure in a given animal's chest. </p>","0","comp_question","","","","false","","","","","","","",""
"comp-q","106","508098","0.0-3.0-13.0-0.0-1.0","spark_pilot_norest","8700","1","19","Female","","","","","","","1464.1000000014901","<p> <b>Incorrect.</b> The amount of treasure in each chest can range from 0 to 40 pieces. </p>","0","comp_answer","","","","","","","","","","","",""
"comp-q","107","514521","0.0-3.0-13.0-0.1-0.1","spark_pilot_norest","8700","1","19","Female","","","","","","","856.8000000044703","<p> <b> True or False? </b> </p>
            <p> There can be 50 pieces of treasure in a given animal's chest. </p>","1","comp_question","","","","true","","","","","","","",""
"comp-q","108","523945","0.0-3.0-13.0-0.1-1.1","spark_pilot_norest","8700","1","19","Female","","","","","","","2760.9000000059605","<p> <b> That's right! </b> The amount of treasure in each chest can range from 0 to 40 pieces. </p>","0","comp_answer","","","","","","","","","","","",""
"comp-q","109","531868","0.0-3.0-13.0-0.2-0.2","spark_pilot_norest","8700","1","19","Female","","","","","","","794.1999999955297","<p> <b> True or False? </b> </p><p> In this game, all animals have the same amount of treasure in their left and right chests. </p>","1","comp_question","","","","true","","","","","","","",""
"comp-q","110","538494","0.0-3.0-13.0-0.2-1.2","spark_pilot_norest","8700","1","19","Female","","","","","","","1389.3000000044703","<p> <b> That's right! </b> Animals have different amounts of treasure in their treasure chests. </p>","0","comp_answer","","","","","","","","","","","",""
"comp-q","111","547097","0.0-3.0-13.0-0.3-0.3","spark_pilot_norest","8700","1","19","Female","","","","","","","2742.89999999851","<p> <b> True or False? </b> </p><p> The same animal will always be there if you go up in the same place. </p>","0","comp_question","","","","true","","","","","","","",""
"comp-q","112","554798","0.0-3.0-13.0-0.3-1.3","spark_pilot_norest","8700","1","19","Female","","","","","","","1244.2000000029802","<p> <b> That's right! </b> One animal lives in the upper part and one lives in the lower part of every place. </p>","0","comp_answer","","","","","","","","","","","",""
"comp-q","113","561140","0.0-3.0-13.0-0.4-0.4","spark_pilot_norest","8700","1","19","Female","","","","","","","786.2000000029802","<p> <b> True or False? </b> </p><p> If you see a different picture, it means you are in a new place. </p>","1","comp_question","","","","true","","","","","","","",""
"comp-q","114","573600","0.0-3.0-13.0-0.4-1.4","spark_pilot_norest","8700","1","19","Female","","","","","","","1215.8000000044703","<p> <b> That's right! </b> Lots of different images may show the same place. For example,  you may see three different images that all remind you that you are in outer space. </p>","0","comp_answer","","","","","","","","","","","",""
"learning-instructions","115","584784","0.0-3.0-14.0-0.0","spark_pilot_norest","8700","1","19","Female","","","","","","","1310.3999999985099","<p> Good job. Remember to do your best because the amount of treasure you earn will be converted into bonus money. </p>
            <p> It’s time to start the real game! </p>","","instructions","","","","","","","","","","","",""
"learning-instructions","116","588932","0.0-4.0-0.0-0.0","spark_pilot_norest","8700","1","19","Female","","","","","","","1427.6000000014901","<p> This time you are searching for treasure in the <b>ocean</b>.</p>","","instructions","","","","","","","","","","","",""
"learning-instructions","117","606957","0.0-4.0-0.0-0.1","spark_pilot_norest","8700","1","19","Female","","","","","","","723.2000000029802","<p><b>New</b> animals with <b>new</b> treasure chests live here. You need to explore to discover where the animal with the best treasure chest is.</p>
                    <p> Like before, once you figure out which animal has the chest with the most treasure, you should try to get to that animal and select that chest! </p>","","instructions","","","","","","","","","","","",""
"learning-instructions","118","622313","0.0-4.0-1.0-0.0","spark_pilot_norest","8700","1","19","Female","","","","","","","628.8000000044703","<p> Remember, when you see a picture of the place, use the up and down keys to <b>find an animal</b>.</p>
            <p> When you encounter an animal, you should use the left and right keys to <b>select a treasure chest</b>.</p>
            <p> Don't forget to look out for the robber! </p>","","instructions","","","","","","","","","","","",""
"revaluation","119","628330","0.0-4.0-2.0-0.0","spark_pilot_norest","8700","1","19","Female","","false","","","","","[1083.1000000014901,507.1000000014901]","./assets/img/ocean/memory/19.jpg","[""ArrowUp"",""ArrowRight""]","value training","ocean","10","{""ArrowUp,ArrowLeft"":26,""ArrowUp,ArrowRight"":10,""ArrowDown,ArrowLeft"":5,""ArrowDown,ArrowRight"":17}","false","ArrowUp,ArrowRight","false","original","1","0","","",""
"html-keyboard-response","120","628848","0.0-4.0-2.0-1.0","spark_pilot_norest","8700","1","19","Female","","","","","","","null","<div style=""font-size:60px;"">+</div>","null","fixation","","","","","","","","","1","","",""
"revaluation","121","632868","0.0-4.0-2.0-0.1","spark_pilot_norest","8700","1","19","Female","","false","","","","","[749]","./assets/img/ocean/catch/1.jpg","[""spaceBar""]","value training","ocean","0","{""ArrowUp,ArrowLeft"":26,""ArrowUp,ArrowRight"":10,""ArrowDown,ArrowLeft"":5,""ArrowDown,ArrowRight"":17}","true","spaceBar","true","original","1","2","","",""
"html-keyboard-response","122","633374","0.0-4.0-2.0-1.1","spark_pilot_norest","8700","1","19","Female","","","","","","","null","<div style=""font-size:60px;"">+</div>","null","fixation","","","","","","","","","3","","",""
"revaluation","123","639406","0.0-4.0-2.0-0.2","spark_pilot_norest","8700","1","19","Female","","false","","","","","[920.1000000014901,306.69999999552965]","./assets/img/ocean/memory/14.jpg","[""ArrowUp"",""ArrowLeft""]","value training","ocean","26","{""ArrowUp,ArrowLeft"":26,""ArrowUp,ArrowRight"":10,""ArrowDown,ArrowLeft"":5,""ArrowDown,ArrowRight"":17}","true","ArrowUp,ArrowLeft","false","original","1","4","","",""
"html-keyboard-response","124","639909","0.0-4.0-2.0-1.2","spark_pilot_norest","8700","1","19","Female","","","","","","","null","<div style=""font-size:60px;"">+</div>","null","fixation","","","","","","","","","5","","",""
"revaluation","125","645927","0.0-4.0-2.0-0.3","spark_pilot_norest","8700","1","19","Female","","false","","","","","[944.1000000014901,376.70000000298023]","./assets/img/ocean/memory/10.jpg","[""ArrowDown"",""ArrowLeft""]","value training","ocean","5","{""ArrowUp,ArrowLeft"":26,""ArrowUp,ArrowRight"":10,""ArrowDown,ArrowLeft"":5,""ArrowDown,ArrowRight"":17}","false","ArrowDown,ArrowLeft","false","original","1","6","","",""
"html-keyboard-response","126","646443","0.0-4.0-2.0-1.3","spark_pilot_norest","8700","1","19","Female","","","","","","","null","<div style=""font-size:60px;"">+</div>","null","fixation","","","","","","","","","7","","",""
"revaluation","127","652474","0.0-4.0-2.0-0.4","spark_pilot_norest","8700","1","19","Female","","false","","","","","[713,267.6000000014901]","./assets/img/ocean/memory/27.jpg","[""ArrowDown"",""ArrowRight""]","value training","ocean","17","{""ArrowUp,ArrowLeft"":26,""ArrowUp,ArrowRight"":10,""ArrowDown,ArrowLeft"":5,""ArrowDown,ArrowRight"":17}","false","ArrowDown,ArrowRight","false","original","1","8","","",""
"html-keyboard-response","128","652983","0.0-4.0-2.0-1.4","spark_pilot_norest","8700","1","19","Female","","","","","","","null","<div style=""font-size:60px;"">+</div>","null","fixation","","","","","","","","","9","","",""
"revaluation","129","658998","0.0-4.0-2.0-0.5","spark_pilot_norest","8700","1","19","Female","","false","","","","","[1120.1000000014901,453.8999999985099]","./assets/img/ocean/memory/30.jpg","[""ArrowUp"",""ArrowLeft""]","value training","ocean","26","{""ArrowUp,ArrowLeft"":26,""ArrowUp,ArrowRight"":10,""ArrowDown,ArrowLeft"":5,""ArrowDown,ArrowRight"":17}","true","ArrowUp,ArrowLeft","false","original","1","10","","",""
"html-keyboard-response","130","659505","0.0-4.0-2.0-1.5","spark_pilot_norest","8700","1","19","Female","","","","","","","null","<div style=""font-size:60px;"">+</div>","null","fixation","","","","","","","","","11","","",""
"revaluation","131","665526","0.0-4.0-2.0-0.6","spark_pilot_norest","8700","1","19","Female","","false","","","","","[795.6000000014901,240.29999999701977]","./assets/img/ocean/memory/36.jpg","[""ArrowUp"",""ArrowLeft""]","value training","ocean","26","{""ArrowUp,ArrowLeft"":26,""ArrowUp,ArrowRight"":10,""ArrowDown,ArrowLeft"":5,""ArrowDown,ArrowRight"":17}","true","ArrowUp,ArrowLeft","false","original","1","12","","",""
"html-keyboard-response","132","666029","0.0-4.0-2.0-1.6","spark_pilot_norest","8700","1","19","Female","","","","","","","null","<div style=""font-size:60px;"">+</div>","null","fixation","","","","","","","","","13","","",""
"revaluation","133","672058","0.0-4.0-2.0-0.7","spark_pilot_norest","8700","1","19","Female","","false","","","","","[741.8999999985099,291]","./assets/img/ocean/memory/15.jpg","[""ArrowUp"",""ArrowLeft""]","value training","ocean","26","{""ArrowUp,ArrowLeft"":26,""ArrowUp,ArrowRight"":10,""ArrowDown,ArrowLeft"":5,""ArrowDown,ArrowRight"":17}","true","ArrowUp,ArrowLeft","false","original","1","14","","",""
"html-keyboard-response","134","672563","0.0-4.0-2.0-1.7","spark_pilot_norest","8700","1","19","Female","","","","","","","null","<div style=""font-size:60px;"">+</div>","null","fixation","","","","","","","","","15","","",""
"revaluation","135","678587","0.0-4.0-2.0-0.8","spark_pilot_norest","8700","1","19","Female","","false","","","","","[989.1000000014901,280.30000000447035]","./assets/img/ocean/memory/3.jpg","[""ArrowUp"",""ArrowLeft""]","value training","ocean","26","{""ArrowUp,ArrowLeft"":26,""ArrowUp,ArrowRight"":10,""ArrowDown,ArrowLeft"":5,""ArrowDown,ArrowRight"":17}","true","ArrowUp,ArrowLeft","false","original","1","16","","",""
"html-keyboard-response","136","679091","0.0-4.0-2.0-1.8","spark_pilot_norest","8700","1","19","Female","","","","","","","null","<div style=""font-size:60px;"">+</div>","null","fixation","","","","","","","","","17","","",""
"revaluation","137","685110","0.0-4.0-2.0-0.9","spark_pilot_norest","8700","1","19","Female","","false","","","","","[669.6000000014901,135.10000000149012]","./assets/img/ocean/memory/11.jpg","[""ArrowUp"",""ArrowLeft""]","value training","ocean","26","{""ArrowUp,ArrowLeft"":26,""ArrowUp,ArrowRight"":10,""ArrowDown,ArrowLeft"":5,""ArrowDown,ArrowRight"":17}","true","ArrowUp,ArrowLeft","false","original","1","18","","",""
"html-keyboard-response","138","685618","0.0-4.0-2.0-1.9","spark_pilot_norest","8700","1","19","Female","","","","","","","null","<div style=""font-size:60px;"">+</div>","null","fixation","","","","","","","","","19","","",""
"revaluation","139","691631","0.0-4.0-2.0-0.10","spark_pilot_norest","8700","1","19","Female","","false","","","","","[1022.2000000029802,342.70000000298023]","./assets/img/ocean/memory/11.jpg","[""ArrowUp"",""ArrowLeft""]","value training","ocean","26","{""ArrowUp,ArrowLeft"":26,""ArrowUp,ArrowRight"":10,""ArrowDown,ArrowLeft"":5,""ArrowDown,ArrowRight"":17}","true","ArrowUp,ArrowLeft","false","original","1","20","","",""
"html-keyboard-response","140","692134","0.0-4.0-2.0-1.10","spark_pilot_norest","8700","1","19","Female","","","","","","","null","<div style=""font-size:60px;"">+</div>","null","fixation","","","","","","","","","21","","",""
"revaluation","141","698148","0.0-4.0-2.0-0.11","spark_pilot_norest","8700","1","19","Female","","false","","","","","[914,242.29999999701977]","./assets/img/ocean/memory/27.jpg","[""ArrowUp"",""ArrowLeft""]","value training","ocean","26","{""ArrowUp,ArrowLeft"":26,""ArrowUp,ArrowRight"":10,""ArrowDown,ArrowLeft"":5,""ArrowDown,ArrowRight"":17}","true","ArrowUp,ArrowLeft","false","original","1","22","","",""
"html-keyboard-response","142","698654","0.0-4.0-2.0-1.11","spark_pilot_norest","8700","1","19","Female","","","","","","","null","<div style=""font-size:60px;"">+</div>","null","fixation","","","","","","","","","23","","",""
"revaluation","143","704679","0.0-4.0-2.0-0.12","spark_pilot_norest","8700","1","19","Female","","false","","","","","[767.6999999955297,282.6000000014901]","./assets/img/ocean/memory/7.jpg","[""ArrowUp"",""ArrowLeft""]","value training","ocean","26","{""ArrowUp,ArrowLeft"":26,""ArrowUp,ArrowRight"":10,""ArrowDown,ArrowLeft"":5,""ArrowDown,ArrowRight"":17}","true","ArrowUp,ArrowLeft","false","original","1","24","","",""
"html-keyboard-response","144","705184","0.0-4.0-2.0-1.12","spark_pilot_norest","8700","1","19","Female","","","","","","","null","<div style=""font-size:60px;"">+</div>","null","fixation","","","","","","","","","25","","",""
"revaluation","145","711214","0.0-4.0-2.0-0.13","spark_pilot_norest","8700","1","19","Female","","false","","","","","[1011.5999999940395,316.69999999552965]","./assets/img/ocean/memory/24.jpg","[""ArrowUp"",""ArrowLeft""]","value training","ocean","26","{""ArrowUp,ArrowLeft"":26,""ArrowUp,ArrowRight"":10,""ArrowDown,ArrowLeft"":5,""ArrowDown,ArrowRight"":17}","true","ArrowUp,ArrowLeft","false","original","1","26","","",""
"html-keyboard-response","146","711721","0.0-4.0-2.0-1.13","spark_pilot_norest","8700","1","19","Female","","","","","","","null","<div style=""font-size:60px;"">+</div>","null","fixation","","","","","","","","","27","","",""
"revaluation","147","717754","0.0-4.0-2.0-0.14","spark_pilot_norest","8700","1","19","Female","","false","","","","","[844.5,282.6000000014901]","./assets/img/ocean/memory/20.jpg","[""ArrowUp"",""ArrowLeft""]","value training","ocean","26","{""ArrowUp,ArrowLeft"":26,""ArrowUp,ArrowRight"":10,""ArrowDown,ArrowLeft"":5,""ArrowDown,ArrowRight"":17}","true","ArrowUp,ArrowLeft","false","original","1","28","","",""
"html-keyboard-response","148","718259","0.0-4.0-2.0-1.14","spark_pilot_norest","8700","1","19","Female","","","","","","","null","<div style=""font-size:60px;"">+</div>","null","fixation","","","","","","","","","29","","",""
"revaluation","149","724279","0.0-4.0-2.0-0.15","spark_pilot_norest","8700","1","19","Female","","false","","","","","[846.2000000029802,289.30000000447035]","./assets/img/ocean/memory/20.jpg","[""ArrowUp"",""ArrowLeft""]","value training","ocean","26","{""ArrowUp,ArrowLeft"":26,""ArrowUp,ArrowRight"":10,""ArrowDown,ArrowLeft"":5,""ArrowDown,ArrowRight"":17}","true","ArrowUp,ArrowLeft","false","original","1","30","","",""
"html-keyboard-response","150","724785","0.0-4.0-2.0-1.15","spark_pilot_norest","8700","1","19","Female","","","","","","","null","<div style=""font-size:60px;"">+</div>","null","fixation","","","","","","","","","31","","",""
"revaluation","151","730805","0.0-4.0-2.0-0.16","spark_pilot_norest","8700","1","19","Female","","false","","","","","[838.7000000029802,244.60000000149012]","./assets/img/ocean/memory/32.jpg","[""ArrowUp"",""ArrowLeft""]","value training","ocean","26","{""ArrowUp,ArrowLeft"":26,""ArrowUp,ArrowRight"":10,""ArrowDown,ArrowLeft"":5,""ArrowDown,ArrowRight"":17}","true","ArrowUp,ArrowLeft","false","original","1","32","","",""
"html-keyboard-response","152","731316","0.0-4.0-2.0-1.16","spark_pilot_norest","8700","1","19","Female","","","","","","","null","<div style=""font-size:60px;"">+</div>","null","fixation","","","","","","","","","33","","",""
"revaluation","153","737338","0.0-4.0-2.0-0.17","spark_pilot_norest","8700","1","19","Female","","false","","","","","[638,162.89999999850988]","./assets/img/ocean/memory/31.jpg","[""ArrowUp"",""ArrowLeft""]","value training","ocean","26","{""ArrowUp,ArrowLeft"":26,""ArrowUp,ArrowRight"":10,""ArrowDown,ArrowLeft"":5,""ArrowDown,ArrowRight"":17}","true","ArrowUp,ArrowLeft","false","original","1","34","","",""
"html-keyboard-response","154","737840","0.0-4.0-2.0-1.17","spark_pilot_norest","8700","1","19","Female","","","","","","","null","<div style=""font-size:60px;"">+</div>","null","fixation","","","","","","","","","35","","",""
"revaluation","155","743850","0.0-4.0-2.0-0.18","spark_pilot_norest","8700","1","19","Female","","false","","","","","[619.2000000029802,227.89999999850988]","./assets/img/ocean/memory/32.jpg","[""ArrowUp"",""ArrowLeft""]","value training","ocean","26","{""ArrowUp,ArrowLeft"":26,""ArrowUp,ArrowRight"":10,""ArrowDown,ArrowLeft"":5,""ArrowDown,ArrowRight"":17}","true","ArrowUp,ArrowLeft","false","original","1","36","","",""
"html-keyboard-response","156","744355","0.0-4.0-2.0-1.18","spark_pilot_norest","8700","1","19","Female","","","","","","","null","<div style=""font-size:60px;"">+</div>","null","fixation","","","","","","","","","37","","",""
"revaluation","157","748366","0.0-4.0-2.0-0.19","spark_pilot_norest","8700","1","19","Female","","false","","","","","[774.3000000044703]","./assets/img/ocean/catch/4.jpg","[""spaceBar""]","value training","ocean","0","{""ArrowUp,ArrowLeft"":26,""ArrowUp,ArrowRight"":10,""ArrowDown,ArrowLeft"":5,""ArrowDown,ArrowRight"":17}","true","spaceBar","true","original","1","38","","",""
"html-keyboard-response","158","748873","0.0-4.0-2.0-1.19","spark_pilot_norest","8700","1","19","Female","","","","","","","null","<div style=""font-size:60px;"">+</div>","null","fixation","","","","","","","","","39","","",""
"revaluation","159","754895","0.0-4.0-2.0-0.20","spark_pilot_norest","8700","1","19","Female","","false","","","","","[687.1999999955297,519.5]","./assets/img/ocean/memory/39.jpg","[""ArrowUp"",""ArrowLeft""]","value training","ocean","26","{""ArrowUp,ArrowLeft"":26,""ArrowUp,ArrowRight"":10,""ArrowDown,ArrowLeft"":5,""ArrowDown,ArrowRight"":17}","true","ArrowUp,ArrowLeft","false","original","1","40","","",""
"html-keyboard-response","160","755400","0.0-4.0-2.0-1.20","spark_pilot_norest","8700","1","19","Female","","","","","","","null","<div style=""font-size:60px;"">+</div>","null","fixation","","","","","","","","","41","","",""
"revaluation","161","761417","0.0-4.0-2.0-0.21","spark_pilot_norest","8700","1","19","Female","","false","","","","","[939.5,320.5]","./assets/img/ocean/memory/14.jpg","[""ArrowUp"",""ArrowLeft""]","value training","ocean","26","{""ArrowUp,ArrowLeft"":26,""ArrowUp,ArrowRight"":10,""ArrowDown,ArrowLeft"":5,""ArrowDown,ArrowRight"":17}","true","ArrowUp,ArrowLeft","false","original","1","42","","",""
"html-keyboard-response","162","761919","0.0-4.0-2.0-1.21","spark_pilot_norest","8700","1","19","Female","","","","","","","null","<div style=""font-size:60px;"">+</div>","null","fixation","","","","","","","","","43","","",""
"revaluation","163","767943","0.0-4.0-2.0-0.22","spark_pilot_norest","8700","1","19","Female","","false","","","","","[834.3000000044703,328]","./assets/img/ocean/memory/15.jpg","[""ArrowUp"",""ArrowLeft""]","value training","ocean","26","{""ArrowUp,ArrowLeft"":26,""ArrowUp,ArrowRight"":10,""ArrowDown,ArrowLeft"":5,""ArrowDown,ArrowRight"":17}","true","ArrowUp,ArrowLeft","false","original","1","44","","",""
"html-keyboard-response","164","768457","0.0-4.0-2.0-1.22","spark_pilot_norest","8700","1","19","Female","","","","","","","null","<div style=""font-size:60px;"">+</div>","null","fixation","","","","","","","","","45","","",""
"revaluation","165","774478","0.0-4.0-2.0-0.23","spark_pilot_norest","8700","1","19","Female","","false","","","","","[667.8999999985099,219.5]","./assets/img/ocean/memory/31.jpg","[""ArrowUp"",""ArrowLeft""]","value training","ocean","26","{""ArrowUp,ArrowLeft"":26,""ArrowUp,ArrowRight"":10,""ArrowDown,ArrowLeft"":5,""ArrowDown,ArrowRight"":17}","true","ArrowUp,ArrowLeft","false","original","1","46","","",""
"html-keyboard-response","166","774984","0.0-4.0-2.0-1.23","spark_pilot_norest","8700","1","19","Female","","","","","","","null","<div style=""font-size:60px;"">+</div>","null","fixation","","","","","","","","","47","","",""
"revaluation","167","778996","0.0-4.0-2.0-0.24","spark_pilot_norest","8700","1","19","Female","","false","","","","","[602.4000000059605]","./assets/img/ocean/catch/6.jpg","[""spaceBar""]","value training","ocean","0","{""ArrowUp,ArrowLeft"":26,""ArrowUp,ArrowRight"":10,""ArrowDown,ArrowLeft"":5,""ArrowDown,ArrowRight"":17}","true","spaceBar","true","original","1","48","","",""
"html-keyboard-response","168","779500","0.0-4.0-2.0-1.24","spark_pilot_norest","8700","1","19","Female","","","","","","","null","<div style=""font-size:60px;"">+</div>","null","fixation","","","","","","","","","49","","",""
"revaluation","169","785515","0.0-4.0-2.0-0.25","spark_pilot_norest","8700","1","19","Female","","false","","","","","[698.9000000059605,271.8999999985099]","./assets/img/ocean/memory/33.jpg","[""ArrowUp"",""ArrowLeft""]","value training","ocean","26","{""ArrowUp,ArrowLeft"":26,""ArrowUp,ArrowRight"":10,""ArrowDown,ArrowLeft"":5,""ArrowDown,ArrowRight"":17}","true","ArrowUp,ArrowLeft","false","original","1","50","","",""
"html-keyboard-response","170","786017","0.0-4.0-2.0-1.25","spark_pilot_norest","8700","1","19","Female","","","","","","","null","<div style=""font-size:60px;"">+</div>","null","fixation","","","","","","","","","51","","",""
"revaluation","171","792031","0.0-4.0-2.0-0.26","spark_pilot_norest","8700","1","19","Female","","false","","","","","[517.5,271.40000000596046]","./assets/img/ocean/memory/7.jpg","[""ArrowUp"",""ArrowLeft""]","value training","ocean","26","{""ArrowUp,ArrowLeft"":26,""ArrowUp,ArrowRight"":10,""ArrowDown,ArrowLeft"":5,""ArrowDown,ArrowRight"":17}","true","ArrowUp,ArrowLeft","false","original","1","52","","",""
"html-keyboard-response","172","792536","0.0-4.0-2.0-1.26","spark_pilot_norest","8700","1","19","Female","","","","","","","null","<div style=""font-size:60px;"">+</div>","null","fixation","","","","","","","","","53","","",""
"revaluation","173","798563","0.0-4.0-2.0-0.27","spark_pilot_norest","8700","1","19","Female","","false","","","","","[609.6999999955297,307.20000000298023]","./assets/img/ocean/memory/30.jpg","[""ArrowUp"",""ArrowLeft""]","value training","ocean","26","{""ArrowUp,ArrowLeft"":26,""ArrowUp,ArrowRight"":10,""ArrowDown,ArrowLeft"":5,""ArrowDown,ArrowRight"":17}","true","ArrowUp,ArrowLeft","false","original","1","54","","",""
"html-keyboard-response","174","799068","0.0-4.0-2.0-1.27","spark_pilot_norest","8700","1","19","Female","","","","","","","null","<div style=""font-size:60px;"">+</div>","null","fixation","","","","","","","","","55","","",""
"revaluation","175","805086","0.0-4.0-2.0-0.28","spark_pilot_norest","8700","1","19","Female","","false","","","","","[841,277.1000000014901]","./assets/img/ocean/memory/3.jpg","[""ArrowUp"",""ArrowLeft""]","value training","ocean","26","{""ArrowUp,ArrowLeft"":26,""ArrowUp,ArrowRight"":10,""ArrowDown,ArrowLeft"":5,""ArrowDown,ArrowRight"":17}","true","ArrowUp,ArrowLeft","false","original","1","56","","",""
"html-keyboard-response","176","805599","0.0-4.0-2.0-1.28","spark_pilot_norest","8700","1","19","Female","","","","","","","null","<div style=""font-size:60px;"">+</div>","null","fixation","","","","","","","","","57","","",""
"revaluation","177","811630","0.0-4.0-2.0-0.29","spark_pilot_norest","8700","1","19","Female","","false","","","","","[677.3999999985099,226.29999999701977]","./assets/img/ocean/memory/18.jpg","[""ArrowUp"",""ArrowLeft""]","value training","ocean","26","{""ArrowUp,ArrowLeft"":26,""ArrowUp,ArrowRight"":10,""ArrowDown,ArrowLeft"":5,""ArrowDown,ArrowRight"":17}","true","ArrowUp,ArrowLeft","false","original","1","58","","",""
"html-keyboard-response","178","812146","0.0-4.0-2.0-1.29","spark_pilot_norest","8700","1","19","Female","","","","","","","null","<div style=""font-size:60px;"">+</div>","null","fixation","","","","","","","","","59","","",""
"revaluation","179","816160","0.0-4.0-2.0-0.30","spark_pilot_norest","8700","1","19","Female","","false","","","","","[815]","./assets/img/ocean/catch/7.jpg","[""spaceBar""]","value training","ocean","0","{""ArrowUp,ArrowLeft"":26,""ArrowUp,ArrowRight"":10,""ArrowDown,ArrowLeft"":5,""ArrowDown,ArrowRight"":17}","true","spaceBar","true","original","1","60","","",""
"html-keyboard-response","180","816668","0.0-4.0-2.0-1.30","spark_pilot_norest","8700","1","19","Female","","","","","","","null","<div style=""font-size:60px;"">+</div>","null","fixation","","","","","","","","","61","","",""
"revaluation","181","822694","0.0-4.0-2.0-0.31","spark_pilot_norest","8700","1","19","Female","","false","","","","","[701.7999999970198,232.5]","./assets/img/ocean/memory/40.jpg","[""ArrowUp"",""ArrowLeft""]","value training","ocean","26","{""ArrowUp,ArrowLeft"":26,""ArrowUp,ArrowRight"":10,""ArrowDown,ArrowLeft"":5,""ArrowDown,ArrowRight"":17}","true","ArrowUp,ArrowLeft","false","original","1","62","","",""
"html-keyboard-response","182","823195","0.0-4.0-2.0-1.31","spark_pilot_norest","8700","1","19","Female","","","","","","","null","<div style=""font-size:60px;"">+</div>","null","fixation","","","","","","","","","63","","",""
"revaluation","183","829210","0.0-4.0-2.0-0.32","spark_pilot_norest","8700","1","19","Female","","false","","","","","[864.6000000014901,302.29999999701977]","./assets/img/ocean/memory/36.jpg","[""ArrowUp"",""ArrowLeft""]","value training","ocean","26","{""ArrowUp,ArrowLeft"":26,""ArrowUp,ArrowRight"":10,""ArrowDown,ArrowLeft"":5,""ArrowDown,ArrowRight"":17}","true","ArrowUp,ArrowLeft","false","original","1","64","","",""
"html-keyboard-response","184","829714","0.0-4.0-2.0-1.32","spark_pilot_norest","8700","1","19","Female","","","","","","","null","<div style=""font-size:60px;"">+</div>","null","fixation","","","","","","","","","65","","",""
"revaluation","185","835733","0.0-4.0-2.0-0.33","spark_pilot_norest","8700","1","19","Female","","false","","","","","[660.8000000044703,333.29999999701977]","./assets/img/ocean/memory/40.jpg","[""ArrowUp"",""ArrowLeft""]","value training","ocean","26","{""ArrowUp,ArrowLeft"":26,""ArrowUp,ArrowRight"":10,""ArrowDown,ArrowLeft"":5,""ArrowDown,ArrowRight"":17}","true","ArrowUp,ArrowLeft","false","original","1","66","","",""
"html-keyboard-response","186","836236","0.0-4.0-2.0-1.33","spark_pilot_norest","8700","1","19","Female","","","","","","","null","<div style=""font-size:60px;"">+</div>","null","fixation","","","","","","","","","67","","",""
"revaluation","187","842264","0.0-4.0-2.0-0.34","spark_pilot_norest","8700","1","19","Female","","false","","","","","[831.1999999955297,283.1000000014901]","./assets/img/ocean/memory/1.jpg","[""ArrowUp"",""ArrowLeft""]","value training","ocean","26","{""ArrowUp,ArrowLeft"":26,""ArrowUp,ArrowRight"":10,""ArrowDown,ArrowLeft"":5,""ArrowDown,ArrowRight"":17}","true","ArrowUp,ArrowLeft","false","original","1","68","","",""
"html-keyboard-response","188","842770","0.0-4.0-2.0-1.34","spark_pilot_norest","8700","1","19","Female","","","","","","","null","<div style=""font-size:60px;"">+</div>","null","fixation","","","","","","","","","69","","",""
"revaluation","189","848786","0.0-4.0-2.0-0.35","spark_pilot_norest","8700","1","19","Female","","false","","","","","[481.69999999552965,249.60000000149012]","./assets/img/ocean/memory/39.jpg","[""ArrowUp"",""ArrowLeft""]","value training","ocean","26","{""ArrowUp,ArrowLeft"":26,""ArrowUp,ArrowRight"":10,""ArrowDown,ArrowLeft"":5,""ArrowDown,ArrowRight"":17}","true","ArrowUp,ArrowLeft","false","original","1","70","","",""
"html-keyboard-response","190","849289","0.0-4.0-2.0-1.35","spark_pilot_norest","8700","1","19","Female","","","","","","","null","<div style=""font-size:60px;"">+</div>","null","fixation","","","","","","","","","71","","",""
"revaluation","191","855309","0.0-4.0-2.0-0.36","spark_pilot_norest","8700","1","19","Female","","false","","","","","[704,554]","./assets/img/ocean/memory/23.jpg","[""ArrowUp"",""ArrowLeft""]","value training","ocean","26","{""ArrowUp,ArrowLeft"":26,""ArrowUp,ArrowRight"":10,""ArrowDown,ArrowLeft"":5,""ArrowDown,ArrowRight"":17}","true","ArrowUp,ArrowLeft","false","original","1","72","","",""
"html-keyboard-response","192","855813","0.0-4.0-2.0-1.36","spark_pilot_norest","8700","1","19","Female","","","","","","","null","<div style=""font-size:60px;"">+</div>","null","fixation","","","","","","","","","73","","",""
"revaluation","193","861841","0.0-4.0-2.0-0.37","spark_pilot_norest","8700","1","19","Female","","false","","","","","[679.8000000044703,243.59999999403954]","./assets/img/ocean/memory/6.jpg","[""ArrowUp"",""ArrowLeft""]","value training","ocean","26","{""ArrowUp,ArrowLeft"":26,""ArrowUp,ArrowRight"":10,""ArrowDown,ArrowLeft"":5,""ArrowDown,ArrowRight"":17}","true","ArrowUp,ArrowLeft","false","original","1","74","","",""
"html-keyboard-response","194","862351","0.0-4.0-2.0-1.37","spark_pilot_norest","8700","1","19","Female","","","","","","","null","<div style=""font-size:60px;"">+</div>","null","fixation","","","","","","","","","75","","",""
"revaluation","195","866363","0.0-4.0-2.0-0.38","spark_pilot_norest","8700","1","19","Female","","false","","","","","[640.6000000014901]","./assets/img/ocean/catch/0.jpg","[""spaceBar""]","value training","ocean","0","{""ArrowUp,ArrowLeft"":26,""ArrowUp,ArrowRight"":10,""ArrowDown,ArrowLeft"":5,""ArrowDown,ArrowRight"":17}","true","spaceBar","true","original","1","76","","",""
"html-keyboard-response","196","866877","0.0-4.0-2.0-1.38","spark_pilot_norest","8700","1","19","Female","","","","","","","null","<div style=""font-size:60px;"">+</div>","null","fixation","","","","","","","","","77","","",""
"revaluation","197","870890","0.0-4.0-2.0-0.39","spark_pilot_norest","8700","1","19","Female","","false","","","","","[811.2000000029802]","./assets/img/ocean/catch/5.jpg","[""spaceBar""]","value training","ocean","0","{""ArrowUp,ArrowLeft"":26,""ArrowUp,ArrowRight"":10,""ArrowDown,ArrowLeft"":5,""ArrowDown,ArrowRight"":17}","true","spaceBar","true","original","1","78","","",""
"html-keyboard-response","198","871396","0.0-4.0-2.0-1.39","spark_pilot_norest","8700","1","19","Female","","","","","","","null","<div style=""font-size:60px;"">+</div>","null","fixation","","","","","","","","","79","","",""
"revaluation","199","877418","0.0-4.0-2.0-0.40","spark_pilot_norest","8700","1","19","Female","","false","","","","","[850.2000000029802,269.3999999985099]","./assets/img/ocean/memory/33.jpg","[""ArrowUp"",""ArrowLeft""]","value training","ocean","26","{""ArrowUp,ArrowLeft"":26,""ArrowUp,ArrowRight"":10,""ArrowDown,ArrowLeft"":5,""ArrowDown,ArrowRight"":17}","true","ArrowUp,ArrowLeft","false","original","1","80","","",""
"html-keyboard-response","200","877924","0.0-4.0-2.0-1.40","spark_pilot_norest","8700","1","19","Female","","","","","","","null","<div style=""font-size:60px;"">+</div>","null","fixation","","","","","","","","","81","","",""
"revaluation","201","881937","0.0-4.0-2.0-0.41","spark_pilot_norest","8700","1","19","Female","","false","","","","","[617.8000000044703]","./assets/img/ocean/catch/2.jpg","[""spaceBar""]","value training","ocean","0","{""ArrowUp,ArrowLeft"":26,""ArrowUp,ArrowRight"":10,""ArrowDown,ArrowLeft"":5,""ArrowDown,ArrowRight"":17}","true","spaceBar","true","original","1","82","","",""
"html-keyboard-response","202","882441","0.0-4.0-2.0-1.41","spark_pilot_norest","8700","1","19","Female","","","","","","","null","<div style=""font-size:60px;"">+</div>","null","fixation","","","","","","","","","83","","",""
"revaluation","203","888460","0.0-4.0-2.0-0.42","spark_pilot_norest","8700","1","19","Female","","false","","","","","[746.3000000044703,244]","./assets/img/ocean/memory/18.jpg","[""ArrowUp"",""ArrowLeft""]","value training","ocean","26","{""ArrowUp,ArrowLeft"":26,""ArrowUp,ArrowRight"":10,""ArrowDown,ArrowLeft"":5,""ArrowDown,ArrowRight"":17}","true","ArrowUp,ArrowLeft","false","original","1","84","","",""
"html-keyboard-response","204","888966","0.0-4.0-2.0-1.42","spark_pilot_norest","8700","1","19","Female","","","","","","","null","<div style=""font-size:60px;"">+</div>","null","fixation","","","","","","","","","85","","",""
"revaluation","205","892991","0.0-4.0-2.0-0.43","spark_pilot_norest","8700","1","19","Female","","false","","","","","[575.6999999955297]","./assets/img/ocean/catch/3.jpg","[""spaceBar""]","value training","ocean","0","{""ArrowUp,ArrowLeft"":26,""ArrowUp,ArrowRight"":10,""ArrowDown,ArrowLeft"":5,""ArrowDown,ArrowRight"":17}","true","spaceBar","true","original","1","86","","",""
"html-keyboard-response","206","893497","0.0-4.0-2.0-1.43","spark_pilot_norest","8700","1","19","Female","","","","","","","null","<div style=""font-size:60px;"">+</div>","null","fixation","","","","","","","","","87","","",""
"revaluation","207","899519","0.0-4.0-2.0-0.44","spark_pilot_norest","8700","1","19","Female","","false","","","","","[726.7999999970198,245.10000000149012]","./assets/img/ocean/memory/23.jpg","[""ArrowUp"",""ArrowLeft""]","value training","ocean","26","{""ArrowUp,ArrowLeft"":26,""ArrowUp,ArrowRight"":10,""ArrowDown,ArrowLeft"":5,""ArrowDown,ArrowRight"":17}","true","ArrowUp,ArrowLeft","false","original","1","88","","",""
"html-keyboard-response","208","900029","0.0-4.0-2.0-1.44","spark_pilot_norest","8700","1","19","Female","","","","","","","null","<div style=""font-size:60px;"">+</div>","null","fixation","","","","","","","","","89","","",""
"revaluation","209","906049","0.0-4.0-2.0-0.45","spark_pilot_norest","8700","1","19","Female","","false","","","","","[1299.8999999985099,328.30000000447035]","./assets/img/ocean/memory/24.jpg","[""ArrowUp"",""ArrowLeft""]","value training","ocean","26","{""ArrowUp,ArrowLeft"":26,""ArrowUp,ArrowRight"":10,""ArrowDown,ArrowLeft"":5,""ArrowDown,ArrowRight"":17}","true","ArrowUp,ArrowLeft","false","original","1","90","","",""
"html-keyboard-response","210","906562","0.0-4.0-2.0-1.45","spark_pilot_norest","8700","1","19","Female","","","","","","","null","<div style=""font-size:60px;"">+</div>","null","fixation","","","","","","","","","91","","",""
"revaluation","211","912584","0.0-4.0-2.0-0.46","spark_pilot_norest","8700","1","19","Female","","false","","","","","[772.8999999985099,321.5]","./assets/img/ocean/memory/1.jpg","[""ArrowUp"",""ArrowLeft""]","value training","ocean","26","{""ArrowUp,ArrowLeft"":26,""ArrowUp,ArrowRight"":10,""ArrowDown,ArrowLeft"":5,""ArrowDown,ArrowRight"":17}","true","ArrowUp,ArrowLeft","false","original","1","92","","",""
"html-keyboard-response","212","913087","0.0-4.0-2.0-1.46","spark_pilot_norest","8700","1","19","Female","","","","","","","null","<div style=""font-size:60px;"">+</div>","null","fixation","","","","","","","","","93","","",""
"revaluation","213","919109","0.0-4.0-2.0-0.47","spark_pilot_norest","8700","1","19","Female","","false","","","","","[884.4000000059605,272.3999999985099]","./assets/img/ocean/memory/10.jpg","[""ArrowUp"",""ArrowLeft""]","value training","ocean","26","{""ArrowUp,ArrowLeft"":26,""ArrowUp,ArrowRight"":10,""ArrowDown,ArrowLeft"":5,""ArrowDown,ArrowRight"":17}","true","ArrowUp,ArrowLeft","false","original","1","94","","",""
"html-keyboard-response","214","919625","0.0-4.0-2.0-1.47","spark_pilot_norest","8700","1","19","Female","","","","","","","null","<div style=""font-size:60px;"">+</div>","null","fixation","","","","","","","","","95","","",""
"revaluation","215","925648","0.0-4.0-2.0-0.48","spark_pilot_norest","8700","1","19","Female","","false","","","","","[765.5,200.29999999701977]","./assets/img/ocean/memory/19.jpg","[""ArrowUp"",""ArrowLeft""]","value training","ocean","26","{""ArrowUp,ArrowLeft"":26,""ArrowUp,ArrowRight"":10,""ArrowDown,ArrowLeft"":5,""ArrowDown,ArrowRight"":17}","true","ArrowUp,ArrowLeft","false","original","1","96","","",""
"html-keyboard-response","216","926150","0.0-4.0-2.0-1.48","spark_pilot_norest","8700","1","19","Female","","","","","","","null","<div style=""font-size:60px;"">+</div>","null","fixation","","","","","","","","","97","","",""
"revaluation","217","932178","0.0-4.0-2.0-0.49","spark_pilot_norest","8700","1","19","Female","","false","","","","","[551.3999999985099,232.70000000298023]","./assets/img/ocean/memory/6.jpg","[""ArrowUp"",""ArrowLeft""]","value training","ocean","26","{""ArrowUp,ArrowLeft"":26,""ArrowUp,ArrowRight"":10,""ArrowDown,ArrowLeft"":5,""ArrowDown,ArrowRight"":17}","true","ArrowUp,ArrowLeft","false","original","1","98","","",""
"html-keyboard-response","218","932686","0.0-4.0-2.0-1.49","spark_pilot_norest","8700","1","19","Female","","","","","","","null","<div style=""font-size:60px;"">+</div>","null","fixation","","","","","","","","","99","","",""
"learning-instructions","219","947147","0.0-4.0-3.0-0.0","spark_pilot_norest","8700","1","19","Female","","","","","","","910.1000000014901","<p> Now, you will travel with a friend who will choose whether you go up or down first. </p>
            <p> On these turns, you will just see the animal that they found. You will still get to choose which chest to search for treasure.</p>","","instructions","","","","","","","","","","","",""
"revaluation","220","951178","0.0-4.0-4.0-0.0","spark_pilot_norest","8700","1","19","Female","","false","","","","","[951.8000000044703]","./assets/img/ocean/animals/octopus.jpg","[""ArrowRight""]","revaluation","ocean","10","{""ArrowUp,ArrowLeft"":26,""ArrowUp,ArrowRight"":10,""ArrowDown,ArrowLeft"":5,""ArrowDown,ArrowRight"":17}","false","ArrowUp,ArrowRight","","original","1","0","","",""
"html-keyboard-response","221","951698","0.0-4.0-4.0-1.0","spark_pilot_norest","8700","1","19","Female","","","","","","","null","<div style=""font-size:60px;"">+</div>","null","fixation","","","","","","","","","1","","",""
"revaluation","222","955721","0.0-4.0-4.0-0.1","spark_pilot_norest","8700","1","19","Female","","false","","","","","[458.1000000014901]","./assets/img/ocean/animals/octopus.jpg","[""ArrowLeft""]","revaluation","ocean","26","{""ArrowUp,ArrowLeft"":26,""ArrowUp,ArrowRight"":10,""ArrowDown,ArrowLeft"":5,""ArrowDown,ArrowRight"":17}","true","ArrowUp,ArrowLeft","","original","1","2","","",""
"html-keyboard-response","223","956228","0.0-4.0-4.0-1.1","spark_pilot_norest","8700","1","19","Female","","","","","","","null","<div style=""font-size:60px;"">+</div>","null","fixation","","","","","","","","","3","","",""
"revaluation","224","960250","0.0-4.0-4.0-0.2","spark_pilot_norest","8700","1","19","Female","","false","","","","","[441.70000000298023]","./assets/img/ocean/animals/octopus.jpg","[""ArrowLeft""]","revaluation","ocean","26","{""ArrowUp,ArrowLeft"":26,""ArrowUp,ArrowRight"":10,""ArrowDown,ArrowLeft"":5,""ArrowDown,ArrowRight"":17}","true","ArrowUp,ArrowLeft","","original","1","4","","",""
"html-keyboard-response","225","960762","0.0-4.0-4.0-1.2","spark_pilot_norest","8700","1","19","Female","","","","","","","null","<div style=""font-size:60px;"">+</div>","null","fixation","","","","","","","","","5","","",""
"revaluation","226","964786","0.0-4.0-4.0-0.3","spark_pilot_norest","8700","1","19","Female","","false","","","","","[623.1000000014901]","./assets/img/ocean/animals/seahorse.jpg","[""ArrowRight""]","revaluation","ocean","17","{""ArrowUp,ArrowLeft"":26,""ArrowUp,ArrowRight"":10,""ArrowDown,ArrowLeft"":5,""ArrowDown,ArrowRight"":17}","true","ArrowDown,ArrowRight","","original","1","6","","",""
"html-keyboard-response","227","965289","0.0-4.0-4.0-1.3","spark_pilot_norest","8700","1","19","Female","","","","","","","null","<div style=""font-size:60px;"">+</div>","null","fixation","","","","","","","","","7","","",""
"revaluation","228","969322","0.0-4.0-4.0-0.4","spark_pilot_norest","8700","1","19","Female","","false","","","","","[470.29999999701977]","./assets/img/ocean/animals/seahorse.jpg","[""ArrowLeft""]","revaluation","ocean","5","{""ArrowUp,ArrowLeft"":26,""ArrowUp,ArrowRight"":10,""ArrowDown,ArrowLeft"":5,""ArrowDown,ArrowRight"":17}","false","ArrowDown,ArrowLeft","","original","1","8","","",""
"html-keyboard-response","229","969836","0.0-4.0-4.0-1.4","spark_pilot_norest","8700","1","19","Female","","","","","","","null","<div style=""font-size:60px;"">+</div>","null","fixation","","","","","","","","","9","","",""
"revaluation","230","973857","0.0-4.0-4.0-0.5","spark_pilot_norest","8700","1","19","Female","","false","","","","","[440.79999999701977]","./assets/img/ocean/animals/octopus.jpg","[""ArrowLeft""]","revaluation","ocean","26","{""ArrowUp,ArrowLeft"":26,""ArrowUp,ArrowRight"":10,""ArrowDown,ArrowLeft"":5,""ArrowDown,ArrowRight"":17}","true","ArrowUp,ArrowLeft","","original","1","10","","",""
"html-keyboard-response","231","974364","0.0-4.0-4.0-1.5","spark_pilot_norest","8700","1","19","Female","","","","","","","null","<div style=""font-size:60px;"">+</div>","null","fixation","","","","","","","","","11","","",""
"revaluation","232","978381","0.0-4.0-4.0-0.6","spark_pilot_norest","8700","1","19","Female","","false","","","","","[544.7999999970198]","./assets/img/ocean/animals/octopus.jpg","[""ArrowLeft""]","revaluation","ocean","26","{""ArrowUp,ArrowLeft"":26,""ArrowUp,ArrowRight"":10,""ArrowDown,ArrowLeft"":5,""ArrowDown,ArrowRight"":17}","true","ArrowUp,ArrowLeft","","original","1","12","","",""
"html-keyboard-response","233","978884","0.0-4.0-4.0-1.6","spark_pilot_norest","8700","1","19","Female","","","","","","","null","<div style=""font-size:60px;"">+</div>","null","fixation","","","","","","","","","13","","",""
"revaluation","234","982899","0.0-4.0-4.0-0.7","spark_pilot_norest","8700","1","19","Female","","false","","","","","[581.6999999955297]","./assets/img/ocean/animals/octopus.jpg","[""ArrowLeft""]","revaluation","ocean","26","{""ArrowUp,ArrowLeft"":26,""ArrowUp,ArrowRight"":10,""ArrowDown,ArrowLeft"":5,""ArrowDown,ArrowRight"":17}","true","ArrowUp,ArrowLeft","","original","1","14","","",""
"html-keyboard-response","235","983402","0.0-4.0-4.0-1.7","spark_pilot_norest","8700","1","19","Female","","","","","","","null","<div style=""font-size:60px;"">+</div>","null","fixation","","","","","","","","","15","","",""
"revaluation","236","987410","0.0-4.0-4.0-0.8","spark_pilot_norest","8700","1","19","Female","","false","","","","","[483.3999999985099]","./assets/img/ocean/animals/seahorse.jpg","[""ArrowRight""]","revaluation","ocean","17","{""ArrowUp,ArrowLeft"":26,""ArrowUp,ArrowRight"":10,""ArrowDown,ArrowLeft"":5,""ArrowDown,ArrowRight"":17}","true","ArrowDown,ArrowRight","","original","1","16","","",""
"html-keyboard-response","237","987919","0.0-4.0-4.0-1.8","spark_pilot_norest","8700","1","19","Female","","","","","","","null","<div style=""font-size:60px;"">+</div>","null","fixation","","","","","","","","","17","","",""
"revaluation","238","991937","0.0-4.0-4.0-0.9","spark_pilot_norest","8700","1","19","Female","","false","","","","","[498.80000000447035]","./assets/img/ocean/animals/seahorse.jpg","[""ArrowRight""]","revaluation","ocean","17","{""ArrowUp,ArrowLeft"":26,""ArrowUp,ArrowRight"":10,""ArrowDown,ArrowLeft"":5,""ArrowDown,ArrowRight"":17}","true","ArrowDown,ArrowRight","","original","1","18","","",""
"html-keyboard-response","239","992443","0.0-4.0-4.0-1.9","spark_pilot_norest","8700","1","19","Female","","","","","","","null","<div style=""font-size:60px;"">+</div>","null","fixation","","","","","","","","","19","","",""
"revaluation","240","996458","0.0-4.0-4.0-0.10","spark_pilot_norest","8700","1","19","Female","","false","","","","","[658.3999999985099]","./assets/img/ocean/animals/seahorse.jpg","[""ArrowRight""]","revaluation","ocean","17","{""ArrowUp,ArrowLeft"":26,""ArrowUp,ArrowRight"":10,""ArrowDown,ArrowLeft"":5,""ArrowDown,ArrowRight"":17}","true","ArrowDown,ArrowRight","","original","1","20","","",""
"html-keyboard-response","241","996965","0.0-4.0-4.0-1.10","spark_pilot_norest","8700","1","19","Female","","","","","","","null","<div style=""font-size:60px;"">+</div>","null","fixation","","","","","","","","","21","","",""
"revaluation","242","1000981","0.0-4.0-4.0-0.11","spark_pilot_norest","8700","1","19","Female","","false","","","","","[390]","./assets/img/ocean/animals/seahorse.jpg","[""ArrowRight""]","revaluation","ocean","17","{""ArrowUp,ArrowLeft"":26,""ArrowUp,ArrowRight"":10,""ArrowDown,ArrowLeft"":5,""ArrowDown,ArrowRight"":17}","true","ArrowDown,ArrowRight","","original","1","22","","",""
"html-keyboard-response","243","1001484","0.0-4.0-4.0-1.11","spark_pilot_norest","8700","1","19","Female","","","","","","","null","<div style=""font-size:60px;"">+</div>","null","fixation","","","","","","","","","23","","",""
"revaluation","244","1005495","0.0-4.0-4.0-0.12","spark_pilot_norest","8700","1","19","Female","","false","","","","","[465]","./assets/img/ocean/animals/seahorse.jpg","[""ArrowRight""]","revaluation","ocean","17","{""ArrowUp,ArrowLeft"":26,""ArrowUp,ArrowRight"":10,""ArrowDown,ArrowLeft"":5,""ArrowDown,ArrowRight"":17}","true","ArrowDown,ArrowRight","","original","1","24","","",""
"html-keyboard-response","245","1006000","0.0-4.0-4.0-1.12","spark_pilot_norest","8700","1","19","Female","","","","","","","null","<div style=""font-size:60px;"">+</div>","null","fixation","","","","","","","","","25","","",""
"revaluation","246","1010015","0.0-4.0-4.0-0.13","spark_pilot_norest","8700","1","19","Female","","false","","","","","[621.5]","./assets/img/ocean/animals/octopus.jpg","[""ArrowLeft""]","revaluation","ocean","26","{""ArrowUp,ArrowLeft"":26,""ArrowUp,ArrowRight"":10,""ArrowDown,ArrowLeft"":5,""ArrowDown,ArrowRight"":17}","true","ArrowUp,ArrowLeft","","original","1","26","","",""
"html-keyboard-response","247","1010520","0.0-4.0-4.0-1.13","spark_pilot_norest","8700","1","19","Female","","","","","","","null","<div style=""font-size:60px;"">+</div>","null","fixation","","","","","","","","","27","","",""
"revaluation","248","1014532","0.0-4.0-4.0-0.14","spark_pilot_norest","8700","1","19","Female","","false","","","","","[532.3999999985099]","./assets/img/ocean/animals/octopus.jpg","[""ArrowLeft""]","revaluation","ocean","26","{""ArrowUp,ArrowLeft"":26,""ArrowUp,ArrowRight"":10,""ArrowDown,ArrowLeft"":5,""ArrowDown,ArrowRight"":17}","true","ArrowUp,ArrowLeft","","original","1","28","","",""
"html-keyboard-response","249","1015041","0.0-4.0-4.0-1.14","spark_pilot_norest","8700","1","19","Female","","","","","","","null","<div style=""font-size:60px;"">+</div>","null","fixation","","","","","","","","","29","","",""
"revaluation","250","1019050","0.0-4.0-4.0-0.15","spark_pilot_norest","8700","1","19","Female","","false","","","","","[437.69999999552965]","./assets/img/ocean/animals/seahorse.jpg","[""ArrowRight""]","revaluation","ocean","17","{""ArrowUp,ArrowLeft"":26,""ArrowUp,ArrowRight"":10,""ArrowDown,ArrowLeft"":5,""ArrowDown,ArrowRight"":17}","true","ArrowDown,ArrowRight","","original","1","30","","",""
"html-keyboard-response","251","1019555","0.0-4.0-4.0-1.15","spark_pilot_norest","8700","1","19","Female","","","","","","","null","<div style=""font-size:60px;"">+</div>","null","fixation","","","","","","","","","31","","",""
"revaluation","252","1023575","0.0-4.0-4.0-0.16","spark_pilot_norest","8700","1","19","Female","","false","","","","","[469.3999999985099]","./assets/img/ocean/animals/octopus.jpg","[""ArrowLeft""]","revaluation","ocean","26","{""ArrowUp,ArrowLeft"":26,""ArrowUp,ArrowRight"":10,""ArrowDown,ArrowLeft"":5,""ArrowDown,ArrowRight"":17}","true","ArrowUp,ArrowLeft","","original","1","32","","",""
"html-keyboard-response","253","1024084","0.0-4.0-4.0-1.16","spark_pilot_norest","8700","1","19","Female","","","","","","","null","<div style=""font-size:60px;"">+</div>","null","fixation","","","","","","","","","33","","",""
"revaluation","254","1028098","0.0-4.0-4.0-0.17","spark_pilot_norest","8700","1","19","Female","","false","","","","","[433.20000000298023]","./assets/img/ocean/animals/seahorse.jpg","[""ArrowRight""]","revaluation","ocean","17","{""ArrowUp,ArrowLeft"":26,""ArrowUp,ArrowRight"":10,""ArrowDown,ArrowLeft"":5,""ArrowDown,ArrowRight"":17}","true","ArrowDown,ArrowRight","","original","1","34","","",""
"html-keyboard-response","255","1028600","0.0-4.0-4.0-1.17","spark_pilot_norest","8700","1","19","Female","","","","","","","null","<div style=""font-size:60px;"">+</div>","null","fixation","","","","","","","","","35","","",""
"learning-instructions","256","1037347","0.0-4.0-5.0-0.0","spark_pilot_norest","8700","1","19","Female","","","","","","","null","<p> You have almost finished this part of the game! </p>
            <p> We are going to ask you to make a few more choices. </p>","","instructions","","","","","","","","","","","",""
"learning-instructions","257","1053331","0.0-4.0-5.0-0.1","spark_pilot_norest","8700","1","19","Female","","","","","","","null","<p> First, you need to decide whether to go up or down. When you see each picture, use the arrow keys to make your choice. </p>
            <p><b>You will not see which animal you found, but try to get to the one that will give you the most treasure.</b></p>","","instructions","","","","","","","","","","","",""
"html-keyboard-response","258","1054345","0.0-4.0-6.0-0.0","spark_pilot_norest","8700","1","19","Female","","","","","","","null","<div style=""font-size:100px;color:red;"">Starting in...</div>","null","","","","","","","","","","","","",""
"html-keyboard-response","259","1055357","0.0-4.0-6.0-1.0","spark_pilot_norest","8700","1","19","Female","","","","","","","null","<div style=""font-size:200px;color:red;"">3</div>","null","","","","","","","","","","","","",""
"html-keyboard-response","260","1056372","0.0-4.0-6.0-2.0","spark_pilot_norest","8700","1","19","Female","","","","","","","null","<div style=""font-size:200px;color:red;"">2</div>","null","","","","","","","","","","","","",""
"html-keyboard-response","261","1057384","0.0-4.0-6.0-3.0","spark_pilot_norest","8700","1","19","Female","","","","","","","null","<div style=""font-size:200px;color:red;"">1</div>","null","","","","","","","","","","","","",""
"revaluation","262","1058468","0.0-4.0-7.0-0.0","spark_pilot_norest","8700","1","19","Female","","false","","","","","[1081.5]","./assets/img/ocean/test/2.jpg","[""ArrowUp""]","first stage test","ocean","0","{""ArrowUp,ArrowLeft"":26,""ArrowUp,ArrowRight"":10,""ArrowDown,ArrowLeft"":5,""ArrowDown,ArrowRight"":17}","true","ArrowUp","false","original","1","","","",""
"html-keyboard-response","263","1058975","0.0-4.0-7.0-1.0","spark_pilot_norest","8700","1","19","Female","","","","","","","null","<div style=""font-size:60px;"">+</div>","null","fixation","","","","","","","","","","","",""
"revaluation","264","1062640","0.0-4.0-7.0-0.1","spark_pilot_norest","8700","1","19","Female","","false","","","","","[3662.39999999851]","./assets/img/ocean/test/0.jpg","[""ArrowUp""]","first stage test","ocean","0","{""ArrowUp,ArrowLeft"":26,""ArrowUp,ArrowRight"":10,""ArrowDown,ArrowLeft"":5,""ArrowDown,ArrowRight"":17}","true","ArrowUp","false","original","1","","","",""
"html-keyboard-response","265","1063146","0.0-4.0-7.0-1.1","spark_pilot_norest","8700","1","19","Female","","","","","","","null","<div style=""font-size:60px;"">+</div>","null","fixation","","","","","","","","","","","",""
"revaluation","266","1064873","0.0-4.0-7.0-0.2","spark_pilot_norest","8700","1","19","Female","","false","","","","","[1723.3999999985099]","./assets/img/ocean/test/1.jpg","[""ArrowDown""]","first stage test","ocean","0","{""ArrowUp,ArrowLeft"":26,""ArrowUp,ArrowRight"":10,""ArrowDown,ArrowLeft"":5,""ArrowDown,ArrowRight"":17}","false","ArrowDown","false","original","1","","","",""
"html-keyboard-response","267","1065378","0.0-4.0-7.0-1.2","spark_pilot_norest","8700","1","19","Female","","","","","","","null","<div style=""font-size:60px;"">+</div>","null","fixation","","","","","","","","","","","",""
"revaluation","268","1066344","0.0-4.0-7.0-0.3","spark_pilot_norest","8700","1","19","Female","","false","","","","","[963.8999999985099]","./assets/img/ocean/test/3.jpg","[""ArrowUp""]","first stage test","ocean","0","{""ArrowUp,ArrowLeft"":26,""ArrowUp,ArrowRight"":10,""ArrowDown,ArrowLeft"":5,""ArrowDown,ArrowRight"":17}","true","ArrowUp","false","original","1","","","",""
"html-keyboard-response","269","1066858","0.0-4.0-7.0-1.3","spark_pilot_norest","8700","1","19","Female","","","","","","","null","<div style=""font-size:60px;"">+</div>","null","fixation","","","","","","","","","","","",""
"learning-instructions","270","1080203","0.0-4.0-8.0-0.0","spark_pilot_norest","8700","1","19","Female","","","","","","","null","<p> Now you will see the animals again and can search their chests for treasure. </p>
            <p> This time, you will not see how much treasure you earned, but you will earn more bonus money for making better choices. </p>","","instructions","","","","","","","","","","","",""
"html-keyboard-response","271","1081207","0.0-4.0-9.0-0.0","spark_pilot_norest","8700","1","19","Female","","","","","","","null","<div style=""font-size:100px;color:red;"">Starting in...</div>","null","","","","","","","","","","","","",""
"html-keyboard-response","272","1082219","0.0-4.0-9.0-1.0","spark_pilot_norest","8700","1","19","Female","","","","","","","null","<div style=""font-size:200px;color:red;"">3</div>","null","","","","","","","","","","","","",""
"html-keyboard-response","273","1083236","0.0-4.0-9.0-2.0","spark_pilot_norest","8700","1","19","Female","","","","","","","null","<div style=""font-size:200px;color:red;"">2</div>","null","","","","","","","","","","","","",""
"html-keyboard-response","274","1084249","0.0-4.0-9.0-3.0","spark_pilot_norest","8700","1","19","Female","","","","","","","null","<div style=""font-size:200px;color:red;"">1</div>","null","","","","","","","","","","","","",""
"revaluation","275","1085406","0.0-4.0-10.0-0.0","spark_pilot_norest","8700","1","19","Female","","false","","","","","[1153.3999999985099]","./assets/img/ocean/animals/octopus.jpg","[""ArrowLeft""]","second stage test","ocean","0","{""ArrowUp,ArrowLeft"":26,""ArrowUp,ArrowRight"":10,""ArrowDown,ArrowLeft"":5,""ArrowDown,ArrowRight"":17}","true","ArrowUp,ArrowLeft","","original","1","","","",""
"html-keyboard-response","276","1085917","0.0-4.0-10.0-1.0","spark_pilot_norest","8700","1","19","Female","","","","","","","null","<div style=""font-size:60px;"">+</div>","null","fixation","","","","","","","","","","","",""
"revaluation","277","1086608","0.0-4.0-10.0-0.1","spark_pilot_norest","8700","1","19","Female","","false","","","","","[686.6999999955297]","./assets/img/ocean/animals/octopus.jpg","[""ArrowLeft""]","second stage test","ocean","0","{""ArrowUp,ArrowLeft"":26,""ArrowUp,ArrowRight"":10,""ArrowDown,ArrowLeft"":5,""ArrowDown,ArrowRight"":17}","true","ArrowUp,ArrowLeft","","original","1","","","",""
"html-keyboard-response","278","1087118","0.0-4.0-10.0-1.1","spark_pilot_norest","8700","1","19","Female","","","","","","","null","<div style=""font-size:60px;"">+</div>","null","fixation","","","","","","","","","","","",""
"revaluation","279","1087680","0.0-4.0-10.0-0.2","spark_pilot_norest","8700","1","19","Female","","false","","","","","[558.5999999940395]","./assets/img/ocean/animals/octopus.jpg","[""ArrowLeft""]","second stage test","ocean","0","{""ArrowUp,ArrowLeft"":26,""ArrowUp,ArrowRight"":10,""ArrowDown,ArrowLeft"":5,""ArrowDown,ArrowRight"":17}","true","ArrowUp,ArrowLeft","","original","1","","","",""
"html-keyboard-response","280","1088190","0.0-4.0-10.0-1.2","spark_pilot_norest","8700","1","19","Female","","","","","","","null","<div style=""font-size:60px;"">+</div>","null","fixation","","","","","","","","","","","",""
"revaluation","281","1088693","0.0-4.0-10.0-0.3","spark_pilot_norest","8700","1","19","Female","","false","","","","","[499.5]","./assets/img/ocean/animals/octopus.jpg","[""ArrowLeft""]","second stage test","ocean","0","{""ArrowUp,ArrowLeft"":26,""ArrowUp,ArrowRight"":10,""ArrowDown,ArrowLeft"":5,""ArrowDown,ArrowRight"":17}","true","ArrowUp,ArrowLeft","","original","1","","","",""
"html-keyboard-response","282","1089202","0.0-4.0-10.0-1.3","spark_pilot_norest","8700","1","19","Female","","","","","","","null","<div style=""font-size:60px;"">+</div>","null","fixation","","","","","","","","","","","",""
"revaluation","283","1089674","0.0-4.0-10.0-0.4","spark_pilot_norest","8700","1","19","Female","","false","","","","","[468.5]","./assets/img/ocean/animals/seahorse.jpg","[""ArrowRight""]","second stage test","ocean","0","{""ArrowUp,ArrowLeft"":26,""ArrowUp,ArrowRight"":10,""ArrowDown,ArrowLeft"":5,""ArrowDown,ArrowRight"":17}","true","ArrowDown,ArrowRight","","original","1","","","",""
"html-keyboard-response","284","1090189","0.0-4.0-10.0-1.4","spark_pilot_norest","8700","1","19","Female","","","","","","","null","<div style=""font-size:60px;"">+</div>","null","fixation","","","","","","","","","","","",""
"revaluation","285","1090609","0.0-4.0-10.0-0.5","spark_pilot_norest","8700","1","19","Female","","false","","","","","[416.3999999985099]","./assets/img/ocean/animals/seahorse.jpg","[""ArrowRight""]","second stage test","ocean","0","{""ArrowUp,ArrowLeft"":26,""ArrowUp,ArrowRight"":10,""ArrowDown,ArrowLeft"":5,""ArrowDown,ArrowRight"":17}","true","ArrowDown,ArrowRight","","original","1","","","",""
"html-keyboard-response","286","1091119","0.0-4.0-10.0-1.5","spark_pilot_norest","8700","1","19","Female","","","","","","","null","<div style=""font-size:60px;"">+</div>","null","fixation","","","","","","","","","","","",""
"revaluation","287","1091725","0.0-4.0-10.0-0.6","spark_pilot_norest","8700","1","19","Female","","false","","","","","[601.1999999955297]","./assets/img/ocean/animals/seahorse.jpg","[""ArrowRight""]","second stage test","ocean","0","{""ArrowUp,ArrowLeft"":26,""ArrowUp,ArrowRight"":10,""ArrowDown,ArrowLeft"":5,""ArrowDown,ArrowRight"":17}","true","ArrowDown,ArrowRight","","original","1","","","",""
"html-keyboard-response","288","1092237","0.0-4.0-10.0-1.6","spark_pilot_norest","8700","1","19","Female","","","","","","","null","<div style=""font-size:60px;"">+</div>","null","fixation","","","","","","","","","","","",""
"revaluation","289","1092647","0.0-4.0-10.0-0.7","spark_pilot_norest","8700","1","19","Female","","false","","","","","[407.20000000298023]","./assets/img/ocean/animals/seahorse.jpg","[""ArrowRight""]","second stage test","ocean","0","{""ArrowUp,ArrowLeft"":26,""ArrowUp,ArrowRight"":10,""ArrowDown,ArrowLeft"":5,""ArrowDown,ArrowRight"":17}","true","ArrowDown,ArrowRight","","original","1","","","",""
"html-keyboard-response","290","1093162","0.0-4.0-10.0-1.7","spark_pilot_norest","8700","1","19","Female","","","","","","","null","<div style=""font-size:60px;"">+</div>","null","fixation","","","","","","","","","","","",""
"learning-instructions","291","1097311","0.0-4.0-0.1-0.2","spark_pilot_norest","8700","1","19","Female","","","","","","","1364.6000000014901","<p> This time you are searching for treasure in the <b>canyon</b>.</p>","","instructions","","","","","","","","","","","",""
"learning-instructions","292","1115655","0.0-4.0-0.1-0.3","spark_pilot_norest","8700","1","19","Female","","","","","","","1099.6999999955297","<p><b>New</b> animals with <b>new</b> treasure chests live here. You need to explore to discover where the animal with the best treasure chest is.</p>
                    <p> Like before, once you figure out which animal has the chest with the most treasure, you should try to get to that animal and select that chest! </p>","","instructions","","","","","","","","","","","",""
"learning-instructions","293","1131210","0.0-4.0-1.1-0.1","spark_pilot_norest","8700","1","19","Female","","","","","","","824.2000000029802","<p> Remember, when you see a picture of the place, use the up and down keys to <b>find an animal</b>.</p>
            <p> When you encounter an animal, you should use the left and right keys to <b>select a treasure chest</b>.</p>
            <p> Don't forget to look out for the robber! </p>","","instructions","","","","","","","","","","","",""
"revaluation","294","1137229","0.0-4.0-2.1-0.50","spark_pilot_norest","8700","1","19","Female","","false","","","","","[984.5,639.6000000014901]","./assets/img/canyon/memory/19.jpg","[""ArrowUp"",""ArrowLeft""]","value training","canyon","23","{""ArrowUp,ArrowLeft"":23,""ArrowUp,ArrowRight"":10,""ArrowDown,ArrowLeft"":8,""ArrowDown,ArrowRight"":30}","false","ArrowUp,ArrowLeft","false","revaluation","2","0","","",""
"html-keyboard-response","295","1137730","0.0-4.0-2.1-1.50","spark_pilot_norest","8700","1","19","Female","","","","","","","null","<div style=""font-size:60px;"">+</div>","null","fixation","","","","","","","","","1","","",""
"revaluation","296","1141757","0.0-4.0-2.1-0.51","spark_pilot_norest","8700","1","19","Female","","false","","","","","[294.59999999403954]","./assets/img/canyon/catch/2.jpg","[""ArrowUp""]","value training","canyon","-10","{""ArrowUp,ArrowLeft"":23,""ArrowUp,ArrowRight"":10,""ArrowDown,ArrowLeft"":8,""ArrowDown,ArrowRight"":30}","false","ArrowUp","true","revaluation","2","2","","",""
"html-keyboard-response","297","1142261","0.0-4.0-2.1-1.51","spark_pilot_norest","8700","1","19","Female","","","","","","","null","<div style=""font-size:60px;"">+</div>","null","fixation","","","","","","","","","3","","",""
"revaluation","298","1148289","0.0-4.0-2.1-0.52","spark_pilot_norest","8700","1","19","Female","","false","","","","","[1097.6000000014901,813.1000000014901]","./assets/img/canyon/memory/27.jpg","[""ArrowUp"",""ArrowRight""]","value training","canyon","10","{""ArrowUp,ArrowLeft"":23,""ArrowUp,ArrowRight"":10,""ArrowDown,ArrowLeft"":8,""ArrowDown,ArrowRight"":30}","false","ArrowUp,ArrowRight","false","revaluation","2","4","","",""
"html-keyboard-response","299","1148792","0.0-4.0-2.1-1.52","spark_pilot_norest","8700","1","19","Female","","","","","","","null","<div style=""font-size:60px;"">+</div>","null","fixation","","","","","","","","","5","","",""
"revaluation","300","1154829","0.0-4.0-2.1-0.53","spark_pilot_norest","8700","1","19","Female","","false","","","","","[848.5,444.29999999701977]","./assets/img/canyon/memory/19.jpg","[""ArrowDown"",""ArrowLeft""]","value training","canyon","8","{""ArrowUp,ArrowLeft"":23,""ArrowUp,ArrowRight"":10,""ArrowDown,ArrowLeft"":8,""ArrowDown,ArrowRight"":30}","false","ArrowDown,ArrowLeft","false","revaluation","2","6","","",""
"html-keyboard-response","301","1155342","0.0-4.0-2.1-1.53","spark_pilot_norest","8700","1","19","Female","","","","","","","null","<div style=""font-size:60px;"">+</div>","null","fixation","","","","","","","","","7","","",""
"revaluation","302","1161360","0.0-4.0-2.1-0.54","spark_pilot_norest","8700","1","19","Female","","false","","","","","[816.8000000044703,283.40000000596046]","./assets/img/canyon/memory/36.jpg","[""ArrowDown"",""ArrowRight""]","value training","canyon","30","{""ArrowUp,ArrowLeft"":23,""ArrowUp,ArrowRight"":10,""ArrowDown,ArrowLeft"":8,""ArrowDown,ArrowRight"":30}","true","ArrowDown,ArrowRight","false","revaluation","2","8","","",""
"html-keyboard-response","303","1161869","0.0-4.0-2.1-1.54","spark_pilot_norest","8700","1","19","Female","","","","","","","null","<div style=""font-size:60px;"">+</div>","null","fixation","","","","","","","","","9","","",""
"revaluation","304","1167888","0.0-4.0-2.1-0.55","spark_pilot_norest","8700","1","19","Female","","false","","","","","[1049.8000000044703,775]","./assets/img/canyon/memory/1.jpg","[""ArrowDown"",""ArrowRight""]","value training","canyon","30","{""ArrowUp,ArrowLeft"":23,""ArrowUp,ArrowRight"":10,""ArrowDown,ArrowLeft"":8,""ArrowDown,ArrowRight"":30}","true","ArrowDown,ArrowRight","false","revaluation","2","10","","",""
"html-keyboard-response","305","1168395","0.0-4.0-2.1-1.55","spark_pilot_norest","8700","1","19","Female","","","","","","","null","<div style=""font-size:60px;"">+</div>","null","fixation","","","","","","","","","11","","",""
"revaluation","306","1174416","0.0-4.0-2.1-0.56","spark_pilot_norest","8700","1","19","Female","","false","","","","","[763,291.5]","./assets/img/canyon/memory/18.jpg","[""ArrowDown"",""ArrowRight""]","value training","canyon","30","{""ArrowUp,ArrowLeft"":23,""ArrowUp,ArrowRight"":10,""ArrowDown,ArrowLeft"":8,""ArrowDown,ArrowRight"":30}","true","ArrowDown,ArrowRight","false","revaluation","2","12","","",""
"html-keyboard-response","307","1174922","0.0-4.0-2.1-1.56","spark_pilot_norest","8700","1","19","Female","","","","","","","null","<div style=""font-size:60px;"">+</div>","null","fixation","","","","","","","","","13","","",""
"revaluation","308","1180932","0.0-4.0-2.1-0.57","spark_pilot_norest","8700","1","19","Female","","false","","","","","[869.7999999970198,306.8999999985099]","./assets/img/canyon/memory/32.jpg","[""ArrowDown"",""ArrowRight""]","value training","canyon","30","{""ArrowUp,ArrowLeft"":23,""ArrowUp,ArrowRight"":10,""ArrowDown,ArrowLeft"":8,""ArrowDown,ArrowRight"":30}","true","ArrowDown,ArrowRight","false","revaluation","2","14","","",""
"html-keyboard-response","309","1181436","0.0-4.0-2.1-1.57","spark_pilot_norest","8700","1","19","Female","","","","","","","null","<div style=""font-size:60px;"">+</div>","null","fixation","","","","","","","","","15","","",""
"revaluation","310","1187461","0.0-4.0-2.1-0.58","spark_pilot_norest","8700","1","19","Female","","false","","","","","[492.29999999701977,255.59999999403954]","./assets/img/canyon/memory/10.jpg","[""ArrowDown"",""ArrowRight""]","value training","canyon","30","{""ArrowUp,ArrowLeft"":23,""ArrowUp,ArrowRight"":10,""ArrowDown,ArrowLeft"":8,""ArrowDown,ArrowRight"":30}","true","ArrowDown,ArrowRight","false","revaluation","2","16","","",""
"html-keyboard-response","311","1187966","0.0-4.0-2.1-1.58","spark_pilot_norest","8700","1","19","Female","","","","","","","null","<div style=""font-size:60px;"">+</div>","null","fixation","","","","","","","","","17","","",""
