"trial_type","trial_index","time_elapsed","internal_node_id","task_version","subject_id","assigned_condition","age","gender","success","timeout","failed_images","failed_audio","failed_video","browser_interaction","rt","stimulus","response","task_part","environment","score","rewardMap","correct","fullState","isCatch","condition","order","trial_num","key_press","ground_truth","bonus"
"pavlovia","0","1526","0.0-0.0","spark_pilot_norest","8620","7","13","Female","","","","","","","","","","","","","","","","","","","","","",""
"preload","1","30458","0.0-1.0","spark_pilot_norest","8620","7","13","Female","true","false","[]","[]","[]","[{""event"":""fullscreenenter"",""trial"":2,""time"":33075}]","","","","","","","","","","","","","","","",""
"fullscreen","2","34059","0.0-2.0","spark_pilot_norest","8620","7","13","Female","true","","","","","","","","","","","","","","","","","","","","",""
"audio-button-response","3","35532","0.0-3.0-0.0-0.0","spark_pilot_norest","8620","7","13","Female","","","","","","","1408","./assets/audio/audiotest/turtle.mp3","2","audio_test","","","","","","","","","","","",""
"learning-instructions","4","44197","0.0-3.0-1.0-0.0","spark_pilot_norest","8620","7","13","Female","","","","","","","1683.8999999999069","<p> Welcome! Please remember to stay in fullscreen mode and don't click away from the experiment. </p>","","instructions","","","","","","","","","","","",""
"learning-instructions","5","53765","0.0-3.0-1.0-0.1","spark_pilot_norest","8620","7","13","Female","","","","","","","1155","<p> Today you will be playing a game to earn treasure. </p>
            <p> At the end of the experiment, you will earn a bonus based on how much treasure you find. </p>
            <img src='./assets/img/instructions/treasure.jpg' class='instructions-image'>","","instructions","","","","","","","","","","","",""
"learning-instructions","6","63064","0.0-3.0-1.0-0.2","spark_pilot_norest","8620","7","13","Female","","","","","","","1035.8999999999069","<p> Animals have hidden treasure in treasure chests. </p>
            <p> You need to first find an animal and then choose which of their treasure chests to search. </p>
            <img src='./assets/img/space/animals/cat.jpg' class='instructions-image'>","","instructions","","","","","","","","","","","",""
"learning-instructions","7","78180","0.0-3.0-1.0-0.3","spark_pilot_norest","8620","7","13","Female","","","","","","","1965.3000000002794","<p> In each round, you will search for treasure in a different place. In the real game, there will be two rounds. </p>
            <p> You will begin with a separate, practice round where you will search for treasure in outer space. </p>
            <img src='./assets/img/space/0.jpg' class='instructions-image'>","","instructions","","","","","","","","","","","",""
"learning-instructions","8","90331","0.0-3.0-1.0-0.4","spark_pilot_norest","8620","7","13","Female","","","","","","","734.8999999999069","<p> On every turn, you will see a picture of the place that you are in, but the specific image may be different each time. </p>
            <p> For example, both of these images mean you are in outer space. </p>
            <img src='./assets/img/instructions/outerspace.jpg' class='instructions-image'>","","instructions","","","","","","","","","","","",""
"learning-instructions","9","101414","0.0-3.0-1.0-0.5","spark_pilot_norest","8620","7","13","Female","","","","","","","3253","<p> You need to decide which direction to travel in. </p>
            <p> You can choose between going <b>up or down</b> by using the arrow keys. </p>
            <img src='./assets/img/instructions/updown.jpg' class='instructions-image'>","","instructions","","","","","","","","","","","",""
"learning-instructions","10","111513","0.0-3.0-1.0-0.6","spark_pilot_norest","8620","7","13","Female","","","","","","","1283.0999999996275","<p> You will have <b>2 seconds</b> to make your choice. </p>
            <p> If you do not make a choice within 2 seconds, you will not find an animal or earn treasure. </p>
            <img src='./assets/img/instructions/2seconds.jpg' class='instructions-image'>","","instructions","","","","","","","","","","","",""
"learning-instructions","11","119579","0.0-3.0-1.0-0.7","spark_pilot_norest","8620","7","13","Female","","","","","","","1029.7000000001863","<p> Let’s try practicing that now! </p>
            <p> When you see a picture of the place you are in, press the <b>up</b> key to travel up. </p>
            <img src='./assets/img/instructions/pressUp.jpg' class='instructions-image'>","","instructions","","","","","","","","","","","",""
"revaluation","12","123611","0.0-3.0-2.0-0.0","spark_pilot_norest","8620","7","13","Female","","false","","","","","[833.2000000001863]","./assets/img/space/0.jpg","[""ArrowUp""]","first stage practice","space","0","null","null","ArrowUp","false","","","","","",""
"html-keyboard-response","13","124122","0.0-3.0-2.0-1.0","spark_pilot_norest","8620","7","13","Female","","","","","","","null","<div style=""font-size:60px;"">+</div>","null","fixation","","","","","","","","","","","",""
"revaluation","14","128154","0.0-3.0-2.0-0.1","spark_pilot_norest","8620","7","13","Female","","false","","","","","[1007.7999999998137]","./assets/img/space/1.jpg","[""ArrowUp""]","first stage practice","space","0","null","null","ArrowUp","false","","","","","",""
"html-keyboard-response","15","128666","0.0-3.0-2.0-1.1","spark_pilot_norest","8620","7","13","Female","","","","","","","null","<div style=""font-size:60px;"">+</div>","null","fixation","","","","","","","","","","","",""
"revaluation","16","132703","0.0-3.0-2.0-0.2","spark_pilot_norest","8620","7","13","Female","","false","","","","","[968.5]","./assets/img/space/2.jpg","[""ArrowUp""]","first stage practice","space","0","null","null","ArrowUp","false","","","","","",""
"html-keyboard-response","17","133210","0.0-3.0-2.0-1.2","spark_pilot_norest","8620","7","13","Female","","","","","","","null","<div style=""font-size:60px;"">+</div>","null","fixation","","","","","","","","","","","",""
"learning-instructions","18","139195","0.0-3.0-3.0-0.0","spark_pilot_norest","8620","7","13","Female","","","","","","","1286.1999999997206","<p> Great job! Now try pressing the <b>down</b> key to travel down. </p>
            <img src='./assets/img/instructions/pressDown.jpg' class='instructions-image'>","","instructions","","","","","","","","","","","",""
"revaluation","19","143226","0.0-3.0-4.0-0.0","spark_pilot_norest","8620","7","13","Female","","false","","","","","[775.7000000001863]","./assets/img/space/3.jpg","[""ArrowDown""]","first stage practice","space","0","null","null","ArrowDown","false","","","","","",""
"html-keyboard-response","20","143739","0.0-3.0-4.0-1.0","spark_pilot_norest","8620","7","13","Female","","","","","","","null","<div style=""font-size:60px;"">+</div>","null","fixation","","","","","","","","","","","",""
"revaluation","21","147770","0.0-3.0-4.0-0.1","spark_pilot_norest","8620","7","13","Female","","false","","","","","[706.4000000003725]","./assets/img/space/4.jpg","[""ArrowDown""]","first stage practice","space","0","null","null","ArrowDown","false","","","","","",""
"html-keyboard-response","22","148282","0.0-3.0-4.0-1.1","spark_pilot_norest","8620","7","13","Female","","","","","","","null","<div style=""font-size:60px;"">+</div>","null","fixation","","","","","","","","","","","",""
"revaluation","23","152314","0.0-3.0-4.0-0.2","spark_pilot_norest","8620","7","13","Female","","false","","","","","[819]","./assets/img/space/5.jpg","[""ArrowDown""]","first stage practice","space","0","null","null","ArrowDown","false","","","","","",""
"html-keyboard-response","24","152827","0.0-3.0-4.0-1.2","spark_pilot_norest","8620","7","13","Female","","","","","","","null","<div style=""font-size:60px;"">+</div>","null","fixation","","","","","","","","","","","",""
"learning-instructions","25","165244","0.0-3.0-5.0-0.0","spark_pilot_norest","8620","7","13","Female","","","","","","","2562.9000000003725","<p> The animals don’t move, so the animal in the upper part of a place will stay in the upper part of a place, and the animal in the lower part of a place will stay in the lower part of a place. </p>","","instructions","","","","","","","","","","","",""
"learning-instructions","26","176360","0.0-3.0-5.0-0.1","spark_pilot_norest","8620","7","13","Female","","","","","","","1983.3999999999069","<p> Each animal has two treasure chests for you to choose from. </p>
            <p> The amount of treasure in each chest can range from <b> 0 to 40 pieces.</b></p>","","instructions","","","","","","","","","","","",""
"learning-instructions","27","205195","0.0-3.0-5.0-0.2","spark_pilot_norest","8620","7","13","Female","","","","","","","17643.899999999907","<p> You should decide which chest to search for treasure by using the <b>left</b> and <b>right</b> arrow keys. </p>
            <p><b> Pay attention to which animal is on the screen, as the animals have different treasure chests. </b></p>
            <img src='./assets/img/instructions/leftright.jpg' class='instructions-image'>","","instructions","","","","","","","","","","","",""
"learning-instructions","28","213361","0.0-3.0-5.0-0.3","spark_pilot_norest","8620","7","13","Female","","","","","","","1799.7000000001863","<p> Let’s try practicing that now. </p>
            <p> When you see an animal, choose which chest to search for treasure. </p>
            <img src='./assets/img/instructions/chooseChest.jpg' class='instructions-image'>","","instructions","","","","","","","","","","","",""
"revaluation","29","217388","0.0-3.0-6.0-0.0","spark_pilot_norest","8620","7","13","Female","","false","","","","","[910]","./assets/img/space/animals/cat.jpg","[""ArrowRight""]","second stage practice","space","36","{""ArrowUp,ArrowLeft"":3,""ArrowUp,ArrowRight"":36,""ArrowDown,ArrowLeft"":15,""ArrowDown,ArrowRight"":23}","true","ArrowUp,ArrowRight","","","","","","",""
"html-keyboard-response","30","217902","0.0-3.0-6.0-1.0","spark_pilot_norest","8620","7","13","Female","","","","","","","null","<div style=""font-size:60px;"">+</div>","null","fixation","","","","","","","","","","","",""
"revaluation","31","221930","0.0-3.0-6.0-0.1","spark_pilot_norest","8620","7","13","Female","","false","","","","","[1074.6000000000931]","./assets/img/space/animals/rabbit.jpg","[""ArrowLeft""]","second stage practice","space","15","{""ArrowUp,ArrowLeft"":3,""ArrowUp,ArrowRight"":36,""ArrowDown,ArrowLeft"":15,""ArrowDown,ArrowRight"":23}","false","ArrowDown,ArrowLeft","","","","","","",""
"html-keyboard-response","32","222446","0.0-3.0-6.0-1.1","spark_pilot_norest","8620","7","13","Female","","","","","","","null","<div style=""font-size:60px;"">+</div>","null","fixation","","","","","","","","","","","",""
"revaluation","33","226478","0.0-3.0-6.0-0.2","spark_pilot_norest","8620","7","13","Female","","false","","","","","[920.3999999999069]","./assets/img/space/animals/rabbit.jpg","[""ArrowRight""]","second stage practice","space","23","{""ArrowUp,ArrowLeft"":3,""ArrowUp,ArrowRight"":36,""ArrowDown,ArrowLeft"":15,""ArrowDown,ArrowRight"":23}","true","ArrowDown,ArrowRight","","","","","","",""
"html-keyboard-response","34","226988","0.0-3.0-6.0-1.2","spark_pilot_norest","8620","7","13","Female","","","","","","","null","<div style=""font-size:60px;"">+</div>","null","fixation","","","","","","","","","","","",""
"revaluation","35","231022","0.0-3.0-6.0-0.3","spark_pilot_norest","8620","7","13","Female","","false","","","","","[742.7000000001863]","./assets/img/space/animals/cat.jpg","[""ArrowRight""]","second stage practice","space","36","{""ArrowUp,ArrowLeft"":3,""ArrowUp,ArrowRight"":36,""ArrowDown,ArrowLeft"":15,""ArrowDown,ArrowRight"":23}","true","ArrowUp,ArrowRight","","","","","","",""
"html-keyboard-response","36","231530","0.0-3.0-6.0-1.3","spark_pilot_norest","8620","7","13","Female","","","","","","","null","<div style=""font-size:60px;"">+</div>","null","fixation","","","","","","","","","","","",""
"learning-instructions","37","250110","0.0-3.0-7.0-0.0","spark_pilot_norest","8620","7","13","Female","","","","","","","1755.3999999999069","<p> Great job. Now let’s try putting it together. </p>
            <p> On each turn, you will first see a picture to remind you of the place you are in, and you need to choose whether to go up or down. </p>
            <p> Then you will see an animal and choose which of its chests to search for treasure. </p>","","instructions","","","","","","","","","","","",""
"learning-instructions","38","258942","0.0-3.0-7.0-0.1","spark_pilot_norest","8620","7","13","Female","","","","","","","566.6000000000931","<p> When you choose whether to go up or down, try to go to the animal with the chest with the most treasure. </p>
            <p> Try practicing that now! </p>","","instructions","","","","","","","","","","","",""
"revaluation","39","264986","0.0-3.0-8.0-0.0","spark_pilot_norest","8620","7","13","Female","","false","","","","","[802.3999999999069,596.6000000000931]","./assets/img/space/6.jpg","[""ArrowUp"",""ArrowRight""]","full practice","space","36","{""ArrowUp,ArrowLeft"":3,""ArrowUp,ArrowRight"":36,""ArrowDown,ArrowLeft"":15,""ArrowDown,ArrowRight"":23}","true","ArrowUp,ArrowRight","false","","","","","",""
"html-keyboard-response","40","265499","0.0-3.0-8.0-1.0","spark_pilot_norest","8620","7","13","Female","","","","","","","null","<div style=""font-size:60px;"">+</div>","null","fixation","","","","","","","","","","","",""
"revaluation","41","271550","0.0-3.0-8.0-0.1","spark_pilot_norest","8620","7","13","Female","","false","","","","","[1157.1000000000931,565.5]","./assets/img/space/7.jpg","[""ArrowUp"",""ArrowRight""]","full practice","space","36","{""ArrowUp,ArrowLeft"":3,""ArrowUp,ArrowRight"":36,""ArrowDown,ArrowLeft"":15,""ArrowDown,ArrowRight"":23}","true","ArrowUp,ArrowRight","false","","","","","",""
"html-keyboard-response","42","272062","0.0-3.0-8.0-1.1","spark_pilot_norest","8620","7","13","Female","","","","","","","null","<div style=""font-size:60px;"">+</div>","null","fixation","","","","","","","","","","","",""
"revaluation","43","278106","0.0-3.0-8.0-0.2","spark_pilot_norest","8620","7","13","Female","","false","","","","","[937.2999999998137,523]","./assets/img/space/8.jpg","[""ArrowUp"",""ArrowRight""]","full practice","space","36","{""ArrowUp,ArrowLeft"":3,""ArrowUp,ArrowRight"":36,""ArrowDown,ArrowLeft"":15,""ArrowDown,ArrowRight"":23}","true","ArrowUp,ArrowRight","false","","","","","",""
"html-keyboard-response","44","278619","0.0-3.0-8.0-1.2","spark_pilot_norest","8620","7","13","Female","","","","","","","null","<div style=""font-size:60px;"">+</div>","null","fixation","","","","","","","","","","","",""
"revaluation","45","284668","0.0-3.0-8.0-0.3","spark_pilot_norest","8620","7","13","Female","","false","","","","","[874.8999999999069,475.3000000002794]","./assets/img/space/9.jpg","[""ArrowUp"",""ArrowLeft""]","full practice","space","3","{""ArrowUp,ArrowLeft"":3,""ArrowUp,ArrowRight"":36,""ArrowDown,ArrowLeft"":15,""ArrowDown,ArrowRight"":23}","false","ArrowUp,ArrowLeft","false","","","","","",""
"html-keyboard-response","46","285170","0.0-3.0-8.0-1.3","spark_pilot_norest","8620","7","13","Female","","","","","","","null","<div style=""font-size:60px;"">+</div>","null","fixation","","","","","","","","","","","",""
"revaluation","47","291214","0.0-3.0-8.0-0.4","spark_pilot_norest","8620","7","13","Female","","false","","","","","[988.6999999997206,362.79999999981374]","./assets/img/space/10.jpg","[""ArrowUp"",""ArrowRight""]","full practice","space","36","{""ArrowUp,ArrowLeft"":3,""ArrowUp,ArrowRight"":36,""ArrowDown,ArrowLeft"":15,""ArrowDown,ArrowRight"":23}","true","ArrowUp,ArrowRight","false","","","","","",""
"html-keyboard-response","48","291725","0.0-3.0-8.0-1.4","spark_pilot_norest","8620","7","13","Female","","","","","","","null","<div style=""font-size:60px;"">+</div>","null","fixation","","","","","","","","","","","",""
"learning-instructions","49","303941","0.0-3.0-9.0-0.0","spark_pilot_norest","8620","7","13","Female","","","","","","","1847.3000000002794","<p> One last thing: sometimes, you will see a robber. The robber can be anywhere in the picture. </p>
            <p> If you do not stop them, you will lose treasure. </p>
            <img src='./assets/img/instructions/robber.jpg' class='instructions-image'>","","instructions","","","","","","","","","","","",""
"learning-instructions","50","311875","0.0-3.0-9.0-0.1","spark_pilot_norest","8620","7","13","Female","","","","","","","768.1999999997206","<p> If you see the robber, you should <b>press the space bar</b> rather than using the arrow keys. </p>
            <p> Try practicing that now! </p>","","instructions","","","","","","","","","","","",""
"revaluation","51","315898","0.0-3.0-10.0-0.0","spark_pilot_norest","8620","7","13","Female","","false","","","","","[758.6000000000931]","./assets/img/space/catch/0.jpg","[""spaceBar""]","catch practice","space","0","{""ArrowUp,ArrowLeft"":3,""ArrowUp,ArrowRight"":36,""ArrowDown,ArrowLeft"":15,""ArrowDown,ArrowRight"":23}","true","spaceBar","true","","","","","",""
"html-keyboard-response","52","316413","0.0-3.0-10.0-1.0","spark_pilot_norest","8620","7","13","Female","","","","","","","null","<div style=""font-size:60px;"">+</div>","null","fixation","","","","","","","","","","","",""
"revaluation","53","320442","0.0-3.0-10.0-0.1","spark_pilot_norest","8620","7","13","Female","","false","","","","","[599.5]","./assets/img/space/catch/1.jpg","[""spaceBar""]","catch practice","space","0","{""ArrowUp,ArrowLeft"":3,""ArrowUp,ArrowRight"":36,""ArrowDown,ArrowLeft"":15,""ArrowDown,ArrowRight"":23}","true","spaceBar","true","","","","","",""
"html-keyboard-response","54","320957","0.0-3.0-10.0-1.1","spark_pilot_norest","8620","7","13","Female","","","","","","","null","<div style=""font-size:60px;"">+</div>","null","fixation","","","","","","","","","","","",""
"revaluation","55","324990","0.0-3.0-10.0-0.2","spark_pilot_norest","8620","7","13","Female","","false","","","","","[810.1000000000931]","./assets/img/space/catch/2.jpg","[""spaceBar""]","catch practice","space","0","{""ArrowUp,ArrowLeft"":3,""ArrowUp,ArrowRight"":36,""ArrowDown,ArrowLeft"":15,""ArrowDown,ArrowRight"":23}","true","spaceBar","true","","","","","",""
"html-keyboard-response","56","325497","0.0-3.0-10.0-1.2","spark_pilot_norest","8620","7","13","Female","","","","","","","null","<div style=""font-size:60px;"">+</div>","null","fixation","","","","","","","","","","","",""
"learning-instructions","57","332391","0.0-3.0-11.0-0.0-0.0","spark_pilot_norest","8620","7","13","Female","","","","","","","1636.2000000001863","<p> Now, you will practice a shortened version of the game to get a sense of how it all fits together. </p>","","instructions","","","","","","","","","","","",""
"learning-instructions","58","336841","0.0-3.0-11.0-0.0-0.1","spark_pilot_norest","8620","7","13","Female","","","","","","","1260.8999999999069","<p>This time you are searching for treasure in outer space.</p>","","instructions","","","","","","","","","","","",""
"learning-instructions","59","352756","0.0-3.0-11.0-1.0-0.0","spark_pilot_norest","8620","7","13","Female","","","","","","","1138.6000000000931","<p> Remember, when you see a picture of the place, use the up and down keys to <b>find an animal</b>.</p>
            <p> When you encounter an animal, you should use the left and right keys to <b>select a treasure chest</b>.</p>
            <p> Don't forget to look out for the robber! </p>","","instructions","","","","","","","","","","","",""
"revaluation","60","358796","0.0-3.0-11.0-2.0-0.0","spark_pilot_norest","8620","7","13","Female","","false","","","","","[1172.3999999999069,475.79999999981374]","./assets/img/space/11.jpg","[""ArrowUp"",""ArrowRight""]","practice block","space","36","{""ArrowUp,ArrowLeft"":3,""ArrowUp,ArrowRight"":36,""ArrowDown,ArrowLeft"":15,""ArrowDown,ArrowRight"":23}","true","ArrowUp,ArrowRight","false","","","","","",""
"html-keyboard-response","61","359308","0.0-3.0-11.0-2.0-1.0","spark_pilot_norest","8620","7","13","Female","","","","","","","null","<div style=""font-size:60px;"">+</div>","null","fixation","","","","","","","","","","","",""
"revaluation","62","365357","0.0-3.0-11.0-2.0-0.1","spark_pilot_norest","8620","7","13","Female","","false","","","","","[1016.9000000003725,475.79999999981374]","./assets/img/space/12.jpg","[""ArrowUp"",""ArrowRight""]","practice block","space","36","{""ArrowUp,ArrowLeft"":3,""ArrowUp,ArrowRight"":36,""ArrowDown,ArrowLeft"":15,""ArrowDown,ArrowRight"":23}","true","ArrowUp,ArrowRight","false","","","","","",""
"html-keyboard-response","63","365866","0.0-3.0-11.0-2.0-1.1","spark_pilot_norest","8620","7","13","Female","","","","","","","null","<div style=""font-size:60px;"">+</div>","null","fixation","","","","","","","","","","","",""
"revaluation","64","371917","0.0-3.0-11.0-2.0-0.2","spark_pilot_norest","8620","7","13","Female","","false","","","","","[812.6000000000931,551.3000000002794]","./assets/img/space/13.jpg","[""ArrowUp"",""ArrowRight""]","practice block","space","36","{""ArrowUp,ArrowLeft"":3,""ArrowUp,ArrowRight"":36,""ArrowDown,ArrowLeft"":15,""ArrowDown,ArrowRight"":23}","true","ArrowUp,ArrowRight","false","","","","","",""
"html-keyboard-response","65","372428","0.0-3.0-11.0-2.0-1.2","spark_pilot_norest","8620","7","13","Female","","","","","","","null","<div style=""font-size:60px;"">+</div>","null","fixation","","","","","","","","","","","",""
"revaluation","66","378473","0.0-3.0-11.0-2.0-0.3","spark_pilot_norest","8620","7","13","Female","","false","","","","","[506.1999999997206,346]","./assets/img/space/14.jpg","[""ArrowUp"",""ArrowRight""]","practice block","space","36","{""ArrowUp,ArrowLeft"":3,""ArrowUp,ArrowRight"":36,""ArrowDown,ArrowLeft"":15,""ArrowDown,ArrowRight"":23}","true","ArrowUp,ArrowRight","false","","","","","",""
"html-keyboard-response","67","378989","0.0-3.0-11.0-2.0-1.3","spark_pilot_norest","8620","7","13","Female","","","","","","","null","<div style=""font-size:60px;"">+</div>","null","fixation","","","","","","","","","","","",""
"revaluation","68","385037","0.0-3.0-11.0-2.0-0.4","spark_pilot_norest","8620","7","13","Female","","false","","","","","[701.6000000000931,500.89999999990687]","./assets/img/space/11.jpg","[""ArrowUp"",""ArrowRight""]","practice block","space","36","{""ArrowUp,ArrowLeft"":3,""ArrowUp,ArrowRight"":36,""ArrowDown,ArrowLeft"":15,""ArrowDown,ArrowRight"":23}","true","ArrowUp,ArrowRight","false","","","","","",""
"html-keyboard-response","69","385549","0.0-3.0-11.0-2.0-1.4","spark_pilot_norest","8620","7","13","Female","","","","","","","null","<div style=""font-size:60px;"">+</div>","null","fixation","","","","","","","","","","","",""
"revaluation","70","391597","0.0-3.0-11.0-2.0-0.5","spark_pilot_norest","8620","7","13","Female","","false","","","","","[1554.8999999999069,527.5]","./assets/img/space/12.jpg","[""ArrowUp"",""ArrowRight""]","practice block","space","36","{""ArrowUp,ArrowLeft"":3,""ArrowUp,ArrowRight"":36,""ArrowDown,ArrowLeft"":15,""ArrowDown,ArrowRight"":23}","true","ArrowUp,ArrowRight","false","","","","","",""
"html-keyboard-response","71","392105","0.0-3.0-11.0-2.0-1.5","spark_pilot_norest","8620","7","13","Female","","","","","","","null","<div style=""font-size:60px;"">+</div>","null","fixation","","","","","","","","","","","",""
"revaluation","72","398157","0.0-3.0-11.0-2.0-0.6","spark_pilot_norest","8620","7","13","Female","","false","","","","","[838.8999999999069,581.2000000001863]","./assets/img/space/13.jpg","[""ArrowUp"",""ArrowRight""]","practice block","space","36","{""ArrowUp,ArrowLeft"":3,""ArrowUp,ArrowRight"":36,""ArrowDown,ArrowLeft"":15,""ArrowDown,ArrowRight"":23}","true","ArrowUp,ArrowRight","false","","","","","",""
"html-keyboard-response","73","398669","0.0-3.0-11.0-2.0-1.6","spark_pilot_norest","8620","7","13","Female","","","","","","","null","<div style=""font-size:60px;"">+</div>","null","fixation","","","","","","","","","","","",""
"revaluation","74","404717","0.0-3.0-11.0-2.0-0.7","spark_pilot_norest","8620","7","13","Female","","false","","","","","[1075.1000000000931,443.39999999990687]","./assets/img/space/14.jpg","[""ArrowUp"",""ArrowRight""]","practice block","space","36","{""ArrowUp,ArrowLeft"":3,""ArrowUp,ArrowRight"":36,""ArrowDown,ArrowLeft"":15,""ArrowDown,ArrowRight"":23}","true","ArrowUp,ArrowRight","false","","","","","",""
"html-keyboard-response","75","405229","0.0-3.0-11.0-2.0-1.7","spark_pilot_norest","8620","7","13","Female","","","","","","","null","<div style=""font-size:60px;"">+</div>","null","fixation","","","","","","","","","","","",""
"revaluation","76","409261","0.0-3.0-11.0-2.0-0.8","spark_pilot_norest","8620","7","13","Female","","false","","","","","[500.59999999962747]","./assets/img/space/catch/3.jpg","[""ArrowUp""]","practice block","space","-10","{""ArrowUp,ArrowLeft"":3,""ArrowUp,ArrowRight"":36,""ArrowDown,ArrowLeft"":15,""ArrowDown,ArrowRight"":23}","false","ArrowUp","true","","","","","",""
"html-keyboard-response","77","409773","0.0-3.0-11.0-2.0-1.8","spark_pilot_norest","8620","7","13","Female","","","","","","","null","<div style=""font-size:60px;"">+</div>","null","fixation","","","","","","","","","","","",""
"learning-instructions","78","425321","0.0-3.0-11.0-3.0-0.0","spark_pilot_norest","8620","7","13","Female","","","","","","","2574.600000000093","<p> Now, you will travel with a friend who will choose whether you go up or down first. </p>
            <p> On these turns, you will just see the animal that they found. You will still get to choose which chest to search for treasure.</p>","","instructions","","","","","","","","","","","",""
"revaluation","79","429354","0.0-3.0-11.0-4.0-0.0","spark_pilot_norest","8620","7","13","Female","","false","","","","","[1074.0999999996275]","./assets/img/space/animals/cat.jpg","[""ArrowRight""]","practice block","space","36","{""ArrowUp,ArrowLeft"":3,""ArrowUp,ArrowRight"":36,""ArrowDown,ArrowLeft"":15,""ArrowDown,ArrowRight"":23}","true","ArrowUp,ArrowRight","","","","","","",""
"html-keyboard-response","80","429865","0.0-3.0-11.0-4.0-1.0","spark_pilot_norest","8620","7","13","Female","","","","","","","null","<div style=""font-size:60px;"">+</div>","null","fixation","","","","","","","","","","","",""
"revaluation","81","433896","0.0-3.0-11.0-4.0-0.1","spark_pilot_norest","8620","7","13","Female","","false","","","","","[958.9000000003725]","./assets/img/space/animals/rabbit.jpg","[""ArrowRight""]","practice block","space","23","{""ArrowUp,ArrowLeft"":3,""ArrowUp,ArrowRight"":36,""ArrowDown,ArrowLeft"":15,""ArrowDown,ArrowRight"":23}","true","ArrowDown,ArrowRight","","","","","","",""
"html-keyboard-response","82","434413","0.0-3.0-11.0-4.0-1.1","spark_pilot_norest","8620","7","13","Female","","","","","","","null","<div style=""font-size:60px;"">+</div>","null","fixation","","","","","","","","","","","",""
"revaluation","83","438445","0.0-3.0-11.0-4.0-0.2","spark_pilot_norest","8620","7","13","Female","","false","","","","","[554.6000000000931]","./assets/img/space/animals/cat.jpg","[""ArrowRight""]","practice block","space","36","{""ArrowUp,ArrowLeft"":3,""ArrowUp,ArrowRight"":36,""ArrowDown,ArrowLeft"":15,""ArrowDown,ArrowRight"":23}","true","ArrowUp,ArrowRight","","","","","","",""
"html-keyboard-response","84","438954","0.0-3.0-11.0-4.0-1.2","spark_pilot_norest","8620","7","13","Female","","","","","","","null","<div style=""font-size:60px;"">+</div>","null","fixation","","","","","","","","","","","",""
"revaluation","85","442985","0.0-3.0-11.0-4.0-0.3","spark_pilot_norest","8620","7","13","Female","","false","","","","","[433.60000000009313]","./assets/img/space/animals/rabbit.jpg","[""ArrowRight""]","practice block","space","23","{""ArrowUp,ArrowLeft"":3,""ArrowUp,ArrowRight"":36,""ArrowDown,ArrowLeft"":15,""ArrowDown,ArrowRight"":23}","true","ArrowDown,ArrowRight","","","","","","",""
"html-keyboard-response","86","443498","0.0-3.0-11.0-4.0-1.3","spark_pilot_norest","8620","7","13","Female","","","","","","","null","<div style=""font-size:60px;"">+</div>","null","fixation","","","","","","","","","","","",""
"learning-instructions","87","451642","0.0-3.0-11.0-5.0-0.0","spark_pilot_norest","8620","7","13","Female","","","","","","","null","<p> You have almost finished this part of the game! </p>
            <p> We are going to ask you to make a few more choices. </p>","","instructions","","","","","","","","","","","",""
"learning-instructions","88","467673","0.0-3.0-11.0-5.0-0.1","spark_pilot_norest","8620","7","13","Female","","","","","","","null","<p> First, you need to decide whether to go up or down. When you see each picture, use the arrow keys to make your choice. </p>
            <p><b>You will not see which animal you found, but try to get to the one that will give you the most treasure.</b></p>","","instructions","","","","","","","","","","","",""
"html-keyboard-response","89","468680","0.0-3.0-11.0-6.0-0.0","spark_pilot_norest","8620","7","13","Female","","","","","","","null","<div style=""font-size:100px;color:red;"">Starting in...</div>","null","","","","","","","","","","","","",""
"html-keyboard-response","90","469690","0.0-3.0-11.0-6.0-1.0","spark_pilot_norest","8620","7","13","Female","","","","","","","null","<div style=""font-size:200px;color:red;"">3</div>","null","","","","","","","","","","","","",""
"html-keyboard-response","91","470697","0.0-3.0-11.0-6.0-2.0","spark_pilot_norest","8620","7","13","Female","","","","","","","null","<div style=""font-size:200px;color:red;"">2</div>","null","","","","","","","","","","","","",""
"html-keyboard-response","92","471704","0.0-3.0-11.0-6.0-3.0","spark_pilot_norest","8620","7","13","Female","","","","","","","null","<div style=""font-size:200px;color:red;"">1</div>","null","","","","","","","","","","","","",""
"revaluation","93","472384","0.0-3.0-11.0-7.0","spark_pilot_norest","8620","7","13","Female","","false","","","","","[676.6999999997206]","./assets/img/space/15.jpg","[""ArrowUp""]","practice block","space","0","{""ArrowUp,ArrowLeft"":3,""ArrowUp,ArrowRight"":36,""ArrowDown,ArrowLeft"":15,""ArrowDown,ArrowRight"":23}","true","ArrowUp","false","","","","","",""
"html-keyboard-response","94","472889","0.0-3.0-11.0-8.0","spark_pilot_norest","8620","7","13","Female","","","","","","","null","<div style=""font-size:60px;"">+</div>","null","fixation","","","","","","","","","","","",""
"learning-instructions","95","486280","0.0-3.0-11.0-9.0-0.0","spark_pilot_norest","8620","7","13","Female","","","","","","","null","<p> Now you will see the animals again and can search their chests for treasure. </p>
            <p> This time, you will not see how much treasure you earned, but you will earn more bonus money for making better choices. </p>","","instructions","","","","","","","","","","","",""
"html-keyboard-response","96","487288","0.0-3.0-11.0-10.0-0.0","spark_pilot_norest","8620","7","13","Female","","","","","","","null","<div style=""font-size:100px;color:red;"">Starting in...</div>","null","","","","","","","","","","","","",""
"html-keyboard-response","97","488300","0.0-3.0-11.0-10.0-1.0","spark_pilot_norest","8620","7","13","Female","","","","","","","null","<div style=""font-size:200px;color:red;"">3</div>","null","","","","","","","","","","","","",""
"html-keyboard-response","98","489304","0.0-3.0-11.0-10.0-2.0","spark_pilot_norest","8620","7","13","Female","","","","","","","null","<div style=""font-size:200px;color:red;"">2</div>","null","","","","","","","","","","","","",""
"html-keyboard-response","99","490312","0.0-3.0-11.0-10.0-3.0","spark_pilot_norest","8620","7","13","Female","","","","","","","null","<div style=""font-size:200px;color:red;"">1</div>","null","","","","","","","","","","","","",""
"revaluation","100","490928","0.0-3.0-11.0-11.0-0.0","spark_pilot_norest","8620","7","13","Female","","false","","","","","[613.5]","./assets/img/space/animals/cat.jpg","[""ArrowRight""]","practice block","space","0","{""ArrowUp,ArrowLeft"":3,""ArrowUp,ArrowRight"":36,""ArrowDown,ArrowLeft"":15,""ArrowDown,ArrowRight"":23}","true","ArrowUp,ArrowRight","","","","","","",""
"html-keyboard-response","101","491432","0.0-3.0-11.0-11.0-1.0","spark_pilot_norest","8620","7","13","Female","","","","","","","null","<div style=""font-size:60px;"">+</div>","null","fixation","","","","","","","","","","","",""
"revaluation","102","492298","0.0-3.0-11.0-11.0-0.1","spark_pilot_norest","8620","7","13","Female","","false","","","","","[862.8999999999069]","./assets/img/space/animals/rabbit.jpg","[""ArrowRight""]","practice block","space","0","{""ArrowUp,ArrowLeft"":3,""ArrowUp,ArrowRight"":36,""ArrowDown,ArrowLeft"":15,""ArrowDown,ArrowRight"":23}","true","ArrowDown,ArrowRight","","","","","","",""
"html-keyboard-response","103","492808","0.0-3.0-11.0-11.0-1.1","spark_pilot_norest","8620","7","13","Female","","","","","","","null","<div style=""font-size:60px;"">+</div>","null","fixation","","","","","","","","","","","",""
"learning-instructions","104","499553","0.0-3.0-12.0-0.0","spark_pilot_norest","8620","7","13","Female","","","","","","","2163.1999999997206","<p> Before you start, we're going to ask you a few questions about how the game works. </p>","","instructions","","","","","","","","","","","",""
"comp-q","105","507570","0.0-3.0-13.0-0.0-0.0","spark_pilot_norest","8620","7","13","Female","","","","","","","2426.600000000093","<p> <b> True or False? </b> </p>
            <p> There can be 50 pieces of treasure in a given animal's chest. </p>","1","comp_question","","","","true","","","","","","","",""
"comp-q","106","516069","0.0-3.0-13.0-0.0-1.0","spark_pilot_norest","8620","7","13","Female","","","","","","","1836.3999999999069","<p> <b> That's right! </b> The amount of treasure in each chest can range from 0 to 40 pieces. </p>","0","comp_answer","","","","","","","","","","","",""
"comp-q","107","524353","0.0-3.0-13.0-0.1-0.1","spark_pilot_norest","8620","7","13","Female","","","","","","","1160.1999999997206","<p> <b> True or False? </b> </p><p> In this game, all animals have the same amount of treasure in their left and right chests. </p>","1","comp_question","","","","true","","","","","","","",""
"comp-q","108","530986","0.0-3.0-13.0-0.1-1.1","spark_pilot_norest","8620","7","13","Female","","","","","","","1398.8999999999069","<p> <b> That's right! </b> Animals have different amounts of treasure in their treasure chests. </p>","0","comp_answer","","","","","","","","","","","",""
"comp-q","109","539052","0.0-3.0-13.0-0.2-0.2","spark_pilot_norest","8620","7","13","Female","","","","","","","2217","<p> <b> True or False? </b> </p><p> The same animal will always be there if you go up in the same place. </p>","0","comp_question","","","","true","","","","","","","",""
"comp-q","110","567618","0.0-3.0-13.0-0.2-1.2","spark_pilot_norest","8620","7","13","Female","","","","","","","22122.299999999814","<p> <b> That's right! </b> One animal lives in the upper part and one lives in the lower part of every place. </p>","0","comp_answer","","","","","","","","","","","",""
"comp-q","111","574485","0.0-3.0-13.0-0.3-0.3","spark_pilot_norest","8620","7","13","Female","","","","","","","1336","<p> <b> True or False? </b> </p><p> If you see a different picture, it means you are in a new place. </p>","0","comp_question","","","","false","","","","","","","",""
"comp-q","112","587850","0.0-3.0-13.0-0.3-1.3","spark_pilot_norest","8620","7","13","Female","","","","","","","2269.7999999998137","<p> <b>Incorrect.</b> Lots of different images may show the same place. For example,  you may see three different images that all remind you that you are in outer space. </p>","0","comp_answer","","","","","","","","","","","",""
"comp-q","113","594984","0.0-3.0-13.0-0.4-0.4","spark_pilot_norest","8620","7","13","Female","","","","","","","1633.1000000000931","<p> <b> True or False? </b> </p><p> If you see a different picture, it means you are in a new place. </p>","1","comp_question","","","","true","","","","","","","",""
"comp-q","114","607083","0.0-3.0-13.0-0.4-1.4","spark_pilot_norest","8620","7","13","Female","","","","","","","868.3999999999069","<p> <b> That's right! </b> Lots of different images may show the same place. For example,  you may see three different images that all remind you that you are in outer space. </p>","0","comp_answer","","","","","","","","","","","",""
"learning-instructions","115","618734","0.0-3.0-14.0-0.0","spark_pilot_norest","8620","7","13","Female","","","","","","","1793.6999999997206","<p> Good job. Remember to do your best because the amount of treasure you earn will be converted into bonus money. </p>
            <p> It’s time to start the real game! </p>","","instructions","","","","","","","","","","","",""
"learning-instructions","116","622350","0.0-4.0-0.0-0.0","spark_pilot_norest","8620","7","13","Female","","","","","","","850.3999999999069","<p> This time you are searching for treasure in the <b>canyon</b>.</p>","","instructions","","","","","","","","","","","",""
"learning-instructions","117","641099","0.0-4.0-0.0-0.1","spark_pilot_norest","8620","7","13","Female","","","","","","","1445.2000000001863","<p><b>New</b> animals with <b>new</b> treasure chests live here. You need to explore to discover where the animal with the best treasure chest is.</p>
                    <p> Like before, once you figure out which animal has the chest with the most treasure, you should try to get to that animal and select that chest! </p>","","instructions","","","","","","","","","","","",""
"learning-instructions","118","656732","0.0-4.0-1.0-0.0","spark_pilot_norest","8620","7","13","Female","","","","","","","902.0999999996275","<p> Remember, when you see a picture of the place, use the up and down keys to <b>find an animal</b>.</p>
            <p> When you encounter an animal, you should use the left and right keys to <b>select a treasure chest</b>.</p>
            <p> Don't forget to look out for the robber! </p>","","instructions","","","","","","","","","","","",""
"revaluation","119","662775","0.0-4.0-2.0-0.0","spark_pilot_norest","8620","7","13","Female","","false","","","","","[1149.5,506.20000000018626]","./assets/img/canyon/memory/36.jpg","[""ArrowUp"",""ArrowRight""]","value training","canyon","10","{""ArrowUp,ArrowLeft"":23,""ArrowUp,ArrowRight"":10,""ArrowDown,ArrowLeft"":8,""ArrowDown,ArrowRight"":30}","false","ArrowUp,ArrowRight","false","original","1","0","","",""
"html-keyboard-response","120","663287","0.0-4.0-2.0-1.0","spark_pilot_norest","8620","7","13","Female","","","","","","","null","<div style=""font-size:60px;"">+</div>","null","fixation","","","","","","","","","1","","",""
"revaluation","121","667318","0.0-4.0-2.0-0.1","spark_pilot_norest","8620","7","13","Female","","false","","","","","[702.3999999999069]","./assets/img/canyon/catch/4.jpg","[""ArrowUp""]","value training","canyon","-10","{""ArrowUp,ArrowLeft"":23,""ArrowUp,ArrowRight"":10,""ArrowDown,ArrowLeft"":8,""ArrowDown,ArrowRight"":30}","false","ArrowUp","true","original","1","2","","",""
"html-keyboard-response","122","667832","0.0-4.0-2.0-1.1","spark_pilot_norest","8620","7","13","Female","","","","","","","null","<div style=""font-size:60px;"">+</div>","null","fixation","","","","","","","","","3","","",""
"revaluation","123","673879","0.0-4.0-2.0-0.2","spark_pilot_norest","8620","7","13","Female","","false","","","","","[528.1000000000931,448.89999999990687]","./assets/img/canyon/memory/11.jpg","[""ArrowUp"",""ArrowLeft""]","value training","canyon","23","{""ArrowUp,ArrowLeft"":23,""ArrowUp,ArrowRight"":10,""ArrowDown,ArrowLeft"":8,""ArrowDown,ArrowRight"":30}","false","ArrowUp,ArrowLeft","false","original","1","4","","",""
"html-keyboard-response","124","674391","0.0-4.0-2.0-1.2","spark_pilot_norest","8620","7","13","Female","","","","","","","null","<div style=""font-size:60px;"">+</div>","null","fixation","","","","","","","","","5","","",""
"revaluation","125","678426","0.0-4.0-2.0-0.3","spark_pilot_norest","8620","7","13","Female","","false","","","","","[1099.8999999999069]","./assets/img/canyon/catch/5.jpg","[""spaceBar""]","value training","canyon","0","{""ArrowUp,ArrowLeft"":23,""ArrowUp,ArrowRight"":10,""ArrowDown,ArrowLeft"":8,""ArrowDown,ArrowRight"":30}","true","spaceBar","true","original","1","6","","",""
"html-keyboard-response","126","678935","0.0-4.0-2.0-1.3","spark_pilot_norest","8620","7","13","Female","","","","","","","null","<div style=""font-size:60px;"">+</div>","null","fixation","","","","","","","","","7","","",""
"revaluation","127","684986","0.0-4.0-2.0-0.4","spark_pilot_norest","8620","7","13","Female","","false","","","","","[939.5,1257.6000000000931]","./assets/img/canyon/memory/34.jpg","[""ArrowUp"",""ArrowRight""]","value training","canyon","10","{""ArrowUp,ArrowLeft"":23,""ArrowUp,ArrowRight"":10,""ArrowDown,ArrowLeft"":8,""ArrowDown,ArrowRight"":30}","false","ArrowUp,ArrowRight","false","original","1","8","","",""
"html-keyboard-response","128","685494","0.0-4.0-2.0-1.4","spark_pilot_norest","8620","7","13","Female","","","","","","","null","<div style=""font-size:60px;"">+</div>","null","fixation","","","","","","","","","9","","",""
"revaluation","129","691542","0.0-4.0-2.0-0.5","spark_pilot_norest","8620","7","13","Female","","false","","","","","[654,413]","./assets/img/canyon/memory/9.jpg","[""ArrowUp"",""ArrowLeft""]","value training","canyon","23","{""ArrowUp,ArrowLeft"":23,""ArrowUp,ArrowRight"":10,""ArrowDown,ArrowLeft"":8,""ArrowDown,ArrowRight"":30}","false","ArrowUp,ArrowLeft","false","original","1","10","","",""
"html-keyboard-response","130","692054","0.0-4.0-2.0-1.5","spark_pilot_norest","8620","7","13","Female","","","","","","","null","<div style=""font-size:60px;"">+</div>","null","fixation","","","","","","","","","11","","",""
"revaluation","131","698103","0.0-4.0-2.0-0.6","spark_pilot_norest","8620","7","13","Female","","false","","","","","[932.8999999999069,559.7000000001863]","./assets/img/canyon/memory/16.jpg","[""ArrowDown"",""ArrowRight""]","value training","canyon","30","{""ArrowUp,ArrowLeft"":23,""ArrowUp,ArrowRight"":10,""ArrowDown,ArrowLeft"":8,""ArrowDown,ArrowRight"":30}","true","ArrowDown,ArrowRight","false","original","1","12","","",""
"html-keyboard-response","132","698614","0.0-4.0-2.0-1.6","spark_pilot_norest","8620","7","13","Female","","","","","","","null","<div style=""font-size:60px;"">+</div>","null","fixation","","","","","","","","","13","","",""
"revaluation","133","704662","0.0-4.0-2.0-0.7","spark_pilot_norest","8620","7","13","Female","","false","","","","","[526.7000000001863,629.5]","./assets/img/canyon/memory/12.jpg","[""ArrowDown"",""ArrowLeft""]","value training","canyon","8","{""ArrowUp,ArrowLeft"":23,""ArrowUp,ArrowRight"":10,""ArrowDown,ArrowLeft"":8,""ArrowDown,ArrowRight"":30}","false","ArrowDown,ArrowLeft","false","original","1","14","","",""
"html-keyboard-response","134","705176","0.0-4.0-2.0-1.7","spark_pilot_norest","8620","7","13","Female","","","","","","","null","<div style=""font-size:60px;"">+</div>","null","fixation","","","","","","","","","15","","",""
"revaluation","135","711222","0.0-4.0-2.0-0.8","spark_pilot_norest","8620","7","13","Female","","false","","","","","[605,529]","./assets/img/canyon/memory/17.jpg","[""ArrowDown"",""ArrowRight""]","value training","canyon","30","{""ArrowUp,ArrowLeft"":23,""ArrowUp,ArrowRight"":10,""ArrowDown,ArrowLeft"":8,""ArrowDown,ArrowRight"":30}","true","ArrowDown,ArrowRight","false","original","1","16","","",""
"html-keyboard-response","136","711734","0.0-4.0-2.0-1.8","spark_pilot_norest","8620","7","13","Female","","","","","","","null","<div style=""font-size:60px;"">+</div>","null","fixation","","","","","","","","","17","","",""
"revaluation","137","717782","0.0-4.0-2.0-0.9","spark_pilot_norest","8620","7","13","Female","","false","","","","","[529.9000000003725,638.1999999997206]","./assets/img/canyon/memory/19.jpg","[""ArrowDown"",""ArrowRight""]","value training","canyon","30","{""ArrowUp,ArrowLeft"":23,""ArrowUp,ArrowRight"":10,""ArrowDown,ArrowLeft"":8,""ArrowDown,ArrowRight"":30}","true","ArrowDown,ArrowRight","false","original","1","18","","",""
"html-keyboard-response","138","718294","0.0-4.0-2.0-1.9","spark_pilot_norest","8620","7","13","Female","","","","","","","null","<div style=""font-size:60px;"">+</div>","null","fixation","","","","","","","","","19","","",""
"revaluation","139","724342","0.0-4.0-2.0-0.10","spark_pilot_norest","8620","7","13","Female","","false","","","","","[747.7000000001863,372.6999999997206]","./assets/img/canyon/memory/30.jpg","[""ArrowDown"",""ArrowRight""]","value training","canyon","30","{""ArrowUp,ArrowLeft"":23,""ArrowUp,ArrowRight"":10,""ArrowDown,ArrowLeft"":8,""ArrowDown,ArrowRight"":30}","true","ArrowDown,ArrowRight","false","original","1","20","","",""
"html-keyboard-response","140","724854","0.0-4.0-2.0-1.10","spark_pilot_norest","8620","7","13","Female","","","","","","","null","<div style=""font-size:60px;"">+</div>","null","fixation","","","","","","","","","21","","",""
"revaluation","141","730903","0.0-4.0-2.0-0.11","spark_pilot_norest","8620","7","13","Female","","false","","","","","[761,414.8000000002794]","./assets/img/canyon/memory/20.jpg","[""ArrowDown"",""ArrowRight""]","value training","canyon","30","{""ArrowUp,ArrowLeft"":23,""ArrowUp,ArrowRight"":10,""ArrowDown,ArrowLeft"":8,""ArrowDown,ArrowRight"":30}","true","ArrowDown,ArrowRight","false","original","1","22","","",""
"html-keyboard-response","142","731414","0.0-4.0-2.0-1.11","spark_pilot_norest","8620","7","13","Female","","","","","","","null","<div style=""font-size:60px;"">+</div>","null","fixation","","","","","","","","","23","","",""
"revaluation","143","737474","0.0-4.0-2.0-0.12","spark_pilot_norest","8620","7","13","Female","","false","","","","","[983.7000000001863,445.89999999990687]","./assets/img/canyon/memory/18.jpg","[""ArrowDown"",""ArrowRight""]","value training","canyon","30","{""ArrowUp,ArrowLeft"":23,""ArrowUp,ArrowRight"":10,""ArrowDown,ArrowLeft"":8,""ArrowDown,ArrowRight"":30}","true","ArrowDown,ArrowRight","false","original","1","24","","",""
"html-keyboard-response","144","737982","0.0-4.0-2.0-1.12","spark_pilot_norest","8620","7","13","Female","","","","","","","null","<div style=""font-size:60px;"">+</div>","null","fixation","","","","","","","","","25","","",""
"revaluation","145","744043","0.0-4.0-2.0-0.13","spark_pilot_norest","8620","7","13","Female","","false","","","","","[778.1999999997206,636.5999999996275]","./assets/img/canyon/memory/10.jpg","[""ArrowDown"",""ArrowRight""]","value training","canyon","30","{""ArrowUp,ArrowLeft"":23,""ArrowUp,ArrowRight"":10,""ArrowDown,ArrowLeft"":8,""ArrowDown,ArrowRight"":30}","true","ArrowDown,ArrowRight","false","original","1","26","","",""
"html-keyboard-response","146","744552","0.0-4.0-2.0-1.13","spark_pilot_norest","8620","7","13","Female","","","","","","","null","<div style=""font-size:60px;"">+</div>","null","fixation","","","","","","","","","27","","",""
"revaluation","147","750607","0.0-4.0-2.0-0.14","spark_pilot_norest","8620","7","13","Female","","false","","","","","[885.2999999998137,578.1000000000931]","./assets/img/canyon/memory/14.jpg","[""ArrowDown"",""ArrowRight""]","value training","canyon","30","{""ArrowUp,ArrowLeft"":23,""ArrowUp,ArrowRight"":10,""ArrowDown,ArrowLeft"":8,""ArrowDown,ArrowRight"":30}","true","ArrowDown,ArrowRight","false","original","1","28","","",""
"html-keyboard-response","148","751119","0.0-4.0-2.0-1.14","spark_pilot_norest","8620","7","13","Female","","","","","","","null","<div style=""font-size:60px;"">+</div>","null","fixation","","","","","","","","","29","","",""
"revaluation","149","757171","0.0-4.0-2.0-0.15","spark_pilot_norest","8620","7","13","Female","","false","","","","","[732.2000000001863,461.79999999981374]","./assets/img/canyon/memory/0.jpg","[""ArrowDown"",""ArrowRight""]","value training","canyon","30","{""ArrowUp,ArrowLeft"":23,""ArrowUp,ArrowRight"":10,""ArrowDown,ArrowLeft"":8,""ArrowDown,ArrowRight"":30}","true","ArrowDown,ArrowRight","false","original","1","30","","",""
"html-keyboard-response","150","757687","0.0-4.0-2.0-1.15","spark_pilot_norest","8620","7","13","Female","","","","","","","null","<div style=""font-size:60px;"">+</div>","null","fixation","","","","","","","","","31","","",""
"revaluation","151","763734","0.0-4.0-2.0-0.16","spark_pilot_norest","8620","7","13","Female","","false","","","","","[1020.6000000000931,424.89999999990687]","./assets/img/canyon/memory/20.jpg","[""ArrowDown"",""ArrowRight""]","value training","canyon","30","{""ArrowUp,ArrowLeft"":23,""ArrowUp,ArrowRight"":10,""ArrowDown,ArrowLeft"":8,""ArrowDown,ArrowRight"":30}","true","ArrowDown,ArrowRight","false","original","1","32","","",""
"html-keyboard-response","152","764246","0.0-4.0-2.0-1.16","spark_pilot_norest","8620","7","13","Female","","","","","","","null","<div style=""font-size:60px;"">+</div>","null","fixation","","","","","","","","","33","","",""
"revaluation","153","768280","0.0-4.0-2.0-0.17","spark_pilot_norest","8620","7","13","Female","","false","","","","","[782.0999999996275]","./assets/img/canyon/catch/7.jpg","[""spaceBar""]","value training","canyon","0","{""ArrowUp,ArrowLeft"":23,""ArrowUp,ArrowRight"":10,""ArrowDown,ArrowLeft"":8,""ArrowDown,ArrowRight"":30}","true","spaceBar","true","original","1","34","","",""
"html-keyboard-response","154","768792","0.0-4.0-2.0-1.17","spark_pilot_norest","8620","7","13","Female","","","","","","","null","<div style=""font-size:60px;"">+</div>","null","fixation","","","","","","","","","35","","",""
"revaluation","155","774841","0.0-4.0-2.0-0.18","spark_pilot_norest","8620","7","13","Female","","false","","","","","[993.5999999996275,596]","./assets/img/canyon/memory/5.jpg","[""ArrowDown"",""ArrowRight""]","value training","canyon","30","{""ArrowUp,ArrowLeft"":23,""ArrowUp,ArrowRight"":10,""ArrowDown,ArrowLeft"":8,""ArrowDown,ArrowRight"":30}","true","ArrowDown,ArrowRight","false","original","1","36","","",""
"html-keyboard-response","156","775353","0.0-4.0-2.0-1.18","spark_pilot_norest","8620","7","13","Female","","","","","","","null","<div style=""font-size:60px;"">+</div>","null","fixation","","","","","","","","","37","","",""
"revaluation","157","779386","0.0-4.0-2.0-0.19","spark_pilot_norest","8620","7","13","Female","","false","","","","","[720.2999999998137]","./assets/img/canyon/catch/6.jpg","[""spaceBar""]","value training","canyon","0","{""ArrowUp,ArrowLeft"":23,""ArrowUp,ArrowRight"":10,""ArrowDown,ArrowLeft"":8,""ArrowDown,ArrowRight"":30}","true","spaceBar","true","original","1","38","","",""
"html-keyboard-response","158","779899","0.0-4.0-2.0-1.19","spark_pilot_norest","8620","7","13","Female","","","","","","","null","<div style=""font-size:60px;"">+</div>","null","fixation","","","","","","","","","39","","",""
"revaluation","159","785947","0.0-4.0-2.0-0.20","spark_pilot_norest","8620","7","13","Female","","false","","","","","[777.5,635.2000000001863]","./assets/img/canyon/memory/18.jpg","[""ArrowDown"",""ArrowRight""]","value training","canyon","30","{""ArrowUp,ArrowLeft"":23,""ArrowUp,ArrowRight"":10,""ArrowDown,ArrowLeft"":8,""ArrowDown,ArrowRight"":30}","true","ArrowDown,ArrowRight","false","original","1","40","","",""
"html-keyboard-response","160","786459","0.0-4.0-2.0-1.20","spark_pilot_norest","8620","7","13","Female","","","","","","","null","<div style=""font-size:60px;"">+</div>","null","fixation","","","","","","","","","41","","",""
"revaluation","161","790491","0.0-4.0-2.0-0.21","spark_pilot_norest","8620","7","13","Female","","false","","","","","[766.8999999999069]","./assets/img/canyon/catch/2.jpg","[""spaceBar""]","value training","canyon","0","{""ArrowUp,ArrowLeft"":23,""ArrowUp,ArrowRight"":10,""ArrowDown,ArrowLeft"":8,""ArrowDown,ArrowRight"":30}","true","spaceBar","true","original","1","42","","",""
"html-keyboard-response","162","791003","0.0-4.0-2.0-1.21","spark_pilot_norest","8620","7","13","Female","","","","","","","null","<div style=""font-size:60px;"">+</div>","null","fixation","","","","","","","","","43","","",""
"revaluation","163","797051","0.0-4.0-2.0-0.22","spark_pilot_norest","8620","7","13","Female","","false","","","","","[1064.2999999998137,596.5999999996275]","./assets/img/canyon/memory/25.jpg","[""ArrowDown"",""ArrowRight""]","value training","canyon","30","{""ArrowUp,ArrowLeft"":23,""ArrowUp,ArrowRight"":10,""ArrowDown,ArrowLeft"":8,""ArrowDown,ArrowRight"":30}","true","ArrowDown,ArrowRight","false","original","1","44","","",""
"html-keyboard-response","164","797563","0.0-4.0-2.0-1.22","spark_pilot_norest","8620","7","13","Female","","","","","","","null","<div style=""font-size:60px;"">+</div>","null","fixation","","","","","","","","","45","","",""
"revaluation","165","801596","0.0-4.0-2.0-0.23","spark_pilot_norest","8620","7","13","Female","","false","","","","","[1163.8000000002794]","./assets/img/canyon/catch/3.jpg","[""spaceBar""]","value training","canyon","0","{""ArrowUp,ArrowLeft"":23,""ArrowUp,ArrowRight"":10,""ArrowDown,ArrowLeft"":8,""ArrowDown,ArrowRight"":30}","true","spaceBar","true","original","1","46","","",""
"html-keyboard-response","166","802107","0.0-4.0-2.0-1.23","spark_pilot_norest","8620","7","13","Female","","","","","","","null","<div style=""font-size:60px;"">+</div>","null","fixation","","","","","","","","","47","","",""
"revaluation","167","806140","0.0-4.0-2.0-0.24","spark_pilot_norest","8620","7","13","Female","","false","","","","","[1471.1000000000931]","./assets/img/canyon/catch/0.jpg","[""spaceBar""]","value training","canyon","0","{""ArrowUp,ArrowLeft"":23,""ArrowUp,ArrowRight"":10,""ArrowDown,ArrowLeft"":8,""ArrowDown,ArrowRight"":30}","true","spaceBar","true","original","1","48","","",""
"html-keyboard-response","168","806652","0.0-4.0-2.0-1.24","spark_pilot_norest","8620","7","13","Female","","","","","","","null","<div style=""font-size:60px;"">+</div>","null","fixation","","","","","","","","","49","","",""
"revaluation","169","812700","0.0-4.0-2.0-0.25","spark_pilot_norest","8620","7","13","Female","","false","","","","","[957.1000000000931,1813.9000000003725]","./assets/img/canyon/memory/16.jpg","[""ArrowDown"",""ArrowRight""]","value training","canyon","30","{""ArrowUp,ArrowLeft"":23,""ArrowUp,ArrowRight"":10,""ArrowDown,ArrowLeft"":8,""ArrowDown,ArrowRight"":30}","true","ArrowDown,ArrowRight","false","original","1","50","","",""
"html-keyboard-response","170","813216","0.0-4.0-2.0-1.25","spark_pilot_norest","8620","7","13","Female","","","","","","","null","<div style=""font-size:60px;"">+</div>","null","fixation","","","","","","","","","51","","",""
"revaluation","171","819261","0.0-4.0-2.0-0.26","spark_pilot_norest","8620","7","13","Female","","false","","","","","[1166.6000000000931,1728.6999999997206]","./assets/img/canyon/memory/40.jpg","[""ArrowDown"",""ArrowRight""]","value training","canyon","30","{""ArrowUp,ArrowLeft"":23,""ArrowUp,ArrowRight"":10,""ArrowDown,ArrowLeft"":8,""ArrowDown,ArrowRight"":30}","true","ArrowDown,ArrowRight","false","original","1","52","","",""
"html-keyboard-response","172","819772","0.0-4.0-2.0-1.26","spark_pilot_norest","8620","7","13","Female","","","","","","","null","<div style=""font-size:60px;"">+</div>","null","fixation","","","","","","","","","53","","",""
"revaluation","173","825820","0.0-4.0-2.0-0.27","spark_pilot_norest","8620","7","13","Female","","false","","","","","[1251.4000000003725,506]","./assets/img/canyon/memory/25.jpg","[""ArrowDown"",""ArrowRight""]","value training","canyon","30","{""ArrowUp,ArrowLeft"":23,""ArrowUp,ArrowRight"":10,""ArrowDown,ArrowLeft"":8,""ArrowDown,ArrowRight"":30}","true","ArrowDown,ArrowRight","false","original","1","54","","",""
"html-keyboard-response","174","826332","0.0-4.0-2.0-1.27","spark_pilot_norest","8620","7","13","Female","","","","","","","null","<div style=""font-size:60px;"">+</div>","null","fixation","","","","","","","","","55","","",""
"revaluation","175","832380","0.0-4.0-2.0-0.28","spark_pilot_norest","8620","7","13","Female","","false","","","","","[931,697.6999999997206]","./assets/img/canyon/memory/14.jpg","[""ArrowDown"",""ArrowRight""]","value training","canyon","30","{""ArrowUp,ArrowLeft"":23,""ArrowUp,ArrowRight"":10,""ArrowDown,ArrowLeft"":8,""ArrowDown,ArrowRight"":30}","true","ArrowDown,ArrowRight","false","original","1","56","","",""
"html-keyboard-response","176","832893","0.0-4.0-2.0-1.28","spark_pilot_norest","8620","7","13","Female","","","","","","","null","<div style=""font-size:60px;"">+</div>","null","fixation","","","","","","","","","57","","",""
"revaluation","177","838940","0.0-4.0-2.0-0.29","spark_pilot_norest","8620","7","13","Female","","false","","","","","[1089.3000000002794,892.6000000000931]","./assets/img/canyon/memory/27.jpg","[""ArrowDown"",""ArrowRight""]","value training","canyon","30","{""ArrowUp,ArrowLeft"":23,""ArrowUp,ArrowRight"":10,""ArrowDown,ArrowLeft"":8,""ArrowDown,ArrowRight"":30}","true","ArrowDown,ArrowRight","false","original","1","58","","",""
"html-keyboard-response","178","839454","0.0-4.0-2.0-1.29","spark_pilot_norest","8620","7","13","Female","","","","","","","null","<div style=""font-size:60px;"">+</div>","null","fixation","","","","","","","","","59","","",""
"revaluation","179","845500","0.0-4.0-2.0-0.30","spark_pilot_norest","8620","7","13","Female","","false","","","","","[823.8000000002794,496.79999999981374]","./assets/img/canyon/memory/30.jpg","[""ArrowDown"",""ArrowRight""]","value training","canyon","30","{""ArrowUp,ArrowLeft"":23,""ArrowUp,ArrowRight"":10,""ArrowDown,ArrowLeft"":8,""ArrowDown,ArrowRight"":30}","true","ArrowDown,ArrowRight","false","original","1","60","","",""
"html-keyboard-response","180","846012","0.0-4.0-2.0-1.30","spark_pilot_norest","8620","7","13","Female","","","","","","","null","<div style=""font-size:60px;"">+</div>","null","fixation","","","","","","","","","61","","",""
"revaluation","181","852061","0.0-4.0-2.0-0.31","spark_pilot_norest","8620","7","13","Female","","false","","","","","[1007.5,518.5]","./assets/img/canyon/memory/12.jpg","[""ArrowDown"",""ArrowRight""]","value training","canyon","30","{""ArrowUp,ArrowLeft"":23,""ArrowUp,ArrowRight"":10,""ArrowDown,ArrowLeft"":8,""ArrowDown,ArrowRight"":30}","true","ArrowDown,ArrowRight","false","original","1","62","","",""
"html-keyboard-response","182","852573","0.0-4.0-2.0-1.31","spark_pilot_norest","8620","7","13","Female","","","","","","","null","<div style=""font-size:60px;"">+</div>","null","fixation","","","","","","","","","63","","",""
"revaluation","183","858620","0.0-4.0-2.0-0.32","spark_pilot_norest","8620","7","13","Female","","false","","","","","[834,486.89999999990687]","./assets/img/canyon/memory/27.jpg","[""ArrowDown"",""ArrowRight""]","value training","canyon","30","{""ArrowUp,ArrowLeft"":23,""ArrowUp,ArrowRight"":10,""ArrowDown,ArrowLeft"":8,""ArrowDown,ArrowRight"":30}","true","ArrowDown,ArrowRight","false","original","1","64","","",""
"html-keyboard-response","184","859132","0.0-4.0-2.0-1.32","spark_pilot_norest","8620","7","13","Female","","","","","","","null","<div style=""font-size:60px;"">+</div>","null","fixation","","","","","","","","","65","","",""
"revaluation","185","865180","0.0-4.0-2.0-0.33","spark_pilot_norest","8620","7","13","Female","","false","","","","","[807.7000000001863,896.5]","./assets/img/canyon/memory/11.jpg","[""ArrowDown"",""ArrowRight""]","value training","canyon","30","{""ArrowUp,ArrowLeft"":23,""ArrowUp,ArrowRight"":10,""ArrowDown,ArrowLeft"":8,""ArrowDown,ArrowRight"":30}","true","ArrowDown,ArrowRight","false","original","1","66","","",""
"html-keyboard-response","186","865692","0.0-4.0-2.0-1.33","spark_pilot_norest","8620","7","13","Female","","","","","","","null","<div style=""font-size:60px;"">+</div>","null","fixation","","","","","","","","","67","","",""
"revaluation","187","871740","0.0-4.0-2.0-0.34","spark_pilot_norest","8620","7","13","Female","","false","","","","","[1262.1999999997206,461.8000000002794]","./assets/img/canyon/memory/37.jpg","[""ArrowDown"",""ArrowRight""]","value training","canyon","30","{""ArrowUp,ArrowLeft"":23,""ArrowUp,ArrowRight"":10,""ArrowDown,ArrowLeft"":8,""ArrowDown,ArrowRight"":30}","true","ArrowDown,ArrowRight","false","original","1","68","","",""
"html-keyboard-response","188","872252","0.0-4.0-2.0-1.34","spark_pilot_norest","8620","7","13","Female","","","","","","","null","<div style=""font-size:60px;"">+</div>","null","fixation","","","","","","","","","69","","",""
"revaluation","189","878300","0.0-4.0-2.0-0.35","spark_pilot_norest","8620","7","13","Female","","false","","","","","[717.8999999999069,481.8000000002794]","./assets/img/canyon/memory/5.jpg","[""ArrowDown"",""ArrowRight""]","value training","canyon","30","{""ArrowUp,ArrowLeft"":23,""ArrowUp,ArrowRight"":10,""ArrowDown,ArrowLeft"":8,""ArrowDown,ArrowRight"":30}","true","ArrowDown,ArrowRight","false","original","1","70","","",""
"html-keyboard-response","190","878812","0.0-4.0-2.0-1.35","spark_pilot_norest","8620","7","13","Female","","","","","","","null","<div style=""font-size:60px;"">+</div>","null","fixation","","","","","","","","","71","","",""
"revaluation","191","884860","0.0-4.0-2.0-0.36","spark_pilot_norest","8620","7","13","Female","","false","","","","","[705.6000000000931,554]","./assets/img/canyon/memory/19.jpg","[""ArrowDown"",""ArrowRight""]","value training","canyon","30","{""ArrowUp,ArrowLeft"":23,""ArrowUp,ArrowRight"":10,""ArrowDown,ArrowLeft"":8,""ArrowDown,ArrowRight"":30}","true","ArrowDown,ArrowRight","false","original","1","72","","",""
"html-keyboard-response","192","885375","0.0-4.0-2.0-1.36","spark_pilot_norest","8620","7","13","Female","","","","","","","null","<div style=""font-size:60px;"">+</div>","null","fixation","","","","","","","","","73","","",""
"revaluation","193","891423","0.0-4.0-2.0-0.37","spark_pilot_norest","8620","7","13","Female","","false","","","","","[660,570.7000000001863]","./assets/img/canyon/memory/36.jpg","[""ArrowDown"",""ArrowRight""]","value training","canyon","30","{""ArrowUp,ArrowLeft"":23,""ArrowUp,ArrowRight"":10,""ArrowDown,ArrowLeft"":8,""ArrowDown,ArrowRight"":30}","true","ArrowDown,ArrowRight","false","original","1","74","","",""
"html-keyboard-response","194","891932","0.0-4.0-2.0-1.37","spark_pilot_norest","8620","7","13","Female","","","","","","","null","<div style=""font-size:60px;"">+</div>","null","fixation","","","","","","","","","75","","",""
"revaluation","195","897980","0.0-4.0-2.0-0.38","spark_pilot_norest","8620","7","13","Female","","false","","","","","[1005.5,477]","./assets/img/canyon/memory/37.jpg","[""ArrowDown"",""ArrowRight""]","value training","canyon","30","{""ArrowUp,ArrowLeft"":23,""ArrowUp,ArrowRight"":10,""ArrowDown,ArrowLeft"":8,""ArrowDown,ArrowRight"":30}","true","ArrowDown,ArrowRight","false","original","1","76","","",""
"html-keyboard-response","196","898492","0.0-4.0-2.0-1.38","spark_pilot_norest","8620","7","13","Female","","","","","","","null","<div style=""font-size:60px;"">+</div>","null","fixation","","","","","","","","","77","","",""
"revaluation","197","904540","0.0-4.0-2.0-0.39","spark_pilot_norest","8620","7","13","Female","","false","","","","","[776,691.3999999999069]","./assets/img/canyon/memory/41.jpg","[""ArrowDown"",""ArrowRight""]","value training","canyon","30","{""ArrowUp,ArrowLeft"":23,""ArrowUp,ArrowRight"":10,""ArrowDown,ArrowLeft"":8,""ArrowDown,ArrowRight"":30}","true","ArrowDown,ArrowRight","false","original","1","78","","",""
"html-keyboard-response","198","905052","0.0-4.0-2.0-1.39","spark_pilot_norest","8620","7","13","Female","","","","","","","null","<div style=""font-size:60px;"">+</div>","null","fixation","","","","","","","","","79","","",""
"revaluation","199","911100","0.0-4.0-2.0-0.40","spark_pilot_norest","8620","7","13","Female","","false","","","","","[670.0999999996275,528.6000000000931]","./assets/img/canyon/memory/6.jpg","[""ArrowDown"",""ArrowRight""]","value training","canyon","30","{""ArrowUp,ArrowLeft"":23,""ArrowUp,ArrowRight"":10,""ArrowDown,ArrowLeft"":8,""ArrowDown,ArrowRight"":30}","true","ArrowDown,ArrowRight","false","original","1","80","","",""
"html-keyboard-response","200","911612","0.0-4.0-2.0-1.40","spark_pilot_norest","8620","7","13","Female","","","","","","","null","<div style=""font-size:60px;"">+</div>","null","fixation","","","","","","","","","81","","",""
"revaluation","201","917660","0.0-4.0-2.0-0.41","spark_pilot_norest","8620","7","13","Female","","false","","","","","[990.3999999999069,388.3000000002794]","./assets/img/canyon/memory/10.jpg","[""ArrowDown"",""ArrowRight""]","value training","canyon","30","{""ArrowUp,ArrowLeft"":23,""ArrowUp,ArrowRight"":10,""ArrowDown,ArrowLeft"":8,""ArrowDown,ArrowRight"":30}","true","ArrowDown,ArrowRight","false","original","1","82","","",""
"html-keyboard-response","202","918172","0.0-4.0-2.0-1.41","spark_pilot_norest","8620","7","13","Female","","","","","","","null","<div style=""font-size:60px;"">+</div>","null","fixation","","","","","","","","","83","","",""
"revaluation","203","924221","0.0-4.0-2.0-0.42","spark_pilot_norest","8620","7","13","Female","","false","","","","","[582,367.8000000002794]","./assets/img/canyon/memory/9.jpg","[""ArrowDown"",""ArrowRight""]","value training","canyon","30","{""ArrowUp,ArrowLeft"":23,""ArrowUp,ArrowRight"":10,""ArrowDown,ArrowLeft"":8,""ArrowDown,ArrowRight"":30}","true","ArrowDown,ArrowRight","false","original","1","84","","",""
"html-keyboard-response","204","924732","0.0-4.0-2.0-1.42","spark_pilot_norest","8620","7","13","Female","","","","","","","null","<div style=""font-size:60px;"">+</div>","null","fixation","","","","","","","","","85","","",""
"revaluation","205","930782","0.0-4.0-2.0-0.43","spark_pilot_norest","8620","7","13","Female","","false","","","","","[836,399]","./assets/img/canyon/memory/41.jpg","[""ArrowDown"",""ArrowRight""]","value training","canyon","30","{""ArrowUp,ArrowLeft"":23,""ArrowUp,ArrowRight"":10,""ArrowDown,ArrowLeft"":8,""ArrowDown,ArrowRight"":30}","true","ArrowDown,ArrowRight","false","original","1","86","","",""
"html-keyboard-response","206","931297","0.0-4.0-2.0-1.43","spark_pilot_norest","8620","7","13","Female","","","","","","","null","<div style=""font-size:60px;"">+</div>","null","fixation","","","","","","","","","87","","",""
"revaluation","207","937341","0.0-4.0-2.0-0.44","spark_pilot_norest","8620","7","13","Female","","false","","","","","[666.7000000001863,448]","./assets/img/canyon/memory/0.jpg","[""ArrowDown"",""ArrowRight""]","value training","canyon","30","{""ArrowUp,ArrowLeft"":23,""ArrowUp,ArrowRight"":10,""ArrowDown,ArrowLeft"":8,""ArrowDown,ArrowRight"":30}","true","ArrowDown,ArrowRight","false","original","1","88","","",""
"html-keyboard-response","208","937852","0.0-4.0-2.0-1.44","spark_pilot_norest","8620","7","13","Female","","","","","","","null","<div style=""font-size:60px;"">+</div>","null","fixation","","","","","","","","","89","","",""
"revaluation","209","941884","0.0-4.0-2.0-0.45","spark_pilot_norest","8620","7","13","Female","","false","","","","","[1430.8999999999069]","./assets/img/canyon/catch/1.jpg","[""spaceBar""]","value training","canyon","0","{""ArrowUp,ArrowLeft"":23,""ArrowUp,ArrowRight"":10,""ArrowDown,ArrowLeft"":8,""ArrowDown,ArrowRight"":30}","true","spaceBar","true","original","1","90","","",""
"html-keyboard-response","210","942396","0.0-4.0-2.0-1.45","spark_pilot_norest","8620","7","13","Female","","","","","","","null","<div style=""font-size:60px;"">+</div>","null","fixation","","","","","","","","","91","","",""
"revaluation","211","948444","0.0-4.0-2.0-0.46","spark_pilot_norest","8620","7","13","Female","","false","","","","","[687.2999999998137,588.1000000000931]","./assets/img/canyon/memory/34.jpg","[""ArrowDown"",""ArrowRight""]","value training","canyon","30","{""ArrowUp,ArrowLeft"":23,""ArrowUp,ArrowRight"":10,""ArrowDown,ArrowLeft"":8,""ArrowDown,ArrowRight"":30}","true","ArrowDown,ArrowRight","false","original","1","92","","",""
"html-keyboard-response","212","948956","0.0-4.0-2.0-1.46","spark_pilot_norest","8620","7","13","Female","","","","","","","null","<div style=""font-size:60px;"">+</div>","null","fixation","","","","","","","","","93","","",""
"revaluation","213","955004","0.0-4.0-2.0-0.47","spark_pilot_norest","8620","7","13","Female","","false","","","","","[772.8999999999069,569.6000000000931]","./assets/img/canyon/memory/6.jpg","[""ArrowDown"",""ArrowRight""]","value training","canyon","30","{""ArrowUp,ArrowLeft"":23,""ArrowUp,ArrowRight"":10,""ArrowDown,ArrowLeft"":8,""ArrowDown,ArrowRight"":30}","true","ArrowDown,ArrowRight","false","original","1","94","","",""
"html-keyboard-response","214","955516","0.0-4.0-2.0-1.47","spark_pilot_norest","8620","7","13","Female","","","","","","","null","<div style=""font-size:60px;"">+</div>","null","fixation","","","","","","","","","95","","",""
"revaluation","215","961565","0.0-4.0-2.0-0.48","spark_pilot_norest","8620","7","13","Female","","false","","","","","[881.2999999998137,1075]","./assets/img/canyon/memory/40.jpg","[""ArrowDown"",""ArrowRight""]","value training","canyon","30","{""ArrowUp,ArrowLeft"":23,""ArrowUp,ArrowRight"":10,""ArrowDown,ArrowLeft"":8,""ArrowDown,ArrowRight"":30}","true","ArrowDown,ArrowRight","false","original","1","96","","",""
"html-keyboard-response","216","962076","0.0-4.0-2.0-1.48","spark_pilot_norest","8620","7","13","Female","","","","","","","null","<div style=""font-size:60px;"">+</div>","null","fixation","","","","","","","","","97","","",""
"revaluation","217","968125","0.0-4.0-2.0-0.49","spark_pilot_norest","8620","7","13","Female","","false","","","","","[944.8999999999069,1129.5]","./assets/img/canyon/memory/17.jpg","[""ArrowDown"",""ArrowRight""]","value training","canyon","30","{""ArrowUp,ArrowLeft"":23,""ArrowUp,ArrowRight"":10,""ArrowDown,ArrowLeft"":8,""ArrowDown,ArrowRight"":30}","true","ArrowDown,ArrowRight","false","original","1","98","","",""
"html-keyboard-response","218","968638","0.0-4.0-2.0-1.49","spark_pilot_norest","8620","7","13","Female","","","","","","","null","<div style=""font-size:60px;"">+</div>","null","fixation","","","","","","","","","99","","",""
"learning-instructions","219","983464","0.0-4.0-3.0-0.0","spark_pilot_norest","8620","7","13","Female","","","","","","","1891.4000000003725","<p> Now, you will travel with a friend who will choose whether you go up or down first. </p>
            <p> On these turns, you will just see the animal that they found. You will still get to choose which chest to search for treasure.</p>","","instructions","","","","","","","","","","","",""
"revaluation","220","987485","0.0-4.0-4.0-0.0","spark_pilot_norest","8620","7","13","Female","","false","","","","","[1317.7999999998137]","./assets/img/canyon/animals/giraffe.jpg","[""ArrowRight""]","revaluation","canyon","30","{""ArrowUp,ArrowLeft"":23,""ArrowUp,ArrowRight"":10,""ArrowDown,ArrowLeft"":8,""ArrowDown,ArrowRight"":30}","true","ArrowDown,ArrowRight","","original","1","0","","",""
"html-keyboard-response","221","987999","0.0-4.0-4.0-1.0","spark_pilot_norest","8620","7","13","Female","","","","","","","null","<div style=""font-size:60px;"">+</div>","null","fixation","","","","","","","","","1","","",""
"revaluation","222","992029","0.0-4.0-4.0-0.1","spark_pilot_norest","8620","7","13","Female","","false","","","","","[793.5]","./assets/img/canyon/animals/lion.jpg","[""ArrowLeft""]","revaluation","canyon","23","{""ArrowUp,ArrowLeft"":23,""ArrowUp,ArrowRight"":10,""ArrowDown,ArrowLeft"":8,""ArrowDown,ArrowRight"":30}","true","ArrowUp,ArrowLeft","","original","1","2","","",""
"html-keyboard-response","223","992540","0.0-4.0-4.0-1.1","spark_pilot_norest","8620","7","13","Female","","","","","","","null","<div style=""font-size:60px;"">+</div>","null","fixation","","","","","","","","","3","","",""
"revaluation","224","996575","0.0-4.0-4.0-0.2","spark_pilot_norest","8620","7","13","Female","","false","","","","","[685.8000000002794]","./assets/img/canyon/animals/lion.jpg","[""ArrowLeft""]","revaluation","canyon","23","{""ArrowUp,ArrowLeft"":23,""ArrowUp,ArrowRight"":10,""ArrowDown,ArrowLeft"":8,""ArrowDown,ArrowRight"":30}","true","ArrowUp,ArrowLeft","","original","1","4","","",""
"html-keyboard-response","225","997084","0.0-4.0-4.0-1.2","spark_pilot_norest","8620","7","13","Female","","","","","","","null","<div style=""font-size:60px;"">+</div>","null","fixation","","","","","","","","","5","","",""
"revaluation","226","1001117","0.0-4.0-4.0-0.3","spark_pilot_norest","8620","7","13","Female","","false","","","","","[858.7000000001863]","./assets/img/canyon/animals/giraffe.jpg","[""ArrowRight""]","revaluation","canyon","30","{""ArrowUp,ArrowLeft"":23,""ArrowUp,ArrowRight"":10,""ArrowDown,ArrowLeft"":8,""ArrowDown,ArrowRight"":30}","true","ArrowDown,ArrowRight","","original","1","6","","",""
"html-keyboard-response","227","1001633","0.0-4.0-4.0-1.3","spark_pilot_norest","8620","7","13","Female","","","","","","","null","<div style=""font-size:60px;"">+</div>","null","fixation","","","","","","","","","7","","",""
"revaluation","228","1005661","0.0-4.0-4.0-0.4","spark_pilot_norest","8620","7","13","Female","","false","","","","","[1225.7000000001863]","./assets/img/canyon/animals/giraffe.jpg","[""ArrowRight""]","revaluation","canyon","30","{""ArrowUp,ArrowLeft"":23,""ArrowUp,ArrowRight"":10,""ArrowDown,ArrowLeft"":8,""ArrowDown,ArrowRight"":30}","true","ArrowDown,ArrowRight","","original","1","8","","",""
"html-keyboard-response","229","1006175","0.0-4.0-4.0-1.4","spark_pilot_norest","8620","7","13","Female","","","","","","","null","<div style=""font-size:60px;"">+</div>","null","fixation","","","","","","","","","9","","",""
"revaluation","230","1010205","0.0-4.0-4.0-0.5","spark_pilot_norest","8620","7","13","Female","","false","","","","","[529.5]","./assets/img/canyon/animals/giraffe.jpg","[""ArrowRight""]","revaluation","canyon","30","{""ArrowUp,ArrowLeft"":23,""ArrowUp,ArrowRight"":10,""ArrowDown,ArrowLeft"":8,""ArrowDown,ArrowRight"":30}","true","ArrowDown,ArrowRight","","original","1","10","","",""
"html-keyboard-response","231","1010719","0.0-4.0-4.0-1.5","spark_pilot_norest","8620","7","13","Female","","","","","","","null","<div style=""font-size:60px;"">+</div>","null","fixation","","","","","","","","","11","","",""
"revaluation","232","1014752","0.0-4.0-4.0-0.6","spark_pilot_norest","8620","7","13","Female","","false","","","","","[692.5]","./assets/img/canyon/animals/giraffe.jpg","[""ArrowRight""]","revaluation","canyon","30","{""ArrowUp,ArrowLeft"":23,""ArrowUp,ArrowRight"":10,""ArrowDown,ArrowLeft"":8,""ArrowDown,ArrowRight"":30}","true","ArrowDown,ArrowRight","","original","1","12","","",""
"html-keyboard-response","233","1015264","0.0-4.0-4.0-1.6","spark_pilot_norest","8620","7","13","Female","","","","","","","null","<div style=""font-size:60px;"">+</div>","null","fixation","","","","","","","","","13","","",""
"revaluation","234","1019297","0.0-4.0-4.0-0.7","spark_pilot_norest","8620","7","13","Female","","false","","","","","[965.7000000001863]","./assets/img/canyon/animals/lion.jpg","[""ArrowLeft""]","revaluation","canyon","23","{""ArrowUp,ArrowLeft"":23,""ArrowUp,ArrowRight"":10,""ArrowDown,ArrowLeft"":8,""ArrowDown,ArrowRight"":30}","true","ArrowUp,ArrowLeft","","original","1","14","","",""
"html-keyboard-response","235","1019807","0.0-4.0-4.0-1.7","spark_pilot_norest","8620","7","13","Female","","","","","","","null","<div style=""font-size:60px;"">+</div>","null","fixation","","","","","","","","","15","","",""
"revaluation","236","1023840","0.0-4.0-4.0-0.8","spark_pilot_norest","8620","7","13","Female","","false","","","","","[963.5]","./assets/img/canyon/animals/giraffe.jpg","[""ArrowRight""]","revaluation","canyon","30","{""ArrowUp,ArrowLeft"":23,""ArrowUp,ArrowRight"":10,""ArrowDown,ArrowLeft"":8,""ArrowDown,ArrowRight"":30}","true","ArrowDown,ArrowRight","","original","1","16","","",""
"html-keyboard-response","237","1024352","0.0-4.0-4.0-1.8","spark_pilot_norest","8620","7","13","Female","","","","","","","null","<div style=""font-size:60px;"">+</div>","null","fixation","","","","","","","","","17","","",""
"revaluation","238","1028385","0.0-4.0-4.0-0.9","spark_pilot_norest","8620","7","13","Female","","false","","","","","[859.1000000000931]","./assets/img/canyon/animals/lion.jpg","[""ArrowLeft""]","revaluation","canyon","23","{""ArrowUp,ArrowLeft"":23,""ArrowUp,ArrowRight"":10,""ArrowDown,ArrowLeft"":8,""ArrowDown,ArrowRight"":30}","true","ArrowUp,ArrowLeft","","original","1","18","","",""
"html-keyboard-response","239","1028895","0.0-4.0-4.0-1.9","spark_pilot_norest","8620","7","13","Female","","","","","","","null","<div style=""font-size:60px;"">+</div>","null","fixation","","","","","","","","","19","","",""
"revaluation","240","1032928","0.0-4.0-4.0-0.10","spark_pilot_norest","8620","7","13","Female","","false","","","","","[870.7000000001863]","./assets/img/canyon/animals/lion.jpg","[""ArrowLeft""]","revaluation","canyon","23","{""ArrowUp,ArrowLeft"":23,""ArrowUp,ArrowRight"":10,""ArrowDown,ArrowLeft"":8,""ArrowDown,ArrowRight"":30}","true","ArrowUp,ArrowLeft","","original","1","20","","",""
"html-keyboard-response","241","1033439","0.0-4.0-4.0-1.10","spark_pilot_norest","8620","7","13","Female","","","","","","","null","<div style=""font-size:60px;"">+</div>","null","fixation","","","","","","","","","21","","",""
"revaluation","242","1037473","0.0-4.0-4.0-0.11","spark_pilot_norest","8620","7","13","Female","","false","","","","","[1093.7000000001863]","./assets/img/canyon/animals/giraffe.jpg","[""ArrowRight""]","revaluation","canyon","30","{""ArrowUp,ArrowLeft"":23,""ArrowUp,ArrowRight"":10,""ArrowDown,ArrowLeft"":8,""ArrowDown,ArrowRight"":30}","true","ArrowDown,ArrowRight","","original","1","22","","",""
"html-keyboard-response","243","1037984","0.0-4.0-4.0-1.11","spark_pilot_norest","8620","7","13","Female","","","","","","","null","<div style=""font-size:60px;"">+</div>","null","fixation","","","","","","","","","23","","",""
"revaluation","244","1042016","0.0-4.0-4.0-0.12","spark_pilot_norest","8620","7","13","Female","","false","","","","","[663.5999999996275]","./assets/img/canyon/animals/lion.jpg","[""ArrowLeft""]","revaluation","canyon","23","{""ArrowUp,ArrowLeft"":23,""ArrowUp,ArrowRight"":10,""ArrowDown,ArrowLeft"":8,""ArrowDown,ArrowRight"":30}","true","ArrowUp,ArrowLeft","","original","1","24","","",""
"html-keyboard-response","245","1042528","0.0-4.0-4.0-1.12","spark_pilot_norest","8620","7","13","Female","","","","","","","null","<div style=""font-size:60px;"">+</div>","null","fixation","","","","","","","","","25","","",""
"revaluation","246","1046561","0.0-4.0-4.0-0.13","spark_pilot_norest","8620","7","13","Female","","false","","","","","[915.2999999998137]","./assets/img/canyon/animals/lion.jpg","[""ArrowLeft""]","revaluation","canyon","23","{""ArrowUp,ArrowLeft"":23,""ArrowUp,ArrowRight"":10,""ArrowDown,ArrowLeft"":8,""ArrowDown,ArrowRight"":30}","true","ArrowUp,ArrowLeft","","original","1","26","","",""
"html-keyboard-response","247","1047072","0.0-4.0-4.0-1.13","spark_pilot_norest","8620","7","13","Female","","","","","","","null","<div style=""font-size:60px;"">+</div>","null","fixation","","","","","","","","","27","","",""
"revaluation","248","1051104","0.0-4.0-4.0-0.14","spark_pilot_norest","8620","7","13","Female","","false","","","","","[741.7999999998137]","./assets/img/canyon/animals/lion.jpg","[""ArrowLeft""]","revaluation","canyon","23","{""ArrowUp,ArrowLeft"":23,""ArrowUp,ArrowRight"":10,""ArrowDown,ArrowLeft"":8,""ArrowDown,ArrowRight"":30}","true","ArrowUp,ArrowLeft","","original","1","28","","",""
"html-keyboard-response","249","1051615","0.0-4.0-4.0-1.14","spark_pilot_norest","8620","7","13","Female","","","","","","","null","<div style=""font-size:60px;"">+</div>","null","fixation","","","","","","","","","29","","",""
"revaluation","250","1055649","0.0-4.0-4.0-0.15","spark_pilot_norest","8620","7","13","Female","","false","","","","","[1039.6000000000931]","./assets/img/canyon/animals/giraffe.jpg","[""ArrowRight""]","revaluation","canyon","30","{""ArrowUp,ArrowLeft"":23,""ArrowUp,ArrowRight"":10,""ArrowDown,ArrowLeft"":8,""ArrowDown,ArrowRight"":30}","true","ArrowDown,ArrowRight","","original","1","30","","",""
"html-keyboard-response","251","1056160","0.0-4.0-4.0-1.15","spark_pilot_norest","8620","7","13","Female","","","","","","","null","<div style=""font-size:60px;"">+</div>","null","fixation","","","","","","","","","31","","",""
"revaluation","252","1060193","0.0-4.0-4.0-0.16","spark_pilot_norest","8620","7","13","Female","","false","","","","","[731.1000000000931]","./assets/img/canyon/animals/giraffe.jpg","[""ArrowRight""]","revaluation","canyon","30","{""ArrowUp,ArrowLeft"":23,""ArrowUp,ArrowRight"":10,""ArrowDown,ArrowLeft"":8,""ArrowDown,ArrowRight"":30}","true","ArrowDown,ArrowRight","","original","1","32","","",""
"html-keyboard-response","253","1060704","0.0-4.0-4.0-1.16","spark_pilot_norest","8620","7","13","Female","","","","","","","null","<div style=""font-size:60px;"">+</div>","null","fixation","","","","","","","","","33","","",""
"revaluation","254","1064736","0.0-4.0-4.0-0.17","spark_pilot_norest","8620","7","13","Female","","false","","","","","[658]","./assets/img/canyon/animals/lion.jpg","[""ArrowLeft""]","revaluation","canyon","23","{""ArrowUp,ArrowLeft"":23,""ArrowUp,ArrowRight"":10,""ArrowDown,ArrowLeft"":8,""ArrowDown,ArrowRight"":30}","true","ArrowUp,ArrowLeft","","original","1","34","","",""
"html-keyboard-response","255","1065248","0.0-4.0-4.0-1.17","spark_pilot_norest","8620","7","13","Female","","","","","","","null","<div style=""font-size:60px;"">+</div>","null","fixation","","","","","","","","","35","","",""
"learning-instructions","256","1073421","0.0-4.0-5.0-0.0","spark_pilot_norest","8620","7","13","Female","","","","","","","null","<p> You have almost finished this part of the game! </p>
            <p> We are going to ask you to make a few more choices. </p>","","instructions","","","","","","","","","","","",""
"learning-instructions","257","1089405","0.0-4.0-5.0-0.1","spark_pilot_norest","8620","7","13","Female","","","","","","","null","<p> First, you need to decide whether to go up or down. When you see each picture, use the arrow keys to make your choice. </p>
            <p><b>You will not see which animal you found, but try to get to the one that will give you the most treasure.</b></p>","","instructions","","","","","","","","","","","",""
"html-keyboard-response","258","1090413","0.0-4.0-6.0-0.0","spark_pilot_norest","8620","7","13","Female","","","","","","","null","<div style=""font-size:100px;color:red;"">Starting in...</div>","null","","","","","","","","","","","","",""
"html-keyboard-response","259","1091422","0.0-4.0-6.0-1.0","spark_pilot_norest","8620","7","13","Female","","","","","","","null","<div style=""font-size:200px;color:red;"">3</div>","null","","","","","","","","","","","","",""
"html-keyboard-response","260","1092433","0.0-4.0-6.0-2.0","spark_pilot_norest","8620","7","13","Female","","","","","","","null","<div style=""font-size:200px;color:red;"">2</div>","null","","","","","","","","","","","","",""
"html-keyboard-response","261","1093437","0.0-4.0-6.0-3.0","spark_pilot_norest","8620","7","13","Female","","","","","","","null","<div style=""font-size:200px;color:red;"">1</div>","null","","","","","","","","","","","","",""
"revaluation","262","1094073","0.0-4.0-7.0-0.0","spark_pilot_norest","8620","7","13","Female","","false","","","","","[633.3999999999069]","./assets/img/canyon/test/2.jpg","[""ArrowDown""]","first stage test","canyon","0","{""ArrowUp,ArrowLeft"":23,""ArrowUp,ArrowRight"":10,""ArrowDown,ArrowLeft"":8,""ArrowDown,ArrowRight"":30}","true","ArrowDown","false","original","1","","","",""
"html-keyboard-response","263","1094589","0.0-4.0-7.0-1.0","spark_pilot_norest","8620","7","13","Female","","","","","","","null","<div style=""font-size:60px;"">+</div>","null","fixation","","","","","","","","","","","",""
"revaluation","264","1095676","0.0-4.0-7.0-0.1","spark_pilot_norest","8620","7","13","Female","","false","","","","","[1085.1999999997206]","./assets/img/canyon/test/1.jpg","[""ArrowDown""]","first stage test","canyon","0","{""ArrowUp,ArrowLeft"":23,""ArrowUp,ArrowRight"":10,""ArrowDown,ArrowLeft"":8,""ArrowDown,ArrowRight"":30}","true","ArrowDown","false","original","1","","","",""
"html-keyboard-response","265","1096188","0.0-4.0-7.0-1.1","spark_pilot_norest","8620","7","13","Female","","","","","","","null","<div style=""font-size:60px;"">+</div>","null","fixation","","","","","","","","","","","",""
"revaluation","266","1097136","0.0-4.0-7.0-0.2","spark_pilot_norest","8620","7","13","Female","","false","","","","","[945.2000000001863]","./assets/img/canyon/test/0.jpg","[""ArrowDown""]","first stage test","canyon","0","{""ArrowUp,ArrowLeft"":23,""ArrowUp,ArrowRight"":10,""ArrowDown,ArrowLeft"":8,""ArrowDown,ArrowRight"":30}","true","ArrowDown","false","original","1","","","",""
"html-keyboard-response","267","1097649","0.0-4.0-7.0-1.2","spark_pilot_norest","8620","7","13","Female","","","","","","","null","<div style=""font-size:60px;"">+</div>","null","fixation","","","","","","","","","","","",""
"revaluation","268","1098459","0.0-4.0-7.0-0.3","spark_pilot_norest","8620","7","13","Female","","false","","","","","[807.2000000001863]","./assets/img/canyon/test/3.jpg","[""ArrowDown""]","first stage test","canyon","0","{""ArrowUp,ArrowLeft"":23,""ArrowUp,ArrowRight"":10,""ArrowDown,ArrowLeft"":8,""ArrowDown,ArrowRight"":30}","true","ArrowDown","false","original","1","","","",""
"html-keyboard-response","269","1098973","0.0-4.0-7.0-1.3","spark_pilot_norest","8620","7","13","Female","","","","","","","null","<div style=""font-size:60px;"">+</div>","null","fixation","","","","","","","","","","","",""
"learning-instructions","270","1112332","0.0-4.0-8.0-0.0","spark_pilot_norest","8620","7","13","Female","","","","","","","null","<p> Now you will see the animals again and can search their chests for treasure. </p>
            <p> This time, you will not see how much treasure you earned, but you will earn more bonus money for making better choices. </p>","","instructions","","","","","","","","","","","",""
"html-keyboard-response","271","1113341","0.0-4.0-9.0-0.0","spark_pilot_norest","8620","7","13","Female","","","","","","","null","<div style=""font-size:100px;color:red;"">Starting in...</div>","null","","","","","","","","","","","","",""
"html-keyboard-response","272","1114349","0.0-4.0-9.0-1.0","spark_pilot_norest","8620","7","13","Female","","","","","","","null","<div style=""font-size:200px;color:red;"">3</div>","null","","","","","","","","","","","","",""
"html-keyboard-response","273","1115356","0.0-4.0-9.0-2.0","spark_pilot_norest","8620","7","13","Female","","","","","","","null","<div style=""font-size:200px;color:red;"">2</div>","null","","","","","","","","","","","","",""
"html-keyboard-response","274","1116369","0.0-4.0-9.0-3.0","spark_pilot_norest","8620","7","13","Female","","","","","","","null","<div style=""font-size:200px;color:red;"">1</div>","null","","","","","","","","","","","","",""
"revaluation","275","1117266","0.0-4.0-10.0-0.0","spark_pilot_norest","8620","7","13","Female","","false","","","","","[894.1000000000931]","./assets/img/canyon/animals/lion.jpg","[""ArrowLeft""]","second stage test","canyon","0","{""ArrowUp,ArrowLeft"":23,""ArrowUp,ArrowRight"":10,""ArrowDown,ArrowLeft"":8,""ArrowDown,ArrowRight"":30}","true","ArrowUp,ArrowLeft","","original","1","","","",""
"html-keyboard-response","276","1117773","0.0-4.0-10.0-1.0","spark_pilot_norest","8620","7","13","Female","","","","","","","null","<div style=""font-size:60px;"">+</div>","null","fixation","","","","","","","","","","","",""
"revaluation","277","1118610","0.0-4.0-10.0-0.1","spark_pilot_norest","8620","7","13","Female","","false","","","","","[834.2999999998137]","./assets/img/canyon/animals/lion.jpg","[""ArrowLeft""]","second stage test","canyon","0","{""ArrowUp,ArrowLeft"":23,""ArrowUp,ArrowRight"":10,""ArrowDown,ArrowLeft"":8,""ArrowDown,ArrowRight"":30}","true","ArrowUp,ArrowLeft","","original","1","","","",""
"html-keyboard-response","278","1119117","0.0-4.0-10.0-1.1","spark_pilot_norest","8620","7","13","Female","","","","","","","null","<div style=""font-size:60px;"">+</div>","null","fixation","","","","","","","","","","","",""
"revaluation","279","1119730","0.0-4.0-10.0-0.2","spark_pilot_norest","8620","7","13","Female","","false","","","","","[611.2000000001863]","./assets/img/canyon/animals/lion.jpg","[""ArrowLeft""]","second stage test","canyon","0","{""ArrowUp,ArrowLeft"":23,""ArrowUp,ArrowRight"":10,""ArrowDown,ArrowLeft"":8,""ArrowDown,ArrowRight"":30}","true","ArrowUp,ArrowLeft","","original","1","","","",""
"html-keyboard-response","280","1120240","0.0-4.0-10.0-1.2","spark_pilot_norest","8620","7","13","Female","","","","","","","null","<div style=""font-size:60px;"">+</div>","null","fixation","","","","","","","","","","","",""
"revaluation","281","1120782","0.0-4.0-10.0-0.3","spark_pilot_norest","8620","7","13","Female","","false","","","","","[539.8999999999069]","./assets/img/canyon/animals/lion.jpg","[""ArrowLeft""]","second stage test","canyon","0","{""ArrowUp,ArrowLeft"":23,""ArrowUp,ArrowRight"":10,""ArrowDown,ArrowLeft"":8,""ArrowDown,ArrowRight"":30}","true","ArrowUp,ArrowLeft","","original","1","","","",""
"html-keyboard-response","282","1121293","0.0-4.0-10.0-1.3","spark_pilot_norest","8620","7","13","Female","","","","","","","null","<div style=""font-size:60px;"">+</div>","null","fixation","","","","","","","","","","","",""
"revaluation","283","1121857","0.0-4.0-10.0-0.4","spark_pilot_norest","8620","7","13","Female","","false","","","","","[561.2000000001863]","./assets/img/canyon/animals/giraffe.jpg","[""ArrowRight""]","second stage test","canyon","0","{""ArrowUp,ArrowLeft"":23,""ArrowUp,ArrowRight"":10,""ArrowDown,ArrowLeft"":8,""ArrowDown,ArrowRight"":30}","true","ArrowDown,ArrowRight","","original","1","","","",""
"html-keyboard-response","284","1122369","0.0-4.0-10.0-1.4","spark_pilot_norest","8620","7","13","Female","","","","","","","null","<div style=""font-size:60px;"">+</div>","null","fixation","","","","","","","","","","","",""
"revaluation","285","1122816","0.0-4.0-10.0-0.5","spark_pilot_norest","8620","7","13","Female","","false","","","","","[444.3000000002794]","./assets/img/canyon/animals/giraffe.jpg","[""ArrowRight""]","second stage test","canyon","0","{""ArrowUp,ArrowLeft"":23,""ArrowUp,ArrowRight"":10,""ArrowDown,ArrowLeft"":8,""ArrowDown,ArrowRight"":30}","true","ArrowDown,ArrowRight","","original","1","","","",""
"html-keyboard-response","286","1123325","0.0-4.0-10.0-1.5","spark_pilot_norest","8620","7","13","Female","","","","","","","null","<div style=""font-size:60px;"">+</div>","null","fixation","","","","","","","","","","","",""
"revaluation","287","1123739","0.0-4.0-10.0-0.6","spark_pilot_norest","8620","7","13","Female","","false","","","","","[411.90000000037253]","./assets/img/canyon/animals/giraffe.jpg","[""ArrowRight""]","second stage test","canyon","0","{""ArrowUp,ArrowLeft"":23,""ArrowUp,ArrowRight"":10,""ArrowDown,ArrowLeft"":8,""ArrowDown,ArrowRight"":30}","true","ArrowDown,ArrowRight","","original","1","","","",""
"html-keyboard-response","288","1124254","0.0-4.0-10.0-1.6","spark_pilot_norest","8620","7","13","Female","","","","","","","null","<div style=""font-size:60px;"">+</div>","null","fixation","","","","","","","","","","","",""
"revaluation","289","1124758","0.0-4.0-10.0-0.7","spark_pilot_norest","8620","7","13","Female","","false","","","","","[502.10000000009313]","./assets/img/canyon/animals/giraffe.jpg","[""ArrowRight""]","second stage test","canyon","0","{""ArrowUp,ArrowLeft"":23,""ArrowUp,ArrowRight"":10,""ArrowDown,ArrowLeft"":8,""ArrowDown,ArrowRight"":30}","true","ArrowDown,ArrowRight","","original","1","","","",""
"html-keyboard-response","290","1125261","0.0-4.0-10.0-1.7","spark_pilot_norest","8620","7","13","Female","","","","","","","null","<div style=""font-size:60px;"">+</div>","null","fixation","","","","","","","","","","","",""
"learning-instructions","291","1129111","0.0-4.0-0.1-0.2","spark_pilot_norest","8620","7","13","Female","","","","","","","1135.7999999998137","<p> This time you are searching for treasure in the <b>ocean</b>.</p>","","instructions","","","","","","","","","","","",""
"learning-instructions","292","1147077","0.0-4.0-0.1-0.3","spark_pilot_norest","8620","7","13","Female","","","","","","","712.6999999997206","<p><b>New</b> animals with <b>new</b> treasure chests live here. You need to explore to discover where the animal with the best treasure chest is.</p>
                    <p> Like before, once you figure out which animal has the chest with the most treasure, you should try to get to that animal and select that chest! </p>","","instructions","","","","","","","","","","","",""
"learning-instructions","293","1165744","0.0-4.0-1.1-0.1","spark_pilot_norest","8620","7","13","Female","","","","","","","3939.8000000002794","<p> Remember, when you see a picture of the place, use the up and down keys to <b>find an animal</b>.</p>
            <p> When you encounter an animal, you should use the left and right keys to <b>select a treasure chest</b>.</p>
            <p> Don't forget to look out for the robber! </p>","","instructions","","","","","","","","","","","",""
"revaluation","294","1171794","0.0-4.0-2.1-0.50","spark_pilot_norest","8620","7","13","Female","","false","","","","","[1307.2999999998137,483.29999999981374]","./assets/img/ocean/memory/18.jpg","[""ArrowDown"",""ArrowRight""]","value training","ocean","17","{""ArrowUp,ArrowLeft"":26,""ArrowUp,ArrowRight"":10,""ArrowDown,ArrowLeft"":5,""ArrowDown,ArrowRight"":17}","false","ArrowDown,ArrowRight","false","revaluation","2","0","","",""
"html-keyboard-response","295","1172304","0.0-4.0-2.1-1.50","spark_pilot_norest","8620","7","13","Female","","","","","","","null","<div style=""font-size:60px;"">+</div>","null","fixation","","","","","","","","","1","","",""
"revaluation","296","1178354","0.0-4.0-2.1-0.51","spark_pilot_norest","8620","7","13","Female","","false","","","","","[456.89999999990687,547.2000000001863]","./assets/img/ocean/memory/0.jpg","[""ArrowDown"",""ArrowLeft""]","value training","ocean","5","{""ArrowUp,ArrowLeft"":26,""ArrowUp,ArrowRight"":10,""ArrowDown,ArrowLeft"":5,""ArrowDown,ArrowRight"":17}","false","ArrowDown,ArrowLeft","false","revaluation","2","2","","",""
"html-keyboard-response","297","1178866","0.0-4.0-2.1-1.51","spark_pilot_norest","8620","7","13","Female","","","","","","","null","<div style=""font-size:60px;"">+</div>","null","fixation","","","","","","","","","3","","",""
"revaluation","298","1184913","0.0-4.0-2.1-0.52","spark_pilot_norest","8620","7","13","Female","","false","","","","","[448.3000000002794,490.20000000018626]","./assets/img/ocean/memory/27.jpg","[""ArrowUp"",""ArrowRight""]","value training","ocean","10","{""ArrowUp,ArrowLeft"":26,""ArrowUp,ArrowRight"":10,""ArrowDown,ArrowLeft"":5,""ArrowDown,ArrowRight"":17}","false","ArrowUp,ArrowRight","false","revaluation","2","4","","",""
"html-keyboard-response","299","1185426","0.0-4.0-2.1-1.52","spark_pilot_norest","8620","7","13","Female","","","","","","","null","<div style=""font-size:60px;"">+</div>","null","fixation","","","","","","","","","5","","",""
"revaluation","300","1191470","0.0-4.0-2.1-0.53","spark_pilot_norest","8620","7","13","Female","","false","","","","","[634.4000000003725,668.8999999999069]","./assets/img/ocean/memory/36.jpg","[""ArrowUp"",""ArrowLeft""]","value training","ocean","26","{""ArrowUp,ArrowLeft"":26,""ArrowUp,ArrowRight"":10,""ArrowDown,ArrowLeft"":5,""ArrowDown,ArrowRight"":17}","true","ArrowUp,ArrowLeft","false","revaluation","2","6","","",""
"html-keyboard-response","301","1191981","0.0-4.0-2.1-1.53","spark_pilot_norest","8620","7","13","Female","","","","","","","null","<div style=""font-size:60px;"">+</div>","null","fixation","","","","","","","","","7","","",""
"revaluation","302","1198029","0.0-4.0-2.1-0.54","spark_pilot_norest","8620","7","13","Female","","false","","","","","[521.6999999997206,440]","./assets/img/ocean/memory/17.jpg","[""ArrowUp"",""ArrowLeft""]","value training","ocean","26","{""ArrowUp,ArrowLeft"":26,""ArrowUp,ArrowRight"":10,""ArrowDown,ArrowLeft"":5,""ArrowDown,ArrowRight"":17}","true","ArrowUp,ArrowLeft","false","revaluation","2","8","","",""
"html-keyboard-response","303","1198541","0.0-4.0-2.1-1.54","spark_pilot_norest","8620","7","13","Female","","","","","","","null","<div style=""font-size:60px;"">+</div>","null","fixation","","","","","","","","","9","","",""
"revaluation","304","1202573","0.0-4.0-2.1-0.55","spark_pilot_norest","8620","7","13","Female","","false","","","","","[531.7000000001863]","./assets/img/ocean/catch/3.jpg","[""ArrowDown""]","value training","ocean","-10","{""ArrowUp,ArrowLeft"":26,""ArrowUp,ArrowRight"":10,""ArrowDown,ArrowLeft"":5,""ArrowDown,ArrowRight"":17}","false","ArrowDown","true","revaluation","2","10","","",""
"html-keyboard-response","305","1203085","0.0-4.0-2.1-1.55","spark_pilot_norest","8620","7","13","Female","","","","","","","null","<div style=""font-size:60px;"">+</div>","null","fixation","","","","","","","","","11","","",""
"revaluation","306","1209136","0.0-4.0-2.1-0.56","spark_pilot_norest","8620","7","13","Female","","false","","","","","[534.5,380.39999999990687]","./assets/img/ocean/memory/17.jpg","[""ArrowDown"",""ArrowRight""]","value training","ocean","17","{""ArrowUp,ArrowLeft"":26,""ArrowUp,ArrowRight"":10,""ArrowDown,ArrowLeft"":5,""ArrowDown,ArrowRight"":17}","false","ArrowDown,ArrowRight","false","revaluation","2","12","","",""
"html-keyboard-response","307","1209645","0.0-4.0-2.1-1.56","spark_pilot_norest","8620","7","13","Female","","","","","","","null","<div style=""font-size:60px;"">+</div>","null","fixation","","","","","","","","","13","","",""
"revaluation","308","1215693","0.0-4.0-2.1-0.57","spark_pilot_norest","8620","7","13","Female","","false","","","","","[487.29999999981374,485.29999999981374]","./assets/img/ocean/memory/10.jpg","[""ArrowUp"",""ArrowLeft""]","value training","ocean","26","{""ArrowUp,ArrowLeft"":26,""ArrowUp,ArrowRight"":10,""ArrowDown,ArrowLeft"":5,""ArrowDown,ArrowRight"":17}","true","ArrowUp,ArrowLeft","false","revaluation","2","14","","",""
"html-keyboard-response","309","1216205","0.0-4.0-2.1-1.57","spark_pilot_norest","8620","7","13","Female","","","","","","","null","<div style=""font-size:60px;"">+</div>","null","fixation","","","","","","","","","15","","",""
"revaluation","310","1222253","0.0-4.0-2.1-0.58","spark_pilot_norest","8620","7","13","Female","","false","","","","","[626.3999999999069,447.5]","./assets/img/ocean/memory/25.jpg","[""ArrowUp"",""ArrowLeft""]","value training","ocean","26","{""ArrowUp,ArrowLeft"":26,""ArrowUp,ArrowRight"":10,""ArrowDown,ArrowLeft"":5,""ArrowDown,ArrowRight"":17}","true","ArrowUp,ArrowLeft","false","revaluation","2","16","","",""
"html-keyboard-response","311","1222765","0.0-4.0-2.1-1.58","spark_pilot_norest","8620","7","13","Female","","","","","","","null","<div style=""font-size:60px;"">+</div>","null","fixation","","","","","","","","","17","","",""
