"trial_type","trial_index","time_elapsed","internal_node_id","task_version","subject_id","assigned_condition","age","gender","success","timeout","failed_images","failed_audio","failed_video","browser_interaction","rt","stimulus","response","task_part","environment","score","rewardMap","correct","fullState","isCatch","condition","order","trial_num","key_press","ground_truth","bonus"
"pavlovia","0","1411","0.0-0.0","spark_pilot_norest","12878","5","8","Female","","","","","","","","","","","","","","","","","","","","","",""
"preload","1","20272","0.0-1.0","spark_pilot_norest","12878","5","8","Female","true","false","[]","[]","[]","","","","","","","","","","","","","","","","",""
"fullscreen","2","25822","0.0-2.0","spark_pilot_norest","12878","5","8","Female","true","","","","","[{""event"":""fullscreenenter"",""trial"":3,""time"":26306}]","","","","","","","","","","","","","","","",""
"audio-button-response","3","29126","0.0-3.0-0.0-0.0","spark_pilot_norest","12878","5","8","Female","","","","","","","2451","./assets/audio/audiotest/turtle.mp3","2","audio_test","","","","","","","","","","","",""
"learning-instructions","4","37911","0.0-3.0-1.0-0.0","spark_pilot_norest","12878","5","8","Female","","","","","","","1752.7999999523163","<p> Welcome! Please remember to stay in fullscreen mode and don't click away from the experiment. </p>","","instructions","","","","","","","","","","","",""
"learning-instructions","5","48237","0.0-3.0-1.0-0.1","spark_pilot_norest","12878","5","8","Female","","","","","","","1840.2000000476837","<p> Today you will be playing a game to earn treasure. </p>
            <p> At the end of the experiment, you will earn a bonus based on how much treasure you find. </p>
            <img src='./assets/img/instructions/treasure.jpg' class='instructions-image'>","","instructions","","","","","","","","","","","",""
"learning-instructions","6","57425","0.0-3.0-1.0-0.2","spark_pilot_norest","12878","5","8","Female","","","","","","","888.9000000953674","<p> Animals have hidden treasure in treasure chests. </p>
            <p> You need to first find an animal and then choose which of their treasure chests to search. </p>
            <img src='./assets/img/space/animals/cat.jpg' class='instructions-image'>","","instructions","","","","","","","","","","","",""
"learning-instructions","7","83519","0.0-3.0-1.0-0.3","spark_pilot_norest","12878","5","8","Female","","","","","","","12902.900000095367","<p> In each round, you will search for treasure in a different place. In the real game, there will be two rounds. </p>
            <p> You will begin with a separate, practice round where you will search for treasure in outer space. </p>
            <img src='./assets/img/space/0.jpg' class='instructions-image'>","","instructions","","","","","","","","","","","",""
"learning-instructions","8","96673","0.0-3.0-1.0-0.4","spark_pilot_norest","12878","5","8","Female","","","","","","","1695.4000000953674","<p> On every turn, you will see a picture of the place that you are in, but the specific image may be different each time. </p>
            <p> For example, both of these images mean you are in outer space. </p>
            <img src='./assets/img/instructions/outerspace.jpg' class='instructions-image'>","","instructions","","","","","","","","","","","",""
"learning-instructions","9","105947","0.0-3.0-1.0-0.5","spark_pilot_norest","12878","5","8","Female","","","","","","","1409.4000000953674","<p> You need to decide which direction to travel in. </p>
            <p> You can choose between going <b>up or down</b> by using the arrow keys. </p>
            <img src='./assets/img/instructions/updown.jpg' class='instructions-image'>","","instructions","","","","","","","","","","","",""
"learning-instructions","10","116386","0.0-3.0-1.0-0.6","spark_pilot_norest","12878","5","8","Female","","","","","","","1586.7999999523163","<p> You will have <b>2 seconds</b> to make your choice. </p>
            <p> If you do not make a choice within 2 seconds, you will not find an animal or earn treasure. </p>
            <img src='./assets/img/instructions/2seconds.jpg' class='instructions-image'>","","instructions","","","","","","","","","","","",""
"learning-instructions","11","124896","0.0-3.0-1.0-0.7","spark_pilot_norest","12878","5","8","Female","","","","","","","1446.5999999046326","<p> Let’s try practicing that now! </p>
            <p> When you see a picture of the place you are in, press the <b>up</b> key to travel up. </p>
            <img src='./assets/img/instructions/pressUp.jpg' class='instructions-image'>","","instructions","","","","","","","","","","","",""
"revaluation","12","128947","0.0-3.0-2.0-0.0","spark_pilot_norest","12878","5","8","Female","","false","","","","","[820.7999999523163]","./assets/img/space/0.jpg","[""ArrowUp""]","first stage practice","space","0","null","null","ArrowUp","false","","","","","",""
"html-keyboard-response","13","129456","0.0-3.0-2.0-1.0","spark_pilot_norest","12878","5","8","Female","","","","","","","null","<div style=""font-size:60px;"">+</div>","null","fixation","","","","","","","","","","","",""
"revaluation","14","133497","0.0-3.0-2.0-0.1","spark_pilot_norest","12878","5","8","Female","","false","","","","","[1225.5999999046326]","./assets/img/space/1.jpg","[""ArrowUp""]","first stage practice","space","0","null","null","ArrowUp","false","","","","","",""
"html-keyboard-response","15","134005","0.0-3.0-2.0-1.1","spark_pilot_norest","12878","5","8","Female","","","","","","","null","<div style=""font-size:60px;"">+</div>","null","fixation","","","","","","","","","","","",""
"revaluation","16","138047","0.0-3.0-2.0-0.2","spark_pilot_norest","12878","5","8","Female","","false","","","","","[1295.5]","./assets/img/space/2.jpg","[""ArrowUp""]","first stage practice","space","0","null","null","ArrowUp","false","","","","","",""
"html-keyboard-response","17","138567","0.0-3.0-2.0-1.2","spark_pilot_norest","12878","5","8","Female","","","","","","","null","<div style=""font-size:60px;"">+</div>","null","fixation","","","","","","","","","","","",""
"learning-instructions","18","144940","0.0-3.0-3.0-0.0","spark_pilot_norest","12878","5","8","Female","","","","","","","1651.1000001430511","<p> Great job! Now try pressing the <b>down</b> key to travel down. </p>
            <img src='./assets/img/instructions/pressDown.jpg' class='instructions-image'>","","instructions","","","","","","","","","","","",""
"revaluation","19","148957","0.0-3.0-4.0-0.0","spark_pilot_norest","12878","5","8","Female","","false","","","","","[1073]","./assets/img/space/3.jpg","[""ArrowDown""]","first stage practice","space","0","null","null","ArrowDown","false","","","","","",""
"html-keyboard-response","20","149467","0.0-3.0-4.0-1.0","spark_pilot_norest","12878","5","8","Female","","","","","","","null","<div style=""font-size:60px;"">+</div>","null","fixation","","","","","","","","","","","",""
"revaluation","21","153494","0.0-3.0-4.0-0.1","spark_pilot_norest","12878","5","8","Female","","false","","","","","[710.4000000953674]","./assets/img/space/4.jpg","[""ArrowDown""]","first stage practice","space","0","null","null","ArrowDown","false","","","","","",""
"html-keyboard-response","22","154016","0.0-3.0-4.0-1.1","spark_pilot_norest","12878","5","8","Female","","","","","","","null","<div style=""font-size:60px;"">+</div>","null","fixation","","","","","","","","","","","",""
"revaluation","23","158040","0.0-3.0-4.0-0.2","spark_pilot_norest","12878","5","8","Female","","false","","","","","[820.2999999523163]","./assets/img/space/5.jpg","[""ArrowDown""]","first stage practice","space","0","null","null","ArrowDown","false","","","","","",""
"html-keyboard-response","24","158557","0.0-3.0-4.0-1.2","spark_pilot_norest","12878","5","8","Female","","","","","","","null","<div style=""font-size:60px;"">+</div>","null","fixation","","","","","","","","","","","",""
"learning-instructions","25","177158","0.0-3.0-5.0-0.0","spark_pilot_norest","12878","5","8","Female","","","","","","","8707.200000047684","<p> The animals don’t move, so the animal in the upper part of a place will stay in the upper part of a place, and the animal in the lower part of a place will stay in the lower part of a place. </p>","","instructions","","","","","","","","","","","",""
"learning-instructions","26","187642","0.0-3.0-5.0-0.1","spark_pilot_norest","12878","5","8","Female","","","","","","","1310.5999999046326","<p> Each animal has two treasure chests for you to choose from. </p>
            <p> The amount of treasure in each chest can range from <b> 0 to 40 pieces.</b></p>","","instructions","","","","","","","","","","","",""
"learning-instructions","27","199777","0.0-3.0-5.0-0.2","spark_pilot_norest","12878","5","8","Female","","","","","","","895.2999999523163","<p> You should decide which chest to search for treasure by using the <b>left</b> and <b>right</b> arrow keys. </p>
            <p><b> Pay attention to which animal is on the screen, as the animals have different treasure chests. </b></p>
            <img src='./assets/img/instructions/leftright.jpg' class='instructions-image'>","","instructions","","","","","","","","","","","",""
"learning-instructions","28","207265","0.0-3.0-5.0-0.3","spark_pilot_norest","12878","5","8","Female","","","","","","","1093.0999999046326","<p> Let’s try practicing that now. </p>
            <p> When you see an animal, choose which chest to search for treasure. </p>
            <img src='./assets/img/instructions/chooseChest.jpg' class='instructions-image'>","","instructions","","","","","","","","","","","",""
"revaluation","29","211299","0.0-3.0-6.0-0.0","spark_pilot_norest","12878","5","8","Female","","false","","","","","[606.9000000953674]","./assets/img/space/animals/cat.jpg","[""ArrowRight""]","second stage practice","space","36","{""ArrowUp,ArrowLeft"":3,""ArrowUp,ArrowRight"":36,""ArrowDown,ArrowLeft"":15,""ArrowDown,ArrowRight"":23}","true","ArrowUp,ArrowRight","","","","","","",""
"html-keyboard-response","30","211809","0.0-3.0-6.0-1.0","spark_pilot_norest","12878","5","8","Female","","","","","","","null","<div style=""font-size:60px;"">+</div>","null","fixation","","","","","","","","","","","",""
"revaluation","31","215839","0.0-3.0-6.0-0.1","spark_pilot_norest","12878","5","8","Female","","false","","","","","[982.2000000476837]","./assets/img/space/animals/rabbit.jpg","[""ArrowLeft""]","second stage practice","space","15","{""ArrowUp,ArrowLeft"":3,""ArrowUp,ArrowRight"":36,""ArrowDown,ArrowLeft"":15,""ArrowDown,ArrowRight"":23}","false","ArrowDown,ArrowLeft","","","","","","",""
"html-keyboard-response","32","216359","0.0-3.0-6.0-1.1","spark_pilot_norest","12878","5","8","Female","","","","","","","null","<div style=""font-size:60px;"">+</div>","null","fixation","","","","","","","","","","","",""
"revaluation","33","220397","0.0-3.0-6.0-0.2","spark_pilot_norest","12878","5","8","Female","","false","","","","","[942.5]","./assets/img/space/animals/rabbit.jpg","[""ArrowRight""]","second stage practice","space","23","{""ArrowUp,ArrowLeft"":3,""ArrowUp,ArrowRight"":36,""ArrowDown,ArrowLeft"":15,""ArrowDown,ArrowRight"":23}","true","ArrowDown,ArrowRight","","","","","","",""
"html-keyboard-response","34","220911","0.0-3.0-6.0-1.2","spark_pilot_norest","12878","5","8","Female","","","","","","","null","<div style=""font-size:60px;"">+</div>","null","fixation","","","","","","","","","","","",""
"revaluation","35","224939","0.0-3.0-6.0-0.3","spark_pilot_norest","12878","5","8","Female","","false","","","","","[942.9000000953674]","./assets/img/space/animals/cat.jpg","[""ArrowRight""]","second stage practice","space","36","{""ArrowUp,ArrowLeft"":3,""ArrowUp,ArrowRight"":36,""ArrowDown,ArrowLeft"":15,""ArrowDown,ArrowRight"":23}","true","ArrowUp,ArrowRight","","","","","","",""
"html-keyboard-response","36","225459","0.0-3.0-6.0-1.3","spark_pilot_norest","12878","5","8","Female","","","","","","","null","<div style=""font-size:60px;"">+</div>","null","fixation","","","","","","","","","","","",""
"learning-instructions","37","244092","0.0-3.0-7.0-0.0","spark_pilot_norest","12878","5","8","Female","","","","","","","1759.2000000476837","<p> Great job. Now let’s try putting it together. </p>
            <p> On each turn, you will first see a picture to remind you of the place you are in, and you need to choose whether to go up or down. </p>
            <p> Then you will see an animal and choose which of its chests to search for treasure. </p>","","instructions","","","","","","","","","","","",""
"learning-instructions","38","253294","0.0-3.0-7.0-0.1","spark_pilot_norest","12878","5","8","Female","","","","","","","891.2000000476837","<p> When you choose whether to go up or down, try to go to the animal with the chest with the most treasure. </p>
            <p> Try practicing that now! </p>","","instructions","","","","","","","","","","","",""
"revaluation","39","259321","0.0-3.0-8.0-0.0","spark_pilot_norest","12878","5","8","Female","","false","","","","","[948.5999999046326,1073.7999999523163]","./assets/img/space/6.jpg","[""ArrowUp"",""ArrowRight""]","full practice","space","36","{""ArrowUp,ArrowLeft"":3,""ArrowUp,ArrowRight"":36,""ArrowDown,ArrowLeft"":15,""ArrowDown,ArrowRight"":23}","true","ArrowUp,ArrowRight","false","","","","","",""
"html-keyboard-response","40","259831","0.0-3.0-8.0-1.0","spark_pilot_norest","12878","5","8","Female","","","","","","","null","<div style=""font-size:60px;"">+</div>","null","fixation","","","","","","","","","","","",""
"revaluation","41","265871","0.0-3.0-8.0-0.1","spark_pilot_norest","12878","5","8","Female","","false","","","","","[634.7000000476837,653.2999999523163]","./assets/img/space/7.jpg","[""ArrowUp"",""ArrowRight""]","full practice","space","36","{""ArrowUp,ArrowLeft"":3,""ArrowUp,ArrowRight"":36,""ArrowDown,ArrowLeft"":15,""ArrowDown,ArrowRight"":23}","true","ArrowUp,ArrowRight","false","","","","","",""
"html-keyboard-response","42","266380","0.0-3.0-8.0-1.1","spark_pilot_norest","12878","5","8","Female","","","","","","","null","<div style=""font-size:60px;"">+</div>","null","fixation","","","","","","","","","","","",""
"revaluation","43","272412","0.0-3.0-8.0-0.2","spark_pilot_norest","12878","5","8","Female","","false","","","","","[804.7999999523163,655.5]","./assets/img/space/8.jpg","[""ArrowUp"",""ArrowRight""]","full practice","space","36","{""ArrowUp,ArrowLeft"":3,""ArrowUp,ArrowRight"":36,""ArrowDown,ArrowLeft"":15,""ArrowDown,ArrowRight"":23}","true","ArrowUp,ArrowRight","false","","","","","",""
"html-keyboard-response","44","272931","0.0-3.0-8.0-1.2","spark_pilot_norest","12878","5","8","Female","","","","","","","null","<div style=""font-size:60px;"">+</div>","null","fixation","","","","","","","","","","","",""
"revaluation","45","278982","0.0-3.0-8.0-0.3","spark_pilot_norest","12878","5","8","Female","","false","","","","","[764.5999999046326,655.2999999523163]","./assets/img/space/9.jpg","[""ArrowUp"",""ArrowRight""]","full practice","space","36","{""ArrowUp,ArrowLeft"":3,""ArrowUp,ArrowRight"":36,""ArrowDown,ArrowLeft"":15,""ArrowDown,ArrowRight"":23}","true","ArrowUp,ArrowRight","false","","","","","",""
"html-keyboard-response","46","279491","0.0-3.0-8.0-1.3","spark_pilot_norest","12878","5","8","Female","","","","","","","null","<div style=""font-size:60px;"">+</div>","null","fixation","","","","","","","","","","","",""
"revaluation","47","285514","0.0-3.0-8.0-0.4","spark_pilot_norest","12878","5","8","Female","","false","","","","","[757.7000000476837,525.7999999523163]","./assets/img/space/10.jpg","[""ArrowUp"",""ArrowRight""]","full practice","space","36","{""ArrowUp,ArrowLeft"":3,""ArrowUp,ArrowRight"":36,""ArrowDown,ArrowLeft"":15,""ArrowDown,ArrowRight"":23}","true","ArrowUp,ArrowRight","false","","","","","",""
"html-keyboard-response","48","286017","0.0-3.0-8.0-1.4","spark_pilot_norest","12878","5","8","Female","","","","","","","null","<div style=""font-size:60px;"">+</div>","null","fixation","","","","","","","","","","","",""
"learning-instructions","49","297786","0.0-3.0-9.0-0.0","spark_pilot_norest","12878","5","8","Female","","","","","","","1399.8000001907349","<p> One last thing: sometimes, you will see a robber. The robber can be anywhere in the picture. </p>
            <p> If you do not stop them, you will lose treasure. </p>
            <img src='./assets/img/instructions/robber.jpg' class='instructions-image'>","","instructions","","","","","","","","","","","",""
"learning-instructions","50","306137","0.0-3.0-9.0-0.1","spark_pilot_norest","12878","5","8","Female","","","","","","","1151.8999998569489","<p> If you see the robber, you should <b>press the space bar</b> rather than using the arrow keys. </p>
            <p> Try practicing that now! </p>","","instructions","","","","","","","","","","","",""
"revaluation","51","310162","0.0-3.0-10.0-0.0","spark_pilot_norest","12878","5","8","Female","","false","","","","","[521.0999999046326]","./assets/img/space/catch/0.jpg","[""spaceBar""]","catch practice","space","0","{""ArrowUp,ArrowLeft"":3,""ArrowUp,ArrowRight"":36,""ArrowDown,ArrowLeft"":15,""ArrowDown,ArrowRight"":23}","true","spaceBar","true","","","","","",""
"html-keyboard-response","52","310682","0.0-3.0-10.0-1.0","spark_pilot_norest","12878","5","8","Female","","","","","","","null","<div style=""font-size:60px;"">+</div>","null","fixation","","","","","","","","","","","",""
"revaluation","53","314693","0.0-3.0-10.0-0.1","spark_pilot_norest","12878","5","8","Female","","false","","","","","[662.5999999046326]","./assets/img/space/catch/1.jpg","[""spaceBar""]","catch practice","space","0","{""ArrowUp,ArrowLeft"":3,""ArrowUp,ArrowRight"":36,""ArrowDown,ArrowLeft"":15,""ArrowDown,ArrowRight"":23}","true","spaceBar","true","","","","","",""
"html-keyboard-response","54","315202","0.0-3.0-10.0-1.1","spark_pilot_norest","12878","5","8","Female","","","","","","","null","<div style=""font-size:60px;"">+</div>","null","fixation","","","","","","","","","","","",""
"revaluation","55","319243","0.0-3.0-10.0-0.2","spark_pilot_norest","12878","5","8","Female","","false","","","","","[732.3000001907349]","./assets/img/space/catch/2.jpg","[""spaceBar""]","catch practice","space","0","{""ArrowUp,ArrowLeft"":3,""ArrowUp,ArrowRight"":36,""ArrowDown,ArrowLeft"":15,""ArrowDown,ArrowRight"":23}","true","spaceBar","true","","","","","",""
"html-keyboard-response","56","319753","0.0-3.0-10.0-1.2","spark_pilot_norest","12878","5","8","Female","","","","","","","null","<div style=""font-size:60px;"">+</div>","null","fixation","","","","","","","","","","","",""
"learning-instructions","57","326002","0.0-3.0-11.0-0.0-0.0","spark_pilot_norest","12878","5","8","Female","","","","","","","937.9000000953674","<p> Now, you will practice a shortened version of the game to get a sense of how it all fits together. </p>","","instructions","","","","","","","","","","","",""
"learning-instructions","58","330067","0.0-3.0-11.0-0.0-0.1","spark_pilot_norest","12878","5","8","Female","","","","","","","852.5999999046326","<p>This time you are searching for treasure in outer space.</p>","","instructions","","","","","","","","","","","",""
"learning-instructions","59","345727","0.0-3.0-11.0-1.0-0.0","spark_pilot_norest","12878","5","8","Female","","","","","","","830.5999999046326","<p> Remember, when you see a picture of the place, use the up and down keys to <b>find an animal</b>.</p>
            <p> When you encounter an animal, you should use the left and right keys to <b>select a treasure chest</b>.</p>
            <p> Don't forget to look out for the robber! </p>","","instructions","","","","","","","","","","","",""
"revaluation","60","351774","0.0-3.0-11.0-2.0-0.0","spark_pilot_norest","12878","5","8","Female","","false","","","","","[1531.7999999523163,1055.2999999523163]","./assets/img/space/11.jpg","[""ArrowUp"",""ArrowRight""]","practice block","space","36","{""ArrowUp,ArrowLeft"":3,""ArrowUp,ArrowRight"":36,""ArrowDown,ArrowLeft"":15,""ArrowDown,ArrowRight"":23}","true","ArrowUp,ArrowRight","false","","","","","",""
"html-keyboard-response","61","352283","0.0-3.0-11.0-2.0-1.0","spark_pilot_norest","12878","5","8","Female","","","","","","","null","<div style=""font-size:60px;"">+</div>","null","fixation","","","","","","","","","","","",""
"revaluation","62","358325","0.0-3.0-11.0-2.0-0.1","spark_pilot_norest","12878","5","8","Female","","false","","","","","[686.2999999523163,648.1999998092651]","./assets/img/space/12.jpg","[""ArrowUp"",""ArrowRight""]","practice block","space","36","{""ArrowUp,ArrowLeft"":3,""ArrowUp,ArrowRight"":36,""ArrowDown,ArrowLeft"":15,""ArrowDown,ArrowRight"":23}","true","ArrowUp,ArrowRight","false","","","","","",""
"html-keyboard-response","63","358834","0.0-3.0-11.0-2.0-1.1","spark_pilot_norest","12878","5","8","Female","","","","","","","null","<div style=""font-size:60px;"">+</div>","null","fixation","","","","","","","","","","","",""
"revaluation","64","364906","0.0-3.0-11.0-2.0-0.2","spark_pilot_norest","12878","5","8","Female","","false","","","","","[1015.6000001430511,687.7000000476837]","./assets/img/space/13.jpg","[""ArrowUp"",""ArrowRight""]","practice block","space","36","{""ArrowUp,ArrowLeft"":3,""ArrowUp,ArrowRight"":36,""ArrowDown,ArrowLeft"":15,""ArrowDown,ArrowRight"":23}","true","ArrowUp,ArrowRight","false","","","","","",""
"html-keyboard-response","65","365415","0.0-3.0-11.0-2.0-1.2","spark_pilot_norest","12878","5","8","Female","","","","","","","null","<div style=""font-size:60px;"">+</div>","null","fixation","","","","","","","","","","","",""
"revaluation","66","371456","0.0-3.0-11.0-2.0-0.3","spark_pilot_norest","12878","5","8","Female","","false","","","","","[781.2000000476837,496.2999999523163]","./assets/img/space/14.jpg","[""ArrowUp"",""ArrowRight""]","practice block","space","36","{""ArrowUp,ArrowLeft"":3,""ArrowUp,ArrowRight"":36,""ArrowDown,ArrowLeft"":15,""ArrowDown,ArrowRight"":23}","true","ArrowUp,ArrowRight","false","","","","","",""
"html-keyboard-response","67","371975","0.0-3.0-11.0-2.0-1.3","spark_pilot_norest","12878","5","8","Female","","","","","","","null","<div style=""font-size:60px;"">+</div>","null","fixation","","","","","","","","","","","",""
"revaluation","68","377996","0.0-3.0-11.0-2.0-0.4","spark_pilot_norest","12878","5","8","Female","","false","","","","","[766.2000000476837,1301.5]","./assets/img/space/11.jpg","[""ArrowUp"",""ArrowRight""]","practice block","space","36","{""ArrowUp,ArrowLeft"":3,""ArrowUp,ArrowRight"":36,""ArrowDown,ArrowLeft"":15,""ArrowDown,ArrowRight"":23}","true","ArrowUp,ArrowRight","false","","","","","",""
"html-keyboard-response","69","378500","0.0-3.0-11.0-2.0-1.4","spark_pilot_norest","12878","5","8","Female","","","","","","","null","<div style=""font-size:60px;"">+</div>","null","fixation","","","","","","","","","","","",""
"revaluation","70","384510","0.0-3.0-11.0-2.0-0.5","spark_pilot_norest","12878","5","8","Female","","false","","","","","[800.6999998092651,670.9000000953674]","./assets/img/space/12.jpg","[""ArrowUp"",""ArrowRight""]","practice block","space","36","{""ArrowUp,ArrowLeft"":3,""ArrowUp,ArrowRight"":36,""ArrowDown,ArrowLeft"":15,""ArrowDown,ArrowRight"":23}","true","ArrowUp,ArrowRight","false","","","","","",""
"html-keyboard-response","71","385012","0.0-3.0-11.0-2.0-1.5","spark_pilot_norest","12878","5","8","Female","","","","","","","null","<div style=""font-size:60px;"">+</div>","null","fixation","","","","","","","","","","","",""
"revaluation","72","391023","0.0-3.0-11.0-2.0-0.6","spark_pilot_norest","12878","5","8","Female","","false","","","","","[783.7999999523163,589.3999998569489]","./assets/img/space/13.jpg","[""ArrowUp"",""ArrowRight""]","practice block","space","36","{""ArrowUp,ArrowLeft"":3,""ArrowUp,ArrowRight"":36,""ArrowDown,ArrowLeft"":15,""ArrowDown,ArrowRight"":23}","true","ArrowUp,ArrowRight","false","","","","","",""
"html-keyboard-response","73","391525","0.0-3.0-11.0-2.0-1.6","spark_pilot_norest","12878","5","8","Female","","","","","","","null","<div style=""font-size:60px;"">+</div>","null","fixation","","","","","","","","","","","",""
"revaluation","74","397533","0.0-3.0-11.0-2.0-0.7","spark_pilot_norest","12878","5","8","Female","","false","","","","","[1008.2000000476837,751.5]","./assets/img/space/14.jpg","[""ArrowUp"",""ArrowRight""]","practice block","space","36","{""ArrowUp,ArrowLeft"":3,""ArrowUp,ArrowRight"":36,""ArrowDown,ArrowLeft"":15,""ArrowDown,ArrowRight"":23}","true","ArrowUp,ArrowRight","false","","","","","",""
"html-keyboard-response","75","398035","0.0-3.0-11.0-2.0-1.7","spark_pilot_norest","12878","5","8","Female","","","","","","","null","<div style=""font-size:60px;"">+</div>","null","fixation","","","","","","","","","","","",""
"revaluation","76","402044","0.0-3.0-11.0-2.0-0.8","spark_pilot_norest","12878","5","8","Female","","false","","","","","[817.6000001430511]","./assets/img/space/catch/3.jpg","[""spaceBar""]","practice block","space","0","{""ArrowUp,ArrowLeft"":3,""ArrowUp,ArrowRight"":36,""ArrowDown,ArrowLeft"":15,""ArrowDown,ArrowRight"":23}","true","spaceBar","true","","","","","",""
"html-keyboard-response","77","402559","0.0-3.0-11.0-2.0-1.8","spark_pilot_norest","12878","5","8","Female","","","","","","","null","<div style=""font-size:60px;"">+</div>","null","fixation","","","","","","","","","","","",""
"learning-instructions","78","417682","0.0-3.0-11.0-3.0-0.0","spark_pilot_norest","12878","5","8","Female","","","","","","","1857.7999999523163","<p> Now, you will travel with a friend who will choose whether you go up or down first. </p>
            <p> On these turns, you will just see the animal that they found. You will still get to choose which chest to search for treasure.</p>","","instructions","","","","","","","","","","","",""
"revaluation","79","421712","0.0-3.0-11.0-4.0-0.0","spark_pilot_norest","12878","5","8","Female","","false","","","","","[1052.1000001430511]","./assets/img/space/animals/rabbit.jpg","[""ArrowRight""]","practice block","space","23","{""ArrowUp,ArrowLeft"":3,""ArrowUp,ArrowRight"":36,""ArrowDown,ArrowLeft"":15,""ArrowDown,ArrowRight"":23}","true","ArrowDown,ArrowRight","","","","","","",""
"html-keyboard-response","80","422221","0.0-3.0-11.0-4.0-1.0","spark_pilot_norest","12878","5","8","Female","","","","","","","null","<div style=""font-size:60px;"">+</div>","null","fixation","","","","","","","","","","","",""
"revaluation","81","426241","0.0-3.0-11.0-4.0-0.1","spark_pilot_norest","12878","5","8","Female","","false","","","","","[886.9000000953674]","./assets/img/space/animals/rabbit.jpg","[""ArrowRight""]","practice block","space","23","{""ArrowUp,ArrowLeft"":3,""ArrowUp,ArrowRight"":36,""ArrowDown,ArrowLeft"":15,""ArrowDown,ArrowRight"":23}","true","ArrowDown,ArrowRight","","","","","","",""
"html-keyboard-response","82","426762","0.0-3.0-11.0-4.0-1.1","spark_pilot_norest","12878","5","8","Female","","","","","","","null","<div style=""font-size:60px;"">+</div>","null","fixation","","","","","","","","","","","",""
"revaluation","83","430792","0.0-3.0-11.0-4.0-0.2","spark_pilot_norest","12878","5","8","Female","","false","","","","","[652]","./assets/img/space/animals/cat.jpg","[""ArrowRight""]","practice block","space","36","{""ArrowUp,ArrowLeft"":3,""ArrowUp,ArrowRight"":36,""ArrowDown,ArrowLeft"":15,""ArrowDown,ArrowRight"":23}","true","ArrowUp,ArrowRight","","","","","","",""
"html-keyboard-response","84","431312","0.0-3.0-11.0-4.0-1.2","spark_pilot_norest","12878","5","8","Female","","","","","","","null","<div style=""font-size:60px;"">+</div>","null","fixation","","","","","","","","","","","",""
"revaluation","85","435342","0.0-3.0-11.0-4.0-0.3","spark_pilot_norest","12878","5","8","Female","","false","","","","","[779.2999999523163]","./assets/img/space/animals/cat.jpg","[""ArrowRight""]","practice block","space","36","{""ArrowUp,ArrowLeft"":3,""ArrowUp,ArrowRight"":36,""ArrowDown,ArrowLeft"":15,""ArrowDown,ArrowRight"":23}","true","ArrowUp,ArrowRight","","","","","","",""
"html-keyboard-response","86","435862","0.0-3.0-11.0-4.0-1.3","spark_pilot_norest","12878","5","8","Female","","","","","","","null","<div style=""font-size:60px;"">+</div>","null","fixation","","","","","","","","","","","",""
"learning-instructions","87","444033","0.0-3.0-11.0-5.0-0.0","spark_pilot_norest","12878","5","8","Female","","","","","","","null","<p> You have almost finished this part of the game! </p>
            <p> We are going to ask you to make a few more choices. </p>","","instructions","","","","","","","","","","","",""
"learning-instructions","88","460104","0.0-3.0-11.0-5.0-0.1","spark_pilot_norest","12878","5","8","Female","","","","","","","null","<p> First, you need to decide whether to go up or down. When you see each picture, use the arrow keys to make your choice. </p>
            <p><b>You will not see which animal you found, but try to get to the one that will give you the most treasure.</b></p>","","instructions","","","","","","","","","","","",""
"html-keyboard-response","89","461123","0.0-3.0-11.0-6.0-0.0","spark_pilot_norest","12878","5","8","Female","","","","","","","null","<div style=""font-size:100px;color:red;"">Starting in...</div>","null","","","","","","","","","","","","",""
"html-keyboard-response","90","462143","0.0-3.0-11.0-6.0-1.0","spark_pilot_norest","12878","5","8","Female","","","","","","","null","<div style=""font-size:200px;color:red;"">3</div>","null","","","","","","","","","","","","",""
"html-keyboard-response","91","463153","0.0-3.0-11.0-6.0-2.0","spark_pilot_norest","12878","5","8","Female","","","","","","","null","<div style=""font-size:200px;color:red;"">2</div>","null","","","","","","","","","","","","",""
"html-keyboard-response","92","464163","0.0-3.0-11.0-6.0-3.0","spark_pilot_norest","12878","5","8","Female","","","","","","","null","<div style=""font-size:200px;color:red;"">1</div>","null","","","","","","","","","","","","",""
"revaluation","93","465020","0.0-3.0-11.0-7.0","spark_pilot_norest","12878","5","8","Female","","false","","","","","[850.5]","./assets/img/space/15.jpg","[""ArrowUp""]","practice block","space","0","{""ArrowUp,ArrowLeft"":3,""ArrowUp,ArrowRight"":36,""ArrowDown,ArrowLeft"":15,""ArrowDown,ArrowRight"":23}","true","ArrowUp","false","","","","","",""
"html-keyboard-response","94","465533","0.0-3.0-11.0-8.0","spark_pilot_norest","12878","5","8","Female","","","","","","","null","<div style=""font-size:60px;"">+</div>","null","fixation","","","","","","","","","","","",""
"learning-instructions","95","478953","0.0-3.0-11.0-9.0-0.0","spark_pilot_norest","12878","5","8","Female","","","","","","","null","<p> Now you will see the animals again and can search their chests for treasure. </p>
            <p> This time, you will not see how much treasure you earned, but you will earn more bonus money for making better choices. </p>","","instructions","","","","","","","","","","","",""
"html-keyboard-response","96","479974","0.0-3.0-11.0-10.0-0.0","spark_pilot_norest","12878","5","8","Female","","","","","","","null","<div style=""font-size:100px;color:red;"">Starting in...</div>","null","","","","","","","","","","","","",""
"html-keyboard-response","97","480993","0.0-3.0-11.0-10.0-1.0","spark_pilot_norest","12878","5","8","Female","","","","","","","null","<div style=""font-size:200px;color:red;"">3</div>","null","","","","","","","","","","","","",""
"html-keyboard-response","98","482014","0.0-3.0-11.0-10.0-2.0","spark_pilot_norest","12878","5","8","Female","","","","","","","null","<div style=""font-size:200px;color:red;"">2</div>","null","","","","","","","","","","","","",""
"html-keyboard-response","99","483033","0.0-3.0-11.0-10.0-3.0","spark_pilot_norest","12878","5","8","Female","","","","","","","null","<div style=""font-size:200px;color:red;"">1</div>","null","","","","","","","","","","","","",""
"revaluation","100","483933","0.0-3.0-11.0-11.0-0.0","spark_pilot_norest","12878","5","8","Female","","false","","","","","[892.8000001907349]","./assets/img/space/animals/cat.jpg","[""ArrowRight""]","practice block","space","0","{""ArrowUp,ArrowLeft"":3,""ArrowUp,ArrowRight"":36,""ArrowDown,ArrowLeft"":15,""ArrowDown,ArrowRight"":23}","true","ArrowUp,ArrowRight","","","","","","",""
"html-keyboard-response","101","484444","0.0-3.0-11.0-11.0-1.0","spark_pilot_norest","12878","5","8","Female","","","","","","","null","<div style=""font-size:60px;"">+</div>","null","fixation","","","","","","","","","","","",""
"revaluation","102","485269","0.0-3.0-11.0-11.0-0.1","spark_pilot_norest","12878","5","8","Female","","false","","","","","[818]","./assets/img/space/animals/rabbit.jpg","[""ArrowRight""]","practice block","space","0","{""ArrowUp,ArrowLeft"":3,""ArrowUp,ArrowRight"":36,""ArrowDown,ArrowLeft"":15,""ArrowDown,ArrowRight"":23}","true","ArrowDown,ArrowRight","","","","","","",""
"html-keyboard-response","103","485784","0.0-3.0-11.0-11.0-1.1","spark_pilot_norest","12878","5","8","Female","","","","","","","null","<div style=""font-size:60px;"">+</div>","null","fixation","","","","","","","","","","","",""
"learning-instructions","104","492189","0.0-3.0-12.0-0.0","spark_pilot_norest","12878","5","8","Female","","","","","","","1811.7999999523163","<p> Before you start, we're going to ask you a few questions about how the game works. </p>","","instructions","","","","","","","","","","","",""
"comp-q","105","499045","0.0-3.0-13.0-0.0-0.0","spark_pilot_norest","12878","5","8","Female","","","","","","","1243.5","<p> <b> True or False? </b> </p>
            <p> There can be 50 pieces of treasure in a given animal's chest. </p>","1","comp_question","","","","true","","","","","","","",""
"comp-q","106","506979","0.0-3.0-13.0-0.0-1.0","spark_pilot_norest","12878","5","8","Female","","","","","","","1242.1000001430511","<p> <b> That's right! </b> The amount of treasure in each chest can range from 0 to 40 pieces. </p>","0","comp_answer","","","","","","","","","","","",""
"comp-q","107","515110","0.0-3.0-13.0-0.1-0.1","spark_pilot_norest","12878","5","8","Female","","","","","","","972.2999999523163","<p> <b> True or False? </b> </p><p> In this game, all animals have the same amount of treasure in their left and right chests. </p>","1","comp_question","","","","true","","","","","","","",""
"comp-q","108","522147","0.0-3.0-13.0-0.1-1.1","spark_pilot_norest","12878","5","8","Female","","","","","","","1789.4000000953674","<p> <b> That's right! </b> Animals have different amounts of treasure in their treasure chests. </p>","0","comp_answer","","","","","","","","","","","",""
"comp-q","109","528582","0.0-3.0-13.0-0.2-0.2","spark_pilot_norest","12878","5","8","Female","","","","","","","563.6999998092651","<p> <b> True or False? </b> </p><p> The same animal will always be there if you go up in the same place. </p>","0","comp_question","","","","true","","","","","","","",""
"comp-q","110","536350","0.0-3.0-13.0-0.2-1.2","spark_pilot_norest","12878","5","8","Female","","","","","","","1291.5","<p> <b> That's right! </b> One animal lives in the upper part and one lives in the lower part of every place. </p>","0","comp_answer","","","","","","","","","","","",""
"comp-q","111","542764","0.0-3.0-13.0-0.3-0.3","spark_pilot_norest","12878","5","8","Female","","","","","","","854.8999998569489","<p> <b> True or False? </b> </p><p> If you see a different picture, it means you are in a new place. </p>","1","comp_question","","","","true","","","","","","","",""
"comp-q","112","555306","0.0-3.0-13.0-0.3-1.3","spark_pilot_norest","12878","5","8","Female","","","","","","","1266.3000001907349","<p> <b> That's right! </b> Lots of different images may show the same place. For example,  you may see three different images that all remind you that you are in outer space. </p>","0","comp_answer","","","","","","","","","","","",""
"learning-instructions","113","566433","0.0-3.0-14.0-0.0","spark_pilot_norest","12878","5","8","Female","","","","","","","1244","<p> Good job. Remember to do your best because the amount of treasure you earn will be converted into bonus money. </p>
            <p> It’s time to start the real game! </p>","","instructions","","","","","","","","","","","",""
"learning-instructions","114","570671","0.0-4.0-0.0-0.0","spark_pilot_norest","12878","5","8","Female","","","","","","","1440.5999999046326","<p> This time you are searching for treasure in the <b>canyon</b>.</p>","","instructions","","","","","","","","","","","",""
"learning-instructions","115","589293","0.0-4.0-0.0-0.1","spark_pilot_norest","12878","5","8","Female","","","","","","","1273","<p><b>New</b> animals with <b>new</b> treasure chests live here. You need to explore to discover where the animal with the best treasure chest is.</p>
                    <p> Like before, once you figure out which animal has the chest with the most treasure, you should try to get to that animal and select that chest! </p>","","instructions","","","","","","","","","","","",""
"learning-instructions","116","607508","0.0-4.0-1.0-0.0","spark_pilot_norest","12878","5","8","Female","","","","","","","3487","<p> Remember, when you see a picture of the place, use the up and down keys to <b>find an animal</b>.</p>
            <p> When you encounter an animal, you should use the left and right keys to <b>select a treasure chest</b>.</p>
            <p> Don't forget to look out for the robber! </p>","","instructions","","","","","","","","","","","",""
"revaluation","117","613559","0.0-4.0-2.0-0.0","spark_pilot_norest","12878","5","8","Female","","false","","","","","[1168.7999999523163,1176.7000000476837]","./assets/img/canyon/memory/10.jpg","[""ArrowUp"",""ArrowRight""]","value training","canyon","10","{""ArrowUp,ArrowLeft"":26,""ArrowUp,ArrowRight"":10,""ArrowDown,ArrowLeft"":5,""ArrowDown,ArrowRight"":17}","false","ArrowUp,ArrowRight","false","original","1","0","","",""
"html-keyboard-response","118","614079","0.0-4.0-2.0-1.0","spark_pilot_norest","12878","5","8","Female","","","","","","","null","<div style=""font-size:60px;"">+</div>","null","fixation","","","","","","","","","1","","",""
"revaluation","119","620130","0.0-4.0-2.0-0.1","spark_pilot_norest","12878","5","8","Female","","false","","","","","[1166.0999999046326,1790.6999998092651]","./assets/img/canyon/memory/12.jpg","[""ArrowDown"",""ArrowRight""]","value training","canyon","17","{""ArrowUp,ArrowLeft"":26,""ArrowUp,ArrowRight"":10,""ArrowDown,ArrowLeft"":5,""ArrowDown,ArrowRight"":17}","false","ArrowDown,ArrowRight","false","original","1","2","","",""
"html-keyboard-response","120","620639","0.0-4.0-2.0-1.1","spark_pilot_norest","12878","5","8","Female","","","","","","","null","<div style=""font-size:60px;"">+</div>","null","fixation","","","","","","","","","3","","",""
"revaluation","121","626680","0.0-4.0-2.0-0.2","spark_pilot_norest","12878","5","8","Female","","false","","","","","[1171.7000000476837,702.0999999046326]","./assets/img/canyon/memory/32.jpg","[""ArrowUp"",""ArrowLeft""]","value training","canyon","26","{""ArrowUp,ArrowLeft"":26,""ArrowUp,ArrowRight"":10,""ArrowDown,ArrowLeft"":5,""ArrowDown,ArrowRight"":17}","true","ArrowUp,ArrowLeft","false","original","1","4","","",""
"html-keyboard-response","122","627186","0.0-4.0-2.0-1.2","spark_pilot_norest","12878","5","8","Female","","","","","","","null","<div style=""font-size:60px;"">+</div>","null","fixation","","","","","","","","","5","","",""
"revaluation","123","633234","0.0-4.0-2.0-0.3","spark_pilot_norest","12878","5","8","Female","","false","","","","","[1073.9000000953674,1048.7000000476837]","./assets/img/canyon/memory/41.jpg","[""ArrowDown"",""ArrowLeft""]","value training","canyon","5","{""ArrowUp,ArrowLeft"":26,""ArrowUp,ArrowRight"":10,""ArrowDown,ArrowLeft"":5,""ArrowDown,ArrowRight"":17}","false","ArrowDown,ArrowLeft","false","original","1","6","","",""
"html-keyboard-response","124","633749","0.0-4.0-2.0-1.3","spark_pilot_norest","12878","5","8","Female","","","","","","","null","<div style=""font-size:60px;"">+</div>","null","fixation","","","","","","","","","7","","",""
"revaluation","125","639759","0.0-4.0-2.0-0.4","spark_pilot_norest","12878","5","8","Female","","false","","","","","[1687.5,877.7999999523163]","./assets/img/canyon/memory/21.jpg","[""ArrowUp"",""ArrowLeft""]","value training","canyon","26","{""ArrowUp,ArrowLeft"":26,""ArrowUp,ArrowRight"":10,""ArrowDown,ArrowLeft"":5,""ArrowDown,ArrowRight"":17}","true","ArrowUp,ArrowLeft","false","original","1","8","","",""
"html-keyboard-response","126","640262","0.0-4.0-2.0-1.4","spark_pilot_norest","12878","5","8","Female","","","","","","","null","<div style=""font-size:60px;"">+</div>","null","fixation","","","","","","","","","9","","",""
"revaluation","127","646273","0.0-4.0-2.0-0.5","spark_pilot_norest","12878","5","8","Female","","false","","","","","[415.10000014305115,484.7999999523163]","./assets/img/canyon/memory/31.jpg","[""ArrowUp"",""ArrowLeft""]","value training","canyon","26","{""ArrowUp,ArrowLeft"":26,""ArrowUp,ArrowRight"":10,""ArrowDown,ArrowLeft"":5,""ArrowDown,ArrowRight"":17}","true","ArrowUp,ArrowLeft","false","original","1","10","","",""
"html-keyboard-response","128","646775","0.0-4.0-2.0-1.5","spark_pilot_norest","12878","5","8","Female","","","","","","","null","<div style=""font-size:60px;"">+</div>","null","fixation","","","","","","","","","11","","",""
"revaluation","129","652783","0.0-4.0-2.0-0.6","spark_pilot_norest","12878","5","8","Female","","false","","","","","[438.2000000476837,662.5999999046326]","./assets/img/canyon/memory/10.jpg","[""ArrowUp"",""ArrowLeft""]","value training","canyon","26","{""ArrowUp,ArrowLeft"":26,""ArrowUp,ArrowRight"":10,""ArrowDown,ArrowLeft"":5,""ArrowDown,ArrowRight"":17}","true","ArrowUp,ArrowLeft","false","original","1","12","","",""
"html-keyboard-response","130","653286","0.0-4.0-2.0-1.6","spark_pilot_norest","12878","5","8","Female","","","","","","","null","<div style=""font-size:60px;"">+</div>","null","fixation","","","","","","","","","13","","",""
"revaluation","131","659295","0.0-4.0-2.0-0.7","spark_pilot_norest","12878","5","8","Female","","false","","","","","[688.6999998092651,814.7000000476837]","./assets/img/canyon/memory/27.jpg","[""ArrowUp"",""ArrowLeft""]","value training","canyon","26","{""ArrowUp,ArrowLeft"":26,""ArrowUp,ArrowRight"":10,""ArrowDown,ArrowLeft"":5,""ArrowDown,ArrowRight"":17}","true","ArrowUp,ArrowLeft","false","original","1","14","","",""
"html-keyboard-response","132","659798","0.0-4.0-2.0-1.7","spark_pilot_norest","12878","5","8","Female","","","","","","","null","<div style=""font-size:60px;"">+</div>","null","fixation","","","","","","","","","15","","",""
"revaluation","133","665818","0.0-4.0-2.0-0.8","spark_pilot_norest","12878","5","8","Female","","false","","","","","[590.2000000476837,597.3000001907349]","./assets/img/canyon/memory/12.jpg","[""ArrowUp"",""ArrowLeft""]","value training","canyon","26","{""ArrowUp,ArrowLeft"":26,""ArrowUp,ArrowRight"":10,""ArrowDown,ArrowLeft"":5,""ArrowDown,ArrowRight"":17}","true","ArrowUp,ArrowLeft","false","original","1","16","","",""
"html-keyboard-response","134","666320","0.0-4.0-2.0-1.8","spark_pilot_norest","12878","5","8","Female","","","","","","","null","<div style=""font-size:60px;"">+</div>","null","fixation","","","","","","","","","17","","",""
"revaluation","135","672331","0.0-4.0-2.0-0.9","spark_pilot_norest","12878","5","8","Female","","false","","","","","[629.1999998092651,763.7999999523163]","./assets/img/canyon/memory/5.jpg","[""ArrowUp"",""ArrowLeft""]","value training","canyon","26","{""ArrowUp,ArrowLeft"":26,""ArrowUp,ArrowRight"":10,""ArrowDown,ArrowLeft"":5,""ArrowDown,ArrowRight"":17}","true","ArrowUp,ArrowLeft","false","original","1","18","","",""
"html-keyboard-response","136","672833","0.0-4.0-2.0-1.9","spark_pilot_norest","12878","5","8","Female","","","","","","","null","<div style=""font-size:60px;"">+</div>","null","fixation","","","","","","","","","19","","",""
"revaluation","137","678842","0.0-4.0-2.0-0.10","spark_pilot_norest","12878","5","8","Female","","false","","","","","[725,1108.8999998569489]","./assets/img/canyon/memory/4.jpg","[""ArrowUp"",""ArrowLeft""]","value training","canyon","26","{""ArrowUp,ArrowLeft"":26,""ArrowUp,ArrowRight"":10,""ArrowDown,ArrowLeft"":5,""ArrowDown,ArrowRight"":17}","true","ArrowUp,ArrowLeft","false","original","1","20","","",""
"html-keyboard-response","138","679346","0.0-4.0-2.0-1.10","spark_pilot_norest","12878","5","8","Female","","","","","","","null","<div style=""font-size:60px;"">+</div>","null","fixation","","","","","","","","","21","","",""
"revaluation","139","685356","0.0-4.0-2.0-0.11","spark_pilot_norest","12878","5","8","Female","","false","","","","","[852,673.8999998569489]","./assets/img/canyon/memory/3.jpg","[""ArrowUp"",""ArrowLeft""]","value training","canyon","26","{""ArrowUp,ArrowLeft"":26,""ArrowUp,ArrowRight"":10,""ArrowDown,ArrowLeft"":5,""ArrowDown,ArrowRight"":17}","true","ArrowUp,ArrowLeft","false","original","1","22","","",""
"html-keyboard-response","140","685859","0.0-4.0-2.0-1.11","spark_pilot_norest","12878","5","8","Female","","","","","","","null","<div style=""font-size:60px;"">+</div>","null","fixation","","","","","","","","","23","","",""
"revaluation","141","691868","0.0-4.0-2.0-0.12","spark_pilot_norest","12878","5","8","Female","","false","","","","","[802,745.5]","./assets/img/canyon/memory/1.jpg","[""ArrowUp"",""ArrowLeft""]","value training","canyon","26","{""ArrowUp,ArrowLeft"":26,""ArrowUp,ArrowRight"":10,""ArrowDown,ArrowLeft"":5,""ArrowDown,ArrowRight"":17}","true","ArrowUp,ArrowLeft","false","original","1","24","","",""
"html-keyboard-response","142","692371","0.0-4.0-2.0-1.12","spark_pilot_norest","12878","5","8","Female","","","","","","","null","<div style=""font-size:60px;"">+</div>","null","fixation","","","","","","","","","25","","",""
"revaluation","143","696377","0.0-4.0-2.0-0.13","spark_pilot_norest","12878","5","8","Female","","false","","","","","[884.9000000953674]","./assets/img/canyon/catch/1.jpg","[""ArrowUp""]","value training","canyon","-10","{""ArrowUp,ArrowLeft"":26,""ArrowUp,ArrowRight"":10,""ArrowDown,ArrowLeft"":5,""ArrowDown,ArrowRight"":17}","false","ArrowUp","true","original","1","26","","",""
"html-keyboard-response","144","696879","0.0-4.0-2.0-1.13","spark_pilot_norest","12878","5","8","Female","","","","","","","null","<div style=""font-size:60px;"">+</div>","null","fixation","","","","","","","","","27","","",""
"revaluation","145","702888","0.0-4.0-2.0-0.14","spark_pilot_norest","12878","5","8","Female","","false","","","","","[903.3999998569489,879.7999999523163]","./assets/img/canyon/memory/27.jpg","[""ArrowUp"",""ArrowLeft""]","value training","canyon","26","{""ArrowUp,ArrowLeft"":26,""ArrowUp,ArrowRight"":10,""ArrowDown,ArrowLeft"":5,""ArrowDown,ArrowRight"":17}","true","ArrowUp,ArrowLeft","false","original","1","28","","",""
"html-keyboard-response","146","703390","0.0-4.0-2.0-1.14","spark_pilot_norest","12878","5","8","Female","","","","","","","null","<div style=""font-size:60px;"">+</div>","null","fixation","","","","","","","","","29","","",""
"revaluation","147","709398","0.0-4.0-2.0-0.15","spark_pilot_norest","12878","5","8","Female","","false","","","","","[937.4000000953674,721.6999998092651]","./assets/img/canyon/memory/11.jpg","[""ArrowUp"",""ArrowLeft""]","value training","canyon","26","{""ArrowUp,ArrowLeft"":26,""ArrowUp,ArrowRight"":10,""ArrowDown,ArrowLeft"":5,""ArrowDown,ArrowRight"":17}","true","ArrowUp,ArrowLeft","false","original","1","30","","",""
"html-keyboard-response","148","709900","0.0-4.0-2.0-1.15","spark_pilot_norest","12878","5","8","Female","","","","","","","null","<div style=""font-size:60px;"">+</div>","null","fixation","","","","","","","","","31","","",""
"revaluation","149","715922","0.0-4.0-2.0-0.16","spark_pilot_norest","12878","5","8","Female","","false","","","","","[589.5999999046326,655.5]","./assets/img/canyon/memory/5.jpg","[""ArrowUp"",""ArrowLeft""]","value training","canyon","26","{""ArrowUp,ArrowLeft"":26,""ArrowUp,ArrowRight"":10,""ArrowDown,ArrowLeft"":5,""ArrowDown,ArrowRight"":17}","true","ArrowUp,ArrowLeft","false","original","1","32","","",""
"html-keyboard-response","150","716424","0.0-4.0-2.0-1.16","spark_pilot_norest","12878","5","8","Female","","","","","","","null","<div style=""font-size:60px;"">+</div>","null","fixation","","","","","","","","","33","","",""
"revaluation","151","720433","0.0-4.0-2.0-0.17","spark_pilot_norest","12878","5","8","Female","","false","","","","","[608.2999999523163]","./assets/img/canyon/catch/6.jpg","[""spaceBar""]","value training","canyon","0","{""ArrowUp,ArrowLeft"":26,""ArrowUp,ArrowRight"":10,""ArrowDown,ArrowLeft"":5,""ArrowDown,ArrowRight"":17}","true","spaceBar","true","original","1","34","","",""
"html-keyboard-response","152","720935","0.0-4.0-2.0-1.17","spark_pilot_norest","12878","5","8","Female","","","","","","","null","<div style=""font-size:60px;"">+</div>","null","fixation","","","","","","","","","35","","",""
"revaluation","153","726946","0.0-4.0-2.0-0.18","spark_pilot_norest","12878","5","8","Female","","false","","","","","[855.5,711.0999999046326]","./assets/img/canyon/memory/3.jpg","[""ArrowUp"",""ArrowLeft""]","value training","canyon","26","{""ArrowUp,ArrowLeft"":26,""ArrowUp,ArrowRight"":10,""ArrowDown,ArrowLeft"":5,""ArrowDown,ArrowRight"":17}","true","ArrowUp,ArrowLeft","false","original","1","36","","",""
"html-keyboard-response","154","727449","0.0-4.0-2.0-1.18","spark_pilot_norest","12878","5","8","Female","","","","","","","null","<div style=""font-size:60px;"">+</div>","null","fixation","","","","","","","","","37","","",""
"revaluation","155","733457","0.0-4.0-2.0-0.19","spark_pilot_norest","12878","5","8","Female","","false","","","","","[920,550.2999999523163]","./assets/img/canyon/memory/11.jpg","[""ArrowUp"",""ArrowLeft""]","value training","canyon","26","{""ArrowUp,ArrowLeft"":26,""ArrowUp,ArrowRight"":10,""ArrowDown,ArrowLeft"":5,""ArrowDown,ArrowRight"":17}","true","ArrowUp,ArrowLeft","false","original","1","38","","",""
"html-keyboard-response","156","733960","0.0-4.0-2.0-1.19","spark_pilot_norest","12878","5","8","Female","","","","","","","null","<div style=""font-size:60px;"">+</div>","null","fixation","","","","","","","","","39","","",""
"revaluation","157","739969","0.0-4.0-2.0-0.20","spark_pilot_norest","12878","5","8","Female","","false","","","","","[696.6000001430511,927.2999999523163]","./assets/img/canyon/memory/25.jpg","[""ArrowUp"",""ArrowLeft""]","value training","canyon","26","{""ArrowUp,ArrowLeft"":26,""ArrowUp,ArrowRight"":10,""ArrowDown,ArrowLeft"":5,""ArrowDown,ArrowRight"":17}","true","ArrowUp,ArrowLeft","false","original","1","40","","",""
"html-keyboard-response","158","740472","0.0-4.0-2.0-1.20","spark_pilot_norest","12878","5","8","Female","","","","","","","null","<div style=""font-size:60px;"">+</div>","null","fixation","","","","","","","","","41","","",""
"revaluation","159","744480","0.0-4.0-2.0-0.21","spark_pilot_norest","12878","5","8","Female","","false","","","","","[800.7000000476837]","./assets/img/canyon/catch/5.jpg","[""spaceBar""]","value training","canyon","0","{""ArrowUp,ArrowLeft"":26,""ArrowUp,ArrowRight"":10,""ArrowDown,ArrowLeft"":5,""ArrowDown,ArrowRight"":17}","true","spaceBar","true","original","1","42","","",""
"html-keyboard-response","160","744982","0.0-4.0-2.0-1.21","spark_pilot_norest","12878","5","8","Female","","","","","","","null","<div style=""font-size:60px;"">+</div>","null","fixation","","","","","","","","","43","","",""
"revaluation","161","750992","0.0-4.0-2.0-0.22","spark_pilot_norest","12878","5","8","Female","","false","","","","","[882,649.6000001430511]","./assets/img/canyon/memory/20.jpg","[""ArrowUp"",""ArrowLeft""]","value training","canyon","26","{""ArrowUp,ArrowLeft"":26,""ArrowUp,ArrowRight"":10,""ArrowDown,ArrowLeft"":5,""ArrowDown,ArrowRight"":17}","true","ArrowUp,ArrowLeft","false","original","1","44","","",""
"html-keyboard-response","162","751494","0.0-4.0-2.0-1.22","spark_pilot_norest","12878","5","8","Female","","","","","","","null","<div style=""font-size:60px;"">+</div>","null","fixation","","","","","","","","","45","","",""
"revaluation","163","757503","0.0-4.0-2.0-0.23","spark_pilot_norest","12878","5","8","Female","","false","","","","","[1346.7999999523163,976.7999999523163]","./assets/img/canyon/memory/38.jpg","[""ArrowUp"",""ArrowLeft""]","value training","canyon","26","{""ArrowUp,ArrowLeft"":26,""ArrowUp,ArrowRight"":10,""ArrowDown,ArrowLeft"":5,""ArrowDown,ArrowRight"":17}","true","ArrowUp,ArrowLeft","false","original","1","46","","",""
"html-keyboard-response","164","758005","0.0-4.0-2.0-1.23","spark_pilot_norest","12878","5","8","Female","","","","","","","null","<div style=""font-size:60px;"">+</div>","null","fixation","","","","","","","","","47","","",""
"revaluation","165","764013","0.0-4.0-2.0-0.24","spark_pilot_norest","12878","5","8","Female","","false","","","","","[1205.2000000476837,844.5]","./assets/img/canyon/memory/32.jpg","[""ArrowUp"",""ArrowLeft""]","value training","canyon","26","{""ArrowUp,ArrowLeft"":26,""ArrowUp,ArrowRight"":10,""ArrowDown,ArrowLeft"":5,""ArrowDown,ArrowRight"":17}","true","ArrowUp,ArrowLeft","false","original","1","48","","",""
"html-keyboard-response","166","764516","0.0-4.0-2.0-1.24","spark_pilot_norest","12878","5","8","Female","","","","","","","null","<div style=""font-size:60px;"">+</div>","null","fixation","","","","","","","","","49","","",""
"revaluation","167","770526","0.0-4.0-2.0-0.25","spark_pilot_norest","12878","5","8","Female","","false","","","","","[878.4000000953674,931]","./assets/img/canyon/memory/29.jpg","[""ArrowUp"",""ArrowLeft""]","value training","canyon","26","{""ArrowUp,ArrowLeft"":26,""ArrowUp,ArrowRight"":10,""ArrowDown,ArrowLeft"":5,""ArrowDown,ArrowRight"":17}","true","ArrowUp,ArrowLeft","false","original","1","50","","",""
"html-keyboard-response","168","771028","0.0-4.0-2.0-1.25","spark_pilot_norest","12878","5","8","Female","","","","","","","null","<div style=""font-size:60px;"">+</div>","null","fixation","","","","","","","","","51","","",""
"revaluation","169","775036","0.0-4.0-2.0-0.26","spark_pilot_norest","12878","5","8","Female","","false","","","","","[972.7999999523163]","./assets/img/canyon/catch/2.jpg","[""spaceBar""]","value training","canyon","0","{""ArrowUp,ArrowLeft"":26,""ArrowUp,ArrowRight"":10,""ArrowDown,ArrowLeft"":5,""ArrowDown,ArrowRight"":17}","true","spaceBar","true","original","1","52","","",""
"html-keyboard-response","170","775539","0.0-4.0-2.0-1.26","spark_pilot_norest","12878","5","8","Female","","","","","","","null","<div style=""font-size:60px;"">+</div>","null","fixation","","","","","","","","","53","","",""
"revaluation","171","781549","0.0-4.0-2.0-0.27","spark_pilot_norest","12878","5","8","Female","","false","","","","","[742.2999999523163,628.7999999523163]","./assets/img/canyon/memory/4.jpg","[""ArrowUp"",""ArrowLeft""]","value training","canyon","26","{""ArrowUp,ArrowLeft"":26,""ArrowUp,ArrowRight"":10,""ArrowDown,ArrowLeft"":5,""ArrowDown,ArrowRight"":17}","true","ArrowUp,ArrowLeft","false","original","1","54","","",""
"html-keyboard-response","172","782052","0.0-4.0-2.0-1.27","spark_pilot_norest","12878","5","8","Female","","","","","","","null","<div style=""font-size:60px;"">+</div>","null","fixation","","","","","","","","","55","","",""
"revaluation","173","788061","0.0-4.0-2.0-0.28","spark_pilot_norest","12878","5","8","Female","","false","","","","","[877.6000001430511,940.8000001907349]","./assets/img/canyon/memory/15.jpg","[""ArrowUp"",""ArrowLeft""]","value training","canyon","26","{""ArrowUp,ArrowLeft"":26,""ArrowUp,ArrowRight"":10,""ArrowDown,ArrowLeft"":5,""ArrowDown,ArrowRight"":17}","true","ArrowUp,ArrowLeft","false","original","1","56","","",""
"html-keyboard-response","174","788563","0.0-4.0-2.0-1.28","spark_pilot_norest","12878","5","8","Female","","","","","","","null","<div style=""font-size:60px;"">+</div>","null","fixation","","","","","","","","","57","","",""
"revaluation","175","794573","0.0-4.0-2.0-0.29","spark_pilot_norest","12878","5","8","Female","","false","","","","","[950.9000000953674,702.2000000476837]","./assets/img/canyon/memory/26.jpg","[""ArrowUp"",""ArrowLeft""]","value training","canyon","26","{""ArrowUp,ArrowLeft"":26,""ArrowUp,ArrowRight"":10,""ArrowDown,ArrowLeft"":5,""ArrowDown,ArrowRight"":17}","true","ArrowUp,ArrowLeft","false","original","1","58","","",""
"html-keyboard-response","176","795075","0.0-4.0-2.0-1.29","spark_pilot_norest","12878","5","8","Female","","","","","","","null","<div style=""font-size:60px;"">+</div>","null","fixation","","","","","","","","","59","","",""
"revaluation","177","799085","0.0-4.0-2.0-0.30","spark_pilot_norest","12878","5","8","Female","","false","","","","","[638.7000000476837]","./assets/img/canyon/catch/4.jpg","[""spaceBar""]","value training","canyon","0","{""ArrowUp,ArrowLeft"":26,""ArrowUp,ArrowRight"":10,""ArrowDown,ArrowLeft"":5,""ArrowDown,ArrowRight"":17}","true","spaceBar","true","original","1","60","","",""
"html-keyboard-response","178","799588","0.0-4.0-2.0-1.30","spark_pilot_norest","12878","5","8","Female","","","","","","","null","<div style=""font-size:60px;"">+</div>","null","fixation","","","","","","","","","61","","",""
"revaluation","179","805596","0.0-4.0-2.0-0.31","spark_pilot_norest","12878","5","8","Female","","false","","","","","[695.2999999523163,734.0999999046326]","./assets/img/canyon/memory/20.jpg","[""ArrowUp"",""ArrowLeft""]","value training","canyon","26","{""ArrowUp,ArrowLeft"":26,""ArrowUp,ArrowRight"":10,""ArrowDown,ArrowLeft"":5,""ArrowDown,ArrowRight"":17}","true","ArrowUp,ArrowLeft","false","original","1","62","","",""
"html-keyboard-response","180","806099","0.0-4.0-2.0-1.31","spark_pilot_norest","12878","5","8","Female","","","","","","","null","<div style=""font-size:60px;"">+</div>","null","fixation","","","","","","","","","63","","",""
"revaluation","181","812109","0.0-4.0-2.0-0.32","spark_pilot_norest","12878","5","8","Female","","false","","","","","[806.9000000953674,837.6000001430511]","./assets/img/canyon/memory/8.jpg","[""ArrowUp"",""ArrowLeft""]","value training","canyon","26","{""ArrowUp,ArrowLeft"":26,""ArrowUp,ArrowRight"":10,""ArrowDown,ArrowLeft"":5,""ArrowDown,ArrowRight"":17}","true","ArrowUp,ArrowLeft","false","original","1","64","","",""
"html-keyboard-response","182","812612","0.0-4.0-2.0-1.32","spark_pilot_norest","12878","5","8","Female","","","","","","","null","<div style=""font-size:60px;"">+</div>","null","fixation","","","","","","","","","65","","",""
"revaluation","183","818622","0.0-4.0-2.0-0.33","spark_pilot_norest","12878","5","8","Female","","false","","","","","[799.7999999523163,1445.6999998092651]","./assets/img/canyon/memory/8.jpg","[""ArrowUp"",""ArrowLeft""]","value training","canyon","26","{""ArrowUp,ArrowLeft"":26,""ArrowUp,ArrowRight"":10,""ArrowDown,ArrowLeft"":5,""ArrowDown,ArrowRight"":17}","true","ArrowUp,ArrowLeft","false","original","1","66","","",""
"html-keyboard-response","184","819124","0.0-4.0-2.0-1.33","spark_pilot_norest","12878","5","8","Female","","","","","","","null","<div style=""font-size:60px;"">+</div>","null","fixation","","","","","","","","","67","","",""
"revaluation","185","825146","0.0-4.0-2.0-0.34","spark_pilot_norest","12878","5","8","Female","","false","","","","","[663.7000000476837,845.9000000953674]","./assets/img/canyon/memory/31.jpg","[""ArrowUp"",""ArrowLeft""]","value training","canyon","26","{""ArrowUp,ArrowLeft"":26,""ArrowUp,ArrowRight"":10,""ArrowDown,ArrowLeft"":5,""ArrowDown,ArrowRight"":17}","true","ArrowUp,ArrowLeft","false","original","1","68","","",""
"html-keyboard-response","186","825649","0.0-4.0-2.0-1.34","spark_pilot_norest","12878","5","8","Female","","","","","","","null","<div style=""font-size:60px;"">+</div>","null","fixation","","","","","","","","","69","","",""
"revaluation","187","831657","0.0-4.0-2.0-0.35","spark_pilot_norest","12878","5","8","Female","","false","","","","","[1042.2999999523163,1058.7999999523163]","./assets/img/canyon/memory/21.jpg","[""ArrowUp"",""ArrowLeft""]","value training","canyon","26","{""ArrowUp,ArrowLeft"":26,""ArrowUp,ArrowRight"":10,""ArrowDown,ArrowLeft"":5,""ArrowDown,ArrowRight"":17}","true","ArrowUp,ArrowLeft","false","original","1","70","","",""
"html-keyboard-response","188","832160","0.0-4.0-2.0-1.35","spark_pilot_norest","12878","5","8","Female","","","","","","","null","<div style=""font-size:60px;"">+</div>","null","fixation","","","","","","","","","71","","",""
"revaluation","189","838170","0.0-4.0-2.0-0.36","spark_pilot_norest","12878","5","8","Female","","false","","","","","[1011,737.5]","./assets/img/canyon/memory/6.jpg","[""ArrowUp"",""ArrowLeft""]","value training","canyon","26","{""ArrowUp,ArrowLeft"":26,""ArrowUp,ArrowRight"":10,""ArrowDown,ArrowLeft"":5,""ArrowDown,ArrowRight"":17}","true","ArrowUp,ArrowLeft","false","original","1","72","","",""
"html-keyboard-response","190","838673","0.0-4.0-2.0-1.36","spark_pilot_norest","12878","5","8","Female","","","","","","","null","<div style=""font-size:60px;"">+</div>","null","fixation","","","","","","","","","73","","",""
"revaluation","191","844681","0.0-4.0-2.0-0.37","spark_pilot_norest","12878","5","8","Female","","false","","","","","[848.9000000953674,777.5999999046326]","./assets/img/canyon/memory/29.jpg","[""ArrowUp"",""ArrowLeft""]","value training","canyon","26","{""ArrowUp,ArrowLeft"":26,""ArrowUp,ArrowRight"":10,""ArrowDown,ArrowLeft"":5,""ArrowDown,ArrowRight"":17}","true","ArrowUp,ArrowLeft","false","original","1","74","","",""
"html-keyboard-response","192","845192","0.0-4.0-2.0-1.37","spark_pilot_norest","12878","5","8","Female","","","","","","","null","<div style=""font-size:60px;"">+</div>","null","fixation","","","","","","","","","75","","",""
"revaluation","193","849200","0.0-4.0-2.0-0.38","spark_pilot_norest","12878","5","8","Female","","false","","","","","[644.9000000953674]","./assets/img/canyon/catch/0.jpg","[""spaceBar""]","value training","canyon","0","{""ArrowUp,ArrowLeft"":26,""ArrowUp,ArrowRight"":10,""ArrowDown,ArrowLeft"":5,""ArrowDown,ArrowRight"":17}","true","spaceBar","true","original","1","76","","",""
"html-keyboard-response","194","849702","0.0-4.0-2.0-1.38","spark_pilot_norest","12878","5","8","Female","","","","","","","null","<div style=""font-size:60px;"">+</div>","null","fixation","","","","","","","","","77","","",""
"revaluation","195","853710","0.0-4.0-2.0-0.39","spark_pilot_norest","12878","5","8","Female","","false","","","","","[926]","./assets/img/canyon/catch/3.jpg","[""spaceBar""]","value training","canyon","0","{""ArrowUp,ArrowLeft"":26,""ArrowUp,ArrowRight"":10,""ArrowDown,ArrowLeft"":5,""ArrowDown,ArrowRight"":17}","true","spaceBar","true","original","1","78","","",""
"html-keyboard-response","196","854212","0.0-4.0-2.0-1.39","spark_pilot_norest","12878","5","8","Female","","","","","","","null","<div style=""font-size:60px;"">+</div>","null","fixation","","","","","","","","","79","","",""
"revaluation","197","860222","0.0-4.0-2.0-0.40","spark_pilot_norest","12878","5","8","Female","","false","","","","","[998.3999998569489,813.7999999523163]","./assets/img/canyon/memory/17.jpg","[""ArrowUp"",""ArrowLeft""]","value training","canyon","26","{""ArrowUp,ArrowLeft"":26,""ArrowUp,ArrowRight"":10,""ArrowDown,ArrowLeft"":5,""ArrowDown,ArrowRight"":17}","true","ArrowUp,ArrowLeft","false","original","1","80","","",""
"html-keyboard-response","198","860725","0.0-4.0-2.0-1.40","spark_pilot_norest","12878","5","8","Female","","","","","","","null","<div style=""font-size:60px;"">+</div>","null","fixation","","","","","","","","","81","","",""
"revaluation","199","864734","0.0-4.0-2.0-0.41","spark_pilot_norest","12878","5","8","Female","","false","","","","","[1214.7999999523163]","./assets/img/canyon/catch/7.jpg","[""spaceBar""]","value training","canyon","0","{""ArrowUp,ArrowLeft"":26,""ArrowUp,ArrowRight"":10,""ArrowDown,ArrowLeft"":5,""ArrowDown,ArrowRight"":17}","true","spaceBar","true","original","1","82","","",""
"html-keyboard-response","200","865236","0.0-4.0-2.0-1.41","spark_pilot_norest","12878","5","8","Female","","","","","","","null","<div style=""font-size:60px;"">+</div>","null","fixation","","","","","","","","","83","","",""
"revaluation","201","871250","0.0-4.0-2.0-0.42","spark_pilot_norest","12878","5","8","Female","","false","","","","","[1735.3999998569489,926.6000001430511]","./assets/img/canyon/memory/38.jpg","[""ArrowUp"",""ArrowLeft""]","value training","canyon","26","{""ArrowUp,ArrowLeft"":26,""ArrowUp,ArrowRight"":10,""ArrowDown,ArrowLeft"":5,""ArrowDown,ArrowRight"":17}","true","ArrowUp,ArrowLeft","false","original","1","84","","",""
"html-keyboard-response","202","871752","0.0-4.0-2.0-1.42","spark_pilot_norest","12878","5","8","Female","","","","","","","null","<div style=""font-size:60px;"">+</div>","null","fixation","","","","","","","","","85","","",""
"revaluation","203","877761","0.0-4.0-2.0-0.43","spark_pilot_norest","12878","5","8","Female","","false","","","","","[739.5,1867.3000001907349]","./assets/img/canyon/memory/26.jpg","[""ArrowUp"",""ArrowLeft""]","value training","canyon","26","{""ArrowUp,ArrowLeft"":26,""ArrowUp,ArrowRight"":10,""ArrowDown,ArrowLeft"":5,""ArrowDown,ArrowRight"":17}","true","ArrowUp,ArrowLeft","false","original","1","86","","",""
"html-keyboard-response","204","878264","0.0-4.0-2.0-1.43","spark_pilot_norest","12878","5","8","Female","","","","","","","null","<div style=""font-size:60px;"">+</div>","null","fixation","","","","","","","","","87","","",""
"revaluation","205","884272","0.0-4.0-2.0-0.44","spark_pilot_norest","12878","5","8","Female","","false","","","","","[1133,618.6000001430511]","./assets/img/canyon/memory/1.jpg","[""ArrowUp"",""ArrowLeft""]","value training","canyon","26","{""ArrowUp,ArrowLeft"":26,""ArrowUp,ArrowRight"":10,""ArrowDown,ArrowLeft"":5,""ArrowDown,ArrowRight"":17}","true","ArrowUp,ArrowLeft","false","original","1","88","","",""
"html-keyboard-response","206","884775","0.0-4.0-2.0-1.44","spark_pilot_norest","12878","5","8","Female","","","","","","","null","<div style=""font-size:60px;"">+</div>","null","fixation","","","","","","","","","89","","",""
"revaluation","207","890786","0.0-4.0-2.0-0.45","spark_pilot_norest","12878","5","8","Female","","false","","","","","[811.7999999523163,650.8000001907349]","./assets/img/canyon/memory/6.jpg","[""ArrowUp"",""ArrowLeft""]","value training","canyon","26","{""ArrowUp,ArrowLeft"":26,""ArrowUp,ArrowRight"":10,""ArrowDown,ArrowLeft"":5,""ArrowDown,ArrowRight"":17}","true","ArrowUp,ArrowLeft","false","original","1","90","","",""
"html-keyboard-response","208","891295","0.0-4.0-2.0-1.45","spark_pilot_norest","12878","5","8","Female","","","","","","","null","<div style=""font-size:60px;"">+</div>","null","fixation","","","","","","","","","91","","",""
"revaluation","209","897306","0.0-4.0-2.0-0.46","spark_pilot_norest","12878","5","8","Female","","false","","","","","[741.7999999523163,932.4000000953674]","./assets/img/canyon/memory/25.jpg","[""ArrowUp"",""ArrowLeft""]","value training","canyon","26","{""ArrowUp,ArrowLeft"":26,""ArrowUp,ArrowRight"":10,""ArrowDown,ArrowLeft"":5,""ArrowDown,ArrowRight"":17}","true","ArrowUp,ArrowLeft","false","original","1","92","","",""
"html-keyboard-response","210","897809","0.0-4.0-2.0-1.46","spark_pilot_norest","12878","5","8","Female","","","","","","","null","<div style=""font-size:60px;"">+</div>","null","fixation","","","","","","","","","93","","",""
"revaluation","211","903819","0.0-4.0-2.0-0.47","spark_pilot_norest","12878","5","8","Female","","false","","","","","[917.2999999523163,772.2999999523163]","./assets/img/canyon/memory/15.jpg","[""ArrowUp"",""ArrowLeft""]","value training","canyon","26","{""ArrowUp,ArrowLeft"":26,""ArrowUp,ArrowRight"":10,""ArrowDown,ArrowLeft"":5,""ArrowDown,ArrowRight"":17}","true","ArrowUp,ArrowLeft","false","original","1","94","","",""
"html-keyboard-response","212","904321","0.0-4.0-2.0-1.47","spark_pilot_norest","12878","5","8","Female","","","","","","","null","<div style=""font-size:60px;"">+</div>","null","fixation","","","","","","","","","95","","",""
"revaluation","213","910331","0.0-4.0-2.0-0.48","spark_pilot_norest","12878","5","8","Female","","false","","","","","[818.3999998569489,803.5999999046326]","./assets/img/canyon/memory/17.jpg","[""ArrowUp"",""ArrowLeft""]","value training","canyon","26","{""ArrowUp,ArrowLeft"":26,""ArrowUp,ArrowRight"":10,""ArrowDown,ArrowLeft"":5,""ArrowDown,ArrowRight"":17}","true","ArrowUp,ArrowLeft","false","original","1","96","","",""
"html-keyboard-response","214","910834","0.0-4.0-2.0-1.48","spark_pilot_norest","12878","5","8","Female","","","","","","","null","<div style=""font-size:60px;"">+</div>","null","fixation","","","","","","","","","97","","",""
"revaluation","215","916842","0.0-4.0-2.0-0.49","spark_pilot_norest","12878","5","8","Female","","false","","","","","[909.4000000953674,819.1999998092651]","./assets/img/canyon/memory/41.jpg","[""ArrowUp"",""ArrowLeft""]","value training","canyon","26","{""ArrowUp,ArrowLeft"":26,""ArrowUp,ArrowRight"":10,""ArrowDown,ArrowLeft"":5,""ArrowDown,ArrowRight"":17}","true","ArrowUp,ArrowLeft","false","original","1","98","","",""
"html-keyboard-response","216","917345","0.0-4.0-2.0-1.49","spark_pilot_norest","12878","5","8","Female","","","","","","","null","<div style=""font-size:60px;"">+</div>","null","fixation","","","","","","","","","99","","",""
"learning-instructions","217","931203","0.0-4.0-3.0-0.0","spark_pilot_norest","12878","5","8","Female","","","","","","","667.2999999523163","<p> Now, you will travel with a friend who will choose whether you go up or down first. </p>
            <p> On these turns, you will just see the animal that they found. You will still get to choose which chest to search for treasure.</p>","","instructions","","","","","","","","","","","",""
"revaluation","218","935234","0.0-4.0-4.0-0.0","spark_pilot_norest","12878","5","8","Female","","false","","","","","[1765.0999999046326]","./assets/img/canyon/animals/giraffe.jpg","[""ArrowRight""]","revaluation","canyon","17","{""ArrowUp,ArrowLeft"":26,""ArrowUp,ArrowRight"":10,""ArrowDown,ArrowLeft"":5,""ArrowDown,ArrowRight"":17}","true","ArrowDown,ArrowRight","","original","1","0","","",""
"html-keyboard-response","219","935753","0.0-4.0-4.0-1.0","spark_pilot_norest","12878","5","8","Female","","","","","","","null","<div style=""font-size:60px;"">+</div>","null","fixation","","","","","","","","","1","","",""
"revaluation","220","939794","0.0-4.0-4.0-0.1","spark_pilot_norest","12878","5","8","Female","","false","","","","","[853.0999999046326]","./assets/img/canyon/animals/giraffe.jpg","[""ArrowRight""]","revaluation","canyon","17","{""ArrowUp,ArrowLeft"":26,""ArrowUp,ArrowRight"":10,""ArrowDown,ArrowLeft"":5,""ArrowDown,ArrowRight"":17}","true","ArrowDown,ArrowRight","","original","1","2","","",""
"html-keyboard-response","221","940313","0.0-4.0-4.0-1.1","spark_pilot_norest","12878","5","8","Female","","","","","","","null","<div style=""font-size:60px;"">+</div>","null","fixation","","","","","","","","","3","","",""
"revaluation","222","944344","0.0-4.0-4.0-0.2","spark_pilot_norest","12878","5","8","Female","","false","","","","","[701.5]","./assets/img/canyon/animals/giraffe.jpg","[""ArrowRight""]","revaluation","canyon","17","{""ArrowUp,ArrowLeft"":26,""ArrowUp,ArrowRight"":10,""ArrowDown,ArrowLeft"":5,""ArrowDown,ArrowRight"":17}","true","ArrowDown,ArrowRight","","original","1","4","","",""
"html-keyboard-response","223","944850","0.0-4.0-4.0-1.2","spark_pilot_norest","12878","5","8","Female","","","","","","","null","<div style=""font-size:60px;"">+</div>","null","fixation","","","","","","","","","5","","",""
"revaluation","224","948884","0.0-4.0-4.0-0.3","spark_pilot_norest","12878","5","8","Female","","false","","","","","[565.7000000476837]","./assets/img/canyon/animals/lion.jpg","[""ArrowRight""]","revaluation","canyon","10","{""ArrowUp,ArrowLeft"":26,""ArrowUp,ArrowRight"":10,""ArrowDown,ArrowLeft"":5,""ArrowDown,ArrowRight"":17}","false","ArrowUp,ArrowRight","","original","1","6","","",""
"html-keyboard-response","225","949394","0.0-4.0-4.0-1.3","spark_pilot_norest","12878","5","8","Female","","","","","","","null","<div style=""font-size:60px;"">+</div>","null","fixation","","","","","","","","","7","","",""
"revaluation","226","953424","0.0-4.0-4.0-0.4","spark_pilot_norest","12878","5","8","Female","","false","","","","","[948.5]","./assets/img/canyon/animals/lion.jpg","[""ArrowLeft""]","revaluation","canyon","26","{""ArrowUp,ArrowLeft"":26,""ArrowUp,ArrowRight"":10,""ArrowDown,ArrowLeft"":5,""ArrowDown,ArrowRight"":17}","true","ArrowUp,ArrowLeft","","original","1","8","","",""
"html-keyboard-response","227","953934","0.0-4.0-4.0-1.4","spark_pilot_norest","12878","5","8","Female","","","","","","","null","<div style=""font-size:60px;"">+</div>","null","fixation","","","","","","","","","9","","",""
"revaluation","228","957975","0.0-4.0-4.0-0.5","spark_pilot_norest","12878","5","8","Female","","false","","","","","[985.4000000953674]","./assets/img/canyon/animals/lion.jpg","[""ArrowLeft""]","revaluation","canyon","26","{""ArrowUp,ArrowLeft"":26,""ArrowUp,ArrowRight"":10,""ArrowDown,ArrowLeft"":5,""ArrowDown,ArrowRight"":17}","true","ArrowUp,ArrowLeft","","original","1","10","","",""
"html-keyboard-response","229","958494","0.0-4.0-4.0-1.5","spark_pilot_norest","12878","5","8","Female","","","","","","","null","<div style=""font-size:60px;"">+</div>","null","fixation","","","","","","","","","11","","",""
"revaluation","230","962510","0.0-4.0-4.0-0.6","spark_pilot_norest","12878","5","8","Female","","false","","","","","[1056.8999998569489]","./assets/img/canyon/animals/giraffe.jpg","[""ArrowRight""]","revaluation","canyon","17","{""ArrowUp,ArrowLeft"":26,""ArrowUp,ArrowRight"":10,""ArrowDown,ArrowLeft"":5,""ArrowDown,ArrowRight"":17}","true","ArrowDown,ArrowRight","","original","1","12","","",""
"html-keyboard-response","231","963012","0.0-4.0-4.0-1.6","spark_pilot_norest","12878","5","8","Female","","","","","","","null","<div style=""font-size:60px;"">+</div>","null","fixation","","","","","","","","","13","","",""
"revaluation","232","967020","0.0-4.0-4.0-0.7","spark_pilot_norest","12878","5","8","Female","","false","","","","","[612.1000001430511]","./assets/img/canyon/animals/lion.jpg","[""ArrowLeft""]","revaluation","canyon","26","{""ArrowUp,ArrowLeft"":26,""ArrowUp,ArrowRight"":10,""ArrowDown,ArrowLeft"":5,""ArrowDown,ArrowRight"":17}","true","ArrowUp,ArrowLeft","","original","1","14","","",""
"html-keyboard-response","233","967522","0.0-4.0-4.0-1.7","spark_pilot_norest","12878","5","8","Female","","","","","","","null","<div style=""font-size:60px;"">+</div>","null","fixation","","","","","","","","","15","","",""
"revaluation","234","971530","0.0-4.0-4.0-0.8","spark_pilot_norest","12878","5","8","Female","","false","","","","","[1004.2999999523163]","./assets/img/canyon/animals/lion.jpg","[""ArrowLeft""]","revaluation","canyon","26","{""ArrowUp,ArrowLeft"":26,""ArrowUp,ArrowRight"":10,""ArrowDown,ArrowLeft"":5,""ArrowDown,ArrowRight"":17}","true","ArrowUp,ArrowLeft","","original","1","16","","",""
"html-keyboard-response","235","972033","0.0-4.0-4.0-1.8","spark_pilot_norest","12878","5","8","Female","","","","","","","null","<div style=""font-size:60px;"">+</div>","null","fixation","","","","","","","","","17","","",""
"revaluation","236","976040","0.0-4.0-4.0-0.9","spark_pilot_norest","12878","5","8","Female","","false","","","","","[774.8999998569489]","./assets/img/canyon/animals/giraffe.jpg","[""ArrowRight""]","revaluation","canyon","17","{""ArrowUp,ArrowLeft"":26,""ArrowUp,ArrowRight"":10,""ArrowDown,ArrowLeft"":5,""ArrowDown,ArrowRight"":17}","true","ArrowDown,ArrowRight","","original","1","18","","",""
"html-keyboard-response","237","976543","0.0-4.0-4.0-1.9","spark_pilot_norest","12878","5","8","Female","","","","","","","null","<div style=""font-size:60px;"">+</div>","null","fixation","","","","","","","","","19","","",""
"revaluation","238","980549","0.0-4.0-4.0-0.10","spark_pilot_norest","12878","5","8","Female","","false","","","","","[1025.2000000476837]","./assets/img/canyon/animals/lion.jpg","[""ArrowLeft""]","revaluation","canyon","26","{""ArrowUp,ArrowLeft"":26,""ArrowUp,ArrowRight"":10,""ArrowDown,ArrowLeft"":5,""ArrowDown,ArrowRight"":17}","true","ArrowUp,ArrowLeft","","original","1","20","","",""
"html-keyboard-response","239","981050","0.0-4.0-4.0-1.10","spark_pilot_norest","12878","5","8","Female","","","","","","","null","<div style=""font-size:60px;"">+</div>","null","fixation","","","","","","","","","21","","",""
"revaluation","240","985060","0.0-4.0-4.0-0.11","spark_pilot_norest","12878","5","8","Female","","false","","","","","[580.9000000953674]","./assets/img/canyon/animals/giraffe.jpg","[""ArrowRight""]","revaluation","canyon","17","{""ArrowUp,ArrowLeft"":26,""ArrowUp,ArrowRight"":10,""ArrowDown,ArrowLeft"":5,""ArrowDown,ArrowRight"":17}","true","ArrowDown,ArrowRight","","original","1","22","","",""
"html-keyboard-response","241","985562","0.0-4.0-4.0-1.11","spark_pilot_norest","12878","5","8","Female","","","","","","","null","<div style=""font-size:60px;"">+</div>","null","fixation","","","","","","","","","23","","",""
"revaluation","242","989571","0.0-4.0-4.0-0.12","spark_pilot_norest","12878","5","8","Female","","false","","","","","[965.8999998569489]","./assets/img/canyon/animals/lion.jpg","[""ArrowLeft""]","revaluation","canyon","26","{""ArrowUp,ArrowLeft"":26,""ArrowUp,ArrowRight"":10,""ArrowDown,ArrowLeft"":5,""ArrowDown,ArrowRight"":17}","true","ArrowUp,ArrowLeft","","original","1","24","","",""
"html-keyboard-response","243","990073","0.0-4.0-4.0-1.12","spark_pilot_norest","12878","5","8","Female","","","","","","","null","<div style=""font-size:60px;"">+</div>","null","fixation","","","","","","","","","25","","",""
"revaluation","244","994082","0.0-4.0-4.0-0.13","spark_pilot_norest","12878","5","8","Female","","false","","","","","[863]","./assets/img/canyon/animals/lion.jpg","[""ArrowLeft""]","revaluation","canyon","26","{""ArrowUp,ArrowLeft"":26,""ArrowUp,ArrowRight"":10,""ArrowDown,ArrowLeft"":5,""ArrowDown,ArrowRight"":17}","true","ArrowUp,ArrowLeft","","original","1","26","","",""
"html-keyboard-response","245","994583","0.0-4.0-4.0-1.13","spark_pilot_norest","12878","5","8","Female","","","","","","","null","<div style=""font-size:60px;"">+</div>","null","fixation","","","","","","","","","27","","",""
"revaluation","246","998591","0.0-4.0-4.0-0.14","spark_pilot_norest","12878","5","8","Female","","false","","","","","[849]","./assets/img/canyon/animals/giraffe.jpg","[""ArrowRight""]","revaluation","canyon","17","{""ArrowUp,ArrowLeft"":26,""ArrowUp,ArrowRight"":10,""ArrowDown,ArrowLeft"":5,""ArrowDown,ArrowRight"":17}","true","ArrowDown,ArrowRight","","original","1","28","","",""
"html-keyboard-response","247","999093","0.0-4.0-4.0-1.14","spark_pilot_norest","12878","5","8","Female","","","","","","","null","<div style=""font-size:60px;"">+</div>","null","fixation","","","","","","","","","29","","",""
"revaluation","248","1003101","0.0-4.0-4.0-0.15","spark_pilot_norest","12878","5","8","Female","","false","","","","","[723.7999999523163]","./assets/img/canyon/animals/lion.jpg","[""ArrowLeft""]","revaluation","canyon","26","{""ArrowUp,ArrowLeft"":26,""ArrowUp,ArrowRight"":10,""ArrowDown,ArrowLeft"":5,""ArrowDown,ArrowRight"":17}","true","ArrowUp,ArrowLeft","","original","1","30","","",""
"html-keyboard-response","249","1003602","0.0-4.0-4.0-1.15","spark_pilot_norest","12878","5","8","Female","","","","","","","null","<div style=""font-size:60px;"">+</div>","null","fixation","","","","","","","","","31","","",""
"revaluation","250","1007611","0.0-4.0-4.0-0.16","spark_pilot_norest","12878","5","8","Female","","false","","","","","[838.3999998569489]","./assets/img/canyon/animals/giraffe.jpg","[""ArrowRight""]","revaluation","canyon","17","{""ArrowUp,ArrowLeft"":26,""ArrowUp,ArrowRight"":10,""ArrowDown,ArrowLeft"":5,""ArrowDown,ArrowRight"":17}","true","ArrowDown,ArrowRight","","original","1","32","","",""
"html-keyboard-response","251","1008114","0.0-4.0-4.0-1.16","spark_pilot_norest","12878","5","8","Female","","","","","","","null","<div style=""font-size:60px;"">+</div>","null","fixation","","","","","","","","","33","","",""
"revaluation","252","1012126","0.0-4.0-4.0-0.17","spark_pilot_norest","12878","5","8","Female","","false","","","","","[982.7999999523163]","./assets/img/canyon/animals/giraffe.jpg","[""ArrowRight""]","revaluation","canyon","17","{""ArrowUp,ArrowLeft"":26,""ArrowUp,ArrowRight"":10,""ArrowDown,ArrowLeft"":5,""ArrowDown,ArrowRight"":17}","true","ArrowDown,ArrowRight","","original","1","34","","",""
"html-keyboard-response","253","1012629","0.0-4.0-4.0-1.17","spark_pilot_norest","12878","5","8","Female","","","","","","","null","<div style=""font-size:60px;"">+</div>","null","fixation","","","","","","","","","35","","",""
"learning-instructions","254","1021040","0.0-4.0-5.0-0.0","spark_pilot_norest","12878","5","8","Female","","","","","","","null","<p> You have almost finished this part of the game! </p>
            <p> We are going to ask you to make a few more choices. </p>","","instructions","","","","","","","","","","","",""
"learning-instructions","255","1037027","0.0-4.0-5.0-0.1","spark_pilot_norest","12878","5","8","Female","","","","","","","null","<p> First, you need to decide whether to go up or down. When you see each picture, use the arrow keys to make your choice. </p>
            <p><b>You will not see which animal you found, but try to get to the one that will give you the most treasure.</b></p>","","instructions","","","","","","","","","","","",""
"html-keyboard-response","256","1038040","0.0-4.0-6.0-0.0","spark_pilot_norest","12878","5","8","Female","","","","","","","null","<div style=""font-size:100px;color:red;"">Starting in...</div>","null","","","","","","","","","","","","",""
"html-keyboard-response","257","1039060","0.0-4.0-6.0-1.0","spark_pilot_norest","12878","5","8","Female","","","","","","","null","<div style=""font-size:200px;color:red;"">3</div>","null","","","","","","","","","","","","",""
"html-keyboard-response","258","1040081","0.0-4.0-6.0-2.0","spark_pilot_norest","12878","5","8","Female","","","","","","","null","<div style=""font-size:200px;color:red;"">2</div>","null","","","","","","","","","","","","",""
"html-keyboard-response","259","1041100","0.0-4.0-6.0-3.0","spark_pilot_norest","12878","5","8","Female","","","","","","","null","<div style=""font-size:200px;color:red;"">1</div>","null","","","","","","","","","","","","",""
"revaluation","260","1041618","0.0-4.0-7.0-0.0","spark_pilot_norest","12878","5","8","Female","","false","","","","","[511.7000000476837]","./assets/img/canyon/test/1.jpg","[""ArrowUp""]","first stage test","canyon","0","{""ArrowUp,ArrowLeft"":26,""ArrowUp,ArrowRight"":10,""ArrowDown,ArrowLeft"":5,""ArrowDown,ArrowRight"":17}","true","ArrowUp","false","original","1","","","",""
"html-keyboard-response","261","1042131","0.0-4.0-7.0-1.0","spark_pilot_norest","12878","5","8","Female","","","","","","","null","<div style=""font-size:60px;"">+</div>","null","fixation","","","","","","","","","","","",""
"revaluation","262","1043064","0.0-4.0-7.0-0.1","spark_pilot_norest","12878","5","8","Female","","false","","","","","[926.7999999523163]","./assets/img/canyon/test/2.jpg","[""ArrowUp""]","first stage test","canyon","0","{""ArrowUp,ArrowLeft"":26,""ArrowUp,ArrowRight"":10,""ArrowDown,ArrowLeft"":5,""ArrowDown,ArrowRight"":17}","true","ArrowUp","false","original","1","","","",""
"html-keyboard-response","263","1043581","0.0-4.0-7.0-1.1","spark_pilot_norest","12878","5","8","Female","","","","","","","null","<div style=""font-size:60px;"">+</div>","null","fixation","","","","","","","","","","","",""
"revaluation","264","1044264","0.0-4.0-7.0-0.2","spark_pilot_norest","12878","5","8","Female","","false","","","","","[676.0999999046326]","./assets/img/canyon/test/0.jpg","[""ArrowUp""]","first stage test","canyon","0","{""ArrowUp,ArrowLeft"":26,""ArrowUp,ArrowRight"":10,""ArrowDown,ArrowLeft"":5,""ArrowDown,ArrowRight"":17}","true","ArrowUp","false","original","1","","","",""
"html-keyboard-response","265","1044780","0.0-4.0-7.0-1.2","spark_pilot_norest","12878","5","8","Female","","","","","","","null","<div style=""font-size:60px;"">+</div>","null","fixation","","","","","","","","","","","",""
"revaluation","266","1045344","0.0-4.0-7.0-0.3","spark_pilot_norest","12878","5","8","Female","","false","","","","","[556.5]","./assets/img/canyon/test/3.jpg","[""ArrowUp""]","first stage test","canyon","0","{""ArrowUp,ArrowLeft"":26,""ArrowUp,ArrowRight"":10,""ArrowDown,ArrowLeft"":5,""ArrowDown,ArrowRight"":17}","true","ArrowUp","false","original","1","","","",""
"html-keyboard-response","267","1045850","0.0-4.0-7.0-1.3","spark_pilot_norest","12878","5","8","Female","","","","","","","null","<div style=""font-size:60px;"">+</div>","null","fixation","","","","","","","","","","","",""
"learning-instructions","268","1059191","0.0-4.0-8.0-0.0","spark_pilot_norest","12878","5","8","Female","","","","","","","null","<p> Now you will see the animals again and can search their chests for treasure. </p>
            <p> This time, you will not see how much treasure you earned, but you will earn more bonus money for making better choices. </p>","","instructions","","","","","","","","","","","",""
"html-keyboard-response","269","1060201","0.0-4.0-9.0-0.0","spark_pilot_norest","12878","5","8","Female","","","","","","","null","<div style=""font-size:100px;color:red;"">Starting in...</div>","null","","","","","","","","","","","","",""
"html-keyboard-response","270","1061221","0.0-4.0-9.0-1.0","spark_pilot_norest","12878","5","8","Female","","","","","","","null","<div style=""font-size:200px;color:red;"">3</div>","null","","","","","","","","","","","","",""
"html-keyboard-response","271","1062242","0.0-4.0-9.0-2.0","spark_pilot_norest","12878","5","8","Female","","","","","","","null","<div style=""font-size:200px;color:red;"">2</div>","null","","","","","","","","","","","","",""
"html-keyboard-response","272","1063261","0.0-4.0-9.0-3.0","spark_pilot_norest","12878","5","8","Female","","","","","","","null","<div style=""font-size:200px;color:red;"">1</div>","null","","","","","","","","","","","","",""
"revaluation","273","1064401","0.0-4.0-10.0-0.0","spark_pilot_norest","12878","5","8","Female","","false","","","","","[1133.9000000953674]","./assets/img/canyon/animals/lion.jpg","[""ArrowLeft""]","second stage test","canyon","0","{""ArrowUp,ArrowLeft"":26,""ArrowUp,ArrowRight"":10,""ArrowDown,ArrowLeft"":5,""ArrowDown,ArrowRight"":17}","true","ArrowUp,ArrowLeft","","original","1","","","",""
"html-keyboard-response","274","1064911","0.0-4.0-10.0-1.0","spark_pilot_norest","12878","5","8","Female","","","","","","","null","<div style=""font-size:60px;"">+</div>","null","fixation","","","","","","","","","","","",""
"revaluation","275","1065474","0.0-4.0-10.0-0.1","spark_pilot_norest","12878","5","8","Female","","false","","","","","[556.2999999523163]","./assets/img/canyon/animals/lion.jpg","[""ArrowLeft""]","second stage test","canyon","0","{""ArrowUp,ArrowLeft"":26,""ArrowUp,ArrowRight"":10,""ArrowDown,ArrowLeft"":5,""ArrowDown,ArrowRight"":17}","true","ArrowUp,ArrowLeft","","original","1","","","",""
"html-keyboard-response","276","1065981","0.0-4.0-10.0-1.1","spark_pilot_norest","12878","5","8","Female","","","","","","","null","<div style=""font-size:60px;"">+</div>","null","fixation","","","","","","","","","","","",""
"revaluation","277","1066545","0.0-4.0-10.0-0.2","spark_pilot_norest","12878","5","8","Female","","false","","","","","[557.2999999523163]","./assets/img/canyon/animals/lion.jpg","[""ArrowLeft""]","second stage test","canyon","0","{""ArrowUp,ArrowLeft"":26,""ArrowUp,ArrowRight"":10,""ArrowDown,ArrowLeft"":5,""ArrowDown,ArrowRight"":17}","true","ArrowUp,ArrowLeft","","original","1","","","",""
"html-keyboard-response","278","1067051","0.0-4.0-10.0-1.2","spark_pilot_norest","12878","5","8","Female","","","","","","","null","<div style=""font-size:60px;"">+</div>","null","fixation","","","","","","","","","","","",""
"revaluation","279","1067593","0.0-4.0-10.0-0.3","spark_pilot_norest","12878","5","8","Female","","false","","","","","[534.5]","./assets/img/canyon/animals/lion.jpg","[""ArrowLeft""]","second stage test","canyon","0","{""ArrowUp,ArrowLeft"":26,""ArrowUp,ArrowRight"":10,""ArrowDown,ArrowLeft"":5,""ArrowDown,ArrowRight"":17}","true","ArrowUp,ArrowLeft","","original","1","","","",""
"html-keyboard-response","280","1068101","0.0-4.0-10.0-1.3","spark_pilot_norest","12878","5","8","Female","","","","","","","null","<div style=""font-size:60px;"">+</div>","null","fixation","","","","","","","","","","","",""
"revaluation","281","1069050","0.0-4.0-10.0-0.4","spark_pilot_norest","12878","5","8","Female","","false","","","","","[943]","./assets/img/canyon/animals/giraffe.jpg","[""ArrowRight""]","second stage test","canyon","0","{""ArrowUp,ArrowLeft"":26,""ArrowUp,ArrowRight"":10,""ArrowDown,ArrowLeft"":5,""ArrowDown,ArrowRight"":17}","true","ArrowDown,ArrowRight","","original","1","","","",""
"html-keyboard-response","282","1069562","0.0-4.0-10.0-1.4","spark_pilot_norest","12878","5","8","Female","","","","","","","null","<div style=""font-size:60px;"">+</div>","null","fixation","","","","","","","","","","","",""
"revaluation","283","1070201","0.0-4.0-10.0-0.5","spark_pilot_norest","12878","5","8","Female","","false","","","","","[633]","./assets/img/canyon/animals/giraffe.jpg","[""ArrowRight""]","second stage test","canyon","0","{""ArrowUp,ArrowLeft"":26,""ArrowUp,ArrowRight"":10,""ArrowDown,ArrowLeft"":5,""ArrowDown,ArrowRight"":17}","true","ArrowDown,ArrowRight","","original","1","","","",""
"html-keyboard-response","284","1070711","0.0-4.0-10.0-1.5","spark_pilot_norest","12878","5","8","Female","","","","","","","null","<div style=""font-size:60px;"">+</div>","null","fixation","","","","","","","","","","","",""
"revaluation","285","1071465","0.0-4.0-10.0-0.6","spark_pilot_norest","12878","5","8","Female","","false","","","","","[747.9000000953674]","./assets/img/canyon/animals/giraffe.jpg","[""ArrowRight""]","second stage test","canyon","0","{""ArrowUp,ArrowLeft"":26,""ArrowUp,ArrowRight"":10,""ArrowDown,ArrowLeft"":5,""ArrowDown,ArrowRight"":17}","true","ArrowDown,ArrowRight","","original","1","","","",""
"html-keyboard-response","286","1071981","0.0-4.0-10.0-1.6","spark_pilot_norest","12878","5","8","Female","","","","","","","null","<div style=""font-size:60px;"">+</div>","null","fixation","","","","","","","","","","","",""
"revaluation","287","1072601","0.0-4.0-10.0-0.7","spark_pilot_norest","12878","5","8","Female","","false","","","","","[612.5999999046326]","./assets/img/canyon/animals/giraffe.jpg","[""ArrowRight""]","second stage test","canyon","0","{""ArrowUp,ArrowLeft"":26,""ArrowUp,ArrowRight"":10,""ArrowDown,ArrowLeft"":5,""ArrowDown,ArrowRight"":17}","true","ArrowDown,ArrowRight","","original","1","","","",""
"html-keyboard-response","288","1073112","0.0-4.0-10.0-1.7","spark_pilot_norest","12878","5","8","Female","","","","","","","null","<div style=""font-size:60px;"">+</div>","null","fixation","","","","","","","","","","","",""
"learning-instructions","289","1079371","0.0-4.0-0.1-0.2","spark_pilot_norest","12878","5","8","Female","","","","","","","3506.5999999046326","<p> This time you are searching for treasure in the <b>ocean</b>.</p>","","instructions","","","","","","","","","","","",""
"learning-instructions","290","1097825","0.0-4.0-0.1-0.3","spark_pilot_norest","12878","5","8","Female","","","","","","","1210","<p><b>New</b> animals with <b>new</b> treasure chests live here. You need to explore to discover where the animal with the best treasure chest is.</p>
                    <p> Like before, once you figure out which animal has the chest with the most treasure, you should try to get to that animal and select that chest! </p>","","instructions","","","","","","","","","","","",""
"learning-instructions","291","1113451","0.0-4.0-1.1-0.1","spark_pilot_norest","12878","5","8","Female","","","","","","","895.4000000953674","<p> Remember, when you see a picture of the place, use the up and down keys to <b>find an animal</b>.</p>
            <p> When you encounter an animal, you should use the left and right keys to <b>select a treasure chest</b>.</p>
            <p> Don't forget to look out for the robber! </p>","","instructions","","","","","","","","","","","",""
"revaluation","292","1119504","0.0-4.0-2.1-0.50","spark_pilot_norest","12878","5","8","Female","","false","","","","","[1946.6999998092651,1619.2000000476837]","./assets/img/ocean/memory/31.jpg","[""ArrowUp"",""ArrowLeft""]","value training","ocean","23","{""ArrowUp,ArrowLeft"":23,""ArrowUp,ArrowRight"":10,""ArrowDown,ArrowLeft"":8,""ArrowDown,ArrowRight"":30}","false","ArrowUp,ArrowLeft","false","revaluation","2","0","","",""
"html-keyboard-response","293","1120023","0.0-4.0-2.1-1.50","spark_pilot_norest","12878","5","8","Female","","","","","","","null","<div style=""font-size:60px;"">+</div>","null","fixation","","","","","","","","","1","","",""
"revaluation","294","1126075","0.0-4.0-2.1-0.51","spark_pilot_norest","12878","5","8","Female","","false","","","","","[1222,769.3000001907349]","./assets/img/ocean/memory/15.jpg","[""ArrowDown"",""ArrowRight""]","value training","ocean","30","{""ArrowUp,ArrowLeft"":23,""ArrowUp,ArrowRight"":10,""ArrowDown,ArrowLeft"":8,""ArrowDown,ArrowRight"":30}","true","ArrowDown,ArrowRight","false","revaluation","2","2","","",""
"html-keyboard-response","295","1126583","0.0-4.0-2.1-1.51","spark_pilot_norest","12878","5","8","Female","","","","","","","null","<div style=""font-size:60px;"">+</div>","null","fixation","","","","","","","","","3","","",""
"revaluation","296","1132634","0.0-4.0-2.1-0.52","spark_pilot_norest","12878","5","8","Female","","false","","","","","[477.10000014305115,953.0999999046326]","./assets/img/ocean/memory/6.jpg","[""ArrowUp"",""ArrowRight""]","value training","ocean","10","{""ArrowUp,ArrowLeft"":23,""ArrowUp,ArrowRight"":10,""ArrowDown,ArrowLeft"":8,""ArrowDown,ArrowRight"":30}","false","ArrowUp,ArrowRight","false","revaluation","2","4","","",""
"html-keyboard-response","297","1133154","0.0-4.0-2.1-1.52","spark_pilot_norest","12878","5","8","Female","","","","","","","null","<div style=""font-size:60px;"">+</div>","null","fixation","","","","","","","","","5","","",""
"revaluation","298","1139185","0.0-4.0-2.1-0.53","spark_pilot_norest","12878","5","8","Female","","false","","","","","[819.4000000953674,769.0999999046326]","./assets/img/ocean/memory/15.jpg","[""ArrowDown"",""ArrowLeft""]","value training","ocean","8","{""ArrowUp,ArrowLeft"":23,""ArrowUp,ArrowRight"":10,""ArrowDown,ArrowLeft"":8,""ArrowDown,ArrowRight"":30}","false","ArrowDown,ArrowLeft","false","revaluation","2","6","","",""
"html-keyboard-response","299","1139702","0.0-4.0-2.1-1.53","spark_pilot_norest","12878","5","8","Female","","","","","","","null","<div style=""font-size:60px;"">+</div>","null","fixation","","","","","","","","","7","","",""
"revaluation","300","1145726","0.0-4.0-2.1-0.54","spark_pilot_norest","12878","5","8","Female","","false","","","","","[823.6000001430511,592.2000000476837]","./assets/img/ocean/memory/32.jpg","[""ArrowDown"",""ArrowRight""]","value training","ocean","30","{""ArrowUp,ArrowLeft"":23,""ArrowUp,ArrowRight"":10,""ArrowDown,ArrowLeft"":8,""ArrowDown,ArrowRight"":30}","true","ArrowDown,ArrowRight","false","revaluation","2","8","","",""
"html-keyboard-response","301","1146229","0.0-4.0-2.1-1.54","spark_pilot_norest","12878","5","8","Female","","","","","","","null","<div style=""font-size:60px;"">+</div>","null","fixation","","","","","","","","","9","","",""
"revaluation","302","1152238","0.0-4.0-2.1-0.55","spark_pilot_norest","12878","5","8","Female","","false","","","","","[1504.7999999523163,745.2999999523163]","./assets/img/ocean/memory/29.jpg","[""ArrowDown"",""ArrowRight""]","value training","ocean","30","{""ArrowUp,ArrowLeft"":23,""ArrowUp,ArrowRight"":10,""ArrowDown,ArrowLeft"":8,""ArrowDown,ArrowRight"":30}","true","ArrowDown,ArrowRight","false","revaluation","2","10","","",""
"html-keyboard-response","303","1152740","0.0-4.0-2.1-1.55","spark_pilot_norest","12878","5","8","Female","","","","","","","null","<div style=""font-size:60px;"">+</div>","null","fixation","","","","","","","","","11","","",""
"revaluation","304","1158751","0.0-4.0-2.1-0.56","spark_pilot_norest","12878","5","8","Female","","false","","","","","[1953.5999999046326,631.2999999523163]","./assets/img/ocean/memory/41.jpg","[""ArrowDown"",""ArrowRight""]","value training","ocean","30","{""ArrowUp,ArrowLeft"":23,""ArrowUp,ArrowRight"":10,""ArrowDown,ArrowLeft"":8,""ArrowDown,ArrowRight"":30}","true","ArrowDown,ArrowRight","false","revaluation","2","12","","",""
"html-keyboard-response","305","1159252","0.0-4.0-2.1-1.56","spark_pilot_norest","12878","5","8","Female","","","","","","","null","<div style=""font-size:60px;"">+</div>","null","fixation","","","","","","","","","13","","",""
"revaluation","306","1165261","0.0-4.0-2.1-0.57","spark_pilot_norest","12878","5","8","Female","","false","","","","","[1274.7999999523163,857.8999998569489]","./assets/img/ocean/memory/26.jpg","[""ArrowDown"",""ArrowRight""]","value training","ocean","30","{""ArrowUp,ArrowLeft"":23,""ArrowUp,ArrowRight"":10,""ArrowDown,ArrowLeft"":8,""ArrowDown,ArrowRight"":30}","true","ArrowDown,ArrowRight","false","revaluation","2","14","","",""
"html-keyboard-response","307","1165763","0.0-4.0-2.1-1.57","spark_pilot_norest","12878","5","8","Female","","","","","","","null","<div style=""font-size:60px;"">+</div>","null","fixation","","","","","","","","","15","","",""
"revaluation","308","1171772","0.0-4.0-2.1-0.58","spark_pilot_norest","12878","5","8","Female","","false","","","","","[1131.5,722.5999999046326]","./assets/img/ocean/memory/17.jpg","[""ArrowDown"",""ArrowRight""]","value training","ocean","30","{""ArrowUp,ArrowLeft"":23,""ArrowUp,ArrowRight"":10,""ArrowDown,ArrowLeft"":8,""ArrowDown,ArrowRight"":30}","true","ArrowDown,ArrowRight","false","revaluation","2","16","","",""
"html-keyboard-response","309","1172274","0.0-4.0-2.1-1.58","spark_pilot_norest","12878","5","8","Female","","","","","","","null","<div style=""font-size:60px;"">+</div>","null","fixation","","","","","","","","","17","","",""
"revaluation","310","1178284","0.0-4.0-2.1-0.59","spark_pilot_norest","12878","5","8","Female","","false","","","","","[883.5,705.8000001907349]","./assets/img/ocean/memory/3.jpg","[""ArrowDown"",""ArrowRight""]","value training","ocean","30","{""ArrowUp,ArrowLeft"":23,""ArrowUp,ArrowRight"":10,""ArrowDown,ArrowLeft"":8,""ArrowDown,ArrowRight"":30}","true","ArrowDown,ArrowRight","false","revaluation","2","18","","",""
"html-keyboard-response","311","1178787","0.0-4.0-2.1-1.59","spark_pilot_norest","12878","5","8","Female","","","","","","","null","<div style=""font-size:60px;"">+</div>","null","fixation","","","","","","","","","19","","",""
