"trial_type","trial_index","time_elapsed","internal_node_id","task_version","subject_id","assigned_condition","age","gender","success","timeout","failed_images","failed_audio","failed_video","browser_interaction","rt","stimulus","response","task_part","environment","score","rewardMap","correct","fullState","isCatch","condition","order","trial_num","key_press","ground_truth","bonus"
"pavlovia","0","1836","0.0-0.0","spark_pilot_norest","8377","7","21","Female","","","","","","","","","","","","","","","","","","","","","",""
"preload","1","13403","0.0-1.0","spark_pilot_norest","8377","7","21","Female","true","false","[]","[]","[]","[{""event"":""blur"",""trial"":2,""time"":14943},{""event"":""focus"",""trial"":2,""time"":15216},{""event"":""fullscreenenter"",""trial"":2,""time"":15250},{""event"":""blur"",""trial"":391,""time"":1402527},{""event"":""focus"",""trial"":395,""time"":1424612}]","","","","","","","","","","","","","","","",""
"fullscreen","2","15460","0.0-2.0","spark_pilot_norest","8377","7","21","Female","true","","","","","","","","","","","","","","","","","","","","",""
"audio-button-response","3","22974","0.0-3.0-0.0-0.0","spark_pilot_norest","8377","7","21","Female","","","","","","","6943","./assets/audio/audiotest/turtle.mp3","4","audio_test","","","","","","","","","","","",""
"audio-button-response","4","25173","0.0-3.0-0.1-0.1","spark_pilot_norest","8377","7","21","Female","","","","","","","1196","./assets/audio/audiotest/turtle.mp3","2","audio_test","","","","","","","","","","","",""
"learning-instructions","5","33357","0.0-3.0-1.0-0.0","spark_pilot_norest","8377","7","21","Female","","","","","","","1120","<p> Welcome! Please remember to stay in fullscreen mode and don't click away from the experiment. </p>","","instructions","","","","","","","","","","","",""
"learning-instructions","6","46710","0.0-3.0-1.0-0.1","spark_pilot_norest","8377","7","21","Female","","","","","","","3733","<p> Today you will be playing a game to earn treasure. </p>
            <p> At the end of the experiment, you will earn a bonus based on how much treasure you find. </p>
            <img src='./assets/img/instructions/treasure.jpg' class='instructions-image'>","","instructions","","","","","","","","","","","",""
"learning-instructions","7","56010","0.0-3.0-1.0-0.2","spark_pilot_norest","8377","7","21","Female","","","","","","","947","<p> Animals have hidden treasure in treasure chests. </p>
            <p> You need to first find an animal and then choose which of their treasure chests to search. </p>
            <img src='./assets/img/space/animals/cat.jpg' class='instructions-image'>","","instructions","","","","","","","","","","","",""
"learning-instructions","8","70926","0.0-3.0-1.0-0.3","spark_pilot_norest","8377","7","21","Female","","","","","","","1607","<p> In each round, you will search for treasure in a different place. In the real game, there will be two rounds. </p>
            <p> You will begin with a separate, practice round where you will search for treasure in outer space. </p>
            <img src='./assets/img/space/0.jpg' class='instructions-image'>","","instructions","","","","","","","","","","","",""
"learning-instructions","9","83562","0.0-3.0-1.0-0.4","spark_pilot_norest","8377","7","21","Female","","","","","","","1028","<p> On every turn, you will see a picture of the place that you are in, but the specific image may be different each time. </p>
            <p> For example, both of these images mean you are in outer space. </p>
            <img src='./assets/img/instructions/outerspace.jpg' class='instructions-image'>","","instructions","","","","","","","","","","","",""
"learning-instructions","10","92566","0.0-3.0-1.0-0.5","spark_pilot_norest","8377","7","21","Female","","","","","","","1082","<p> You need to decide which direction to travel in. </p>
            <p> You can choose between going <b>up or down</b> by using the arrow keys. </p>
            <img src='./assets/img/instructions/updown.jpg' class='instructions-image'>","","instructions","","","","","","","","","","","",""
"learning-instructions","11","102399","0.0-3.0-1.0-0.6","spark_pilot_norest","8377","7","21","Female","","","","","","","919","<p> You will have <b>2 seconds</b> to make your choice. </p>
            <p> If you do not make a choice within 2 seconds, you will not find an animal or earn treasure. </p>
            <img src='./assets/img/instructions/2seconds.jpg' class='instructions-image'>","","instructions","","","","","","","","","","","",""
"learning-instructions","12","111032","0.0-3.0-1.0-0.7","spark_pilot_norest","8377","7","21","Female","","","","","","","1506","<p> Let’s try practicing that now! </p>
            <p> When you see a picture of the place you are in, press the <b>up</b> key to travel up. </p>
            <img src='./assets/img/instructions/pressUp.jpg' class='instructions-image'>","","instructions","","","","","","","","","","","",""
"revaluation","13","115047","0.0-3.0-2.0-0.0","spark_pilot_norest","8377","7","21","Female","","false","","","","","[501]","./assets/img/space/0.jpg","[""ArrowUp""]","first stage practice","space","0","null","null","ArrowUp","false","","","","","",""
"html-keyboard-response","14","115551","0.0-3.0-2.0-1.0","spark_pilot_norest","8377","7","21","Female","","","","","","","null","<div style=""font-size:60px;"">+</div>","null","fixation","","","","","","","","","","","",""
"revaluation","15","119562","0.0-3.0-2.0-0.1","spark_pilot_norest","8377","7","21","Female","","false","","","","","[1268]","./assets/img/space/1.jpg","[""ArrowUp""]","first stage practice","space","0","null","null","ArrowUp","false","","","","","",""
"html-keyboard-response","16","120067","0.0-3.0-2.0-1.1","spark_pilot_norest","8377","7","21","Female","","","","","","","null","<div style=""font-size:60px;"">+</div>","null","fixation","","","","","","","","","","","",""
"revaluation","17","124073","0.0-3.0-2.0-0.2","spark_pilot_norest","8377","7","21","Female","","false","","","","","[1574]","./assets/img/space/2.jpg","[""ArrowUp""]","first stage practice","space","0","null","null","ArrowUp","false","","","","","",""
"html-keyboard-response","18","124578","0.0-3.0-2.0-1.2","spark_pilot_norest","8377","7","21","Female","","","","","","","null","<div style=""font-size:60px;"">+</div>","null","fixation","","","","","","","","","","","",""
"learning-instructions","19","130101","0.0-3.0-3.0-0.0","spark_pilot_norest","8377","7","21","Female","","","","","","","755","<p> Great job! Now try pressing the <b>down</b> key to travel down. </p>
            <img src='./assets/img/instructions/pressDown.jpg' class='instructions-image'>","","instructions","","","","","","","","","","","",""
"revaluation","20","134111","0.0-3.0-4.0-0.0","spark_pilot_norest","8377","7","21","Female","","false","","","","","[769]","./assets/img/space/3.jpg","[""ArrowDown""]","first stage practice","space","0","null","null","ArrowDown","false","","","","","",""
"html-keyboard-response","21","134615","0.0-3.0-4.0-1.0","spark_pilot_norest","8377","7","21","Female","","","","","","","null","<div style=""font-size:60px;"">+</div>","null","fixation","","","","","","","","","","","",""
"revaluation","22","138627","0.0-3.0-4.0-0.1","spark_pilot_norest","8377","7","21","Female","","false","","","","","[994]","./assets/img/space/4.jpg","[""ArrowDown""]","first stage practice","space","0","null","null","ArrowDown","false","","","","","",""
"html-keyboard-response","23","139133","0.0-3.0-4.0-1.1","spark_pilot_norest","8377","7","21","Female","","","","","","","null","<div style=""font-size:60px;"">+</div>","null","fixation","","","","","","","","","","","",""
"revaluation","24","143143","0.0-3.0-4.0-0.2","spark_pilot_norest","8377","7","21","Female","","false","","","","","[473]","./assets/img/space/5.jpg","[""ArrowDown""]","first stage practice","space","0","null","null","ArrowDown","false","","","","","",""
"html-keyboard-response","25","143648","0.0-3.0-4.0-1.2","spark_pilot_norest","8377","7","21","Female","","","","","","","null","<div style=""font-size:60px;"">+</div>","null","fixation","","","","","","","","","","","",""
"learning-instructions","26","154402","0.0-3.0-5.0-0.0","spark_pilot_norest","8377","7","21","Female","","","","","","","780","<p> The animals don’t move, so the animal in the upper part of a place will stay in the upper part of a place, and the animal in the lower part of a place will stay in the lower part of a place. </p>","","instructions","","","","","","","","","","","",""
"learning-instructions","27","165188","0.0-3.0-5.0-0.1","spark_pilot_norest","8377","7","21","Female","","","","","","","1546","<p> Each animal has two treasure chests for you to choose from. </p>
            <p> The amount of treasure in each chest can range from <b> 0 to 40 pieces.</b></p>","","instructions","","","","","","","","","","","",""
"learning-instructions","28","177422","0.0-3.0-5.0-0.2","spark_pilot_norest","8377","7","21","Female","","","","","","","923","<p> You should decide which chest to search for treasure by using the <b>left</b> and <b>right</b> arrow keys. </p>
            <p><b> Pay attention to which animal is on the screen, as the animals have different treasure chests. </b></p>
            <img src='./assets/img/instructions/leftright.jpg' class='instructions-image'>","","instructions","","","","","","","","","","","",""
"learning-instructions","29","185057","0.0-3.0-5.0-0.3","spark_pilot_norest","8377","7","21","Female","","","","","","","1190","<p> Let’s try practicing that now. </p>
            <p> When you see an animal, choose which chest to search for treasure. </p>
            <img src='./assets/img/instructions/chooseChest.jpg' class='instructions-image'>","","instructions","","","","","","","","","","","",""
"revaluation","30","189068","0.0-3.0-6.0-0.0","spark_pilot_norest","8377","7","21","Female","","false","","","","","[406]","./assets/img/space/animals/cat.jpg","[""ArrowRight""]","second stage practice","space","36","{""ArrowUp,ArrowLeft"":3,""ArrowUp,ArrowRight"":36,""ArrowDown,ArrowLeft"":15,""ArrowDown,ArrowRight"":23}","true","ArrowUp,ArrowRight","","","","","","",""
"html-keyboard-response","31","189572","0.0-3.0-6.0-1.0","spark_pilot_norest","8377","7","21","Female","","","","","","","null","<div style=""font-size:60px;"">+</div>","null","fixation","","","","","","","","","","","",""
"revaluation","32","193585","0.0-3.0-6.0-0.1","spark_pilot_norest","8377","7","21","Female","","false","","","","","[593]","./assets/img/space/animals/rabbit.jpg","[""ArrowLeft""]","second stage practice","space","15","{""ArrowUp,ArrowLeft"":3,""ArrowUp,ArrowRight"":36,""ArrowDown,ArrowLeft"":15,""ArrowDown,ArrowRight"":23}","false","ArrowDown,ArrowLeft","","","","","","",""
"html-keyboard-response","33","194086","0.0-3.0-6.0-1.1","spark_pilot_norest","8377","7","21","Female","","","","","","","null","<div style=""font-size:60px;"">+</div>","null","fixation","","","","","","","","","","","",""
"revaluation","34","198095","0.0-3.0-6.0-0.2","spark_pilot_norest","8377","7","21","Female","","false","","","","","[461]","./assets/img/space/animals/cat.jpg","[""ArrowRight""]","second stage practice","space","36","{""ArrowUp,ArrowLeft"":3,""ArrowUp,ArrowRight"":36,""ArrowDown,ArrowLeft"":15,""ArrowDown,ArrowRight"":23}","true","ArrowUp,ArrowRight","","","","","","",""
"html-keyboard-response","35","198600","0.0-3.0-6.0-1.2","spark_pilot_norest","8377","7","21","Female","","","","","","","null","<div style=""font-size:60px;"">+</div>","null","fixation","","","","","","","","","","","",""
"revaluation","36","202614","0.0-3.0-6.0-0.3","spark_pilot_norest","8377","7","21","Female","","false","","","","","[367]","./assets/img/space/animals/rabbit.jpg","[""ArrowRight""]","second stage practice","space","23","{""ArrowUp,ArrowLeft"":3,""ArrowUp,ArrowRight"":36,""ArrowDown,ArrowLeft"":15,""ArrowDown,ArrowRight"":23}","true","ArrowDown,ArrowRight","","","","","","",""
"html-keyboard-response","37","203120","0.0-3.0-6.0-1.3","spark_pilot_norest","8377","7","21","Female","","","","","","","null","<div style=""font-size:60px;"">+</div>","null","fixation","","","","","","","","","","","",""
"learning-instructions","38","221043","0.0-3.0-7.0-0.0","spark_pilot_norest","8377","7","21","Female","","","","","","","929","<p> Great job. Now let’s try putting it together. </p>
            <p> On each turn, you will first see a picture to remind you of the place you are in, and you need to choose whether to go up or down. </p>
            <p> Then you will see an animal and choose which of its chests to search for treasure. </p>","","instructions","","","","","","","","","","","",""
"learning-instructions","39","230558","0.0-3.0-7.0-0.1","spark_pilot_norest","8377","7","21","Female","","","","","","","1156","<p> When you choose whether to go up or down, try to go to the animal with the chest with the most treasure. </p>
            <p> Try practicing that now! </p>","","instructions","","","","","","","","","","","",""
"revaluation","40","236571","0.0-3.0-8.0-0.0","spark_pilot_norest","8377","7","21","Female","","false","","","","","[728,633]","./assets/img/space/6.jpg","[""ArrowDown"",""ArrowRight""]","full practice","space","23","{""ArrowUp,ArrowLeft"":3,""ArrowUp,ArrowRight"":36,""ArrowDown,ArrowLeft"":15,""ArrowDown,ArrowRight"":23}","false","ArrowDown,ArrowRight","false","","","","","",""
"html-keyboard-response","41","237076","0.0-3.0-8.0-1.0","spark_pilot_norest","8377","7","21","Female","","","","","","","null","<div style=""font-size:60px;"">+</div>","null","fixation","","","","","","","","","","","",""
"revaluation","42","243087","0.0-3.0-8.0-0.1","spark_pilot_norest","8377","7","21","Female","","false","","","","","[489,581]","./assets/img/space/7.jpg","[""ArrowUp"",""ArrowRight""]","full practice","space","36","{""ArrowUp,ArrowLeft"":3,""ArrowUp,ArrowRight"":36,""ArrowDown,ArrowLeft"":15,""ArrowDown,ArrowRight"":23}","true","ArrowUp,ArrowRight","false","","","","","",""
"html-keyboard-response","43","243592","0.0-3.0-8.0-1.1","spark_pilot_norest","8377","7","21","Female","","","","","","","null","<div style=""font-size:60px;"">+</div>","null","fixation","","","","","","","","","","","",""
"revaluation","44","249604","0.0-3.0-8.0-0.2","spark_pilot_norest","8377","7","21","Female","","false","","","","","[559,657]","./assets/img/space/8.jpg","[""ArrowDown"",""ArrowLeft""]","full practice","space","15","{""ArrowUp,ArrowLeft"":3,""ArrowUp,ArrowRight"":36,""ArrowDown,ArrowLeft"":15,""ArrowDown,ArrowRight"":23}","false","ArrowDown,ArrowLeft","false","","","","","",""
"html-keyboard-response","45","250108","0.0-3.0-8.0-1.2","spark_pilot_norest","8377","7","21","Female","","","","","","","null","<div style=""font-size:60px;"">+</div>","null","fixation","","","","","","","","","","","",""
"revaluation","46","256122","0.0-3.0-8.0-0.3","spark_pilot_norest","8377","7","21","Female","","false","","","","","[393,553]","./assets/img/space/9.jpg","[""ArrowUp"",""ArrowRight""]","full practice","space","36","{""ArrowUp,ArrowLeft"":3,""ArrowUp,ArrowRight"":36,""ArrowDown,ArrowLeft"":15,""ArrowDown,ArrowRight"":23}","true","ArrowUp,ArrowRight","false","","","","","",""
"html-keyboard-response","47","256627","0.0-3.0-8.0-1.3","spark_pilot_norest","8377","7","21","Female","","","","","","","null","<div style=""font-size:60px;"">+</div>","null","fixation","","","","","","","","","","","",""
"revaluation","48","262636","0.0-3.0-8.0-0.4","spark_pilot_norest","8377","7","21","Female","","false","","","","","[560,552]","./assets/img/space/10.jpg","[""ArrowUp"",""ArrowRight""]","full practice","space","36","{""ArrowUp,ArrowLeft"":3,""ArrowUp,ArrowRight"":36,""ArrowDown,ArrowLeft"":15,""ArrowDown,ArrowRight"":23}","true","ArrowUp,ArrowRight","false","","","","","",""
"html-keyboard-response","49","263140","0.0-3.0-8.0-1.4","spark_pilot_norest","8377","7","21","Female","","","","","","","null","<div style=""font-size:60px;"">+</div>","null","fixation","","","","","","","","","","","",""
"learning-instructions","50","274796","0.0-3.0-9.0-0.0","spark_pilot_norest","8377","7","21","Female","","","","","","","1217","<p> One last thing: sometimes, you will see a robber. The robber can be anywhere in the picture. </p>
            <p> If you do not stop them, you will lose treasure. </p>
            <img src='./assets/img/instructions/robber.jpg' class='instructions-image'>","","instructions","","","","","","","","","","","",""
"learning-instructions","51","282764","0.0-3.0-9.0-0.1","spark_pilot_norest","8377","7","21","Female","","","","","","","709","<p> If you see the robber, you should <b>press the space bar</b> rather than using the arrow keys. </p>
            <p> Try practicing that now! </p>","","instructions","","","","","","","","","","","",""
"revaluation","52","286777","0.0-3.0-10.0-0.0","spark_pilot_norest","8377","7","21","Female","","false","","","","","[1126]","./assets/img/space/catch/0.jpg","[""spaceBar""]","catch practice","space","0","{""ArrowUp,ArrowLeft"":3,""ArrowUp,ArrowRight"":36,""ArrowDown,ArrowLeft"":15,""ArrowDown,ArrowRight"":23}","true","spaceBar","true","","","","","",""
"html-keyboard-response","53","287279","0.0-3.0-10.0-1.0","spark_pilot_norest","8377","7","21","Female","","","","","","","null","<div style=""font-size:60px;"">+</div>","null","fixation","","","","","","","","","","","",""
"revaluation","54","291286","0.0-3.0-10.0-0.1","spark_pilot_norest","8377","7","21","Female","","false","","","","","[477]","./assets/img/space/catch/1.jpg","[""spaceBar""]","catch practice","space","0","{""ArrowUp,ArrowLeft"":3,""ArrowUp,ArrowRight"":36,""ArrowDown,ArrowLeft"":15,""ArrowDown,ArrowRight"":23}","true","spaceBar","true","","","","","",""
"html-keyboard-response","55","291788","0.0-3.0-10.0-1.1","spark_pilot_norest","8377","7","21","Female","","","","","","","null","<div style=""font-size:60px;"">+</div>","null","fixation","","","","","","","","","","","",""
"revaluation","56","295796","0.0-3.0-10.0-0.2","spark_pilot_norest","8377","7","21","Female","","false","","","","","[538]","./assets/img/space/catch/2.jpg","[""spaceBar""]","catch practice","space","0","{""ArrowUp,ArrowLeft"":3,""ArrowUp,ArrowRight"":36,""ArrowDown,ArrowLeft"":15,""ArrowDown,ArrowRight"":23}","true","spaceBar","true","","","","","",""
"html-keyboard-response","57","296300","0.0-3.0-10.0-1.2","spark_pilot_norest","8377","7","21","Female","","","","","","","null","<div style=""font-size:60px;"">+</div>","null","fixation","","","","","","","","","","","",""
"learning-instructions","58","302667","0.0-3.0-11.0-0.0-0.0","spark_pilot_norest","8377","7","21","Female","","","","","","","1061","<p> Now, you will practice a shortened version of the game to get a sense of how it all fits together. </p>","","instructions","","","","","","","","","","","",""
"learning-instructions","59","307051","0.0-3.0-11.0-0.0-0.1","spark_pilot_norest","8377","7","21","Female","","","","","","","1137","<p>This time you are searching for treasure in outer space.</p>","","instructions","","","","","","","","","","","",""
"learning-instructions","60","322937","0.0-3.0-11.0-1.0-0.0","spark_pilot_norest","8377","7","21","Female","","","","","","","966","<p> Remember, when you see a picture of the place, use the up and down keys to <b>find an animal</b>.</p>
            <p> When you encounter an animal, you should use the left and right keys to <b>select a treasure chest</b>.</p>
            <p> Don't forget to look out for the robber! </p>","","instructions","","","","","","","","","","","",""
"revaluation","61","328950","0.0-3.0-11.0-2.0-0.0","spark_pilot_norest","8377","7","21","Female","","false","","","","","[1021,598]","./assets/img/space/11.jpg","[""ArrowDown"",""ArrowLeft""]","practice block","space","15","{""ArrowUp,ArrowLeft"":3,""ArrowUp,ArrowRight"":36,""ArrowDown,ArrowLeft"":15,""ArrowDown,ArrowRight"":23}","false","ArrowDown,ArrowLeft","false","","","","","",""
"html-keyboard-response","62","329452","0.0-3.0-11.0-2.0-1.0","spark_pilot_norest","8377","7","21","Female","","","","","","","null","<div style=""font-size:60px;"">+</div>","null","fixation","","","","","","","","","","","",""
"revaluation","63","335462","0.0-3.0-11.0-2.0-0.1","spark_pilot_norest","8377","7","21","Female","","false","","","","","[1163,696]","./assets/img/space/12.jpg","[""ArrowDown"",""ArrowRight""]","practice block","space","23","{""ArrowUp,ArrowLeft"":3,""ArrowUp,ArrowRight"":36,""ArrowDown,ArrowLeft"":15,""ArrowDown,ArrowRight"":23}","false","ArrowDown,ArrowRight","false","","","","","",""
"html-keyboard-response","64","335966","0.0-3.0-11.0-2.0-1.1","spark_pilot_norest","8377","7","21","Female","","","","","","","null","<div style=""font-size:60px;"">+</div>","null","fixation","","","","","","","","","","","",""
"revaluation","65","341982","0.0-3.0-11.0-2.0-0.2","spark_pilot_norest","8377","7","21","Female","","false","","","","","[435,457]","./assets/img/space/13.jpg","[""ArrowUp"",""ArrowRight""]","practice block","space","36","{""ArrowUp,ArrowLeft"":3,""ArrowUp,ArrowRight"":36,""ArrowDown,ArrowLeft"":15,""ArrowDown,ArrowRight"":23}","true","ArrowUp,ArrowRight","false","","","","","",""
"html-keyboard-response","66","342486","0.0-3.0-11.0-2.0-1.2","spark_pilot_norest","8377","7","21","Female","","","","","","","null","<div style=""font-size:60px;"">+</div>","null","fixation","","","","","","","","","","","",""
"revaluation","67","348498","0.0-3.0-11.0-2.0-0.3","spark_pilot_norest","8377","7","21","Female","","false","","","","","[413,420]","./assets/img/space/14.jpg","[""ArrowUp"",""ArrowRight""]","practice block","space","36","{""ArrowUp,ArrowLeft"":3,""ArrowUp,ArrowRight"":36,""ArrowDown,ArrowLeft"":15,""ArrowDown,ArrowRight"":23}","true","ArrowUp,ArrowRight","false","","","","","",""
"html-keyboard-response","68","349000","0.0-3.0-11.0-2.0-1.3","spark_pilot_norest","8377","7","21","Female","","","","","","","null","<div style=""font-size:60px;"">+</div>","null","fixation","","","","","","","","","","","",""
"revaluation","69","355008","0.0-3.0-11.0-2.0-0.4","spark_pilot_norest","8377","7","21","Female","","false","","","","","[528,375]","./assets/img/space/11.jpg","[""ArrowUp"",""ArrowRight""]","practice block","space","36","{""ArrowUp,ArrowLeft"":3,""ArrowUp,ArrowRight"":36,""ArrowDown,ArrowLeft"":15,""ArrowDown,ArrowRight"":23}","true","ArrowUp,ArrowRight","false","","","","","",""
"html-keyboard-response","70","355513","0.0-3.0-11.0-2.0-1.4","spark_pilot_norest","8377","7","21","Female","","","","","","","null","<div style=""font-size:60px;"">+</div>","null","fixation","","","","","","","","","","","",""
"revaluation","71","361528","0.0-3.0-11.0-2.0-0.5","spark_pilot_norest","8377","7","21","Female","","false","","","","","[736,379]","./assets/img/space/12.jpg","[""ArrowUp"",""ArrowRight""]","practice block","space","36","{""ArrowUp,ArrowLeft"":3,""ArrowUp,ArrowRight"":36,""ArrowDown,ArrowLeft"":15,""ArrowDown,ArrowRight"":23}","true","ArrowUp,ArrowRight","false","","","","","",""
"html-keyboard-response","72","362031","0.0-3.0-11.0-2.0-1.5","spark_pilot_norest","8377","7","21","Female","","","","","","","null","<div style=""font-size:60px;"">+</div>","null","fixation","","","","","","","","","","","",""
"revaluation","73","368047","0.0-3.0-11.0-2.0-0.6","spark_pilot_norest","8377","7","21","Female","","false","","","","","[592,329]","./assets/img/space/13.jpg","[""ArrowUp"",""ArrowRight""]","practice block","space","36","{""ArrowUp,ArrowLeft"":3,""ArrowUp,ArrowRight"":36,""ArrowDown,ArrowLeft"":15,""ArrowDown,ArrowRight"":23}","true","ArrowUp,ArrowRight","false","","","","","",""
"html-keyboard-response","74","368549","0.0-3.0-11.0-2.0-1.6","spark_pilot_norest","8377","7","21","Female","","","","","","","null","<div style=""font-size:60px;"">+</div>","null","fixation","","","","","","","","","","","",""
"revaluation","75","374560","0.0-3.0-11.0-2.0-0.7","spark_pilot_norest","8377","7","21","Female","","false","","","","","[506,987]","./assets/img/space/14.jpg","[""ArrowUp"",""ArrowRight""]","practice block","space","36","{""ArrowUp,ArrowLeft"":3,""ArrowUp,ArrowRight"":36,""ArrowDown,ArrowLeft"":15,""ArrowDown,ArrowRight"":23}","true","ArrowUp,ArrowRight","false","","","","","",""
"html-keyboard-response","76","375064","0.0-3.0-11.0-2.0-1.7","spark_pilot_norest","8377","7","21","Female","","","","","","","null","<div style=""font-size:60px;"">+</div>","null","fixation","","","","","","","","","","","",""
"revaluation","77","379071","0.0-3.0-11.0-2.0-0.8","spark_pilot_norest","8377","7","21","Female","","false","","","","","[1102]","./assets/img/space/catch/3.jpg","[""spaceBar""]","practice block","space","0","{""ArrowUp,ArrowLeft"":3,""ArrowUp,ArrowRight"":36,""ArrowDown,ArrowLeft"":15,""ArrowDown,ArrowRight"":23}","true","spaceBar","true","","","","","",""
"html-keyboard-response","78","379575","0.0-3.0-11.0-2.0-1.8","spark_pilot_norest","8377","7","21","Female","","","","","","","null","<div style=""font-size:60px;"">+</div>","null","fixation","","","","","","","","","","","",""
"learning-instructions","79","393526","0.0-3.0-11.0-3.0-0.0","spark_pilot_norest","8377","7","21","Female","","","","","","","884","<p> Now, you will travel with a friend who will choose whether you go up or down first. </p>
            <p> On these turns, you will just see the animal that they found. You will still get to choose which chest to search for treasure.</p>","","instructions","","","","","","","","","","","",""
"revaluation","80","397537","0.0-3.0-11.0-4.0-0.0","spark_pilot_norest","8377","7","21","Female","","false","","","","","[979]","./assets/img/space/animals/cat.jpg","[""ArrowRight""]","practice block","space","36","{""ArrowUp,ArrowLeft"":3,""ArrowUp,ArrowRight"":36,""ArrowDown,ArrowLeft"":15,""ArrowDown,ArrowRight"":23}","true","ArrowUp,ArrowRight","","","","","","",""
"html-keyboard-response","81","398040","0.0-3.0-11.0-4.0-1.0","spark_pilot_norest","8377","7","21","Female","","","","","","","null","<div style=""font-size:60px;"">+</div>","null","fixation","","","","","","","","","","","",""
"revaluation","82","402048","0.0-3.0-11.0-4.0-0.1","spark_pilot_norest","8377","7","21","Female","","false","","","","","[645]","./assets/img/space/animals/rabbit.jpg","[""ArrowRight""]","practice block","space","23","{""ArrowUp,ArrowLeft"":3,""ArrowUp,ArrowRight"":36,""ArrowDown,ArrowLeft"":15,""ArrowDown,ArrowRight"":23}","true","ArrowDown,ArrowRight","","","","","","",""
"html-keyboard-response","83","402552","0.0-3.0-11.0-4.0-1.1","spark_pilot_norest","8377","7","21","Female","","","","","","","null","<div style=""font-size:60px;"">+</div>","null","fixation","","","","","","","","","","","",""
"revaluation","84","406564","0.0-3.0-11.0-4.0-0.2","spark_pilot_norest","8377","7","21","Female","","false","","","","","[447]","./assets/img/space/animals/cat.jpg","[""ArrowRight""]","practice block","space","36","{""ArrowUp,ArrowLeft"":3,""ArrowUp,ArrowRight"":36,""ArrowDown,ArrowLeft"":15,""ArrowDown,ArrowRight"":23}","true","ArrowUp,ArrowRight","","","","","","",""
"html-keyboard-response","85","407069","0.0-3.0-11.0-4.0-1.2","spark_pilot_norest","8377","7","21","Female","","","","","","","null","<div style=""font-size:60px;"">+</div>","null","fixation","","","","","","","","","","","",""
"revaluation","86","411074","0.0-3.0-11.0-4.0-0.3","spark_pilot_norest","8377","7","21","Female","","false","","","","","[517]","./assets/img/space/animals/rabbit.jpg","[""ArrowRight""]","practice block","space","23","{""ArrowUp,ArrowLeft"":3,""ArrowUp,ArrowRight"":36,""ArrowDown,ArrowLeft"":15,""ArrowDown,ArrowRight"":23}","true","ArrowDown,ArrowRight","","","","","","",""
"html-keyboard-response","87","411579","0.0-3.0-11.0-4.0-1.3","spark_pilot_norest","8377","7","21","Female","","","","","","","null","<div style=""font-size:60px;"">+</div>","null","fixation","","","","","","","","","","","",""
"learning-instructions","88","419782","0.0-3.0-11.0-5.0-0.0","spark_pilot_norest","8377","7","21","Female","","","","","","","null","<p> You have almost finished this part of the game! </p>
            <p> We are going to ask you to make a few more choices. </p>","","instructions","","","","","","","","","","","",""
"learning-instructions","89","435941","0.0-3.0-11.0-5.0-0.1","spark_pilot_norest","8377","7","21","Female","","","","","","","null","<p> First, you need to decide whether to go up or down. When you see each picture, use the arrow keys to make your choice. </p>
            <p><b>You will not see which animal you found, but try to get to the one that will give you the most treasure.</b></p>","","instructions","","","","","","","","","","","",""
"html-keyboard-response","90","436943","0.0-3.0-11.0-6.0-0.0","spark_pilot_norest","8377","7","21","Female","","","","","","","null","<div style=""font-size:100px;color:red;"">Starting in...</div>","null","","","","","","","","","","","","",""
"html-keyboard-response","91","437948","0.0-3.0-11.0-6.0-1.0","spark_pilot_norest","8377","7","21","Female","","","","","","","null","<div style=""font-size:200px;color:red;"">3</div>","null","","","","","","","","","","","","",""
"html-keyboard-response","92","438953","0.0-3.0-11.0-6.0-2.0","spark_pilot_norest","8377","7","21","Female","","","","","","","null","<div style=""font-size:200px;color:red;"">2</div>","null","","","","","","","","","","","","",""
"html-keyboard-response","93","439955","0.0-3.0-11.0-6.0-3.0","spark_pilot_norest","8377","7","21","Female","","","","","","","null","<div style=""font-size:200px;color:red;"">1</div>","null","","","","","","","","","","","","",""
"revaluation","94","440490","0.0-3.0-11.0-7.0","spark_pilot_norest","8377","7","21","Female","","false","","","","","[531]","./assets/img/space/15.jpg","[""ArrowUp""]","practice block","space","0","{""ArrowUp,ArrowLeft"":3,""ArrowUp,ArrowRight"":36,""ArrowDown,ArrowLeft"":15,""ArrowDown,ArrowRight"":23}","true","ArrowUp","false","","","","","",""
"html-keyboard-response","95","440992","0.0-3.0-11.0-8.0","spark_pilot_norest","8377","7","21","Female","","","","","","","null","<div style=""font-size:60px;"">+</div>","null","fixation","","","","","","","","","","","",""
"learning-instructions","96","454496","0.0-3.0-11.0-9.0-0.0","spark_pilot_norest","8377","7","21","Female","","","","","","","null","<p> Now you will see the animals again and can search their chests for treasure. </p>
            <p> This time, you will not see how much treasure you earned, but you will earn more bonus money for making better choices. </p>","","instructions","","","","","","","","","","","",""
"html-keyboard-response","97","455501","0.0-3.0-11.0-10.0-0.0","spark_pilot_norest","8377","7","21","Female","","","","","","","null","<div style=""font-size:100px;color:red;"">Starting in...</div>","null","","","","","","","","","","","","",""
"html-keyboard-response","98","456505","0.0-3.0-11.0-10.0-1.0","spark_pilot_norest","8377","7","21","Female","","","","","","","null","<div style=""font-size:200px;color:red;"">3</div>","null","","","","","","","","","","","","",""
"html-keyboard-response","99","457510","0.0-3.0-11.0-10.0-2.0","spark_pilot_norest","8377","7","21","Female","","","","","","","null","<div style=""font-size:200px;color:red;"">2</div>","null","","","","","","","","","","","","",""
"html-keyboard-response","100","458513","0.0-3.0-11.0-10.0-3.0","spark_pilot_norest","8377","7","21","Female","","","","","","","null","<div style=""font-size:200px;color:red;"">1</div>","null","","","","","","","","","","","","",""
"revaluation","101","459174","0.0-3.0-11.0-11.0-0.0","spark_pilot_norest","8377","7","21","Female","","false","","","","","[659]","./assets/img/space/animals/cat.jpg","[""ArrowRight""]","practice block","space","0","{""ArrowUp,ArrowLeft"":3,""ArrowUp,ArrowRight"":36,""ArrowDown,ArrowLeft"":15,""ArrowDown,ArrowRight"":23}","true","ArrowUp,ArrowRight","","","","","","",""
"html-keyboard-response","102","459677","0.0-3.0-11.0-11.0-1.0","spark_pilot_norest","8377","7","21","Female","","","","","","","null","<div style=""font-size:60px;"">+</div>","null","fixation","","","","","","","","","","","",""
"revaluation","103","460289","0.0-3.0-11.0-11.0-0.1","spark_pilot_norest","8377","7","21","Female","","false","","","","","[610]","./assets/img/space/animals/rabbit.jpg","[""ArrowRight""]","practice block","space","0","{""ArrowUp,ArrowLeft"":3,""ArrowUp,ArrowRight"":36,""ArrowDown,ArrowLeft"":15,""ArrowDown,ArrowRight"":23}","true","ArrowDown,ArrowRight","","","","","","",""
"html-keyboard-response","104","460795","0.0-3.0-11.0-11.0-1.1","spark_pilot_norest","8377","7","21","Female","","","","","","","null","<div style=""font-size:60px;"">+</div>","null","fixation","","","","","","","","","","","",""
"learning-instructions","105","467217","0.0-3.0-12.0-0.0","spark_pilot_norest","8377","7","21","Female","","","","","","","1777","<p> Before you start, we're going to ask you a few questions about how the game works. </p>","","instructions","","","","","","","","","","","",""
"comp-q","106","473900","0.0-3.0-13.0-0.0-0.0","spark_pilot_norest","8377","7","21","Female","","","","","","","1029","<p> <b> True or False? </b> </p>
            <p> There can be 50 pieces of treasure in a given animal's chest. </p>","0","comp_question","","","","false","","","","","","","",""
"comp-q","107","481486","0.0-3.0-13.0-0.0-1.0","spark_pilot_norest","8377","7","21","Female","","","","","","","974","<p> <b>Incorrect.</b> The amount of treasure in each chest can range from 0 to 40 pieces. </p>","0","comp_answer","","","","","","","","","","","",""
"comp-q","108","487652","0.0-3.0-13.0-0.1-0.1","spark_pilot_norest","8377","7","21","Female","","","","","","","593","<p> <b> True or False? </b> </p>
            <p> There can be 50 pieces of treasure in a given animal's chest. </p>","1","comp_question","","","","true","","","","","","","",""
"comp-q","109","495703","0.0-3.0-13.0-0.1-1.1","spark_pilot_norest","8377","7","21","Female","","","","","","","1307","<p> <b> That's right! </b> The amount of treasure in each chest can range from 0 to 40 pieces. </p>","0","comp_answer","","","","","","","","","","","",""
"comp-q","110","505454","0.0-3.0-13.0-0.2-0.2","spark_pilot_norest","8377","7","21","Female","","","","","","","2547","<p> <b> True or False? </b> </p><p> In this game, all animals have the same amount of treasure in their left and right chests. </p>","1","comp_question","","","","true","","","","","","","",""
"comp-q","111","512304","0.0-3.0-13.0-0.2-1.2","spark_pilot_norest","8377","7","21","Female","","","","","","","1537","<p> <b> That's right! </b> Animals have different amounts of treasure in their treasure chests. </p>","0","comp_answer","","","","","","","","","","","",""
"comp-q","112","519038","0.0-3.0-13.0-0.3-0.3","spark_pilot_norest","8377","7","21","Female","","","","","","","804","<p> <b> True or False? </b> </p><p> The same animal will always be there if you go up in the same place. </p>","0","comp_question","","","","true","","","","","","","",""
"comp-q","113","527355","0.0-3.0-13.0-0.3-1.3","spark_pilot_norest","8377","7","21","Female","","","","","","","1796","<p> <b> That's right! </b> One animal lives in the upper part and one lives in the lower part of every place. </p>","0","comp_answer","","","","","","","","","","","",""
"comp-q","114","534673","0.0-3.0-13.0-0.4-0.4","spark_pilot_norest","8377","7","21","Female","","","","","","","1732","<p> <b> True or False? </b> </p><p> If you see a different picture, it means you are in a new place. </p>","1","comp_question","","","","true","","","","","","","",""
"comp-q","115","547041","0.0-3.0-13.0-0.4-1.4","spark_pilot_norest","8377","7","21","Female","","","","","","","1013","<p> <b> That's right! </b> Lots of different images may show the same place. For example,  you may see three different images that all remind you that you are in outer space. </p>","0","comp_answer","","","","","","","","","","","",""
"learning-instructions","116","559042","0.0-3.0-14.0-0.0","spark_pilot_norest","8377","7","21","Female","","","","","","","2033","<p> Good job. Remember to do your best because the amount of treasure you earn will be converted into bonus money. </p>
            <p> It’s time to start the real game! </p>","","instructions","","","","","","","","","","","",""
"learning-instructions","117","563910","0.0-4.0-0.0-0.0","spark_pilot_norest","8377","7","21","Female","","","","","","","2058","<p> This time you are searching for treasure in the <b>canyon</b>.</p>","","instructions","","","","","","","","","","","",""
"learning-instructions","118","582661","0.0-4.0-0.0-0.1","spark_pilot_norest","8377","7","21","Female","","","","","","","1258","<p><b>New</b> animals with <b>new</b> treasure chests live here. You need to explore to discover where the animal with the best treasure chest is.</p>
                    <p> Like before, once you figure out which animal has the chest with the most treasure, you should try to get to that animal and select that chest! </p>","","instructions","","","","","","","","","","","",""
"learning-instructions","119","598495","0.0-4.0-1.0-0.0","spark_pilot_norest","8377","7","21","Female","","","","","","","1092","<p> Remember, when you see a picture of the place, use the up and down keys to <b>find an animal</b>.</p>
            <p> When you encounter an animal, you should use the left and right keys to <b>select a treasure chest</b>.</p>
            <p> Don't forget to look out for the robber! </p>","","instructions","","","","","","","","","","","",""
"revaluation","120","604509","0.0-4.0-2.0-0.0","spark_pilot_norest","8377","7","21","Female","","false","","","","","[1135,761]","./assets/img/canyon/memory/8.jpg","[""ArrowDown"",""ArrowRight""]","value training","canyon","30","{""ArrowUp,ArrowLeft"":23,""ArrowUp,ArrowRight"":10,""ArrowDown,ArrowLeft"":8,""ArrowDown,ArrowRight"":30}","true","ArrowDown,ArrowRight","false","original","1","0","","",""
"html-keyboard-response","121","605013","0.0-4.0-2.0-1.0","spark_pilot_norest","8377","7","21","Female","","","","","","","null","<div style=""font-size:60px;"">+</div>","null","fixation","","","","","","","","","1","","",""
"revaluation","122","611022","0.0-4.0-2.0-0.1","spark_pilot_norest","8377","7","21","Female","","false","","","","","[1018,863]","./assets/img/canyon/memory/33.jpg","[""ArrowDown"",""ArrowLeft""]","value training","canyon","8","{""ArrowUp,ArrowLeft"":23,""ArrowUp,ArrowRight"":10,""ArrowDown,ArrowLeft"":8,""ArrowDown,ArrowRight"":30}","false","ArrowDown,ArrowLeft","false","original","1","2","","",""
"html-keyboard-response","123","611526","0.0-4.0-2.0-1.1","spark_pilot_norest","8377","7","21","Female","","","","","","","null","<div style=""font-size:60px;"">+</div>","null","fixation","","","","","","","","","3","","",""
"revaluation","124","617538","0.0-4.0-2.0-0.2","spark_pilot_norest","8377","7","21","Female","","false","","","","","[1117,390]","./assets/img/canyon/memory/37.jpg","[""ArrowDown"",""ArrowRight""]","value training","canyon","30","{""ArrowUp,ArrowLeft"":23,""ArrowUp,ArrowRight"":10,""ArrowDown,ArrowLeft"":8,""ArrowDown,ArrowRight"":30}","true","ArrowDown,ArrowRight","false","original","1","4","","",""
"html-keyboard-response","125","618040","0.0-4.0-2.0-1.2","spark_pilot_norest","8377","7","21","Female","","","","","","","null","<div style=""font-size:60px;"">+</div>","null","fixation","","","","","","","","","5","","",""
"revaluation","126","624054","0.0-4.0-2.0-0.3","spark_pilot_norest","8377","7","21","Female","","false","","","","","[628,710]","./assets/img/canyon/memory/9.jpg","[""ArrowUp"",""ArrowRight""]","value training","canyon","10","{""ArrowUp,ArrowLeft"":23,""ArrowUp,ArrowRight"":10,""ArrowDown,ArrowLeft"":8,""ArrowDown,ArrowRight"":30}","false","ArrowUp,ArrowRight","false","original","1","6","","",""
"html-keyboard-response","127","624559","0.0-4.0-2.0-1.3","spark_pilot_norest","8377","7","21","Female","","","","","","","null","<div style=""font-size:60px;"">+</div>","null","fixation","","","","","","","","","7","","",""
"revaluation","128","630576","0.0-4.0-2.0-0.4","spark_pilot_norest","8377","7","21","Female","","false","","","","","[984,458]","./assets/img/canyon/memory/2.jpg","[""ArrowUp"",""ArrowLeft""]","value training","canyon","23","{""ArrowUp,ArrowLeft"":23,""ArrowUp,ArrowRight"":10,""ArrowDown,ArrowLeft"":8,""ArrowDown,ArrowRight"":30}","false","ArrowUp,ArrowLeft","false","original","1","8","","",""
"html-keyboard-response","129","631078","0.0-4.0-2.0-1.4","spark_pilot_norest","8377","7","21","Female","","","","","","","null","<div style=""font-size:60px;"">+</div>","null","fixation","","","","","","","","","9","","",""
"revaluation","130","637097","0.0-4.0-2.0-0.5","spark_pilot_norest","8377","7","21","Female","","false","","","","","[690,691]","./assets/img/canyon/memory/35.jpg","[""ArrowUp"",""ArrowLeft""]","value training","canyon","23","{""ArrowUp,ArrowLeft"":23,""ArrowUp,ArrowRight"":10,""ArrowDown,ArrowLeft"":8,""ArrowDown,ArrowRight"":30}","false","ArrowUp,ArrowLeft","false","original","1","10","","",""
"html-keyboard-response","131","637603","0.0-4.0-2.0-1.5","spark_pilot_norest","8377","7","21","Female","","","","","","","null","<div style=""font-size:60px;"">+</div>","null","fixation","","","","","","","","","11","","",""
"revaluation","132","643624","0.0-4.0-2.0-0.6","spark_pilot_norest","8377","7","21","Female","","false","","","","","[515,580]","./assets/img/canyon/memory/3.jpg","[""ArrowDown"",""ArrowRight""]","value training","canyon","30","{""ArrowUp,ArrowLeft"":23,""ArrowUp,ArrowRight"":10,""ArrowDown,ArrowLeft"":8,""ArrowDown,ArrowRight"":30}","true","ArrowDown,ArrowRight","false","original","1","12","","",""
"html-keyboard-response","133","644126","0.0-4.0-2.0-1.6","spark_pilot_norest","8377","7","21","Female","","","","","","","null","<div style=""font-size:60px;"">+</div>","null","fixation","","","","","","","","","13","","",""
"revaluation","134","650141","0.0-4.0-2.0-0.7","spark_pilot_norest","8377","7","21","Female","","false","","","","","[570,398]","./assets/img/canyon/memory/41.jpg","[""ArrowDown"",""ArrowRight""]","value training","canyon","30","{""ArrowUp,ArrowLeft"":23,""ArrowUp,ArrowRight"":10,""ArrowDown,ArrowLeft"":8,""ArrowDown,ArrowRight"":30}","true","ArrowDown,ArrowRight","false","original","1","14","","",""
"html-keyboard-response","135","650647","0.0-4.0-2.0-1.7","spark_pilot_norest","8377","7","21","Female","","","","","","","null","<div style=""font-size:60px;"">+</div>","null","fixation","","","","","","","","","15","","",""
"revaluation","136","656664","0.0-4.0-2.0-0.8","spark_pilot_norest","8377","7","21","Female","","false","","","","","[469,420]","./assets/img/canyon/memory/4.jpg","[""ArrowDown"",""ArrowRight""]","value training","canyon","30","{""ArrowUp,ArrowLeft"":23,""ArrowUp,ArrowRight"":10,""ArrowDown,ArrowLeft"":8,""ArrowDown,ArrowRight"":30}","true","ArrowDown,ArrowRight","false","original","1","16","","",""
"html-keyboard-response","137","657169","0.0-4.0-2.0-1.8","spark_pilot_norest","8377","7","21","Female","","","","","","","null","<div style=""font-size:60px;"">+</div>","null","fixation","","","","","","","","","17","","",""
"revaluation","138","661178","0.0-4.0-2.0-0.9","spark_pilot_norest","8377","7","21","Female","","false","","","","","[414]","./assets/img/canyon/catch/5.jpg","[""ArrowDown""]","value training","canyon","-10","{""ArrowUp,ArrowLeft"":23,""ArrowUp,ArrowRight"":10,""ArrowDown,ArrowLeft"":8,""ArrowDown,ArrowRight"":30}","false","ArrowDown","true","original","1","18","","",""
"html-keyboard-response","139","661682","0.0-4.0-2.0-1.9","spark_pilot_norest","8377","7","21","Female","","","","","","","null","<div style=""font-size:60px;"">+</div>","null","fixation","","","","","","","","","19","","",""
"revaluation","140","667699","0.0-4.0-2.0-0.10","spark_pilot_norest","8377","7","21","Female","","false","","","","","[803,449]","./assets/img/canyon/memory/38.jpg","[""ArrowDown"",""ArrowRight""]","value training","canyon","30","{""ArrowUp,ArrowLeft"":23,""ArrowUp,ArrowRight"":10,""ArrowDown,ArrowLeft"":8,""ArrowDown,ArrowRight"":30}","true","ArrowDown,ArrowRight","false","original","1","20","","",""
"html-keyboard-response","141","668204","0.0-4.0-2.0-1.10","spark_pilot_norest","8377","7","21","Female","","","","","","","null","<div style=""font-size:60px;"">+</div>","null","fixation","","","","","","","","","21","","",""
"revaluation","142","674219","0.0-4.0-2.0-0.11","spark_pilot_norest","8377","7","21","Female","","false","","","","","[451,459]","./assets/img/canyon/memory/8.jpg","[""ArrowDown"",""ArrowRight""]","value training","canyon","30","{""ArrowUp,ArrowLeft"":23,""ArrowUp,ArrowRight"":10,""ArrowDown,ArrowLeft"":8,""ArrowDown,ArrowRight"":30}","true","ArrowDown,ArrowRight","false","original","1","22","","",""
"html-keyboard-response","143","674725","0.0-4.0-2.0-1.11","spark_pilot_norest","8377","7","21","Female","","","","","","","null","<div style=""font-size:60px;"">+</div>","null","fixation","","","","","","","","","23","","",""
"revaluation","144","680739","0.0-4.0-2.0-0.12","spark_pilot_norest","8377","7","21","Female","","false","","","","","[632,408]","./assets/img/canyon/memory/0.jpg","[""ArrowDown"",""ArrowRight""]","value training","canyon","30","{""ArrowUp,ArrowLeft"":23,""ArrowUp,ArrowRight"":10,""ArrowDown,ArrowLeft"":8,""ArrowDown,ArrowRight"":30}","true","ArrowDown,ArrowRight","false","original","1","24","","",""
"html-keyboard-response","145","681245","0.0-4.0-2.0-1.12","spark_pilot_norest","8377","7","21","Female","","","","","","","null","<div style=""font-size:60px;"">+</div>","null","fixation","","","","","","","","","25","","",""
"revaluation","146","687254","0.0-4.0-2.0-0.13","spark_pilot_norest","8377","7","21","Female","","false","","","","","[457,729]","./assets/img/canyon/memory/4.jpg","[""ArrowDown"",""ArrowRight""]","value training","canyon","30","{""ArrowUp,ArrowLeft"":23,""ArrowUp,ArrowRight"":10,""ArrowDown,ArrowLeft"":8,""ArrowDown,ArrowRight"":30}","true","ArrowDown,ArrowRight","false","original","1","26","","",""
"html-keyboard-response","147","687757","0.0-4.0-2.0-1.13","spark_pilot_norest","8377","7","21","Female","","","","","","","null","<div style=""font-size:60px;"">+</div>","null","fixation","","","","","","","","","27","","",""
"revaluation","148","693769","0.0-4.0-2.0-0.14","spark_pilot_norest","8377","7","21","Female","","false","","","","","[397,1044]","./assets/img/canyon/memory/39.jpg","[""ArrowDown"",""ArrowRight""]","value training","canyon","30","{""ArrowUp,ArrowLeft"":23,""ArrowUp,ArrowRight"":10,""ArrowDown,ArrowLeft"":8,""ArrowDown,ArrowRight"":30}","true","ArrowDown,ArrowRight","false","original","1","28","","",""
"html-keyboard-response","149","694275","0.0-4.0-2.0-1.14","spark_pilot_norest","8377","7","21","Female","","","","","","","null","<div style=""font-size:60px;"">+</div>","null","fixation","","","","","","","","","29","","",""
"revaluation","150","700287","0.0-4.0-2.0-0.15","spark_pilot_norest","8377","7","21","Female","","false","","","","","[502,388]","./assets/img/canyon/memory/36.jpg","[""ArrowDown"",""ArrowRight""]","value training","canyon","30","{""ArrowUp,ArrowLeft"":23,""ArrowUp,ArrowRight"":10,""ArrowDown,ArrowLeft"":8,""ArrowDown,ArrowRight"":30}","true","ArrowDown,ArrowRight","false","original","1","30","","",""
"html-keyboard-response","151","700792","0.0-4.0-2.0-1.15","spark_pilot_norest","8377","7","21","Female","","","","","","","null","<div style=""font-size:60px;"">+</div>","null","fixation","","","","","","","","","31","","",""
"revaluation","152","706806","0.0-4.0-2.0-0.16","spark_pilot_norest","8377","7","21","Female","","false","","","","","[504,461]","./assets/img/canyon/memory/3.jpg","[""ArrowDown"",""ArrowRight""]","value training","canyon","30","{""ArrowUp,ArrowLeft"":23,""ArrowUp,ArrowRight"":10,""ArrowDown,ArrowLeft"":8,""ArrowDown,ArrowRight"":30}","true","ArrowDown,ArrowRight","false","original","1","32","","",""
"html-keyboard-response","153","707311","0.0-4.0-2.0-1.16","spark_pilot_norest","8377","7","21","Female","","","","","","","null","<div style=""font-size:60px;"">+</div>","null","fixation","","","","","","","","","33","","",""
"revaluation","154","713326","0.0-4.0-2.0-0.17","spark_pilot_norest","8377","7","21","Female","","false","","","","","[588,391]","./assets/img/canyon/memory/34.jpg","[""ArrowDown"",""ArrowRight""]","value training","canyon","30","{""ArrowUp,ArrowLeft"":23,""ArrowUp,ArrowRight"":10,""ArrowDown,ArrowLeft"":8,""ArrowDown,ArrowRight"":30}","true","ArrowDown,ArrowRight","false","original","1","34","","",""
"html-keyboard-response","155","713831","0.0-4.0-2.0-1.17","spark_pilot_norest","8377","7","21","Female","","","","","","","null","<div style=""font-size:60px;"">+</div>","null","fixation","","","","","","","","","35","","",""
"revaluation","156","719845","0.0-4.0-2.0-0.18","spark_pilot_norest","8377","7","21","Female","","false","","","","","[596,507]","./assets/img/canyon/memory/5.jpg","[""ArrowDown"",""ArrowRight""]","value training","canyon","30","{""ArrowUp,ArrowLeft"":23,""ArrowUp,ArrowRight"":10,""ArrowDown,ArrowLeft"":8,""ArrowDown,ArrowRight"":30}","true","ArrowDown,ArrowRight","false","original","1","36","","",""
"html-keyboard-response","157","720348","0.0-4.0-2.0-1.18","spark_pilot_norest","8377","7","21","Female","","","","","","","null","<div style=""font-size:60px;"">+</div>","null","fixation","","","","","","","","","37","","",""
"revaluation","158","726358","0.0-4.0-2.0-0.19","spark_pilot_norest","8377","7","21","Female","","false","","","","","[623,483]","./assets/img/canyon/memory/40.jpg","[""ArrowDown"",""ArrowRight""]","value training","canyon","30","{""ArrowUp,ArrowLeft"":23,""ArrowUp,ArrowRight"":10,""ArrowDown,ArrowLeft"":8,""ArrowDown,ArrowRight"":30}","true","ArrowDown,ArrowRight","false","original","1","38","","",""
"html-keyboard-response","159","726863","0.0-4.0-2.0-1.19","spark_pilot_norest","8377","7","21","Female","","","","","","","null","<div style=""font-size:60px;"">+</div>","null","fixation","","","","","","","","","39","","",""
"revaluation","160","732872","0.0-4.0-2.0-0.20","spark_pilot_norest","8377","7","21","Female","","false","","","","","[354,548]","./assets/img/canyon/memory/37.jpg","[""ArrowDown"",""ArrowRight""]","value training","canyon","30","{""ArrowUp,ArrowLeft"":23,""ArrowUp,ArrowRight"":10,""ArrowDown,ArrowLeft"":8,""ArrowDown,ArrowRight"":30}","true","ArrowDown,ArrowRight","false","original","1","40","","",""
"html-keyboard-response","161","733376","0.0-4.0-2.0-1.20","spark_pilot_norest","8377","7","21","Female","","","","","","","null","<div style=""font-size:60px;"">+</div>","null","fixation","","","","","","","","","41","","",""
"revaluation","162","737384","0.0-4.0-2.0-0.21","spark_pilot_norest","8377","7","21","Female","","false","","","","","[803]","./assets/img/canyon/catch/6.jpg","[""spaceBar""]","value training","canyon","0","{""ArrowUp,ArrowLeft"":23,""ArrowUp,ArrowRight"":10,""ArrowDown,ArrowLeft"":8,""ArrowDown,ArrowRight"":30}","true","spaceBar","true","original","1","42","","",""
"html-keyboard-response","163","737888","0.0-4.0-2.0-1.21","spark_pilot_norest","8377","7","21","Female","","","","","","","null","<div style=""font-size:60px;"">+</div>","null","fixation","","","","","","","","","43","","",""
"revaluation","164","743896","0.0-4.0-2.0-0.22","spark_pilot_norest","8377","7","21","Female","","false","","","","","[472,486]","./assets/img/canyon/memory/32.jpg","[""ArrowDown"",""ArrowRight""]","value training","canyon","30","{""ArrowUp,ArrowLeft"":23,""ArrowUp,ArrowRight"":10,""ArrowDown,ArrowLeft"":8,""ArrowDown,ArrowRight"":30}","true","ArrowDown,ArrowRight","false","original","1","44","","",""
"html-keyboard-response","165","744401","0.0-4.0-2.0-1.22","spark_pilot_norest","8377","7","21","Female","","","","","","","null","<div style=""font-size:60px;"">+</div>","null","fixation","","","","","","","","","45","","",""
"revaluation","166","750409","0.0-4.0-2.0-0.23","spark_pilot_norest","8377","7","21","Female","","false","","","","","[648,483]","./assets/img/canyon/memory/1.jpg","[""ArrowDown"",""ArrowRight""]","value training","canyon","30","{""ArrowUp,ArrowLeft"":23,""ArrowUp,ArrowRight"":10,""ArrowDown,ArrowLeft"":8,""ArrowDown,ArrowRight"":30}","true","ArrowDown,ArrowRight","false","original","1","46","","",""
"html-keyboard-response","167","750914","0.0-4.0-2.0-1.23","spark_pilot_norest","8377","7","21","Female","","","","","","","null","<div style=""font-size:60px;"">+</div>","null","fixation","","","","","","","","","47","","",""
"revaluation","168","756928","0.0-4.0-2.0-0.24","spark_pilot_norest","8377","7","21","Female","","false","","","","","[459,259]","./assets/img/canyon/memory/6.jpg","[""ArrowDown"",""ArrowRight""]","value training","canyon","30","{""ArrowUp,ArrowLeft"":23,""ArrowUp,ArrowRight"":10,""ArrowDown,ArrowLeft"":8,""ArrowDown,ArrowRight"":30}","true","ArrowDown,ArrowRight","false","original","1","48","","",""
"html-keyboard-response","169","757432","0.0-4.0-2.0-1.24","spark_pilot_norest","8377","7","21","Female","","","","","","","null","<div style=""font-size:60px;"">+</div>","null","fixation","","","","","","","","","49","","",""
"revaluation","170","763441","0.0-4.0-2.0-0.25","spark_pilot_norest","8377","7","21","Female","","false","","","","","[733,585]","./assets/img/canyon/memory/35.jpg","[""ArrowDown"",""ArrowRight""]","value training","canyon","30","{""ArrowUp,ArrowLeft"":23,""ArrowUp,ArrowRight"":10,""ArrowDown,ArrowLeft"":8,""ArrowDown,ArrowRight"":30}","true","ArrowDown,ArrowRight","false","original","1","50","","",""
"html-keyboard-response","171","763946","0.0-4.0-2.0-1.25","spark_pilot_norest","8377","7","21","Female","","","","","","","null","<div style=""font-size:60px;"">+</div>","null","fixation","","","","","","","","","51","","",""
"revaluation","172","769961","0.0-4.0-2.0-0.26","spark_pilot_norest","8377","7","21","Female","","false","","","","","[373,439]","./assets/img/canyon/memory/32.jpg","[""ArrowDown"",""ArrowRight""]","value training","canyon","30","{""ArrowUp,ArrowLeft"":23,""ArrowUp,ArrowRight"":10,""ArrowDown,ArrowLeft"":8,""ArrowDown,ArrowRight"":30}","true","ArrowDown,ArrowRight","false","original","1","52","","",""
"html-keyboard-response","173","770466","0.0-4.0-2.0-1.26","spark_pilot_norest","8377","7","21","Female","","","","","","","null","<div style=""font-size:60px;"">+</div>","null","fixation","","","","","","","","","53","","",""
"revaluation","174","776480","0.0-4.0-2.0-0.27","spark_pilot_norest","8377","7","21","Female","","false","","","","","[370,382]","./assets/img/canyon/memory/34.jpg","[""ArrowDown"",""ArrowRight""]","value training","canyon","30","{""ArrowUp,ArrowLeft"":23,""ArrowUp,ArrowRight"":10,""ArrowDown,ArrowLeft"":8,""ArrowDown,ArrowRight"":30}","true","ArrowDown,ArrowRight","false","original","1","54","","",""
"html-keyboard-response","175","776985","0.0-4.0-2.0-1.27","spark_pilot_norest","8377","7","21","Female","","","","","","","null","<div style=""font-size:60px;"">+</div>","null","fixation","","","","","","","","","55","","",""
"revaluation","176","780991","0.0-4.0-2.0-0.28","spark_pilot_norest","8377","7","21","Female","","false","","","","","[456]","./assets/img/canyon/catch/2.jpg","[""ArrowDown""]","value training","canyon","-10","{""ArrowUp,ArrowLeft"":23,""ArrowUp,ArrowRight"":10,""ArrowDown,ArrowLeft"":8,""ArrowDown,ArrowRight"":30}","false","ArrowDown","true","original","1","56","","",""
"html-keyboard-response","177","781495","0.0-4.0-2.0-1.28","spark_pilot_norest","8377","7","21","Female","","","","","","","null","<div style=""font-size:60px;"">+</div>","null","fixation","","","","","","","","","57","","",""
"revaluation","178","785505","0.0-4.0-2.0-0.29","spark_pilot_norest","8377","7","21","Female","","false","","","","","[805]","./assets/img/canyon/catch/4.jpg","[""spaceBar""]","value training","canyon","0","{""ArrowUp,ArrowLeft"":23,""ArrowUp,ArrowRight"":10,""ArrowDown,ArrowLeft"":8,""ArrowDown,ArrowRight"":30}","true","spaceBar","true","original","1","58","","",""
"html-keyboard-response","179","786012","0.0-4.0-2.0-1.29","spark_pilot_norest","8377","7","21","Female","","","","","","","null","<div style=""font-size:60px;"">+</div>","null","fixation","","","","","","","","","59","","",""
"revaluation","180","790018","0.0-4.0-2.0-0.30","spark_pilot_norest","8377","7","21","Female","","false","","","","","[757]","./assets/img/canyon/catch/1.jpg","[""spaceBar""]","value training","canyon","0","{""ArrowUp,ArrowLeft"":23,""ArrowUp,ArrowRight"":10,""ArrowDown,ArrowLeft"":8,""ArrowDown,ArrowRight"":30}","true","spaceBar","true","original","1","60","","",""
"html-keyboard-response","181","790523","0.0-4.0-2.0-1.30","spark_pilot_norest","8377","7","21","Female","","","","","","","null","<div style=""font-size:60px;"">+</div>","null","fixation","","","","","","","","","61","","",""
"revaluation","182","796537","0.0-4.0-2.0-0.31","spark_pilot_norest","8377","7","21","Female","","false","","","","","[652,499]","./assets/img/canyon/memory/10.jpg","[""ArrowDown"",""ArrowRight""]","value training","canyon","30","{""ArrowUp,ArrowLeft"":23,""ArrowUp,ArrowRight"":10,""ArrowDown,ArrowLeft"":8,""ArrowDown,ArrowRight"":30}","true","ArrowDown,ArrowRight","false","original","1","62","","",""
"html-keyboard-response","183","797042","0.0-4.0-2.0-1.31","spark_pilot_norest","8377","7","21","Female","","","","","","","null","<div style=""font-size:60px;"">+</div>","null","fixation","","","","","","","","","63","","",""
"revaluation","184","803056","0.0-4.0-2.0-0.32","spark_pilot_norest","8377","7","21","Female","","false","","","","","[1493,948]","./assets/img/canyon/memory/41.jpg","[""ArrowDown"",""ArrowRight""]","value training","canyon","30","{""ArrowUp,ArrowLeft"":23,""ArrowUp,ArrowRight"":10,""ArrowDown,ArrowLeft"":8,""ArrowDown,ArrowRight"":30}","true","ArrowDown,ArrowRight","false","original","1","64","","",""
"html-keyboard-response","185","803558","0.0-4.0-2.0-1.32","spark_pilot_norest","8377","7","21","Female","","","","","","","null","<div style=""font-size:60px;"">+</div>","null","fixation","","","","","","","","","65","","",""
"revaluation","186","809572","0.0-4.0-2.0-0.33","spark_pilot_norest","8377","7","21","Female","","false","","","","","[1193,551]","./assets/img/canyon/memory/40.jpg","[""ArrowDown"",""ArrowRight""]","value training","canyon","30","{""ArrowUp,ArrowLeft"":23,""ArrowUp,ArrowRight"":10,""ArrowDown,ArrowLeft"":8,""ArrowDown,ArrowRight"":30}","true","ArrowDown,ArrowRight","false","original","1","66","","",""
"html-keyboard-response","187","810076","0.0-4.0-2.0-1.33","spark_pilot_norest","8377","7","21","Female","","","","","","","null","<div style=""font-size:60px;"">+</div>","null","fixation","","","","","","","","","67","","",""
"revaluation","188","816089","0.0-4.0-2.0-0.34","spark_pilot_norest","8377","7","21","Female","","false","","","","","[702,539]","./assets/img/canyon/memory/1.jpg","[""ArrowDown"",""ArrowRight""]","value training","canyon","30","{""ArrowUp,ArrowLeft"":23,""ArrowUp,ArrowRight"":10,""ArrowDown,ArrowLeft"":8,""ArrowDown,ArrowRight"":30}","true","ArrowDown,ArrowRight","false","original","1","68","","",""
"html-keyboard-response","189","816594","0.0-4.0-2.0-1.34","spark_pilot_norest","8377","7","21","Female","","","","","","","null","<div style=""font-size:60px;"">+</div>","null","fixation","","","","","","","","","69","","",""
"revaluation","190","822606","0.0-4.0-2.0-0.35","spark_pilot_norest","8377","7","21","Female","","false","","","","","[495,376]","./assets/img/canyon/memory/6.jpg","[""ArrowDown"",""ArrowRight""]","value training","canyon","30","{""ArrowUp,ArrowLeft"":23,""ArrowUp,ArrowRight"":10,""ArrowDown,ArrowLeft"":8,""ArrowDown,ArrowRight"":30}","true","ArrowDown,ArrowRight","false","original","1","70","","",""
"html-keyboard-response","191","823107","0.0-4.0-2.0-1.35","spark_pilot_norest","8377","7","21","Female","","","","","","","null","<div style=""font-size:60px;"">+</div>","null","fixation","","","","","","","","","71","","",""
"revaluation","192","829122","0.0-4.0-2.0-0.36","spark_pilot_norest","8377","7","21","Female","","false","","","","","[393,359]","./assets/img/canyon/memory/0.jpg","[""ArrowDown"",""ArrowRight""]","value training","canyon","30","{""ArrowUp,ArrowLeft"":23,""ArrowUp,ArrowRight"":10,""ArrowDown,ArrowLeft"":8,""ArrowDown,ArrowRight"":30}","true","ArrowDown,ArrowRight","false","original","1","72","","",""
"html-keyboard-response","193","829626","0.0-4.0-2.0-1.36","spark_pilot_norest","8377","7","21","Female","","","","","","","null","<div style=""font-size:60px;"">+</div>","null","fixation","","","","","","","","","73","","",""
"revaluation","194","835640","0.0-4.0-2.0-0.37","spark_pilot_norest","8377","7","21","Female","","false","","","","","[455,589]","./assets/img/canyon/memory/38.jpg","[""ArrowDown"",""ArrowRight""]","value training","canyon","30","{""ArrowUp,ArrowLeft"":23,""ArrowUp,ArrowRight"":10,""ArrowDown,ArrowLeft"":8,""ArrowDown,ArrowRight"":30}","true","ArrowDown,ArrowRight","false","original","1","74","","",""
"html-keyboard-response","195","836145","0.0-4.0-2.0-1.37","spark_pilot_norest","8377","7","21","Female","","","","","","","null","<div style=""font-size:60px;"">+</div>","null","fixation","","","","","","","","","75","","",""
"revaluation","196","842160","0.0-4.0-2.0-0.38","spark_pilot_norest","8377","7","21","Female","","false","","","","","[435,262]","./assets/img/canyon/memory/39.jpg","[""ArrowDown"",""ArrowRight""]","value training","canyon","30","{""ArrowUp,ArrowLeft"":23,""ArrowUp,ArrowRight"":10,""ArrowDown,ArrowLeft"":8,""ArrowDown,ArrowRight"":30}","true","ArrowDown,ArrowRight","false","original","1","76","","",""
"html-keyboard-response","197","842661","0.0-4.0-2.0-1.38","spark_pilot_norest","8377","7","21","Female","","","","","","","null","<div style=""font-size:60px;"">+</div>","null","fixation","","","","","","","","","77","","",""
"revaluation","198","846670","0.0-4.0-2.0-0.39","spark_pilot_norest","8377","7","21","Female","","false","","","","","[611]","./assets/img/canyon/catch/3.jpg","[""spaceBar""]","value training","canyon","0","{""ArrowUp,ArrowLeft"":23,""ArrowUp,ArrowRight"":10,""ArrowDown,ArrowLeft"":8,""ArrowDown,ArrowRight"":30}","true","spaceBar","true","original","1","78","","",""
"html-keyboard-response","199","847175","0.0-4.0-2.0-1.39","spark_pilot_norest","8377","7","21","Female","","","","","","","null","<div style=""font-size:60px;"">+</div>","null","fixation","","","","","","","","","79","","",""
"revaluation","200","853188","0.0-4.0-2.0-0.40","spark_pilot_norest","8377","7","21","Female","","false","","","","","[558,424]","./assets/img/canyon/memory/33.jpg","[""ArrowDown"",""ArrowRight""]","value training","canyon","30","{""ArrowUp,ArrowLeft"":23,""ArrowUp,ArrowRight"":10,""ArrowDown,ArrowLeft"":8,""ArrowDown,ArrowRight"":30}","true","ArrowDown,ArrowRight","false","original","1","80","","",""
"html-keyboard-response","201","853694","0.0-4.0-2.0-1.40","spark_pilot_norest","8377","7","21","Female","","","","","","","null","<div style=""font-size:60px;"">+</div>","null","fixation","","","","","","","","","81","","",""
"revaluation","202","859702","0.0-4.0-2.0-0.41","spark_pilot_norest","8377","7","21","Female","","false","","","","","[579,374]","./assets/img/canyon/memory/7.jpg","[""ArrowDown"",""ArrowRight""]","value training","canyon","30","{""ArrowUp,ArrowLeft"":23,""ArrowUp,ArrowRight"":10,""ArrowDown,ArrowLeft"":8,""ArrowDown,ArrowRight"":30}","true","ArrowDown,ArrowRight","false","original","1","82","","",""
"html-keyboard-response","203","860208","0.0-4.0-2.0-1.41","spark_pilot_norest","8377","7","21","Female","","","","","","","null","<div style=""font-size:60px;"">+</div>","null","fixation","","","","","","","","","83","","",""
"revaluation","204","866222","0.0-4.0-2.0-0.42","spark_pilot_norest","8377","7","21","Female","","false","","","","","[443,691]","./assets/img/canyon/memory/5.jpg","[""ArrowDown"",""ArrowRight""]","value training","canyon","30","{""ArrowUp,ArrowLeft"":23,""ArrowUp,ArrowRight"":10,""ArrowDown,ArrowLeft"":8,""ArrowDown,ArrowRight"":30}","true","ArrowDown,ArrowRight","false","original","1","84","","",""
"html-keyboard-response","205","866726","0.0-4.0-2.0-1.42","spark_pilot_norest","8377","7","21","Female","","","","","","","null","<div style=""font-size:60px;"">+</div>","null","fixation","","","","","","","","","85","","",""
"revaluation","206","872735","0.0-4.0-2.0-0.43","spark_pilot_norest","8377","7","21","Female","","false","","","","","[400,347]","./assets/img/canyon/memory/9.jpg","[""ArrowDown"",""ArrowRight""]","value training","canyon","30","{""ArrowUp,ArrowLeft"":23,""ArrowUp,ArrowRight"":10,""ArrowDown,ArrowLeft"":8,""ArrowDown,ArrowRight"":30}","true","ArrowDown,ArrowRight","false","original","1","86","","",""
"html-keyboard-response","207","873241","0.0-4.0-2.0-1.43","spark_pilot_norest","8377","7","21","Female","","","","","","","null","<div style=""font-size:60px;"">+</div>","null","fixation","","","","","","","","","87","","",""
"revaluation","208","879255","0.0-4.0-2.0-0.44","spark_pilot_norest","8377","7","21","Female","","false","","","","","[462,443]","./assets/img/canyon/memory/7.jpg","[""ArrowDown"",""ArrowRight""]","value training","canyon","30","{""ArrowUp,ArrowLeft"":23,""ArrowUp,ArrowRight"":10,""ArrowDown,ArrowLeft"":8,""ArrowDown,ArrowRight"":30}","true","ArrowDown,ArrowRight","false","original","1","88","","",""
"html-keyboard-response","209","879761","0.0-4.0-2.0-1.44","spark_pilot_norest","8377","7","21","Female","","","","","","","null","<div style=""font-size:60px;"">+</div>","null","fixation","","","","","","","","","89","","",""
"revaluation","210","883771","0.0-4.0-2.0-0.45","spark_pilot_norest","8377","7","21","Female","","false","","","","","[611]","./assets/img/canyon/catch/7.jpg","[""spaceBar""]","value training","canyon","0","{""ArrowUp,ArrowLeft"":23,""ArrowUp,ArrowRight"":10,""ArrowDown,ArrowLeft"":8,""ArrowDown,ArrowRight"":30}","true","spaceBar","true","original","1","90","","",""
"html-keyboard-response","211","884272","0.0-4.0-2.0-1.45","spark_pilot_norest","8377","7","21","Female","","","","","","","null","<div style=""font-size:60px;"">+</div>","null","fixation","","","","","","","","","91","","",""
"revaluation","212","890285","0.0-4.0-2.0-0.46","spark_pilot_norest","8377","7","21","Female","","false","","","","","[595,387]","./assets/img/canyon/memory/36.jpg","[""ArrowDown"",""ArrowRight""]","value training","canyon","30","{""ArrowUp,ArrowLeft"":23,""ArrowUp,ArrowRight"":10,""ArrowDown,ArrowLeft"":8,""ArrowDown,ArrowRight"":30}","true","ArrowDown,ArrowRight","false","original","1","92","","",""
"html-keyboard-response","213","890789","0.0-4.0-2.0-1.46","spark_pilot_norest","8377","7","21","Female","","","","","","","null","<div style=""font-size:60px;"">+</div>","null","fixation","","","","","","","","","93","","",""
"revaluation","214","896798","0.0-4.0-2.0-0.47","spark_pilot_norest","8377","7","21","Female","","false","","","","","[469,271]","./assets/img/canyon/memory/2.jpg","[""ArrowDown"",""ArrowRight""]","value training","canyon","30","{""ArrowUp,ArrowLeft"":23,""ArrowUp,ArrowRight"":10,""ArrowDown,ArrowLeft"":8,""ArrowDown,ArrowRight"":30}","true","ArrowDown,ArrowRight","false","original","1","94","","",""
"html-keyboard-response","215","897302","0.0-4.0-2.0-1.47","spark_pilot_norest","8377","7","21","Female","","","","","","","null","<div style=""font-size:60px;"">+</div>","null","fixation","","","","","","","","","95","","",""
"revaluation","216","903320","0.0-4.0-2.0-0.48","spark_pilot_norest","8377","7","21","Female","","false","","","","","[735,389]","./assets/img/canyon/memory/10.jpg","[""ArrowDown"",""ArrowRight""]","value training","canyon","30","{""ArrowUp,ArrowLeft"":23,""ArrowUp,ArrowRight"":10,""ArrowDown,ArrowLeft"":8,""ArrowDown,ArrowRight"":30}","true","ArrowDown,ArrowRight","false","original","1","96","","",""
"html-keyboard-response","217","903825","0.0-4.0-2.0-1.48","spark_pilot_norest","8377","7","21","Female","","","","","","","null","<div style=""font-size:60px;"">+</div>","null","fixation","","","","","","","","","97","","",""
"revaluation","218","907833","0.0-4.0-2.0-0.49","spark_pilot_norest","8377","7","21","Female","","false","","","","","[701]","./assets/img/canyon/catch/0.jpg","[""spaceBar""]","value training","canyon","0","{""ArrowUp,ArrowLeft"":23,""ArrowUp,ArrowRight"":10,""ArrowDown,ArrowLeft"":8,""ArrowDown,ArrowRight"":30}","true","spaceBar","true","original","1","98","","",""
"html-keyboard-response","219","908339","0.0-4.0-2.0-1.49","spark_pilot_norest","8377","7","21","Female","","","","","","","null","<div style=""font-size:60px;"">+</div>","null","fixation","","","","","","","","","99","","",""
"learning-instructions","220","922162","0.0-4.0-3.0-0.0","spark_pilot_norest","8377","7","21","Female","","","","","","","923","<p> Now, you will travel with a friend who will choose whether you go up or down first. </p>
            <p> On these turns, you will just see the animal that they found. You will still get to choose which chest to search for treasure.</p>","","instructions","","","","","","","","","","","",""
"revaluation","221","926172","0.0-4.0-4.0-0.0","spark_pilot_norest","8377","7","21","Female","","false","","","","","[1081]","./assets/img/canyon/animals/giraffe.jpg","[""ArrowLeft""]","revaluation","canyon","23","{""ArrowUp,ArrowLeft"":23,""ArrowUp,ArrowRight"":10,""ArrowDown,ArrowLeft"":8,""ArrowDown,ArrowRight"":30}","true","ArrowUp,ArrowLeft","","original","1","0","","",""
"html-keyboard-response","222","926677","0.0-4.0-4.0-1.0","spark_pilot_norest","8377","7","21","Female","","","","","","","null","<div style=""font-size:60px;"">+</div>","null","fixation","","","","","","","","","1","","",""
"revaluation","223","930682","0.0-4.0-4.0-0.1","spark_pilot_norest","8377","7","21","Female","","false","","","","","[445]","./assets/img/canyon/animals/giraffe.jpg","[""ArrowLeft""]","revaluation","canyon","23","{""ArrowUp,ArrowLeft"":23,""ArrowUp,ArrowRight"":10,""ArrowDown,ArrowLeft"":8,""ArrowDown,ArrowRight"":30}","true","ArrowUp,ArrowLeft","","original","1","2","","",""
"html-keyboard-response","224","931187","0.0-4.0-4.0-1.1","spark_pilot_norest","8377","7","21","Female","","","","","","","null","<div style=""font-size:60px;"">+</div>","null","fixation","","","","","","","","","3","","",""
"revaluation","225","935196","0.0-4.0-4.0-0.2","spark_pilot_norest","8377","7","21","Female","","false","","","","","[574]","./assets/img/canyon/animals/giraffe.jpg","[""ArrowLeft""]","revaluation","canyon","23","{""ArrowUp,ArrowLeft"":23,""ArrowUp,ArrowRight"":10,""ArrowDown,ArrowLeft"":8,""ArrowDown,ArrowRight"":30}","true","ArrowUp,ArrowLeft","","original","1","4","","",""
"html-keyboard-response","226","935697","0.0-4.0-4.0-1.2","spark_pilot_norest","8377","7","21","Female","","","","","","","null","<div style=""font-size:60px;"">+</div>","null","fixation","","","","","","","","","5","","",""
"revaluation","227","939705","0.0-4.0-4.0-0.3","spark_pilot_norest","8377","7","21","Female","","false","","","","","[512]","./assets/img/canyon/animals/giraffe.jpg","[""ArrowLeft""]","revaluation","canyon","23","{""ArrowUp,ArrowLeft"":23,""ArrowUp,ArrowRight"":10,""ArrowDown,ArrowLeft"":8,""ArrowDown,ArrowRight"":30}","true","ArrowUp,ArrowLeft","","original","1","6","","",""
"html-keyboard-response","228","940211","0.0-4.0-4.0-1.3","spark_pilot_norest","8377","7","21","Female","","","","","","","null","<div style=""font-size:60px;"">+</div>","null","fixation","","","","","","","","","7","","",""
"revaluation","229","944220","0.0-4.0-4.0-0.4","spark_pilot_norest","8377","7","21","Female","","false","","","","","[582]","./assets/img/canyon/animals/lion.jpg","[""ArrowRight""]","revaluation","canyon","30","{""ArrowUp,ArrowLeft"":23,""ArrowUp,ArrowRight"":10,""ArrowDown,ArrowLeft"":8,""ArrowDown,ArrowRight"":30}","true","ArrowDown,ArrowRight","","original","1","8","","",""
"html-keyboard-response","230","944726","0.0-4.0-4.0-1.4","spark_pilot_norest","8377","7","21","Female","","","","","","","null","<div style=""font-size:60px;"">+</div>","null","fixation","","","","","","","","","9","","",""
"revaluation","231","948731","0.0-4.0-4.0-0.5","spark_pilot_norest","8377","7","21","Female","","false","","","","","[945]","./assets/img/canyon/animals/lion.jpg","[""ArrowRight""]","revaluation","canyon","30","{""ArrowUp,ArrowLeft"":23,""ArrowUp,ArrowRight"":10,""ArrowDown,ArrowLeft"":8,""ArrowDown,ArrowRight"":30}","true","ArrowDown,ArrowRight","","original","1","10","","",""
"html-keyboard-response","232","949235","0.0-4.0-4.0-1.5","spark_pilot_norest","8377","7","21","Female","","","","","","","null","<div style=""font-size:60px;"">+</div>","null","fixation","","","","","","","","","11","","",""
"revaluation","233","953244","0.0-4.0-4.0-0.6","spark_pilot_norest","8377","7","21","Female","","false","","","","","[494]","./assets/img/canyon/animals/lion.jpg","[""ArrowRight""]","revaluation","canyon","30","{""ArrowUp,ArrowLeft"":23,""ArrowUp,ArrowRight"":10,""ArrowDown,ArrowLeft"":8,""ArrowDown,ArrowRight"":30}","true","ArrowDown,ArrowRight","","original","1","12","","",""
"html-keyboard-response","234","953751","0.0-4.0-4.0-1.6","spark_pilot_norest","8377","7","21","Female","","","","","","","null","<div style=""font-size:60px;"">+</div>","null","fixation","","","","","","","","","13","","",""
"revaluation","235","957761","0.0-4.0-4.0-0.7","spark_pilot_norest","8377","7","21","Female","","false","","","","","[369]","./assets/img/canyon/animals/lion.jpg","[""ArrowRight""]","revaluation","canyon","30","{""ArrowUp,ArrowLeft"":23,""ArrowUp,ArrowRight"":10,""ArrowDown,ArrowLeft"":8,""ArrowDown,ArrowRight"":30}","true","ArrowDown,ArrowRight","","original","1","14","","",""
"html-keyboard-response","236","958263","0.0-4.0-4.0-1.7","spark_pilot_norest","8377","7","21","Female","","","","","","","null","<div style=""font-size:60px;"">+</div>","null","fixation","","","","","","","","","15","","",""
"revaluation","237","962269","0.0-4.0-4.0-0.8","spark_pilot_norest","8377","7","21","Female","","false","","","","","[412]","./assets/img/canyon/animals/lion.jpg","[""ArrowRight""]","revaluation","canyon","30","{""ArrowUp,ArrowLeft"":23,""ArrowUp,ArrowRight"":10,""ArrowDown,ArrowLeft"":8,""ArrowDown,ArrowRight"":30}","true","ArrowDown,ArrowRight","","original","1","16","","",""
"html-keyboard-response","238","962774","0.0-4.0-4.0-1.8","spark_pilot_norest","8377","7","21","Female","","","","","","","null","<div style=""font-size:60px;"">+</div>","null","fixation","","","","","","","","","17","","",""
"revaluation","239","966779","0.0-4.0-4.0-0.9","spark_pilot_norest","8377","7","21","Female","","false","","","","","[392]","./assets/img/canyon/animals/lion.jpg","[""ArrowRight""]","revaluation","canyon","30","{""ArrowUp,ArrowLeft"":23,""ArrowUp,ArrowRight"":10,""ArrowDown,ArrowLeft"":8,""ArrowDown,ArrowRight"":30}","true","ArrowDown,ArrowRight","","original","1","18","","",""
"html-keyboard-response","240","967284","0.0-4.0-4.0-1.9","spark_pilot_norest","8377","7","21","Female","","","","","","","null","<div style=""font-size:60px;"">+</div>","null","fixation","","","","","","","","","19","","",""
"revaluation","241","971288","0.0-4.0-4.0-0.10","spark_pilot_norest","8377","7","21","Female","","false","","","","","[457]","./assets/img/canyon/animals/giraffe.jpg","[""ArrowRight""]","revaluation","canyon","10","{""ArrowUp,ArrowLeft"":23,""ArrowUp,ArrowRight"":10,""ArrowDown,ArrowLeft"":8,""ArrowDown,ArrowRight"":30}","false","ArrowUp,ArrowRight","","original","1","20","","",""
"html-keyboard-response","242","971792","0.0-4.0-4.0-1.10","spark_pilot_norest","8377","7","21","Female","","","","","","","null","<div style=""font-size:60px;"">+</div>","null","fixation","","","","","","","","","21","","",""
"revaluation","243","975800","0.0-4.0-4.0-0.11","spark_pilot_norest","8377","7","21","Female","","false","","","","","[463]","./assets/img/canyon/animals/lion.jpg","[""ArrowRight""]","revaluation","canyon","30","{""ArrowUp,ArrowLeft"":23,""ArrowUp,ArrowRight"":10,""ArrowDown,ArrowLeft"":8,""ArrowDown,ArrowRight"":30}","true","ArrowDown,ArrowRight","","original","1","22","","",""
"html-keyboard-response","244","976305","0.0-4.0-4.0-1.11","spark_pilot_norest","8377","7","21","Female","","","","","","","null","<div style=""font-size:60px;"">+</div>","null","fixation","","","","","","","","","23","","",""
"revaluation","245","980316","0.0-4.0-4.0-0.12","spark_pilot_norest","8377","7","21","Female","","false","","","","","[866]","./assets/img/canyon/animals/lion.jpg","[""ArrowRight""]","revaluation","canyon","30","{""ArrowUp,ArrowLeft"":23,""ArrowUp,ArrowRight"":10,""ArrowDown,ArrowLeft"":8,""ArrowDown,ArrowRight"":30}","true","ArrowDown,ArrowRight","","original","1","24","","",""
"html-keyboard-response","246","980822","0.0-4.0-4.0-1.12","spark_pilot_norest","8377","7","21","Female","","","","","","","null","<div style=""font-size:60px;"">+</div>","null","fixation","","","","","","","","","25","","",""
"revaluation","247","984828","0.0-4.0-4.0-0.13","spark_pilot_norest","8377","7","21","Female","","false","","","","","[547]","./assets/img/canyon/animals/giraffe.jpg","[""ArrowLeft""]","revaluation","canyon","23","{""ArrowUp,ArrowLeft"":23,""ArrowUp,ArrowRight"":10,""ArrowDown,ArrowLeft"":8,""ArrowDown,ArrowRight"":30}","true","ArrowUp,ArrowLeft","","original","1","26","","",""
"html-keyboard-response","248","985332","0.0-4.0-4.0-1.13","spark_pilot_norest","8377","7","21","Female","","","","","","","null","<div style=""font-size:60px;"">+</div>","null","fixation","","","","","","","","","27","","",""
"revaluation","249","989338","0.0-4.0-4.0-0.14","spark_pilot_norest","8377","7","21","Female","","false","","","","","[1193]","./assets/img/canyon/animals/lion.jpg","[""ArrowRight""]","revaluation","canyon","30","{""ArrowUp,ArrowLeft"":23,""ArrowUp,ArrowRight"":10,""ArrowDown,ArrowLeft"":8,""ArrowDown,ArrowRight"":30}","true","ArrowDown,ArrowRight","","original","1","28","","",""
"html-keyboard-response","250","989843","0.0-4.0-4.0-1.14","spark_pilot_norest","8377","7","21","Female","","","","","","","null","<div style=""font-size:60px;"">+</div>","null","fixation","","","","","","","","","29","","",""
"revaluation","251","993849","0.0-4.0-4.0-0.15","spark_pilot_norest","8377","7","21","Female","","false","","","","","[673]","./assets/img/canyon/animals/giraffe.jpg","[""ArrowLeft""]","revaluation","canyon","23","{""ArrowUp,ArrowLeft"":23,""ArrowUp,ArrowRight"":10,""ArrowDown,ArrowLeft"":8,""ArrowDown,ArrowRight"":30}","true","ArrowUp,ArrowLeft","","original","1","30","","",""
"html-keyboard-response","252","994353","0.0-4.0-4.0-1.15","spark_pilot_norest","8377","7","21","Female","","","","","","","null","<div style=""font-size:60px;"">+</div>","null","fixation","","","","","","","","","31","","",""
"revaluation","253","998360","0.0-4.0-4.0-0.16","spark_pilot_norest","8377","7","21","Female","","false","","","","","[617]","./assets/img/canyon/animals/giraffe.jpg","[""ArrowLeft""]","revaluation","canyon","23","{""ArrowUp,ArrowLeft"":23,""ArrowUp,ArrowRight"":10,""ArrowDown,ArrowLeft"":8,""ArrowDown,ArrowRight"":30}","true","ArrowUp,ArrowLeft","","original","1","32","","",""
"html-keyboard-response","254","998865","0.0-4.0-4.0-1.16","spark_pilot_norest","8377","7","21","Female","","","","","","","null","<div style=""font-size:60px;"">+</div>","null","fixation","","","","","","","","","33","","",""
"revaluation","255","1002870","0.0-4.0-4.0-0.17","spark_pilot_norest","8377","7","21","Female","","false","","","","","[459]","./assets/img/canyon/animals/giraffe.jpg","[""ArrowLeft""]","revaluation","canyon","23","{""ArrowUp,ArrowLeft"":23,""ArrowUp,ArrowRight"":10,""ArrowDown,ArrowLeft"":8,""ArrowDown,ArrowRight"":30}","true","ArrowUp,ArrowLeft","","original","1","34","","",""
"html-keyboard-response","256","1003374","0.0-4.0-4.0-1.17","spark_pilot_norest","8377","7","21","Female","","","","","","","null","<div style=""font-size:60px;"">+</div>","null","fixation","","","","","","","","","35","","",""
"learning-instructions","257","1011493","0.0-4.0-5.0-0.0","spark_pilot_norest","8377","7","21","Female","","","","","","","null","<p> You have almost finished this part of the game! </p>
            <p> We are going to ask you to make a few more choices. </p>","","instructions","","","","","","","","","","","",""
"learning-instructions","258","1027477","0.0-4.0-5.0-0.1","spark_pilot_norest","8377","7","21","Female","","","","","","","null","<p> First, you need to decide whether to go up or down. When you see each picture, use the arrow keys to make your choice. </p>
            <p><b>You will not see which animal you found, but try to get to the one that will give you the most treasure.</b></p>","","instructions","","","","","","","","","","","",""
"html-keyboard-response","259","1028482","0.0-4.0-6.0-0.0","spark_pilot_norest","8377","7","21","Female","","","","","","","null","<div style=""font-size:100px;color:red;"">Starting in...</div>","null","","","","","","","","","","","","",""
"html-keyboard-response","260","1029486","0.0-4.0-6.0-1.0","spark_pilot_norest","8377","7","21","Female","","","","","","","null","<div style=""font-size:200px;color:red;"">3</div>","null","","","","","","","","","","","","",""
"html-keyboard-response","261","1030490","0.0-4.0-6.0-2.0","spark_pilot_norest","8377","7","21","Female","","","","","","","null","<div style=""font-size:200px;color:red;"">2</div>","null","","","","","","","","","","","","",""
"html-keyboard-response","262","1031492","0.0-4.0-6.0-3.0","spark_pilot_norest","8377","7","21","Female","","","","","","","null","<div style=""font-size:200px;color:red;"">1</div>","null","","","","","","","","","","","","",""
"revaluation","263","1032107","0.0-4.0-7.0-0.0","spark_pilot_norest","8377","7","21","Female","","false","","","","","[612]","./assets/img/canyon/test/3.jpg","[""ArrowDown""]","first stage test","canyon","0","{""ArrowUp,ArrowLeft"":23,""ArrowUp,ArrowRight"":10,""ArrowDown,ArrowLeft"":8,""ArrowDown,ArrowRight"":30}","true","ArrowDown","false","original","1","","","",""
"html-keyboard-response","264","1032609","0.0-4.0-7.0-1.0","spark_pilot_norest","8377","7","21","Female","","","","","","","null","<div style=""font-size:60px;"">+</div>","null","fixation","","","","","","","","","","","",""
"revaluation","265","1033262","0.0-4.0-7.0-0.1","spark_pilot_norest","8377","7","21","Female","","false","","","","","[648]","./assets/img/canyon/test/1.jpg","[""ArrowDown""]","first stage test","canyon","0","{""ArrowUp,ArrowLeft"":23,""ArrowUp,ArrowRight"":10,""ArrowDown,ArrowLeft"":8,""ArrowDown,ArrowRight"":30}","true","ArrowDown","false","original","1","","","",""
"html-keyboard-response","266","1033767","0.0-4.0-7.0-1.1","spark_pilot_norest","8377","7","21","Female","","","","","","","null","<div style=""font-size:60px;"">+</div>","null","fixation","","","","","","","","","","","",""
"revaluation","267","1034438","0.0-4.0-7.0-0.2","spark_pilot_norest","8377","7","21","Female","","false","","","","","[666]","./assets/img/canyon/test/0.jpg","[""ArrowDown""]","first stage test","canyon","0","{""ArrowUp,ArrowLeft"":23,""ArrowUp,ArrowRight"":10,""ArrowDown,ArrowLeft"":8,""ArrowDown,ArrowRight"":30}","true","ArrowDown","false","original","1","","","",""
"html-keyboard-response","268","1034943","0.0-4.0-7.0-1.2","spark_pilot_norest","8377","7","21","Female","","","","","","","null","<div style=""font-size:60px;"">+</div>","null","fixation","","","","","","","","","","","",""
"revaluation","269","1035416","0.0-4.0-7.0-0.3","spark_pilot_norest","8377","7","21","Female","","false","","","","","[467]","./assets/img/canyon/test/2.jpg","[""ArrowDown""]","first stage test","canyon","0","{""ArrowUp,ArrowLeft"":23,""ArrowUp,ArrowRight"":10,""ArrowDown,ArrowLeft"":8,""ArrowDown,ArrowRight"":30}","true","ArrowDown","false","original","1","","","",""
"html-keyboard-response","270","1035921","0.0-4.0-7.0-1.3","spark_pilot_norest","8377","7","21","Female","","","","","","","null","<div style=""font-size:60px;"">+</div>","null","fixation","","","","","","","","","","","",""
"learning-instructions","271","1049270","0.0-4.0-8.0-0.0","spark_pilot_norest","8377","7","21","Female","","","","","","","null","<p> Now you will see the animals again and can search their chests for treasure. </p>
            <p> This time, you will not see how much treasure you earned, but you will earn more bonus money for making better choices. </p>","","instructions","","","","","","","","","","","",""
"html-keyboard-response","272","1050274","0.0-4.0-9.0-0.0","spark_pilot_norest","8377","7","21","Female","","","","","","","null","<div style=""font-size:100px;color:red;"">Starting in...</div>","null","","","","","","","","","","","","",""
"html-keyboard-response","273","1051276","0.0-4.0-9.0-1.0","spark_pilot_norest","8377","7","21","Female","","","","","","","null","<div style=""font-size:200px;color:red;"">3</div>","null","","","","","","","","","","","","",""
"html-keyboard-response","274","1052281","0.0-4.0-9.0-2.0","spark_pilot_norest","8377","7","21","Female","","","","","","","null","<div style=""font-size:200px;color:red;"">2</div>","null","","","","","","","","","","","","",""
"html-keyboard-response","275","1053281","0.0-4.0-9.0-3.0","spark_pilot_norest","8377","7","21","Female","","","","","","","null","<div style=""font-size:200px;color:red;"">1</div>","null","","","","","","","","","","","","",""
"revaluation","276","1054024","0.0-4.0-10.0-0.0","spark_pilot_norest","8377","7","21","Female","","false","","","","","[738]","./assets/img/canyon/animals/giraffe.jpg","[""ArrowLeft""]","second stage test","canyon","0","{""ArrowUp,ArrowLeft"":23,""ArrowUp,ArrowRight"":10,""ArrowDown,ArrowLeft"":8,""ArrowDown,ArrowRight"":30}","true","ArrowUp,ArrowLeft","","original","1","","","",""
"html-keyboard-response","277","1054530","0.0-4.0-10.0-1.0","spark_pilot_norest","8377","7","21","Female","","","","","","","null","<div style=""font-size:60px;"">+</div>","null","fixation","","","","","","","","","","","",""
"revaluation","278","1055032","0.0-4.0-10.0-0.1","spark_pilot_norest","8377","7","21","Female","","false","","","","","[499]","./assets/img/canyon/animals/giraffe.jpg","[""ArrowLeft""]","second stage test","canyon","0","{""ArrowUp,ArrowLeft"":23,""ArrowUp,ArrowRight"":10,""ArrowDown,ArrowLeft"":8,""ArrowDown,ArrowRight"":30}","true","ArrowUp,ArrowLeft","","original","1","","","",""
"html-keyboard-response","279","1055538","0.0-4.0-10.0-1.1","spark_pilot_norest","8377","7","21","Female","","","","","","","null","<div style=""font-size:60px;"">+</div>","null","fixation","","","","","","","","","","","",""
"revaluation","280","1056040","0.0-4.0-10.0-0.2","spark_pilot_norest","8377","7","21","Female","","false","","","","","[500]","./assets/img/canyon/animals/giraffe.jpg","[""ArrowLeft""]","second stage test","canyon","0","{""ArrowUp,ArrowLeft"":23,""ArrowUp,ArrowRight"":10,""ArrowDown,ArrowLeft"":8,""ArrowDown,ArrowRight"":30}","true","ArrowUp,ArrowLeft","","original","1","","","",""
"html-keyboard-response","281","1056545","0.0-4.0-10.0-1.2","spark_pilot_norest","8377","7","21","Female","","","","","","","null","<div style=""font-size:60px;"">+</div>","null","fixation","","","","","","","","","","","",""
"revaluation","282","1056990","0.0-4.0-10.0-0.3","spark_pilot_norest","8377","7","21","Female","","false","","","","","[442]","./assets/img/canyon/animals/giraffe.jpg","[""ArrowLeft""]","second stage test","canyon","0","{""ArrowUp,ArrowLeft"":23,""ArrowUp,ArrowRight"":10,""ArrowDown,ArrowLeft"":8,""ArrowDown,ArrowRight"":30}","true","ArrowUp,ArrowLeft","","original","1","","","",""
"html-keyboard-response","283","1057496","0.0-4.0-10.0-1.3","spark_pilot_norest","8377","7","21","Female","","","","","","","null","<div style=""font-size:60px;"">+</div>","null","fixation","","","","","","","","","","","",""
"revaluation","284","1057989","0.0-4.0-10.0-0.4","spark_pilot_norest","8377","7","21","Female","","false","","","","","[491]","./assets/img/canyon/animals/lion.jpg","[""ArrowRight""]","second stage test","canyon","0","{""ArrowUp,ArrowLeft"":23,""ArrowUp,ArrowRight"":10,""ArrowDown,ArrowLeft"":8,""ArrowDown,ArrowRight"":30}","true","ArrowDown,ArrowRight","","original","1","","","",""
"html-keyboard-response","285","1058494","0.0-4.0-10.0-1.4","spark_pilot_norest","8377","7","21","Female","","","","","","","null","<div style=""font-size:60px;"">+</div>","null","fixation","","","","","","","","","","","",""
"revaluation","286","1058987","0.0-4.0-10.0-0.5","spark_pilot_norest","8377","7","21","Female","","false","","","","","[490]","./assets/img/canyon/animals/lion.jpg","[""ArrowRight""]","second stage test","canyon","0","{""ArrowUp,ArrowLeft"":23,""ArrowUp,ArrowRight"":10,""ArrowDown,ArrowLeft"":8,""ArrowDown,ArrowRight"":30}","true","ArrowDown,ArrowRight","","original","1","","","",""
"html-keyboard-response","287","1059493","0.0-4.0-10.0-1.5","spark_pilot_norest","8377","7","21","Female","","","","","","","null","<div style=""font-size:60px;"">+</div>","null","fixation","","","","","","","","","","","",""
"revaluation","288","1060006","0.0-4.0-10.0-0.6","spark_pilot_norest","8377","7","21","Female","","false","","","","","[510]","./assets/img/canyon/animals/lion.jpg","[""ArrowRight""]","second stage test","canyon","0","{""ArrowUp,ArrowLeft"":23,""ArrowUp,ArrowRight"":10,""ArrowDown,ArrowLeft"":8,""ArrowDown,ArrowRight"":30}","true","ArrowDown,ArrowRight","","original","1","","","",""
"html-keyboard-response","289","1060512","0.0-4.0-10.0-1.6","spark_pilot_norest","8377","7","21","Female","","","","","","","null","<div style=""font-size:60px;"">+</div>","null","fixation","","","","","","","","","","","",""
"revaluation","290","1060928","0.0-4.0-10.0-0.7","spark_pilot_norest","8377","7","21","Female","","false","","","","","[412]","./assets/img/canyon/animals/lion.jpg","[""ArrowRight""]","second stage test","canyon","0","{""ArrowUp,ArrowLeft"":23,""ArrowUp,ArrowRight"":10,""ArrowDown,ArrowLeft"":8,""ArrowDown,ArrowRight"":30}","true","ArrowDown,ArrowRight","","original","1","","","",""
"html-keyboard-response","291","1061432","0.0-4.0-10.0-1.7","spark_pilot_norest","8377","7","21","Female","","","","","","","null","<div style=""font-size:60px;"">+</div>","null","fixation","","","","","","","","","","","",""
"learning-instructions","292","1066643","0.0-4.0-0.1-0.2","spark_pilot_norest","8377","7","21","Female","","","","","","","2460","<p> This time you are searching for treasure in the <b>ocean</b>.</p>","","instructions","","","","","","","","","","","",""
"learning-instructions","293","1085313","0.0-4.0-0.1-0.3","spark_pilot_norest","8377","7","21","Female","","","","","","","1403","<p><b>New</b> animals with <b>new</b> treasure chests live here. You need to explore to discover where the animal with the best treasure chest is.</p>
                    <p> Like before, once you figure out which animal has the chest with the most treasure, you should try to get to that animal and select that chest! </p>","","instructions","","","","","","","","","","","",""
"learning-instructions","294","1101079","0.0-4.0-1.1-0.1","spark_pilot_norest","8377","7","21","Female","","","","","","","1018","<p> Remember, when you see a picture of the place, use the up and down keys to <b>find an animal</b>.</p>
            <p> When you encounter an animal, you should use the left and right keys to <b>select a treasure chest</b>.</p>
            <p> Don't forget to look out for the robber! </p>","","instructions","","","","","","","","","","","",""
"revaluation","295","1107097","0.0-4.0-2.1-0.50","spark_pilot_norest","8377","7","21","Female","","false","","","","","[766,495]","./assets/img/ocean/memory/35.jpg","[""ArrowDown"",""ArrowLeft""]","value training","ocean","5","{""ArrowUp,ArrowLeft"":26,""ArrowUp,ArrowRight"":10,""ArrowDown,ArrowLeft"":5,""ArrowDown,ArrowRight"":17}","false","ArrowDown,ArrowLeft","false","revaluation","2","0","","",""
"html-keyboard-response","296","1107600","0.0-4.0-2.1-1.50","spark_pilot_norest","8377","7","21","Female","","","","","","","null","<div style=""font-size:60px;"">+</div>","null","fixation","","","","","","","","","1","","",""
"revaluation","297","1113615","0.0-4.0-2.1-0.51","spark_pilot_norest","8377","7","21","Female","","false","","","","","[489,486]","./assets/img/ocean/memory/36.jpg","[""ArrowDown"",""ArrowRight""]","value training","ocean","17","{""ArrowUp,ArrowLeft"":26,""ArrowUp,ArrowRight"":10,""ArrowDown,ArrowLeft"":5,""ArrowDown,ArrowRight"":17}","false","ArrowDown,ArrowRight","false","revaluation","2","2","","",""
"html-keyboard-response","298","1114120","0.0-4.0-2.1-1.51","spark_pilot_norest","8377","7","21","Female","","","","","","","null","<div style=""font-size:60px;"">+</div>","null","fixation","","","","","","","","","3","","",""
"revaluation","299","1120133","0.0-4.0-2.1-0.52","spark_pilot_norest","8377","7","21","Female","","false","","","","","[574,541]","./assets/img/ocean/memory/9.jpg","[""ArrowUp"",""ArrowLeft""]","value training","ocean","26","{""ArrowUp,ArrowLeft"":26,""ArrowUp,ArrowRight"":10,""ArrowDown,ArrowLeft"":5,""ArrowDown,ArrowRight"":17}","true","ArrowUp,ArrowLeft","false","revaluation","2","4","","",""
"html-keyboard-response","300","1120639","0.0-4.0-2.1-1.52","spark_pilot_norest","8377","7","21","Female","","","","","","","null","<div style=""font-size:60px;"">+</div>","null","fixation","","","","","","","","","5","","",""
"revaluation","301","1126654","0.0-4.0-2.1-0.53","spark_pilot_norest","8377","7","21","Female","","false","","","","","[646,454]","./assets/img/ocean/memory/7.jpg","[""ArrowUp"",""ArrowRight""]","value training","ocean","10","{""ArrowUp,ArrowLeft"":26,""ArrowUp,ArrowRight"":10,""ArrowDown,ArrowLeft"":5,""ArrowDown,ArrowRight"":17}","false","ArrowUp,ArrowRight","false","revaluation","2","6","","",""
"html-keyboard-response","302","1127159","0.0-4.0-2.1-1.53","spark_pilot_norest","8377","7","21","Female","","","","","","","null","<div style=""font-size:60px;"">+</div>","null","fixation","","","","","","","","","7","","",""
"revaluation","303","1133172","0.0-4.0-2.1-0.54","spark_pilot_norest","8377","7","21","Female","","false","","","","","[771,377]","./assets/img/ocean/memory/7.jpg","[""ArrowUp"",""ArrowLeft""]","value training","ocean","26","{""ArrowUp,ArrowLeft"":26,""ArrowUp,ArrowRight"":10,""ArrowDown,ArrowLeft"":5,""ArrowDown,ArrowRight"":17}","true","ArrowUp,ArrowLeft","false","revaluation","2","8","","",""
"html-keyboard-response","304","1133677","0.0-4.0-2.1-1.54","spark_pilot_norest","8377","7","21","Female","","","","","","","null","<div style=""font-size:60px;"">+</div>","null","fixation","","","","","","","","","9","","",""
"revaluation","305","1139684","0.0-4.0-2.1-0.55","spark_pilot_norest","8377","7","21","Female","","false","","","","","[515,286]","./assets/img/ocean/memory/8.jpg","[""ArrowUp"",""ArrowLeft""]","value training","ocean","26","{""ArrowUp,ArrowLeft"":26,""ArrowUp,ArrowRight"":10,""ArrowDown,ArrowLeft"":5,""ArrowDown,ArrowRight"":17}","true","ArrowUp,ArrowLeft","false","revaluation","2","10","","",""
"html-keyboard-response","306","1140190","0.0-4.0-2.1-1.55","spark_pilot_norest","8377","7","21","Female","","","","","","","null","<div style=""font-size:60px;"">+</div>","null","fixation","","","","","","","","","11","","",""
"revaluation","307","1146199","0.0-4.0-2.1-0.56","spark_pilot_norest","8377","7","21","Female","","false","","","","","[383,418]","./assets/img/ocean/memory/2.jpg","[""ArrowDown"",""ArrowRight""]","value training","ocean","17","{""ArrowUp,ArrowLeft"":26,""ArrowUp,ArrowRight"":10,""ArrowDown,ArrowLeft"":5,""ArrowDown,ArrowRight"":17}","false","ArrowDown,ArrowRight","false","revaluation","2","12","","",""
"html-keyboard-response","308","1146703","0.0-4.0-2.1-1.56","spark_pilot_norest","8377","7","21","Female","","","","","","","null","<div style=""font-size:60px;"">+</div>","null","fixation","","","","","","","","","13","","",""
"revaluation","309","1152713","0.0-4.0-2.1-0.57","spark_pilot_norest","8377","7","21","Female","","false","","","","","[530,577]","./assets/img/ocean/memory/10.jpg","[""ArrowUp"",""ArrowLeft""]","value training","ocean","26","{""ArrowUp,ArrowLeft"":26,""ArrowUp,ArrowRight"":10,""ArrowDown,ArrowLeft"":5,""ArrowDown,ArrowRight"":17}","true","ArrowUp,ArrowLeft","false","revaluation","2","14","","",""
"html-keyboard-response","310","1153216","0.0-4.0-2.1-1.57","spark_pilot_norest","8377","7","21","Female","","","","","","","null","<div style=""font-size:60px;"">+</div>","null","fixation","","","","","","","","","15","","",""
"revaluation","311","1157223","0.0-4.0-2.1-0.58","spark_pilot_norest","8377","7","21","Female","","false","","","","","[637]","./assets/img/ocean/catch/4.jpg","[""spaceBar""]","value training","ocean","0","{""ArrowUp,ArrowLeft"":26,""ArrowUp,ArrowRight"":10,""ArrowDown,ArrowLeft"":5,""ArrowDown,ArrowRight"":17}","true","spaceBar","true","revaluation","2","16","","",""
"html-keyboard-response","312","1157728","0.0-4.0-2.1-1.58","spark_pilot_norest","8377","7","21","Female","","","","","","","null","<div style=""font-size:60px;"">+</div>","null","fixation","","","","","","","","","17","","",""
"revaluation","313","1163735","0.0-4.0-2.1-0.59","spark_pilot_norest","8377","7","21","Female","","false","","","","","[565,365]","./assets/img/ocean/memory/6.jpg","[""ArrowUp"",""ArrowLeft""]","value training","ocean","26","{""ArrowUp,ArrowLeft"":26,""ArrowUp,ArrowRight"":10,""ArrowDown,ArrowLeft"":5,""ArrowDown,ArrowRight"":17}","true","ArrowUp,ArrowLeft","false","revaluation","2","18","","",""
"html-keyboard-response","314","1164239","0.0-4.0-2.1-1.59","spark_pilot_norest","8377","7","21","Female","","","","","","","null","<div style=""font-size:60px;"">+</div>","null","fixation","","","","","","","","","19","","",""
"revaluation","315","1170250","0.0-4.0-2.1-0.60","spark_pilot_norest","8377","7","21","Female","","false","","","","","[427,353]","./assets/img/ocean/memory/38.jpg","[""ArrowUp"",""ArrowLeft""]","value training","ocean","26","{""ArrowUp,ArrowLeft"":26,""ArrowUp,ArrowRight"":10,""ArrowDown,ArrowLeft"":5,""ArrowDown,ArrowRight"":17}","true","ArrowUp,ArrowLeft","false","revaluation","2","20","","",""
"html-keyboard-response","316","1170755","0.0-4.0-2.1-1.60","spark_pilot_norest","8377","7","21","Female","","","","","","","null","<div style=""font-size:60px;"">+</div>","null","fixation","","","","","","","","","21","","",""
"revaluation","317","1176763","0.0-4.0-2.1-0.61","spark_pilot_norest","8377","7","21","Female","","false","","","","","[460,398]","./assets/img/ocean/memory/38.jpg","[""ArrowUp"",""ArrowLeft""]","value training","ocean","26","{""ArrowUp,ArrowLeft"":26,""ArrowUp,ArrowRight"":10,""ArrowDown,ArrowLeft"":5,""ArrowDown,ArrowRight"":17}","true","ArrowUp,ArrowLeft","false","revaluation","2","22","","",""
"html-keyboard-response","318","1177269","0.0-4.0-2.1-1.61","spark_pilot_norest","8377","7","21","Female","","","","","","","null","<div style=""font-size:60px;"">+</div>","null","fixation","","","","","","","","","23","","",""
