"trial_type","trial_index","time_elapsed","internal_node_id","task_version","subject_id","assigned_condition","age","gender","success","timeout","failed_images","failed_audio","failed_video","browser_interaction","value","rt","stimulus","response","task_part","environment","score","rewardMap","correct","fullState","isCatch","condition","order","trial_num","key_press","ground_truth","bonus"
"pavlovia","0","1448","0.0-0.0","spark_pilot_norest","8647","3","15","Female","","","","","","","","","","","","","","","","","","","","","","",""
"preload","1","31153","0.0-1.0","spark_pilot_norest","8647","3","15","Female","true","false","[]","[]","[]","[{""event"":""fullscreenenter"",""trial"":2,""time"":34700},{""event"":""blur"",""trial"":171,""time"":938729},{""event"":""focus"",""trial"":173,""time"":941436},{""event"":""blur"",""trial"":471,""time"":1887662},{""event"":""focus"",""trial"":471,""time"":1916142}]","","","","","","","","","","","","","","","","",""
"fullscreen","2","35658","0.0-2.0","spark_pilot_norest","8647","3","15","Female","true","","","","","","","","","","","","","","","","","","","","","",""
"call-function","3","46052","0.0-3.0","spark_pilot_norest","8647","3","15","Female","","","","","","","","","","","","","","","","","","","","","","",""
"audio-button-response","4","48939","0.0-4.0-0.0-0.0","spark_pilot_norest","8647","3","15","Female","","","","","","","","2597","./assets/audio/audiotest/turtle.mp3","4","audio_test","","","","","","","","","","","",""
"audio-button-response","5","50655","0.0-4.0-0.1-0.1","spark_pilot_norest","8647","3","15","Female","","","","","","","","715","./assets/audio/audiotest/turtle.mp3","2","audio_test","","","","","","","","","","","",""
"learning-instructions","6","61405","0.0-4.0-1.0-0.0","spark_pilot_norest","8647","3","15","Female","","","","","","","","2865","<p> Welcome! Please remember to stay in fullscreen mode and don't click away from the experiment. </p>","","instructions","","","","","","","","","","","",""
"learning-instructions","7","70889","0.0-4.0-1.0-0.1","spark_pilot_norest","8647","3","15","Female","","","","","","","","1100","<p> Today you will be playing a game to earn treasure. </p>
            <p> At the end of the experiment, you will earn a bonus based on how much treasure you find. </p>
            <img src='./assets/img/instructions/treasure.jpg' class='instructions-image'>","","instructions","","","","","","","","","","","",""
"learning-instructions","8","79822","0.0-4.0-1.0-0.2","spark_pilot_norest","8647","3","15","Female","","","","","","","","700.0000000000146","<p> Animals have hidden treasure in treasure chests. </p>
            <p> You need to first find an animal and then choose which of their treasure chests to search. </p>
            <img src='./assets/img/space/animals/cat.jpg' class='instructions-image'>","","instructions","","","","","","","","","","","",""
"learning-instructions","9","95687","0.0-4.0-1.0-0.3","spark_pilot_norest","8647","3","15","Female","","","","","","","","2748.0000000000146","<p> In each round, you will search for treasure in a different place. In the real game, there will be two rounds. </p>
            <p> You will begin with a separate, practice round where you will search for treasure in outer space. </p>
            <img src='./assets/img/space/0.jpg' class='instructions-image'>","","instructions","","","","","","","","","","","",""
"learning-instructions","10","110024","0.0-4.0-1.0-0.4","spark_pilot_norest","8647","3","15","Female","","","","","","","","2949","<p> On every turn, you will see a picture of the place that you are in, but the specific image may be different each time. </p>
            <p> For example, both of these images mean you are in outer space. </p>
            <img src='./assets/img/instructions/outerspace.jpg' class='instructions-image'>","","instructions","","","","","","","","","","","",""
"learning-instructions","11","120138","0.0-4.0-1.0-0.5","spark_pilot_norest","8647","3","15","Female","","","","","","","","2311.9999999999854","<p> You need to decide which direction to travel in. </p>
            <p> You can choose between going <b>up or down</b> by using the arrow keys. </p>
            <img src='./assets/img/instructions/updown.jpg' class='instructions-image'>","","instructions","","","","","","","","","","","",""
"learning-instructions","12","145571","0.0-4.0-1.0-0.6","spark_pilot_norest","8647","3","15","Female","","","","","","","","16649","<p> You will have <b>2 seconds</b> to make your choice. </p>
            <p> If you do not make a choice within 2 seconds, you will not find an animal or earn treasure. </p>
            <img src='./assets/img/instructions/2seconds.jpg' class='instructions-image'>","","instructions","","","","","","","","","","","",""
"learning-instructions","13","159955","0.0-4.0-1.0-0.7","spark_pilot_norest","8647","3","15","Female","","","","","","","","7370","<p> Let’s try practicing that now! </p>
            <p> When you see a picture of the place you are in, press the <b>up</b> key to travel up. </p>
            <img src='./assets/img/instructions/pressUp.jpg' class='instructions-image'>","","instructions","","","","","","","","","","","",""
"revaluation","14","163966","0.0-4.0-2.0-0.0","spark_pilot_norest","8647","3","15","Female","","false","","","","","","[884]","./assets/img/space/0.jpg","[""ArrowUp""]","first stage practice","space","0","null","null","ArrowUp","false","","","","","",""
"html-keyboard-response","15","164467","0.0-4.0-2.0-1.0","spark_pilot_norest","8647","3","15","Female","","","","","","","","null","<div style=""font-size:60px;"">+</div>","null","fixation","","","","","","","","","","","",""
"revaluation","16","168470","0.0-4.0-2.0-0.1","spark_pilot_norest","8647","3","15","Female","","false","","","","","","[1257]","./assets/img/space/1.jpg","[""ArrowUp""]","first stage practice","space","0","null","null","ArrowUp","false","","","","","",""
"html-keyboard-response","17","168971","0.0-4.0-2.0-1.1","spark_pilot_norest","8647","3","15","Female","","","","","","","","null","<div style=""font-size:60px;"">+</div>","null","fixation","","","","","","","","","","","",""
"revaluation","18","172974","0.0-4.0-2.0-0.2","spark_pilot_norest","8647","3","15","Female","","false","","","","","","[1505]","./assets/img/space/2.jpg","[""ArrowUp""]","first stage practice","space","0","null","null","ArrowUp","false","","","","","",""
"html-keyboard-response","19","173475","0.0-4.0-2.0-1.2","spark_pilot_norest","8647","3","15","Female","","","","","","","","null","<div style=""font-size:60px;"">+</div>","null","fixation","","","","","","","","","","","",""
"learning-instructions","20","179137","0.0-4.0-3.0-0.0","spark_pilot_norest","8647","3","15","Female","","","","","","","","981","<p> Great job! Now try pressing the <b>down</b> key to travel down. </p>
            <img src='./assets/img/instructions/pressDown.jpg' class='instructions-image'>","","instructions","","","","","","","","","","","",""
"revaluation","21","183141","0.0-4.0-4.0-0.0","spark_pilot_norest","8647","3","15","Female","","false","","","","","","[881]","./assets/img/space/3.jpg","[""ArrowDown""]","first stage practice","space","0","null","null","ArrowDown","false","","","","","",""
"html-keyboard-response","22","183642","0.0-4.0-4.0-1.0","spark_pilot_norest","8647","3","15","Female","","","","","","","","null","<div style=""font-size:60px;"">+</div>","null","fixation","","","","","","","","","","","",""
"revaluation","23","187645","0.0-4.0-4.0-0.1","spark_pilot_norest","8647","3","15","Female","","false","","","","","","[577]","./assets/img/space/4.jpg","[""ArrowDown""]","first stage practice","space","0","null","null","ArrowDown","false","","","","","",""
"html-keyboard-response","24","188146","0.0-4.0-4.0-1.1","spark_pilot_norest","8647","3","15","Female","","","","","","","","null","<div style=""font-size:60px;"">+</div>","null","fixation","","","","","","","","","","","",""
"revaluation","25","192149","0.0-4.0-4.0-0.2","spark_pilot_norest","8647","3","15","Female","","false","","","","","","[431.9999999999709]","./assets/img/space/5.jpg","[""ArrowDown""]","first stage practice","space","0","null","null","ArrowDown","false","","","","","",""
"html-keyboard-response","26","192649","0.0-4.0-4.0-1.2","spark_pilot_norest","8647","3","15","Female","","","","","","","","null","<div style=""font-size:60px;"">+</div>","null","fixation","","","","","","","","","","","",""
"learning-instructions","27","239406","0.0-4.0-5.0-0.0","spark_pilot_norest","8647","3","15","Female","","","","","","","","36933","<p> The animals don’t move, so the animal in the upper part of a place will stay in the upper part of a place, and the animal in the lower part of a place will stay in the lower part of a place. </p>","","instructions","","","","","","","","","","","",""
"learning-instructions","28","250321","0.0-4.0-5.0-0.1","spark_pilot_norest","8647","3","15","Female","","","","","","","","1810.999999999971","<p> Each animal has two treasure chests for you to choose from. </p>
            <p> The amount of treasure in each chest can range from <b> 0 to 40 pieces.</b></p>","","instructions","","","","","","","","","","","",""
"learning-instructions","29","262987","0.0-4.0-5.0-0.2","spark_pilot_norest","8647","3","15","Female","","","","","","","","1508","<p> You should decide which chest to search for treasure by using the <b>left</b> and <b>right</b> arrow keys. </p>
            <p><b> Pay attention to which animal is on the screen, as the animals have different treasure chests. </b></p>
            <img src='./assets/img/instructions/leftright.jpg' class='instructions-image'>","","instructions","","","","","","","","","","","",""
"learning-instructions","30","270387","0.0-4.0-5.0-0.3","spark_pilot_norest","8647","3","15","Female","","","","","","","","1055.0000000000582","<p> Let’s try practicing that now. </p>
            <p> When you see an animal, choose which chest to search for treasure. </p>
            <img src='./assets/img/instructions/chooseChest.jpg' class='instructions-image'>","","instructions","","","","","","","","","","","",""
"revaluation","31","274391","0.0-4.0-6.0-0.0","spark_pilot_norest","8647","3","15","Female","","false","","","","","","[877]","./assets/img/space/animals/rabbit.jpg","[""ArrowRight""]","second stage practice","space","23","{""ArrowUp,ArrowLeft"":3,""ArrowUp,ArrowRight"":36,""ArrowDown,ArrowLeft"":15,""ArrowDown,ArrowRight"":23}","true","ArrowDown,ArrowRight","","","","","","",""
"html-keyboard-response","32","274892","0.0-4.0-6.0-1.0","spark_pilot_norest","8647","3","15","Female","","","","","","","","null","<div style=""font-size:60px;"">+</div>","null","fixation","","","","","","","","","","","",""
"revaluation","33","278894","0.0-4.0-6.0-0.1","spark_pilot_norest","8647","3","15","Female","","false","","","","","","[498]","./assets/img/space/animals/cat.jpg","[""ArrowLeft""]","second stage practice","space","3","{""ArrowUp,ArrowLeft"":3,""ArrowUp,ArrowRight"":36,""ArrowDown,ArrowLeft"":15,""ArrowDown,ArrowRight"":23}","false","ArrowUp,ArrowLeft","","","","","","",""
"html-keyboard-response","34","279395","0.0-4.0-6.0-1.1","spark_pilot_norest","8647","3","15","Female","","","","","","","","null","<div style=""font-size:60px;"">+</div>","null","fixation","","","","","","","","","","","",""
"revaluation","35","283398","0.0-4.0-6.0-0.2","spark_pilot_norest","8647","3","15","Female","","false","","","","","","[433]","./assets/img/space/animals/cat.jpg","[""ArrowRight""]","second stage practice","space","36","{""ArrowUp,ArrowLeft"":3,""ArrowUp,ArrowRight"":36,""ArrowDown,ArrowLeft"":15,""ArrowDown,ArrowRight"":23}","true","ArrowUp,ArrowRight","","","","","","",""
"html-keyboard-response","36","283899","0.0-4.0-6.0-1.2","spark_pilot_norest","8647","3","15","Female","","","","","","","","null","<div style=""font-size:60px;"">+</div>","null","fixation","","","","","","","","","","","",""
"revaluation","37","287901","0.0-4.0-6.0-0.3","spark_pilot_norest","8647","3","15","Female","","false","","","","","","[936]","./assets/img/space/animals/rabbit.jpg","[""ArrowLeft""]","second stage practice","space","15","{""ArrowUp,ArrowLeft"":3,""ArrowUp,ArrowRight"":36,""ArrowDown,ArrowLeft"":15,""ArrowDown,ArrowRight"":23}","false","ArrowDown,ArrowLeft","","","","","","",""
"html-keyboard-response","38","288402","0.0-4.0-6.0-1.3","spark_pilot_norest","8647","3","15","Female","","","","","","","","null","<div style=""font-size:60px;"">+</div>","null","fixation","","","","","","","","","","","",""
"learning-instructions","39","307370","0.0-4.0-7.0-0.0","spark_pilot_norest","8647","3","15","Female","","","","","","","","2187","<p> Great job. Now let’s try putting it together. </p>
            <p> On each turn, you will first see a picture to remind you of the place you are in, and you need to choose whether to go up or down. </p>
            <p> Then you will see an animal and choose which of its chests to search for treasure. </p>","","instructions","","","","","","","","","","","",""
"learning-instructions","40","317020","0.0-4.0-7.0-0.1","spark_pilot_norest","8647","3","15","Female","","","","","","","","1417","<p> When you choose whether to go up or down, try to go to the animal with the chest with the most treasure. </p>
            <p> Try practicing that now! </p>","","instructions","","","","","","","","","","","",""
"revaluation","41","323024","0.0-4.0-8.0-0.0","spark_pilot_norest","8647","3","15","Female","","false","","","","","","[643.9999999999418,298.9999999999418]","./assets/img/space/6.jpg","[""ArrowDown"",""ArrowLeft""]","full practice","space","15","{""ArrowUp,ArrowLeft"":3,""ArrowUp,ArrowRight"":36,""ArrowDown,ArrowLeft"":15,""ArrowDown,ArrowRight"":23}","false","ArrowDown,ArrowLeft","false","","","","","",""
"html-keyboard-response","42","323525","0.0-4.0-8.0-1.0","spark_pilot_norest","8647","3","15","Female","","","","","","","","null","<div style=""font-size:60px;"">+</div>","null","fixation","","","","","","","","","","","",""
"revaluation","43","329528","0.0-4.0-8.0-0.1","spark_pilot_norest","8647","3","15","Female","","false","","","","","","[691,360]","./assets/img/space/7.jpg","[""ArrowUp"",""ArrowRight""]","full practice","space","36","{""ArrowUp,ArrowLeft"":3,""ArrowUp,ArrowRight"":36,""ArrowDown,ArrowLeft"":15,""ArrowDown,ArrowRight"":23}","true","ArrowUp,ArrowRight","false","","","","","",""
"html-keyboard-response","44","330029","0.0-4.0-8.0-1.1","spark_pilot_norest","8647","3","15","Female","","","","","","","","null","<div style=""font-size:60px;"">+</div>","null","fixation","","","","","","","","","","","",""
"revaluation","45","336032","0.0-4.0-8.0-0.2","spark_pilot_norest","8647","3","15","Female","","false","","","","","","[520,321]","./assets/img/space/8.jpg","[""ArrowDown"",""ArrowRight""]","full practice","space","23","{""ArrowUp,ArrowLeft"":3,""ArrowUp,ArrowRight"":36,""ArrowDown,ArrowLeft"":15,""ArrowDown,ArrowRight"":23}","false","ArrowDown,ArrowRight","false","","","","","",""
"html-keyboard-response","46","336533","0.0-4.0-8.0-1.2","spark_pilot_norest","8647","3","15","Female","","","","","","","","null","<div style=""font-size:60px;"">+</div>","null","fixation","","","","","","","","","","","",""
"revaluation","47","342536","0.0-4.0-8.0-0.3","spark_pilot_norest","8647","3","15","Female","","false","","","","","","[315.9999999999418,243.9999999999418]","./assets/img/space/9.jpg","[""ArrowUp"",""ArrowRight""]","full practice","space","36","{""ArrowUp,ArrowLeft"":3,""ArrowUp,ArrowRight"":36,""ArrowDown,ArrowLeft"":15,""ArrowDown,ArrowRight"":23}","true","ArrowUp,ArrowRight","false","","","","","",""
"html-keyboard-response","48","343038","0.0-4.0-8.0-1.3","spark_pilot_norest","8647","3","15","Female","","","","","","","","null","<div style=""font-size:60px;"">+</div>","null","fixation","","","","","","","","","","","",""
"revaluation","49","349040","0.0-4.0-8.0-0.4","spark_pilot_norest","8647","3","15","Female","","false","","","","","","[248,295]","./assets/img/space/10.jpg","[""ArrowUp"",""ArrowRight""]","full practice","space","36","{""ArrowUp,ArrowLeft"":3,""ArrowUp,ArrowRight"":36,""ArrowDown,ArrowLeft"":15,""ArrowDown,ArrowRight"":23}","true","ArrowUp,ArrowRight","false","","","","","",""
"html-keyboard-response","50","349540","0.0-4.0-8.0-1.4","spark_pilot_norest","8647","3","15","Female","","","","","","","","null","<div style=""font-size:60px;"">+</div>","null","fixation","","","","","","","","","","","",""
"learning-instructions","51","362086","0.0-4.0-9.0-0.0","spark_pilot_norest","8647","3","15","Female","","","","","","","","2261","<p> One last thing: sometimes, you will see a robber. The robber can be anywhere in the picture. </p>
            <p> If you do not stop them, you will lose treasure. </p>
            <img src='./assets/img/instructions/robber.jpg' class='instructions-image'>","","instructions","","","","","","","","","","","",""
"learning-instructions","52","372853","0.0-4.0-9.0-0.1","spark_pilot_norest","8647","3","15","Female","","","","","","","","2378","<p> If you see the robber, you should <b>press the space bar</b> rather than using the arrow keys. </p>
            <p> Try practicing that now! </p>","","instructions","","","","","","","","","","","",""
"revaluation","53","376855","0.0-4.0-10.0-0.0","spark_pilot_norest","8647","3","15","Female","","false","","","","","","[683]","./assets/img/space/catch/0.jpg","[""ArrowUp""]","catch practice","space","-10","{""ArrowUp,ArrowLeft"":3,""ArrowUp,ArrowRight"":36,""ArrowDown,ArrowLeft"":15,""ArrowDown,ArrowRight"":23}","false","ArrowUp","true","","","","","",""
"html-keyboard-response","54","377356","0.0-4.0-10.0-1.0","spark_pilot_norest","8647","3","15","Female","","","","","","","","null","<div style=""font-size:60px;"">+</div>","null","fixation","","","","","","","","","","","",""
"revaluation","55","381359","0.0-4.0-10.0-0.1","spark_pilot_norest","8647","3","15","Female","","false","","","","","","[478]","./assets/img/space/catch/1.jpg","[""spaceBar""]","catch practice","space","0","{""ArrowUp,ArrowLeft"":3,""ArrowUp,ArrowRight"":36,""ArrowDown,ArrowLeft"":15,""ArrowDown,ArrowRight"":23}","true","spaceBar","true","","","","","",""
"html-keyboard-response","56","381861","0.0-4.0-10.0-1.1","spark_pilot_norest","8647","3","15","Female","","","","","","","","null","<div style=""font-size:60px;"">+</div>","null","fixation","","","","","","","","","","","",""
"revaluation","57","385862","0.0-4.0-10.0-0.2","spark_pilot_norest","8647","3","15","Female","","false","","","","","","[313]","./assets/img/space/catch/2.jpg","[""spaceBar""]","catch practice","space","0","{""ArrowUp,ArrowLeft"":3,""ArrowUp,ArrowRight"":36,""ArrowDown,ArrowLeft"":15,""ArrowDown,ArrowRight"":23}","true","spaceBar","true","","","","","",""
"html-keyboard-response","58","386363","0.0-4.0-10.0-1.2","spark_pilot_norest","8647","3","15","Female","","","","","","","","null","<div style=""font-size:60px;"">+</div>","null","fixation","","","","","","","","","","","",""
"learning-instructions","59","392170","0.0-4.0-11.0-0.0-0.0","spark_pilot_norest","8647","3","15","Female","","","","","","","","585","<p> Now, you will practice a shortened version of the game to get a sense of how it all fits together. </p>","","instructions","","","","","","","","","","","",""
"learning-instructions","60","396187","0.0-4.0-11.0-0.0-0.1","spark_pilot_norest","8647","3","15","Female","","","","","","","","844.9999999999418","<p>This time you are searching for treasure in outer space.</p>","","instructions","","","","","","","","","","","",""
"learning-instructions","61","411803","0.0-4.0-11.0-1.0-0.0","spark_pilot_norest","8647","3","15","Female","","","","","","","","876.9999999999418","<p> Remember, when you see a picture of the place, use the up and down keys to <b>find an animal</b>.</p>
            <p> When you encounter an animal, you should use the left and right keys to <b>select a treasure chest</b>.</p>
            <p> Don't forget to look out for the robber! </p>","","instructions","","","","","","","","","","","",""
"revaluation","62","417805","0.0-4.0-11.0-2.0-0.0","spark_pilot_norest","8647","3","15","Female","","false","","","","","","[1310,643]","./assets/img/space/11.jpg","[""ArrowDown"",""ArrowRight""]","practice block","space","23","{""ArrowUp,ArrowLeft"":3,""ArrowUp,ArrowRight"":36,""ArrowDown,ArrowLeft"":15,""ArrowDown,ArrowRight"":23}","false","ArrowDown,ArrowRight","false","","","","","",""
"html-keyboard-response","63","418306","0.0-4.0-11.0-2.0-1.0","spark_pilot_norest","8647","3","15","Female","","","","","","","","null","<div style=""font-size:60px;"">+</div>","null","fixation","","","","","","","","","","","",""
"revaluation","64","424308","0.0-4.0-11.0-2.0-0.1","spark_pilot_norest","8647","3","15","Female","","false","","","","","","[559.0000000000582,643]","./assets/img/space/12.jpg","[""ArrowUp"",""ArrowRight""]","practice block","space","36","{""ArrowUp,ArrowLeft"":3,""ArrowUp,ArrowRight"":36,""ArrowDown,ArrowLeft"":15,""ArrowDown,ArrowRight"":23}","true","ArrowUp,ArrowRight","false","","","","","",""
"html-keyboard-response","65","424808","0.0-4.0-11.0-2.0-1.1","spark_pilot_norest","8647","3","15","Female","","","","","","","","null","<div style=""font-size:60px;"">+</div>","null","fixation","","","","","","","","","","","",""
"revaluation","66","430811","0.0-4.0-11.0-2.0-0.2","spark_pilot_norest","8647","3","15","Female","","false","","","","","","[1130,368]","./assets/img/space/13.jpg","[""ArrowUp"",""ArrowRight""]","practice block","space","36","{""ArrowUp,ArrowLeft"":3,""ArrowUp,ArrowRight"":36,""ArrowDown,ArrowLeft"":15,""ArrowDown,ArrowRight"":23}","true","ArrowUp,ArrowRight","false","","","","","",""
"html-keyboard-response","67","431312","0.0-4.0-11.0-2.0-1.2","spark_pilot_norest","8647","3","15","Female","","","","","","","","null","<div style=""font-size:60px;"">+</div>","null","fixation","","","","","","","","","","","",""
"revaluation","68","437315","0.0-4.0-11.0-2.0-0.3","spark_pilot_norest","8647","3","15","Female","","false","","","","","","[386.0000000000582,289]","./assets/img/space/14.jpg","[""ArrowUp"",""ArrowLeft""]","practice block","space","3","{""ArrowUp,ArrowLeft"":3,""ArrowUp,ArrowRight"":36,""ArrowDown,ArrowLeft"":15,""ArrowDown,ArrowRight"":23}","false","ArrowUp,ArrowLeft","false","","","","","",""
"html-keyboard-response","69","437816","0.0-4.0-11.0-2.0-1.3","spark_pilot_norest","8647","3","15","Female","","","","","","","","null","<div style=""font-size:60px;"">+</div>","null","fixation","","","","","","","","","","","",""
"revaluation","70","443817","0.0-4.0-11.0-2.0-0.4","spark_pilot_norest","8647","3","15","Female","","false","","","","","","[460.0000000000582,560.9999999999418]","./assets/img/space/11.jpg","[""ArrowUp"",""ArrowRight""]","practice block","space","36","{""ArrowUp,ArrowLeft"":3,""ArrowUp,ArrowRight"":36,""ArrowDown,ArrowLeft"":15,""ArrowDown,ArrowRight"":23}","true","ArrowUp,ArrowRight","false","","","","","",""
"html-keyboard-response","71","444318","0.0-4.0-11.0-2.0-1.4","spark_pilot_norest","8647","3","15","Female","","","","","","","","null","<div style=""font-size:60px;"">+</div>","null","fixation","","","","","","","","","","","",""
"revaluation","72","450320","0.0-4.0-11.0-2.0-0.5","spark_pilot_norest","8647","3","15","Female","","false","","","","","","[226,382]","./assets/img/space/12.jpg","[""ArrowUp"",""ArrowRight""]","practice block","space","36","{""ArrowUp,ArrowLeft"":3,""ArrowUp,ArrowRight"":36,""ArrowDown,ArrowLeft"":15,""ArrowDown,ArrowRight"":23}","true","ArrowUp,ArrowRight","false","","","","","",""
"html-keyboard-response","73","450821","0.0-4.0-11.0-2.0-1.5","spark_pilot_norest","8647","3","15","Female","","","","","","","","null","<div style=""font-size:60px;"">+</div>","null","fixation","","","","","","","","","","","",""
"revaluation","74","456824","0.0-4.0-11.0-2.0-0.6","spark_pilot_norest","8647","3","15","Female","","false","","","","","","[317.0000000000582,400]","./assets/img/space/13.jpg","[""ArrowUp"",""ArrowRight""]","practice block","space","36","{""ArrowUp,ArrowLeft"":3,""ArrowUp,ArrowRight"":36,""ArrowDown,ArrowLeft"":15,""ArrowDown,ArrowRight"":23}","true","ArrowUp,ArrowRight","false","","","","","",""
"html-keyboard-response","75","457325","0.0-4.0-11.0-2.0-1.6","spark_pilot_norest","8647","3","15","Female","","","","","","","","null","<div style=""font-size:60px;"">+</div>","null","fixation","","","","","","","","","","","",""
"revaluation","76","463328","0.0-4.0-11.0-2.0-0.7","spark_pilot_norest","8647","3","15","Female","","false","","","","","","[675,935]","./assets/img/space/14.jpg","[""ArrowUp"",""ArrowRight""]","practice block","space","36","{""ArrowUp,ArrowLeft"":3,""ArrowUp,ArrowRight"":36,""ArrowDown,ArrowLeft"":15,""ArrowDown,ArrowRight"":23}","true","ArrowUp,ArrowRight","false","","","","","",""
"html-keyboard-response","77","463829","0.0-4.0-11.0-2.0-1.7","spark_pilot_norest","8647","3","15","Female","","","","","","","","null","<div style=""font-size:60px;"">+</div>","null","fixation","","","","","","","","","","","",""
"revaluation","78","467831","0.0-4.0-11.0-2.0-0.8","spark_pilot_norest","8647","3","15","Female","","false","","","","","","[751]","./assets/img/space/catch/3.jpg","[""ArrowUp""]","practice block","space","-10","{""ArrowUp,ArrowLeft"":3,""ArrowUp,ArrowRight"":36,""ArrowDown,ArrowLeft"":15,""ArrowDown,ArrowRight"":23}","false","ArrowUp","true","","","","","",""
"html-keyboard-response","79","468332","0.0-4.0-11.0-2.0-1.8","spark_pilot_norest","8647","3","15","Female","","","","","","","","null","<div style=""font-size:60px;"">+</div>","null","fixation","","","","","","","","","","","",""
"learning-instructions","80","483421","0.0-4.0-11.0-3.0-0.0","spark_pilot_norest","8647","3","15","Female","","","","","","","","2201","<p> Now, you will travel with a friend who will choose whether you go up or down first. </p>
            <p> On these turns, you will just see the animal that they found. You will still get to choose which chest to search for treasure.</p>","","instructions","","","","","","","","","","","",""
"revaluation","81","487424","0.0-4.0-11.0-4.0-0.0","spark_pilot_norest","8647","3","15","Female","","true","","","","","","[]","./assets/img/space/animals/rabbit.jpg","[]","practice block","space","-5","{""ArrowUp,ArrowLeft"":3,""ArrowUp,ArrowRight"":36,""ArrowDown,ArrowLeft"":15,""ArrowDown,ArrowRight"":23}","false","ArrowDown","","","","","","",""
"html-keyboard-response","82","487925","0.0-4.0-11.0-4.0-1.0","spark_pilot_norest","8647","3","15","Female","","","","","","","","null","<div style=""font-size:60px;"">+</div>","null","fixation","","","","","","","","","","","",""
"revaluation","83","491927","0.0-4.0-11.0-4.0-0.1","spark_pilot_norest","8647","3","15","Female","","false","","","","","","[277.0000000000582]","./assets/img/space/animals/rabbit.jpg","[""ArrowRight""]","practice block","space","23","{""ArrowUp,ArrowLeft"":3,""ArrowUp,ArrowRight"":36,""ArrowDown,ArrowLeft"":15,""ArrowDown,ArrowRight"":23}","true","ArrowDown,ArrowRight","","","","","","",""
"html-keyboard-response","84","492428","0.0-4.0-11.0-4.0-1.1","spark_pilot_norest","8647","3","15","Female","","","","","","","","null","<div style=""font-size:60px;"">+</div>","null","fixation","","","","","","","","","","","",""
"revaluation","85","496430","0.0-4.0-11.0-4.0-0.2","spark_pilot_norest","8647","3","15","Female","","false","","","","","","[729.9999999999418]","./assets/img/space/animals/cat.jpg","[""ArrowLeft""]","practice block","space","3","{""ArrowUp,ArrowLeft"":3,""ArrowUp,ArrowRight"":36,""ArrowDown,ArrowLeft"":15,""ArrowDown,ArrowRight"":23}","false","ArrowUp,ArrowLeft","","","","","","",""
"html-keyboard-response","86","496930","0.0-4.0-11.0-4.0-1.2","spark_pilot_norest","8647","3","15","Female","","","","","","","","null","<div style=""font-size:60px;"">+</div>","null","fixation","","","","","","","","","","","",""
"revaluation","87","500932","0.0-4.0-11.0-4.0-0.3","spark_pilot_norest","8647","3","15","Female","","false","","","","","","[731]","./assets/img/space/animals/cat.jpg","[""ArrowRight""]","practice block","space","36","{""ArrowUp,ArrowLeft"":3,""ArrowUp,ArrowRight"":36,""ArrowDown,ArrowLeft"":15,""ArrowDown,ArrowRight"":23}","true","ArrowUp,ArrowRight","","","","","","",""
"html-keyboard-response","88","501434","0.0-4.0-11.0-4.0-1.3","spark_pilot_norest","8647","3","15","Female","","","","","","","","null","<div style=""font-size:60px;"">+</div>","null","fixation","","","","","","","","","","","",""
"learning-instructions","89","509538","0.0-4.0-11.0-5.0-0.0","spark_pilot_norest","8647","3","15","Female","","","","","","","","null","<p> You have almost finished this part of the game! </p>
            <p> We are going to ask you to make a few more choices. </p>","","instructions","","","","","","","","","","","",""
"learning-instructions","90","525527","0.0-4.0-11.0-5.0-0.1","spark_pilot_norest","8647","3","15","Female","","","","","","","","null","<p> First, you need to decide whether to go up or down. When you see each picture, use the arrow keys to make your choice. </p>
            <p><b>You will not see which animal you found, but try to get to the one that will give you the most treasure.</b></p>","","instructions","","","","","","","","","","","",""
"html-keyboard-response","91","526528","0.0-4.0-11.0-6.0-0.0","spark_pilot_norest","8647","3","15","Female","","","","","","","","null","<div style=""font-size:100px;color:red;"">Starting in...</div>","null","","","","","","","","","","","","",""
"html-keyboard-response","92","527529","0.0-4.0-11.0-6.0-1.0","spark_pilot_norest","8647","3","15","Female","","","","","","","","null","<div style=""font-size:200px;color:red;"">3</div>","null","","","","","","","","","","","","",""
"html-keyboard-response","93","528530","0.0-4.0-11.0-6.0-2.0","spark_pilot_norest","8647","3","15","Female","","","","","","","","null","<div style=""font-size:200px;color:red;"">2</div>","null","","","","","","","","","","","","",""
"html-keyboard-response","94","529531","0.0-4.0-11.0-6.0-3.0","spark_pilot_norest","8647","3","15","Female","","","","","","","","null","<div style=""font-size:200px;color:red;"">1</div>","null","","","","","","","","","","","","",""
"revaluation","95","530058","0.0-4.0-11.0-7.0","spark_pilot_norest","8647","3","15","Female","","false","","","","","","[526]","./assets/img/space/15.jpg","[""ArrowUp""]","practice block","space","0","{""ArrowUp,ArrowLeft"":3,""ArrowUp,ArrowRight"":36,""ArrowDown,ArrowLeft"":15,""ArrowDown,ArrowRight"":23}","true","ArrowUp","false","","","","","",""
"html-keyboard-response","96","530559","0.0-4.0-11.0-8.0","spark_pilot_norest","8647","3","15","Female","","","","","","","","null","<div style=""font-size:60px;"">+</div>","null","fixation","","","","","","","","","","","",""
"learning-instructions","97","543910","0.0-4.0-11.0-9.0-0.0","spark_pilot_norest","8647","3","15","Female","","","","","","","","null","<p> Now you will see the animals again and can search their chests for treasure. </p>
            <p> This time, you will not see how much treasure you earned, but you will earn more bonus money for making better choices. </p>","","instructions","","","","","","","","","","","",""
"html-keyboard-response","98","544911","0.0-4.0-11.0-10.0-0.0","spark_pilot_norest","8647","3","15","Female","","","","","","","","null","<div style=""font-size:100px;color:red;"">Starting in...</div>","null","","","","","","","","","","","","",""
"html-keyboard-response","99","545912","0.0-4.0-11.0-10.0-1.0","spark_pilot_norest","8647","3","15","Female","","","","","","","","null","<div style=""font-size:200px;color:red;"">3</div>","null","","","","","","","","","","","","",""
"html-keyboard-response","100","546912","0.0-4.0-11.0-10.0-2.0","spark_pilot_norest","8647","3","15","Female","","","","","","","","null","<div style=""font-size:200px;color:red;"">2</div>","null","","","","","","","","","","","","",""
"html-keyboard-response","101","547913","0.0-4.0-11.0-10.0-3.0","spark_pilot_norest","8647","3","15","Female","","","","","","","","null","<div style=""font-size:200px;color:red;"">1</div>","null","","","","","","","","","","","","",""
"revaluation","102","548657","0.0-4.0-11.0-11.0-0.0","spark_pilot_norest","8647","3","15","Female","","false","","","","","","[742]","./assets/img/space/animals/cat.jpg","[""ArrowRight""]","practice block","space","0","{""ArrowUp,ArrowLeft"":3,""ArrowUp,ArrowRight"":36,""ArrowDown,ArrowLeft"":15,""ArrowDown,ArrowRight"":23}","true","ArrowUp,ArrowRight","","","","","","",""
"html-keyboard-response","103","549157","0.0-4.0-11.0-11.0-1.0","spark_pilot_norest","8647","3","15","Female","","","","","","","","null","<div style=""font-size:60px;"">+</div>","null","fixation","","","","","","","","","","","",""
"revaluation","104","550011","0.0-4.0-11.0-11.0-0.1","spark_pilot_norest","8647","3","15","Female","","false","","","","","","[852]","./assets/img/space/animals/rabbit.jpg","[""ArrowLeft""]","practice block","space","0","{""ArrowUp,ArrowLeft"":3,""ArrowUp,ArrowRight"":36,""ArrowDown,ArrowLeft"":15,""ArrowDown,ArrowRight"":23}","false","ArrowDown,ArrowLeft","","","","","","",""
"html-keyboard-response","105","550511","0.0-4.0-11.0-11.0-1.1","spark_pilot_norest","8647","3","15","Female","","","","","","","","null","<div style=""font-size:60px;"">+</div>","null","fixation","","","","","","","","","","","",""
"learning-instructions","106","563086","0.0-4.0-12.0-0.0","spark_pilot_norest","8647","3","15","Female","","","","","","","","8015.999999999884","<p> Before you start, we're going to ask you a few questions about how the game works. </p>","","instructions","","","","","","","","","","","",""
"comp-q","107","570737","0.0-4.0-13.0-0.0-0.0","spark_pilot_norest","8647","3","15","Female","","","","","","","","742","<p> <b> True or False? </b> </p>
            <p> There can be 50 pieces of treasure in a given animal's chest. </p>","0","comp_question","","","","false","","","","","","","",""
"comp-q","108","578920","0.0-4.0-13.0-0.0-1.0","spark_pilot_norest","8647","3","15","Female","","","","","","","","945","<p> <b>Incorrect.</b> The amount of treasure in each chest can range from 0 to 40 pieces. </p>","0","comp_answer","","","","","","","","","","","",""
"comp-q","109","585102","0.0-4.0-13.0-0.1-0.1","spark_pilot_norest","8647","3","15","Female","","","","","","","","623","<p> <b> True or False? </b> </p>
            <p> There can be 50 pieces of treasure in a given animal's chest. </p>","1","comp_question","","","","true","","","","","","","",""
"comp-q","110","592670","0.0-4.0-13.0-0.1-1.1","spark_pilot_norest","8647","3","15","Female","","","","","","","","930.0000000001164","<p> <b> That's right! </b> The amount of treasure in each chest can range from 0 to 40 pieces. </p>","0","comp_answer","","","","","","","","","","","",""
"comp-q","111","601020","0.0-4.0-13.0-0.2-0.2","spark_pilot_norest","8647","3","15","Female","","","","","","","","1256","<p> <b> True or False? </b> </p><p> In this game, all animals have the same amount of treasure in their left and right chests. </p>","1","comp_question","","","","true","","","","","","","",""
"comp-q","112","607586","0.0-4.0-13.0-0.2-1.2","spark_pilot_norest","8647","3","15","Female","","","","","","","","1356","<p> <b> That's right! </b> Animals have different amounts of treasure in their treasure chests. </p>","0","comp_answer","","","","","","","","","","","",""
"comp-q","113","614486","0.0-4.0-13.0-0.3-0.3","spark_pilot_norest","8647","3","15","Female","","","","","","","","424","<p> <b> True or False? </b> </p><p> The same animal will always be there if you go up in the same place. </p>","0","comp_question","","","","true","","","","","","","",""
"comp-q","114","695285","0.0-4.0-13.0-0.3-1.3","spark_pilot_norest","8647","3","15","Female","","","","","","","","74375","<p> <b> That's right! </b> One animal lives in the upper part and one lives in the lower part of every place. </p>","0","comp_answer","","","","","","","","","","","",""
"comp-q","115","702286","0.0-4.0-13.0-0.4-0.4","spark_pilot_norest","8647","3","15","Female","","","","","","","","604","<p> <b> True or False? </b> </p><p> If you see a different picture, it means you are in a new place. </p>","0","comp_question","","","","false","","","","","","","",""
"comp-q","116","714519","0.0-4.0-13.0-0.4-1.4","spark_pilot_norest","8647","3","15","Female","","","","","","","","1166","<p> <b>Incorrect.</b> Lots of different images may show the same place. For example,  you may see three different images that all remind you that you are in outer space. </p>","0","comp_answer","","","","","","","","","","","",""
"comp-q","117","720686","0.0-4.0-13.0-0.5-0.5","spark_pilot_norest","8647","3","15","Female","","","","","","","","667.0000000001164","<p> <b> True or False? </b> </p><p> If you see a different picture, it means you are in a new place. </p>","1","comp_question","","","","true","","","","","","","",""
"comp-q","118","732519","0.0-4.0-13.0-0.5-1.5","spark_pilot_norest","8647","3","15","Female","","","","","","","","633","<p> <b> That's right! </b> Lots of different images may show the same place. For example,  you may see three different images that all remind you that you are in outer space. </p>","0","comp_answer","","","","","","","","","","","",""
"learning-instructions","119","743235","0.0-4.0-14.0-0.0","spark_pilot_norest","8647","3","15","Female","","","","","","","","889","<p> Good job. Remember to do your best because the amount of treasure you earn will be converted into bonus money. </p>
            <p> It’s time to start the real game! </p>","","instructions","","","","","","","","","","","",""
"learning-instructions","120","747222","0.0-5.0-0.0-0.0","spark_pilot_norest","8647","3","15","Female","","","","","","","","1296","<p> This time you are searching for treasure in the <b>ocean</b>.</p>","","instructions","","","","","","","","","","","",""
"learning-instructions","121","765736","0.0-5.0-0.0-0.1","spark_pilot_norest","8647","3","15","Female","","","","","","","","1240","<p><b>New</b> animals with <b>new</b> treasure chests live here. You need to explore to discover where the animal with the best treasure chest is.</p>
                    <p> Like before, once you figure out which animal has the chest with the most treasure, you should try to get to that animal and select that chest! </p>","","instructions","","","","","","","","","","","",""
"learning-instructions","122","781019","0.0-5.0-1.0-0.0","spark_pilot_norest","8647","3","15","Female","","","","","","","","554","<p> Remember, when you see a picture of the place, use the up and down keys to <b>find an animal</b>.</p>
            <p> When you encounter an animal, you should use the left and right keys to <b>select a treasure chest</b>.</p>
            <p> Don't forget to look out for the robber! </p>","","instructions","","","","","","","","","","","",""
"revaluation","123","787028","0.0-5.0-2.0-0.0","spark_pilot_norest","8647","3","15","Female","","false","","","","","","[984,614]","./assets/img/ocean/memory/38.jpg","[""ArrowDown"",""ArrowLeft""]","value training","ocean","8","{""ArrowUp,ArrowLeft"":23,""ArrowUp,ArrowRight"":10,""ArrowDown,ArrowLeft"":8,""ArrowDown,ArrowRight"":30}","false","ArrowDown,ArrowLeft","false","original","1","0","","",""
"html-keyboard-response","124","787529","0.0-5.0-2.0-1.0","spark_pilot_norest","8647","3","15","Female","","","","","","","","null","<div style=""font-size:60px;"">+</div>","null","fixation","","","","","","","","","1","","",""
"revaluation","125","793532","0.0-5.0-2.0-0.1","spark_pilot_norest","8647","3","15","Female","","false","","","","","","[452.9999999998836,333]","./assets/img/ocean/memory/16.jpg","[""ArrowUp"",""ArrowRight""]","value training","ocean","10","{""ArrowUp,ArrowLeft"":23,""ArrowUp,ArrowRight"":10,""ArrowDown,ArrowLeft"":8,""ArrowDown,ArrowRight"":30}","false","ArrowUp,ArrowRight","false","original","1","2","","",""
"html-keyboard-response","126","794033","0.0-5.0-2.0-1.1","spark_pilot_norest","8647","3","15","Female","","","","","","","","null","<div style=""font-size:60px;"">+</div>","null","fixation","","","","","","","","","3","","",""
"revaluation","127","800035","0.0-5.0-2.0-0.2","spark_pilot_norest","8647","3","15","Female","","false","","","","","","[257,280.9999999998836]","./assets/img/ocean/memory/41.jpg","[""ArrowUp"",""ArrowLeft""]","value training","ocean","23","{""ArrowUp,ArrowLeft"":23,""ArrowUp,ArrowRight"":10,""ArrowDown,ArrowLeft"":8,""ArrowDown,ArrowRight"":30}","false","ArrowUp,ArrowLeft","false","original","1","4","","",""
"html-keyboard-response","128","800537","0.0-5.0-2.0-1.2","spark_pilot_norest","8647","3","15","Female","","","","","","","","null","<div style=""font-size:60px;"">+</div>","null","fixation","","","","","","","","","5","","",""
"revaluation","129","804539","0.0-5.0-2.0-0.3","spark_pilot_norest","8647","3","15","Female","","false","","","","","","[172]","./assets/img/ocean/catch/5.jpg","[""ArrowDown""]","value training","ocean","-10","{""ArrowUp,ArrowLeft"":23,""ArrowUp,ArrowRight"":10,""ArrowDown,ArrowLeft"":8,""ArrowDown,ArrowRight"":30}","false","ArrowDown","true","original","1","6","","",""
"html-keyboard-response","130","805040","0.0-5.0-2.0-1.3","spark_pilot_norest","8647","3","15","Female","","","","","","","","null","<div style=""font-size:60px;"">+</div>","null","fixation","","","","","","","","","7","","",""
"revaluation","131","811043","0.0-5.0-2.0-0.4","spark_pilot_norest","8647","3","15","Female","","false","","","","","","[870,289]","./assets/img/ocean/memory/35.jpg","[""ArrowDown"",""ArrowLeft""]","value training","ocean","8","{""ArrowUp,ArrowLeft"":23,""ArrowUp,ArrowRight"":10,""ArrowDown,ArrowLeft"":8,""ArrowDown,ArrowRight"":30}","false","ArrowDown,ArrowLeft","false","original","1","8","","",""
"html-keyboard-response","132","811544","0.0-5.0-2.0-1.4","spark_pilot_norest","8647","3","15","Female","","","","","","","","null","<div style=""font-size:60px;"">+</div>","null","fixation","","","","","","","","","9","","",""
"revaluation","133","817547","0.0-5.0-2.0-0.5","spark_pilot_norest","8647","3","15","Female","","false","","","","","","[489,280]","./assets/img/ocean/memory/11.jpg","[""ArrowDown"",""ArrowRight""]","value training","ocean","30","{""ArrowUp,ArrowLeft"":23,""ArrowUp,ArrowRight"":10,""ArrowDown,ArrowLeft"":8,""ArrowDown,ArrowRight"":30}","true","ArrowDown,ArrowRight","false","original","1","10","","",""
"html-keyboard-response","134","818048","0.0-5.0-2.0-1.5","spark_pilot_norest","8647","3","15","Female","","","","","","","","null","<div style=""font-size:60px;"">+</div>","null","fixation","","","","","","","","","11","","",""
"revaluation","135","824051","0.0-5.0-2.0-0.6","spark_pilot_norest","8647","3","15","Female","","false","","","","","","[511,302]","./assets/img/ocean/memory/32.jpg","[""ArrowDown"",""ArrowRight""]","value training","ocean","30","{""ArrowUp,ArrowLeft"":23,""ArrowUp,ArrowRight"":10,""ArrowDown,ArrowLeft"":8,""ArrowDown,ArrowRight"":30}","true","ArrowDown,ArrowRight","false","original","1","12","","",""
"html-keyboard-response","136","824552","0.0-5.0-2.0-1.6","spark_pilot_norest","8647","3","15","Female","","","","","","","","null","<div style=""font-size:60px;"">+</div>","null","fixation","","","","","","","","","13","","",""
"revaluation","137","830555","0.0-5.0-2.0-0.7","spark_pilot_norest","8647","3","15","Female","","false","","","","","","[521.9999999998836,282.9999999998836]","./assets/img/ocean/memory/22.jpg","[""ArrowDown"",""ArrowRight""]","value training","ocean","30","{""ArrowUp,ArrowLeft"":23,""ArrowUp,ArrowRight"":10,""ArrowDown,ArrowLeft"":8,""ArrowDown,ArrowRight"":30}","true","ArrowDown,ArrowRight","false","original","1","14","","",""
"html-keyboard-response","138","831057","0.0-5.0-2.0-1.7","spark_pilot_norest","8647","3","15","Female","","","","","","","","null","<div style=""font-size:60px;"">+</div>","null","fixation","","","","","","","","","15","","",""
"revaluation","139","837059","0.0-5.0-2.0-0.8","spark_pilot_norest","8647","3","15","Female","","false","","","","","","[505.9999999998836,238.99999999988358]","./assets/img/ocean/memory/17.jpg","[""ArrowDown"",""ArrowRight""]","value training","ocean","30","{""ArrowUp,ArrowLeft"":23,""ArrowUp,ArrowRight"":10,""ArrowDown,ArrowLeft"":8,""ArrowDown,ArrowRight"":30}","true","ArrowDown,ArrowRight","false","original","1","16","","",""
"html-keyboard-response","140","837560","0.0-5.0-2.0-1.8","spark_pilot_norest","8647","3","15","Female","","","","","","","","null","<div style=""font-size:60px;"">+</div>","null","fixation","","","","","","","","","17","","",""
"revaluation","141","843562","0.0-5.0-2.0-0.9","spark_pilot_norest","8647","3","15","Female","","false","","","","","","[696,288]","./assets/img/ocean/memory/40.jpg","[""ArrowDown"",""ArrowRight""]","value training","ocean","30","{""ArrowUp,ArrowLeft"":23,""ArrowUp,ArrowRight"":10,""ArrowDown,ArrowLeft"":8,""ArrowDown,ArrowRight"":30}","true","ArrowDown,ArrowRight","false","original","1","18","","",""
"html-keyboard-response","142","844063","0.0-5.0-2.0-1.9","spark_pilot_norest","8647","3","15","Female","","","","","","","","null","<div style=""font-size:60px;"">+</div>","null","fixation","","","","","","","","","19","","",""
"revaluation","143","850066","0.0-5.0-2.0-0.10","spark_pilot_norest","8647","3","15","Female","","false","","","","","","[483,288]","./assets/img/ocean/memory/10.jpg","[""ArrowDown"",""ArrowRight""]","value training","ocean","30","{""ArrowUp,ArrowLeft"":23,""ArrowUp,ArrowRight"":10,""ArrowDown,ArrowLeft"":8,""ArrowDown,ArrowRight"":30}","true","ArrowDown,ArrowRight","false","original","1","20","","",""
"html-keyboard-response","144","850567","0.0-5.0-2.0-1.10","spark_pilot_norest","8647","3","15","Female","","","","","","","","null","<div style=""font-size:60px;"">+</div>","null","fixation","","","","","","","","","21","","",""
"revaluation","145","856570","0.0-5.0-2.0-0.11","spark_pilot_norest","8647","3","15","Female","","false","","","","","","[390,351]","./assets/img/ocean/memory/12.jpg","[""ArrowDown"",""ArrowRight""]","value training","ocean","30","{""ArrowUp,ArrowLeft"":23,""ArrowUp,ArrowRight"":10,""ArrowDown,ArrowLeft"":8,""ArrowDown,ArrowRight"":30}","true","ArrowDown,ArrowRight","false","original","1","22","","",""
"html-keyboard-response","146","857070","0.0-5.0-2.0-1.11","spark_pilot_norest","8647","3","15","Female","","","","","","","","null","<div style=""font-size:60px;"">+</div>","null","fixation","","","","","","","","","23","","",""
"revaluation","147","863074","0.0-5.0-2.0-0.12","spark_pilot_norest","8647","3","15","Female","","false","","","","","","[380.0000000001164,478]","./assets/img/ocean/memory/29.jpg","[""ArrowDown"",""ArrowRight""]","value training","ocean","30","{""ArrowUp,ArrowLeft"":23,""ArrowUp,ArrowRight"":10,""ArrowDown,ArrowLeft"":8,""ArrowDown,ArrowRight"":30}","true","ArrowDown,ArrowRight","false","original","1","24","","",""
"html-keyboard-response","148","863575","0.0-5.0-2.0-1.12","spark_pilot_norest","8647","3","15","Female","","","","","","","","null","<div style=""font-size:60px;"">+</div>","null","fixation","","","","","","","","","25","","",""
"revaluation","149","869577","0.0-5.0-2.0-0.13","spark_pilot_norest","8647","3","15","Female","","false","","","","","","[489.9999999998836,329.9999999998836]","./assets/img/ocean/memory/8.jpg","[""ArrowDown"",""ArrowRight""]","value training","ocean","30","{""ArrowUp,ArrowLeft"":23,""ArrowUp,ArrowRight"":10,""ArrowDown,ArrowLeft"":8,""ArrowDown,ArrowRight"":30}","true","ArrowDown,ArrowRight","false","original","1","26","","",""
"html-keyboard-response","150","870078","0.0-5.0-2.0-1.13","spark_pilot_norest","8647","3","15","Female","","","","","","","","null","<div style=""font-size:60px;"">+</div>","null","fixation","","","","","","","","","27","","",""
"revaluation","151","876080","0.0-5.0-2.0-0.14","spark_pilot_norest","8647","3","15","Female","","false","","","","","","[619,329.0000000001164]","./assets/img/ocean/memory/13.jpg","[""ArrowDown"",""ArrowRight""]","value training","ocean","30","{""ArrowUp,ArrowLeft"":23,""ArrowUp,ArrowRight"":10,""ArrowDown,ArrowLeft"":8,""ArrowDown,ArrowRight"":30}","true","ArrowDown,ArrowRight","false","original","1","28","","",""
"html-keyboard-response","152","876581","0.0-5.0-2.0-1.14","spark_pilot_norest","8647","3","15","Female","","","","","","","","null","<div style=""font-size:60px;"">+</div>","null","fixation","","","","","","","","","29","","",""
"revaluation","153","882583","0.0-5.0-2.0-0.15","spark_pilot_norest","8647","3","15","Female","","false","","","","","","[306,307.0000000001164]","./assets/img/ocean/memory/37.jpg","[""ArrowDown"",""ArrowRight""]","value training","ocean","30","{""ArrowUp,ArrowLeft"":23,""ArrowUp,ArrowRight"":10,""ArrowDown,ArrowLeft"":8,""ArrowDown,ArrowRight"":30}","true","ArrowDown,ArrowRight","false","original","1","30","","",""
"html-keyboard-response","154","883084","0.0-5.0-2.0-1.15","spark_pilot_norest","8647","3","15","Female","","","","","","","","null","<div style=""font-size:60px;"">+</div>","null","fixation","","","","","","","","","31","","",""
"revaluation","155","889086","0.0-5.0-2.0-0.16","spark_pilot_norest","8647","3","15","Female","","false","","","","","","[407,246.99999999988358]","./assets/img/ocean/memory/38.jpg","[""ArrowDown"",""ArrowRight""]","value training","ocean","30","{""ArrowUp,ArrowLeft"":23,""ArrowUp,ArrowRight"":10,""ArrowDown,ArrowLeft"":8,""ArrowDown,ArrowRight"":30}","true","ArrowDown,ArrowRight","false","original","1","32","","",""
"html-keyboard-response","156","889587","0.0-5.0-2.0-1.16","spark_pilot_norest","8647","3","15","Female","","","","","","","","null","<div style=""font-size:60px;"">+</div>","null","fixation","","","","","","","","","33","","",""
"revaluation","157","895591","0.0-5.0-2.0-0.17","spark_pilot_norest","8647","3","15","Female","","false","","","","","","[276,339]","./assets/img/ocean/memory/33.jpg","[""ArrowUp"",""ArrowRight""]","value training","ocean","10","{""ArrowUp,ArrowLeft"":23,""ArrowUp,ArrowRight"":10,""ArrowDown,ArrowLeft"":8,""ArrowDown,ArrowRight"":30}","false","ArrowUp,ArrowRight","false","original","1","34","","",""
"html-keyboard-response","158","896091","0.0-5.0-2.0-1.17","spark_pilot_norest","8647","3","15","Female","","","","","","","","null","<div style=""font-size:60px;"">+</div>","null","fixation","","","","","","","","","35","","",""
"revaluation","159","902095","0.0-5.0-2.0-0.18","spark_pilot_norest","8647","3","15","Female","","false","","","","","","[277,289.0000000001164]","./assets/img/ocean/memory/39.jpg","[""ArrowDown"",""ArrowRight""]","value training","ocean","30","{""ArrowUp,ArrowLeft"":23,""ArrowUp,ArrowRight"":10,""ArrowDown,ArrowLeft"":8,""ArrowDown,ArrowRight"":30}","true","ArrowDown,ArrowRight","false","original","1","36","","",""
"html-keyboard-response","160","902596","0.0-5.0-2.0-1.18","spark_pilot_norest","8647","3","15","Female","","","","","","","","null","<div style=""font-size:60px;"">+</div>","null","fixation","","","","","","","","","37","","",""
"revaluation","161","906599","0.0-5.0-2.0-0.19","spark_pilot_norest","8647","3","15","Female","","false","","","","","","[296]","./assets/img/ocean/catch/3.jpg","[""ArrowUp""]","value training","ocean","-10","{""ArrowUp,ArrowLeft"":23,""ArrowUp,ArrowRight"":10,""ArrowDown,ArrowLeft"":8,""ArrowDown,ArrowRight"":30}","false","ArrowUp","true","original","1","38","","",""
"html-keyboard-response","162","907100","0.0-5.0-2.0-1.19","spark_pilot_norest","8647","3","15","Female","","","","","","","","null","<div style=""font-size:60px;"">+</div>","null","fixation","","","","","","","","","39","","",""
"revaluation","163","913102","0.0-5.0-2.0-0.20","spark_pilot_norest","8647","3","15","Female","","false","","","","","","[449,536]","./assets/img/ocean/memory/33.jpg","[""ArrowUp"",""ArrowLeft""]","value training","ocean","23","{""ArrowUp,ArrowLeft"":23,""ArrowUp,ArrowRight"":10,""ArrowDown,ArrowLeft"":8,""ArrowDown,ArrowRight"":30}","false","ArrowUp,ArrowLeft","false","original","1","40","","",""
"html-keyboard-response","164","913604","0.0-5.0-2.0-1.20","spark_pilot_norest","8647","3","15","Female","","","","","","","","null","<div style=""font-size:60px;"">+</div>","null","fixation","","","","","","","","","41","","",""
"revaluation","165","919605","0.0-5.0-2.0-0.21","spark_pilot_norest","8647","3","15","Female","","false","","","","","","[836,452]","./assets/img/ocean/memory/35.jpg","[""ArrowDown"",""ArrowRight""]","value training","ocean","30","{""ArrowUp,ArrowLeft"":23,""ArrowUp,ArrowRight"":10,""ArrowDown,ArrowLeft"":8,""ArrowDown,ArrowRight"":30}","true","ArrowDown,ArrowRight","false","original","1","42","","",""
"html-keyboard-response","166","920106","0.0-5.0-2.0-1.21","spark_pilot_norest","8647","3","15","Female","","","","","","","","null","<div style=""font-size:60px;"">+</div>","null","fixation","","","","","","","","","43","","",""
"revaluation","167","926108","0.0-5.0-2.0-0.22","spark_pilot_norest","8647","3","15","Female","","false","","","","","","[1094,1813.0000000001164]","./assets/img/ocean/memory/10.jpg","[""ArrowDown"",""ArrowRight""]","value training","ocean","30","{""ArrowUp,ArrowLeft"":23,""ArrowUp,ArrowRight"":10,""ArrowDown,ArrowLeft"":8,""ArrowDown,ArrowRight"":30}","true","ArrowDown,ArrowRight","false","original","1","44","","",""
"html-keyboard-response","168","926609","0.0-5.0-2.0-1.22","spark_pilot_norest","8647","3","15","Female","","","","","","","","null","<div style=""font-size:60px;"">+</div>","null","fixation","","","","","","","","","45","","",""
"revaluation","169","932612","0.0-5.0-2.0-0.23","spark_pilot_norest","8647","3","15","Female","","false","","","","","","[360,428]","./assets/img/ocean/memory/19.jpg","[""ArrowDown"",""ArrowRight""]","value training","ocean","30","{""ArrowUp,ArrowLeft"":23,""ArrowUp,ArrowRight"":10,""ArrowDown,ArrowLeft"":8,""ArrowDown,ArrowRight"":30}","true","ArrowDown,ArrowRight","false","original","1","46","","",""
"html-keyboard-response","170","933113","0.0-5.0-2.0-1.23","spark_pilot_norest","8647","3","15","Female","","","","","","[{""event"":""fullscreenenter"",""trial"":2,""time"":34700},{""event"":""blur"",""trial"":171,""time"":938729},{""event"":""focus"",""trial"":173,""time"":941436},{""event"":""blur"",""trial"":471,""time"":1887662},{""event"":""focus"",""trial"":471,""time"":1916142}]","","null","<div style=""font-size:60px;"">+</div>","null","fixation","","","","","","","","","47","","",""
"revaluation","171","939180","0.0-5.0-2.0-0.24","spark_pilot_norest","8647","3","15","Female","","false","","","","","","[683,666]","./assets/img/ocean/memory/39.jpg","[""ArrowDown"",""ArrowRight""]","value training","ocean","30","{""ArrowUp,ArrowLeft"":23,""ArrowUp,ArrowRight"":10,""ArrowDown,ArrowLeft"":8,""ArrowDown,ArrowRight"":30}","true","ArrowDown,ArrowRight","false","original","1","48","","",""
"html-keyboard-response","172","939683","0.0-5.0-2.0-1.24","spark_pilot_norest","8647","3","15","Female","","","","","","[{""event"":""fullscreenenter"",""trial"":2,""time"":34700},{""event"":""blur"",""trial"":171,""time"":938729},{""event"":""focus"",""trial"":173,""time"":941436},{""event"":""blur"",""trial"":471,""time"":1887662},{""event"":""focus"",""trial"":471,""time"":1916142}]","","null","<div style=""font-size:60px;"">+</div>","null","fixation","","","","","","","","","49","","",""
"revaluation","173","943689","0.0-5.0-2.0-0.25","spark_pilot_norest","8647","3","15","Female","","true","","","","","","[]","./assets/img/ocean/memory/7.jpg","[]","value training","ocean","-5","{""ArrowUp,ArrowLeft"":23,""ArrowUp,ArrowRight"":10,""ArrowDown,ArrowLeft"":8,""ArrowDown,ArrowRight"":30}","false","","false","original","1","50","","",""
"html-keyboard-response","174","944191","0.0-5.0-2.0-1.25","spark_pilot_norest","8647","3","15","Female","","","","","","","","null","<div style=""font-size:60px;"">+</div>","null","fixation","","","","","","","","","51","","",""
"revaluation","175","948197","0.0-5.0-2.0-0.26","spark_pilot_norest","8647","3","15","Female","","false","","","","","","[1055]","./assets/img/ocean/catch/2.jpg","[""spaceBar""]","value training","ocean","0","{""ArrowUp,ArrowLeft"":23,""ArrowUp,ArrowRight"":10,""ArrowDown,ArrowLeft"":8,""ArrowDown,ArrowRight"":30}","true","spaceBar","true","original","1","52","","",""
"html-keyboard-response","176","948698","0.0-5.0-2.0-1.26","spark_pilot_norest","8647","3","15","Female","","","","","","","","null","<div style=""font-size:60px;"">+</div>","null","fixation","","","","","","","","","53","","",""
"revaluation","177","952702","0.0-5.0-2.0-0.27","spark_pilot_norest","8647","3","15","Female","","false","","","","","","[370.9999999998836]","./assets/img/ocean/catch/6.jpg","[""ArrowDown""]","value training","ocean","-10","{""ArrowUp,ArrowLeft"":23,""ArrowUp,ArrowRight"":10,""ArrowDown,ArrowLeft"":8,""ArrowDown,ArrowRight"":30}","false","ArrowDown","true","original","1","54","","",""
"html-keyboard-response","178","953203","0.0-5.0-2.0-1.27","spark_pilot_norest","8647","3","15","Female","","","","","","","","null","<div style=""font-size:60px;"">+</div>","null","fixation","","","","","","","","","55","","",""
"revaluation","179","959207","0.0-5.0-2.0-0.28","spark_pilot_norest","8647","3","15","Female","","false","","","","","","[483,224.99999999988358]","./assets/img/ocean/memory/34.jpg","[""ArrowDown"",""ArrowRight""]","value training","ocean","30","{""ArrowUp,ArrowLeft"":23,""ArrowUp,ArrowRight"":10,""ArrowDown,ArrowLeft"":8,""ArrowDown,ArrowRight"":30}","true","ArrowDown,ArrowRight","false","original","1","56","","",""
"html-keyboard-response","180","959708","0.0-5.0-2.0-1.28","spark_pilot_norest","8647","3","15","Female","","","","","","","","null","<div style=""font-size:60px;"">+</div>","null","fixation","","","","","","","","","57","","",""
"revaluation","181","965712","0.0-5.0-2.0-0.29","spark_pilot_norest","8647","3","15","Female","","false","","","","","","[1036,627]","./assets/img/ocean/memory/37.jpg","[""ArrowDown"",""ArrowRight""]","value training","ocean","30","{""ArrowUp,ArrowLeft"":23,""ArrowUp,ArrowRight"":10,""ArrowDown,ArrowLeft"":8,""ArrowDown,ArrowRight"":30}","true","ArrowDown,ArrowRight","false","original","1","58","","",""
"html-keyboard-response","182","966213","0.0-5.0-2.0-1.29","spark_pilot_norest","8647","3","15","Female","","","","","","","","null","<div style=""font-size:60px;"">+</div>","null","fixation","","","","","","","","","59","","",""
"revaluation","183","970215","0.0-5.0-2.0-0.30","spark_pilot_norest","8647","3","15","Female","","false","","","","","","[648]","./assets/img/ocean/catch/7.jpg","[""spaceBar""]","value training","ocean","0","{""ArrowUp,ArrowLeft"":23,""ArrowUp,ArrowRight"":10,""ArrowDown,ArrowLeft"":8,""ArrowDown,ArrowRight"":30}","true","spaceBar","true","original","1","60","","",""
"html-keyboard-response","184","970717","0.0-5.0-2.0-1.30","spark_pilot_norest","8647","3","15","Female","","","","","","","","null","<div style=""font-size:60px;"">+</div>","null","fixation","","","","","","","","","61","","",""
"revaluation","185","976720","0.0-5.0-2.0-0.31","spark_pilot_norest","8647","3","15","Female","","false","","","","","","[496,461.0000000001164]","./assets/img/ocean/memory/40.jpg","[""ArrowDown"",""ArrowRight""]","value training","ocean","30","{""ArrowUp,ArrowLeft"":23,""ArrowUp,ArrowRight"":10,""ArrowDown,ArrowLeft"":8,""ArrowDown,ArrowRight"":30}","true","ArrowDown,ArrowRight","false","original","1","62","","",""
"html-keyboard-response","186","977221","0.0-5.0-2.0-1.31","spark_pilot_norest","8647","3","15","Female","","","","","","","","null","<div style=""font-size:60px;"">+</div>","null","fixation","","","","","","","","","63","","",""
"revaluation","187","983224","0.0-5.0-2.0-0.32","spark_pilot_norest","8647","3","15","Female","","false","","","","","","[448.0000000001164,762.9999999998836]","./assets/img/ocean/memory/11.jpg","[""ArrowDown"",""ArrowRight""]","value training","ocean","30","{""ArrowUp,ArrowLeft"":23,""ArrowUp,ArrowRight"":10,""ArrowDown,ArrowLeft"":8,""ArrowDown,ArrowRight"":30}","true","ArrowDown,ArrowRight","false","original","1","64","","",""
"html-keyboard-response","188","983725","0.0-5.0-2.0-1.32","spark_pilot_norest","8647","3","15","Female","","","","","","","","null","<div style=""font-size:60px;"">+</div>","null","fixation","","","","","","","","","65","","",""
"revaluation","189","989728","0.0-5.0-2.0-0.33","spark_pilot_norest","8647","3","15","Female","","false","","","","","","[559,465]","./assets/img/ocean/memory/36.jpg","[""ArrowDown"",""ArrowRight""]","value training","ocean","30","{""ArrowUp,ArrowLeft"":23,""ArrowUp,ArrowRight"":10,""ArrowDown,ArrowLeft"":8,""ArrowDown,ArrowRight"":30}","true","ArrowDown,ArrowRight","false","original","1","66","","",""
"html-keyboard-response","190","990229","0.0-5.0-2.0-1.33","spark_pilot_norest","8647","3","15","Female","","","","","","","","null","<div style=""font-size:60px;"">+</div>","null","fixation","","","","","","","","","67","","",""
"revaluation","191","996232","0.0-5.0-2.0-0.34","spark_pilot_norest","8647","3","15","Female","","false","","","","","","[472,264]","./assets/img/ocean/memory/19.jpg","[""ArrowDown"",""ArrowRight""]","value training","ocean","30","{""ArrowUp,ArrowLeft"":23,""ArrowUp,ArrowRight"":10,""ArrowDown,ArrowLeft"":8,""ArrowDown,ArrowRight"":30}","true","ArrowDown,ArrowRight","false","original","1","68","","",""
"html-keyboard-response","192","996733","0.0-5.0-2.0-1.34","spark_pilot_norest","8647","3","15","Female","","","","","","","","null","<div style=""font-size:60px;"">+</div>","null","fixation","","","","","","","","","69","","",""
"revaluation","193","1002737","0.0-5.0-2.0-0.35","spark_pilot_norest","8647","3","15","Female","","false","","","","","","[424,469.0000000001164]","./assets/img/ocean/memory/34.jpg","[""ArrowDown"",""ArrowRight""]","value training","ocean","30","{""ArrowUp,ArrowLeft"":23,""ArrowUp,ArrowRight"":10,""ArrowDown,ArrowLeft"":8,""ArrowDown,ArrowRight"":30}","true","ArrowDown,ArrowRight","false","original","1","70","","",""
"html-keyboard-response","194","1003238","0.0-5.0-2.0-1.35","spark_pilot_norest","8647","3","15","Female","","","","","","","","null","<div style=""font-size:60px;"">+</div>","null","fixation","","","","","","","","","71","","",""
"revaluation","195","1009240","0.0-5.0-2.0-0.36","spark_pilot_norest","8647","3","15","Female","","true","","","","","","[711]","./assets/img/ocean/memory/29.jpg","[""ArrowDown""]","value training","ocean","-5","{""ArrowUp,ArrowLeft"":23,""ArrowUp,ArrowRight"":10,""ArrowDown,ArrowLeft"":8,""ArrowDown,ArrowRight"":30}","false","ArrowDown","false","original","1","72","","",""
"html-keyboard-response","196","1009742","0.0-5.0-2.0-1.36","spark_pilot_norest","8647","3","15","Female","","","","","","","","null","<div style=""font-size:60px;"">+</div>","null","fixation","","","","","","","","","73","","",""
"revaluation","197","1015744","0.0-5.0-2.0-0.37","spark_pilot_norest","8647","3","15","Female","","false","","","","","","[1200.9999999998836,1341.0000000001164]","./assets/img/ocean/memory/41.jpg","[""ArrowDown"",""ArrowRight""]","value training","ocean","30","{""ArrowUp,ArrowLeft"":23,""ArrowUp,ArrowRight"":10,""ArrowDown,ArrowLeft"":8,""ArrowDown,ArrowRight"":30}","true","ArrowDown,ArrowRight","false","original","1","74","","",""
"html-keyboard-response","198","1016245","0.0-5.0-2.0-1.37","spark_pilot_norest","8647","3","15","Female","","","","","","","","null","<div style=""font-size:60px;"">+</div>","null","fixation","","","","","","","","","75","","",""
"revaluation","199","1022248","0.0-5.0-2.0-0.38","spark_pilot_norest","8647","3","15","Female","","false","","","","","","[436,512]","./assets/img/ocean/memory/22.jpg","[""ArrowDown"",""ArrowRight""]","value training","ocean","30","{""ArrowUp,ArrowLeft"":23,""ArrowUp,ArrowRight"":10,""ArrowDown,ArrowLeft"":8,""ArrowDown,ArrowRight"":30}","true","ArrowDown,ArrowRight","false","original","1","76","","",""
"html-keyboard-response","200","1022749","0.0-5.0-2.0-1.38","spark_pilot_norest","8647","3","15","Female","","","","","","","","null","<div style=""font-size:60px;"">+</div>","null","fixation","","","","","","","","","77","","",""
"revaluation","201","1028751","0.0-5.0-2.0-0.39","spark_pilot_norest","8647","3","15","Female","","false","","","","","","[349.00000000023283,273.9999999998836]","./assets/img/ocean/memory/12.jpg","[""ArrowDown"",""ArrowRight""]","value training","ocean","30","{""ArrowUp,ArrowLeft"":23,""ArrowUp,ArrowRight"":10,""ArrowDown,ArrowLeft"":8,""ArrowDown,ArrowRight"":30}","true","ArrowDown,ArrowRight","false","original","1","78","","",""
"html-keyboard-response","202","1029252","0.0-5.0-2.0-1.39","spark_pilot_norest","8647","3","15","Female","","","","","","","","null","<div style=""font-size:60px;"">+</div>","null","fixation","","","","","","","","","79","","",""
"revaluation","203","1035254","0.0-5.0-2.0-0.40","spark_pilot_norest","8647","3","15","Female","","false","","","","","","[1022.9999999998836,952.9999999998836]","./assets/img/ocean/memory/36.jpg","[""ArrowDown"",""ArrowRight""]","value training","ocean","30","{""ArrowUp,ArrowLeft"":23,""ArrowUp,ArrowRight"":10,""ArrowDown,ArrowLeft"":8,""ArrowDown,ArrowRight"":30}","true","ArrowDown,ArrowRight","false","original","1","80","","",""
"html-keyboard-response","204","1035756","0.0-5.0-2.0-1.40","spark_pilot_norest","8647","3","15","Female","","","","","","","","null","<div style=""font-size:60px;"">+</div>","null","fixation","","","","","","","","","81","","",""
"revaluation","205","1041759","0.0-5.0-2.0-0.41","spark_pilot_norest","8647","3","15","Female","","false","","","","","","[701,404]","./assets/img/ocean/memory/13.jpg","[""ArrowDown"",""ArrowRight""]","value training","ocean","30","{""ArrowUp,ArrowLeft"":23,""ArrowUp,ArrowRight"":10,""ArrowDown,ArrowLeft"":8,""ArrowDown,ArrowRight"":30}","true","ArrowDown,ArrowRight","false","original","1","82","","",""
"html-keyboard-response","206","1042259","0.0-5.0-2.0-1.41","spark_pilot_norest","8647","3","15","Female","","","","","","","","null","<div style=""font-size:60px;"">+</div>","null","fixation","","","","","","","","","83","","",""
"revaluation","207","1048263","0.0-5.0-2.0-0.42","spark_pilot_norest","8647","3","15","Female","","false","","","","","","[631.9999999998836,485.9999999998836]","./assets/img/ocean/memory/17.jpg","[""ArrowDown"",""ArrowRight""]","value training","ocean","30","{""ArrowUp,ArrowLeft"":23,""ArrowUp,ArrowRight"":10,""ArrowDown,ArrowLeft"":8,""ArrowDown,ArrowRight"":30}","true","ArrowDown,ArrowRight","false","original","1","84","","",""
"html-keyboard-response","208","1048763","0.0-5.0-2.0-1.42","spark_pilot_norest","8647","3","15","Female","","","","","","","","null","<div style=""font-size:60px;"">+</div>","null","fixation","","","","","","","","","85","","",""
"revaluation","209","1054766","0.0-5.0-2.0-0.43","spark_pilot_norest","8647","3","15","Female","","false","","","","","","[491,420]","./assets/img/ocean/memory/8.jpg","[""ArrowDown"",""ArrowRight""]","value training","ocean","30","{""ArrowUp,ArrowLeft"":23,""ArrowUp,ArrowRight"":10,""ArrowDown,ArrowLeft"":8,""ArrowDown,ArrowRight"":30}","true","ArrowDown,ArrowRight","false","original","1","86","","",""
"html-keyboard-response","210","1055267","0.0-5.0-2.0-1.43","spark_pilot_norest","8647","3","15","Female","","","","","","","","null","<div style=""font-size:60px;"">+</div>","null","fixation","","","","","","","","","87","","",""
"revaluation","211","1059269","0.0-5.0-2.0-0.44","spark_pilot_norest","8647","3","15","Female","","false","","","","","","[1179]","./assets/img/ocean/catch/0.jpg","[""spaceBar""]","value training","ocean","0","{""ArrowUp,ArrowLeft"":23,""ArrowUp,ArrowRight"":10,""ArrowDown,ArrowLeft"":8,""ArrowDown,ArrowRight"":30}","true","spaceBar","true","original","1","88","","",""
"html-keyboard-response","212","1059771","0.0-5.0-2.0-1.44","spark_pilot_norest","8647","3","15","Female","","","","","","","","null","<div style=""font-size:60px;"">+</div>","null","fixation","","","","","","","","","89","","",""
"revaluation","213","1065774","0.0-5.0-2.0-0.45","spark_pilot_norest","8647","3","15","Female","","false","","","","","","[931,421.00000000023283]","./assets/img/ocean/memory/32.jpg","[""ArrowDown"",""ArrowRight""]","value training","ocean","30","{""ArrowUp,ArrowLeft"":23,""ArrowUp,ArrowRight"":10,""ArrowDown,ArrowLeft"":8,""ArrowDown,ArrowRight"":30}","true","ArrowDown,ArrowRight","false","original","1","90","","",""
"html-keyboard-response","214","1066275","0.0-5.0-2.0-1.45","spark_pilot_norest","8647","3","15","Female","","","","","","","","null","<div style=""font-size:60px;"">+</div>","null","fixation","","","","","","","","","91","","",""
"revaluation","215","1072277","0.0-5.0-2.0-0.46","spark_pilot_norest","8647","3","15","Female","","false","","","","","","[289,233]","./assets/img/ocean/memory/7.jpg","[""ArrowDown"",""ArrowRight""]","value training","ocean","30","{""ArrowUp,ArrowLeft"":23,""ArrowUp,ArrowRight"":10,""ArrowDown,ArrowLeft"":8,""ArrowDown,ArrowRight"":30}","true","ArrowDown,ArrowRight","false","original","1","92","","",""
"html-keyboard-response","216","1072777","0.0-5.0-2.0-1.46","spark_pilot_norest","8647","3","15","Female","","","","","","","","null","<div style=""font-size:60px;"">+</div>","null","fixation","","","","","","","","","93","","",""
"revaluation","217","1076779","0.0-5.0-2.0-0.47","spark_pilot_norest","8647","3","15","Female","","false","","","","","","[160]","./assets/img/ocean/catch/4.jpg","[""ArrowDown""]","value training","ocean","-10","{""ArrowUp,ArrowLeft"":23,""ArrowUp,ArrowRight"":10,""ArrowDown,ArrowLeft"":8,""ArrowDown,ArrowRight"":30}","false","ArrowDown","true","original","1","94","","",""
"html-keyboard-response","218","1077281","0.0-5.0-2.0-1.47","spark_pilot_norest","8647","3","15","Female","","","","","","","","null","<div style=""font-size:60px;"">+</div>","null","fixation","","","","","","","","","95","","",""
"revaluation","219","1081285","0.0-5.0-2.0-0.48","spark_pilot_norest","8647","3","15","Female","","false","","","","","","[383]","./assets/img/ocean/catch/1.jpg","[""ArrowDown""]","value training","ocean","-10","{""ArrowUp,ArrowLeft"":23,""ArrowUp,ArrowRight"":10,""ArrowDown,ArrowLeft"":8,""ArrowDown,ArrowRight"":30}","false","ArrowDown","true","original","1","96","","",""
"html-keyboard-response","220","1081786","0.0-5.0-2.0-1.48","spark_pilot_norest","8647","3","15","Female","","","","","","","","null","<div style=""font-size:60px;"">+</div>","null","fixation","","","","","","","","","97","","",""
"revaluation","221","1087789","0.0-5.0-2.0-0.49","spark_pilot_norest","8647","3","15","Female","","false","","","","","","[886,832]","./assets/img/ocean/memory/16.jpg","[""ArrowDown"",""ArrowRight""]","value training","ocean","30","{""ArrowUp,ArrowLeft"":23,""ArrowUp,ArrowRight"":10,""ArrowDown,ArrowLeft"":8,""ArrowDown,ArrowRight"":30}","true","ArrowDown,ArrowRight","false","original","1","98","","",""
"html-keyboard-response","222","1088289","0.0-5.0-2.0-1.49","spark_pilot_norest","8647","3","15","Female","","","","","","","","null","<div style=""font-size:60px;"">+</div>","null","fixation","","","","","","","","","99","","",""
"learning-instructions","223","1105179","0.0-5.0-3.0-0.0","spark_pilot_norest","8647","3","15","Female","","","","","","","","4007","<p> Now, you will travel with a friend who will choose whether you go up or down first. </p>
            <p> On these turns, you will just see the animal that they found. You will still get to choose which chest to search for treasure.</p>","","instructions","","","","","","","","","","","",""
"revaluation","224","1109181","0.0-5.0-4.0-0.0","spark_pilot_norest","8647","3","15","Female","","false","","","","","","[920]","./assets/img/ocean/animals/seahorse.jpg","[""ArrowRight""]","revaluation","ocean","30","{""ArrowUp,ArrowLeft"":23,""ArrowUp,ArrowRight"":10,""ArrowDown,ArrowLeft"":8,""ArrowDown,ArrowRight"":30}","true","ArrowDown,ArrowRight","","original","1","0","","",""
"html-keyboard-response","225","1109682","0.0-5.0-4.0-1.0","spark_pilot_norest","8647","3","15","Female","","","","","","","","null","<div style=""font-size:60px;"">+</div>","null","fixation","","","","","","","","","1","","",""
"revaluation","226","1113685","0.0-5.0-4.0-0.1","spark_pilot_norest","8647","3","15","Female","","false","","","","","","[535]","./assets/img/ocean/animals/seahorse.jpg","[""ArrowRight""]","revaluation","ocean","30","{""ArrowUp,ArrowLeft"":23,""ArrowUp,ArrowRight"":10,""ArrowDown,ArrowLeft"":8,""ArrowDown,ArrowRight"":30}","true","ArrowDown,ArrowRight","","original","1","2","","",""
"html-keyboard-response","227","1114186","0.0-5.0-4.0-1.1","spark_pilot_norest","8647","3","15","Female","","","","","","","","null","<div style=""font-size:60px;"">+</div>","null","fixation","","","","","","","","","3","","",""
"revaluation","228","1118188","0.0-5.0-4.0-0.2","spark_pilot_norest","8647","3","15","Female","","false","","","","","","[1374]","./assets/img/ocean/animals/seahorse.jpg","[""ArrowRight""]","revaluation","ocean","30","{""ArrowUp,ArrowLeft"":23,""ArrowUp,ArrowRight"":10,""ArrowDown,ArrowLeft"":8,""ArrowDown,ArrowRight"":30}","true","ArrowDown,ArrowRight","","original","1","4","","",""
"html-keyboard-response","229","1118690","0.0-5.0-4.0-1.2","spark_pilot_norest","8647","3","15","Female","","","","","","","","null","<div style=""font-size:60px;"">+</div>","null","fixation","","","","","","","","","5","","",""
"revaluation","230","1122693","0.0-5.0-4.0-0.3","spark_pilot_norest","8647","3","15","Female","","false","","","","","","[1175]","./assets/img/ocean/animals/octopus.jpg","[""ArrowLeft""]","revaluation","ocean","23","{""ArrowUp,ArrowLeft"":23,""ArrowUp,ArrowRight"":10,""ArrowDown,ArrowLeft"":8,""ArrowDown,ArrowRight"":30}","true","ArrowUp,ArrowLeft","","original","1","6","","",""
"html-keyboard-response","231","1123194","0.0-5.0-4.0-1.3","spark_pilot_norest","8647","3","15","Female","","","","","","","","null","<div style=""font-size:60px;"">+</div>","null","fixation","","","","","","","","","7","","",""
"revaluation","232","1127197","0.0-5.0-4.0-0.4","spark_pilot_norest","8647","3","15","Female","","false","","","","","","[927]","./assets/img/ocean/animals/octopus.jpg","[""ArrowLeft""]","revaluation","ocean","23","{""ArrowUp,ArrowLeft"":23,""ArrowUp,ArrowRight"":10,""ArrowDown,ArrowLeft"":8,""ArrowDown,ArrowRight"":30}","true","ArrowUp,ArrowLeft","","original","1","8","","",""
"html-keyboard-response","233","1127698","0.0-5.0-4.0-1.4","spark_pilot_norest","8647","3","15","Female","","","","","","","","null","<div style=""font-size:60px;"">+</div>","null","fixation","","","","","","","","","9","","",""
"revaluation","234","1131700","0.0-5.0-4.0-0.5","spark_pilot_norest","8647","3","15","Female","","false","","","","","","[843]","./assets/img/ocean/animals/octopus.jpg","[""ArrowLeft""]","revaluation","ocean","23","{""ArrowUp,ArrowLeft"":23,""ArrowUp,ArrowRight"":10,""ArrowDown,ArrowLeft"":8,""ArrowDown,ArrowRight"":30}","true","ArrowUp,ArrowLeft","","original","1","10","","",""
"html-keyboard-response","235","1132201","0.0-5.0-4.0-1.5","spark_pilot_norest","8647","3","15","Female","","","","","","","","null","<div style=""font-size:60px;"">+</div>","null","fixation","","","","","","","","","11","","",""
"revaluation","236","1136204","0.0-5.0-4.0-0.6","spark_pilot_norest","8647","3","15","Female","","false","","","","","","[1107.0000000002328]","./assets/img/ocean/animals/seahorse.jpg","[""ArrowRight""]","revaluation","ocean","30","{""ArrowUp,ArrowLeft"":23,""ArrowUp,ArrowRight"":10,""ArrowDown,ArrowLeft"":8,""ArrowDown,ArrowRight"":30}","true","ArrowDown,ArrowRight","","original","1","12","","",""
"html-keyboard-response","237","1136705","0.0-5.0-4.0-1.6","spark_pilot_norest","8647","3","15","Female","","","","","","","","null","<div style=""font-size:60px;"">+</div>","null","fixation","","","","","","","","","13","","",""
"revaluation","238","1140707","0.0-5.0-4.0-0.7","spark_pilot_norest","8647","3","15","Female","","false","","","","","","[1508]","./assets/img/ocean/animals/octopus.jpg","[""ArrowLeft""]","revaluation","ocean","23","{""ArrowUp,ArrowLeft"":23,""ArrowUp,ArrowRight"":10,""ArrowDown,ArrowLeft"":8,""ArrowDown,ArrowRight"":30}","true","ArrowUp,ArrowLeft","","original","1","14","","",""
"html-keyboard-response","239","1141207","0.0-5.0-4.0-1.7","spark_pilot_norest","8647","3","15","Female","","","","","","","","null","<div style=""font-size:60px;"">+</div>","null","fixation","","","","","","","","","15","","",""
"revaluation","240","1145210","0.0-5.0-4.0-0.8","spark_pilot_norest","8647","3","15","Female","","false","","","","","","[970]","./assets/img/ocean/animals/octopus.jpg","[""ArrowLeft""]","revaluation","ocean","23","{""ArrowUp,ArrowLeft"":23,""ArrowUp,ArrowRight"":10,""ArrowDown,ArrowLeft"":8,""ArrowDown,ArrowRight"":30}","true","ArrowUp,ArrowLeft","","original","1","16","","",""
"html-keyboard-response","241","1145710","0.0-5.0-4.0-1.8","spark_pilot_norest","8647","3","15","Female","","","","","","","","null","<div style=""font-size:60px;"">+</div>","null","fixation","","","","","","","","","17","","",""
"revaluation","242","1149712","0.0-5.0-4.0-0.9","spark_pilot_norest","8647","3","15","Female","","false","","","","","","[474]","./assets/img/ocean/animals/seahorse.jpg","[""ArrowRight""]","revaluation","ocean","30","{""ArrowUp,ArrowLeft"":23,""ArrowUp,ArrowRight"":10,""ArrowDown,ArrowLeft"":8,""ArrowDown,ArrowRight"":30}","true","ArrowDown,ArrowRight","","original","1","18","","",""
"html-keyboard-response","243","1150213","0.0-5.0-4.0-1.9","spark_pilot_norest","8647","3","15","Female","","","","","","","","null","<div style=""font-size:60px;"">+</div>","null","fixation","","","","","","","","","19","","",""
"revaluation","244","1154215","0.0-5.0-4.0-0.10","spark_pilot_norest","8647","3","15","Female","","false","","","","","","[1253.9999999997672]","./assets/img/ocean/animals/octopus.jpg","[""ArrowLeft""]","revaluation","ocean","23","{""ArrowUp,ArrowLeft"":23,""ArrowUp,ArrowRight"":10,""ArrowDown,ArrowLeft"":8,""ArrowDown,ArrowRight"":30}","true","ArrowUp,ArrowLeft","","original","1","20","","",""
"html-keyboard-response","245","1154716","0.0-5.0-4.0-1.10","spark_pilot_norest","8647","3","15","Female","","","","","","","","null","<div style=""font-size:60px;"">+</div>","null","fixation","","","","","","","","","21","","",""
"revaluation","246","1158719","0.0-5.0-4.0-0.11","spark_pilot_norest","8647","3","15","Female","","false","","","","","","[1037]","./assets/img/ocean/animals/seahorse.jpg","[""ArrowRight""]","revaluation","ocean","30","{""ArrowUp,ArrowLeft"":23,""ArrowUp,ArrowRight"":10,""ArrowDown,ArrowLeft"":8,""ArrowDown,ArrowRight"":30}","true","ArrowDown,ArrowRight","","original","1","22","","",""
"html-keyboard-response","247","1159219","0.0-5.0-4.0-1.11","spark_pilot_norest","8647","3","15","Female","","","","","","","","null","<div style=""font-size:60px;"">+</div>","null","fixation","","","","","","","","","23","","",""
"revaluation","248","1163221","0.0-5.0-4.0-0.12","spark_pilot_norest","8647","3","15","Female","","false","","","","","","[240]","./assets/img/ocean/animals/octopus.jpg","[""ArrowLeft""]","revaluation","ocean","23","{""ArrowUp,ArrowLeft"":23,""ArrowUp,ArrowRight"":10,""ArrowDown,ArrowLeft"":8,""ArrowDown,ArrowRight"":30}","true","ArrowUp,ArrowLeft","","original","1","24","","",""
"html-keyboard-response","249","1163722","0.0-5.0-4.0-1.12","spark_pilot_norest","8647","3","15","Female","","","","","","","","null","<div style=""font-size:60px;"">+</div>","null","fixation","","","","","","","","","25","","",""
"revaluation","250","1167724","0.0-5.0-4.0-0.13","spark_pilot_norest","8647","3","15","Female","","false","","","","","","[270]","./assets/img/ocean/animals/octopus.jpg","[""ArrowRight""]","revaluation","ocean","10","{""ArrowUp,ArrowLeft"":23,""ArrowUp,ArrowRight"":10,""ArrowDown,ArrowLeft"":8,""ArrowDown,ArrowRight"":30}","false","ArrowUp,ArrowRight","","original","1","26","","",""
"html-keyboard-response","251","1168225","0.0-5.0-4.0-1.13","spark_pilot_norest","8647","3","15","Female","","","","","","","","null","<div style=""font-size:60px;"">+</div>","null","fixation","","","","","","","","","27","","",""
"revaluation","252","1172228","0.0-5.0-4.0-0.14","spark_pilot_norest","8647","3","15","Female","","false","","","","","","[797]","./assets/img/ocean/animals/seahorse.jpg","[""ArrowRight""]","revaluation","ocean","30","{""ArrowUp,ArrowLeft"":23,""ArrowUp,ArrowRight"":10,""ArrowDown,ArrowLeft"":8,""ArrowDown,ArrowRight"":30}","true","ArrowDown,ArrowRight","","original","1","28","","",""
"html-keyboard-response","253","1172728","0.0-5.0-4.0-1.14","spark_pilot_norest","8647","3","15","Female","","","","","","","","null","<div style=""font-size:60px;"">+</div>","null","fixation","","","","","","","","","29","","",""
"revaluation","254","1176730","0.0-5.0-4.0-0.15","spark_pilot_norest","8647","3","15","Female","","false","","","","","","[235]","./assets/img/ocean/animals/octopus.jpg","[""ArrowLeft""]","revaluation","ocean","23","{""ArrowUp,ArrowLeft"":23,""ArrowUp,ArrowRight"":10,""ArrowDown,ArrowLeft"":8,""ArrowDown,ArrowRight"":30}","true","ArrowUp,ArrowLeft","","original","1","30","","",""
"html-keyboard-response","255","1177231","0.0-5.0-4.0-1.15","spark_pilot_norest","8647","3","15","Female","","","","","","","","null","<div style=""font-size:60px;"">+</div>","null","fixation","","","","","","","","","31","","",""
"revaluation","256","1181234","0.0-5.0-4.0-0.16","spark_pilot_norest","8647","3","15","Female","","false","","","","","","[743]","./assets/img/ocean/animals/seahorse.jpg","[""ArrowRight""]","revaluation","ocean","30","{""ArrowUp,ArrowLeft"":23,""ArrowUp,ArrowRight"":10,""ArrowDown,ArrowLeft"":8,""ArrowDown,ArrowRight"":30}","true","ArrowDown,ArrowRight","","original","1","32","","",""
"html-keyboard-response","257","1181736","0.0-5.0-4.0-1.16","spark_pilot_norest","8647","3","15","Female","","","","","","","","null","<div style=""font-size:60px;"">+</div>","null","fixation","","","","","","","","","33","","",""
"revaluation","258","1185738","0.0-5.0-4.0-0.17","spark_pilot_norest","8647","3","15","Female","","false","","","","","","[1478]","./assets/img/ocean/animals/seahorse.jpg","[""ArrowRight""]","revaluation","ocean","30","{""ArrowUp,ArrowLeft"":23,""ArrowUp,ArrowRight"":10,""ArrowDown,ArrowLeft"":8,""ArrowDown,ArrowRight"":30}","true","ArrowDown,ArrowRight","","original","1","34","","",""
"html-keyboard-response","259","1186239","0.0-5.0-4.0-1.17","spark_pilot_norest","8647","3","15","Female","","","","","","","","null","<div style=""font-size:60px;"">+</div>","null","fixation","","","","","","","","","35","","",""
"learning-instructions","260","1194342","0.0-5.0-5.0-0.0","spark_pilot_norest","8647","3","15","Female","","","","","","","","null","<p> You have almost finished this part of the game! </p>
            <p> We are going to ask you to make a few more choices. </p>","","instructions","","","","","","","","","","","",""
"learning-instructions","261","1210312","0.0-5.0-5.0-0.1","spark_pilot_norest","8647","3","15","Female","","","","","","","","null","<p> First, you need to decide whether to go up or down. When you see each picture, use the arrow keys to make your choice. </p>
            <p><b>You will not see which animal you found, but try to get to the one that will give you the most treasure.</b></p>","","instructions","","","","","","","","","","","",""
"html-keyboard-response","262","1211313","0.0-5.0-6.0-0.0","spark_pilot_norest","8647","3","15","Female","","","","","","","","null","<div style=""font-size:100px;color:red;"">Starting in...</div>","null","","","","","","","","","","","","",""
"html-keyboard-response","263","1212314","0.0-5.0-6.0-1.0","spark_pilot_norest","8647","3","15","Female","","","","","","","","null","<div style=""font-size:200px;color:red;"">3</div>","null","","","","","","","","","","","","",""
"html-keyboard-response","264","1213314","0.0-5.0-6.0-2.0","spark_pilot_norest","8647","3","15","Female","","","","","","","","null","<div style=""font-size:200px;color:red;"">2</div>","null","","","","","","","","","","","","",""
"html-keyboard-response","265","1214315","0.0-5.0-6.0-3.0","spark_pilot_norest","8647","3","15","Female","","","","","","","","null","<div style=""font-size:200px;color:red;"">1</div>","null","","","","","","","","","","","","",""
"revaluation","266","1215132","0.0-5.0-7.0-0.0","spark_pilot_norest","8647","3","15","Female","","false","","","","","","[815]","./assets/img/ocean/test/2.jpg","[""ArrowUp""]","first stage test","ocean","0","{""ArrowUp,ArrowLeft"":23,""ArrowUp,ArrowRight"":10,""ArrowDown,ArrowLeft"":8,""ArrowDown,ArrowRight"":30}","false","ArrowUp","false","original","1","","","",""
"html-keyboard-response","267","1215633","0.0-5.0-7.0-1.0","spark_pilot_norest","8647","3","15","Female","","","","","","","","null","<div style=""font-size:60px;"">+</div>","null","fixation","","","","","","","","","","","",""
"revaluation","268","1216658","0.0-5.0-7.0-0.1","spark_pilot_norest","8647","3","15","Female","","false","","","","","","[1023]","./assets/img/ocean/test/0.jpg","[""ArrowUp""]","first stage test","ocean","0","{""ArrowUp,ArrowLeft"":23,""ArrowUp,ArrowRight"":10,""ArrowDown,ArrowLeft"":8,""ArrowDown,ArrowRight"":30}","false","ArrowUp","false","original","1","","","",""
"html-keyboard-response","269","1217158","0.0-5.0-7.0-1.1","spark_pilot_norest","8647","3","15","Female","","","","","","","","null","<div style=""font-size:60px;"">+</div>","null","fixation","","","","","","","","","","","",""
"revaluation","270","1218060","0.0-5.0-7.0-0.2","spark_pilot_norest","8647","3","15","Female","","false","","","","","","[900]","./assets/img/ocean/test/3.jpg","[""ArrowDown""]","first stage test","ocean","0","{""ArrowUp,ArrowLeft"":23,""ArrowUp,ArrowRight"":10,""ArrowDown,ArrowLeft"":8,""ArrowDown,ArrowRight"":30}","true","ArrowDown","false","original","1","","","",""
"html-keyboard-response","271","1218561","0.0-5.0-7.0-1.2","spark_pilot_norest","8647","3","15","Female","","","","","","","","null","<div style=""font-size:60px;"">+</div>","null","fixation","","","","","","","","","","","",""
"revaluation","272","1218909","0.0-5.0-7.0-0.3","spark_pilot_norest","8647","3","15","Female","","false","","","","","","[346]","./assets/img/ocean/test/1.jpg","[""ArrowDown""]","first stage test","ocean","0","{""ArrowUp,ArrowLeft"":23,""ArrowUp,ArrowRight"":10,""ArrowDown,ArrowLeft"":8,""ArrowDown,ArrowRight"":30}","true","ArrowDown","false","original","1","","","",""
"html-keyboard-response","273","1219410","0.0-5.0-7.0-1.3","spark_pilot_norest","8647","3","15","Female","","","","","","","","null","<div style=""font-size:60px;"">+</div>","null","fixation","","","","","","","","","","","",""
"learning-instructions","274","1232751","0.0-5.0-8.0-0.0","spark_pilot_norest","8647","3","15","Female","","","","","","","","null","<p> Now you will see the animals again and can search their chests for treasure. </p>
            <p> This time, you will not see how much treasure you earned, but you will earn more bonus money for making better choices. </p>","","instructions","","","","","","","","","","","",""
"html-keyboard-response","275","1233751","0.0-5.0-9.0-0.0","spark_pilot_norest","8647","3","15","Female","","","","","","","","null","<div style=""font-size:100px;color:red;"">Starting in...</div>","null","","","","","","","","","","","","",""
"html-keyboard-response","276","1234752","0.0-5.0-9.0-1.0","spark_pilot_norest","8647","3","15","Female","","","","","","","","null","<div style=""font-size:200px;color:red;"">3</div>","null","","","","","","","","","","","","",""
"html-keyboard-response","277","1235753","0.0-5.0-9.0-2.0","spark_pilot_norest","8647","3","15","Female","","","","","","","","null","<div style=""font-size:200px;color:red;"">2</div>","null","","","","","","","","","","","","",""
"html-keyboard-response","278","1236753","0.0-5.0-9.0-3.0","spark_pilot_norest","8647","3","15","Female","","","","","","","","null","<div style=""font-size:200px;color:red;"">1</div>","null","","","","","","","","","","","","",""
"revaluation","279","1245928","0.0-5.0-10.0-0.0","spark_pilot_norest","8647","3","15","Female","","false","","","","","","[9173]","./assets/img/ocean/animals/octopus.jpg","[""ArrowLeft""]","second stage test","ocean","0","{""ArrowUp,ArrowLeft"":23,""ArrowUp,ArrowRight"":10,""ArrowDown,ArrowLeft"":8,""ArrowDown,ArrowRight"":30}","true","ArrowUp,ArrowLeft","","original","1","","","",""
"html-keyboard-response","280","1246429","0.0-5.0-10.0-1.0","spark_pilot_norest","8647","3","15","Female","","","","","","","","null","<div style=""font-size:60px;"">+</div>","null","fixation","","","","","","","","","","","",""
"revaluation","281","1247930","0.0-5.0-10.0-0.1","spark_pilot_norest","8647","3","15","Female","","false","","","","","","[1500]","./assets/img/ocean/animals/octopus.jpg","[""ArrowLeft""]","second stage test","ocean","0","{""ArrowUp,ArrowLeft"":23,""ArrowUp,ArrowRight"":10,""ArrowDown,ArrowLeft"":8,""ArrowDown,ArrowRight"":30}","true","ArrowUp,ArrowLeft","","original","1","","","",""
"html-keyboard-response","282","1248430","0.0-5.0-10.0-1.1","spark_pilot_norest","8647","3","15","Female","","","","","","","","null","<div style=""font-size:60px;"">+</div>","null","fixation","","","","","","","","","","","",""
"revaluation","283","1249472","0.0-5.0-10.0-0.2","spark_pilot_norest","8647","3","15","Female","","false","","","","","","[1040]","./assets/img/ocean/animals/octopus.jpg","[""ArrowLeft""]","second stage test","ocean","0","{""ArrowUp,ArrowLeft"":23,""ArrowUp,ArrowRight"":10,""ArrowDown,ArrowLeft"":8,""ArrowDown,ArrowRight"":30}","true","ArrowUp,ArrowLeft","","original","1","","","",""
"html-keyboard-response","284","1249973","0.0-5.0-10.0-1.2","spark_pilot_norest","8647","3","15","Female","","","","","","","","null","<div style=""font-size:60px;"">+</div>","null","fixation","","","","","","","","","","","",""
"revaluation","285","1250793","0.0-5.0-10.0-0.3","spark_pilot_norest","8647","3","15","Female","","false","","","","","","[818]","./assets/img/ocean/animals/octopus.jpg","[""ArrowLeft""]","second stage test","ocean","0","{""ArrowUp,ArrowLeft"":23,""ArrowUp,ArrowRight"":10,""ArrowDown,ArrowLeft"":8,""ArrowDown,ArrowRight"":30}","true","ArrowUp,ArrowLeft","","original","1","","","",""
"html-keyboard-response","286","1251294","0.0-5.0-10.0-1.3","spark_pilot_norest","8647","3","15","Female","","","","","","","","null","<div style=""font-size:60px;"">+</div>","null","fixation","","","","","","","","","","","",""
"revaluation","287","1252235","0.0-5.0-10.0-0.4","spark_pilot_norest","8647","3","15","Female","","false","","","","","","[940]","./assets/img/ocean/animals/seahorse.jpg","[""ArrowRight""]","second stage test","ocean","0","{""ArrowUp,ArrowLeft"":23,""ArrowUp,ArrowRight"":10,""ArrowDown,ArrowLeft"":8,""ArrowDown,ArrowRight"":30}","true","ArrowDown,ArrowRight","","original","1","","","",""
"html-keyboard-response","288","1252736","0.0-5.0-10.0-1.4","spark_pilot_norest","8647","3","15","Female","","","","","","","","null","<div style=""font-size:60px;"">+</div>","null","fixation","","","","","","","","","","","",""
"revaluation","289","1254026","0.0-5.0-10.0-0.5","spark_pilot_norest","8647","3","15","Female","","false","","","","","","[1289]","./assets/img/ocean/animals/seahorse.jpg","[""ArrowRight""]","second stage test","ocean","0","{""ArrowUp,ArrowLeft"":23,""ArrowUp,ArrowRight"":10,""ArrowDown,ArrowLeft"":8,""ArrowDown,ArrowRight"":30}","true","ArrowDown,ArrowRight","","original","1","","","",""
"html-keyboard-response","290","1254527","0.0-5.0-10.0-1.5","spark_pilot_norest","8647","3","15","Female","","","","","","","","null","<div style=""font-size:60px;"">+</div>","null","fixation","","","","","","","","","","","",""
"revaluation","291","1255670","0.0-5.0-10.0-0.6","spark_pilot_norest","8647","3","15","Female","","false","","","","","","[1142]","./assets/img/ocean/animals/seahorse.jpg","[""ArrowRight""]","second stage test","ocean","0","{""ArrowUp,ArrowLeft"":23,""ArrowUp,ArrowRight"":10,""ArrowDown,ArrowLeft"":8,""ArrowDown,ArrowRight"":30}","true","ArrowDown,ArrowRight","","original","1","","","",""
"html-keyboard-response","292","1256171","0.0-5.0-10.0-1.6","spark_pilot_norest","8647","3","15","Female","","","","","","","","null","<div style=""font-size:60px;"">+</div>","null","fixation","","","","","","","","","","","",""
"revaluation","293","1256443","0.0-5.0-10.0-0.7","spark_pilot_norest","8647","3","15","Female","","false","","","","","","[271]","./assets/img/ocean/animals/seahorse.jpg","[""ArrowRight""]","second stage test","ocean","0","{""ArrowUp,ArrowLeft"":23,""ArrowUp,ArrowRight"":10,""ArrowDown,ArrowLeft"":8,""ArrowDown,ArrowRight"":30}","true","ArrowDown,ArrowRight","","original","1","","","",""
"html-keyboard-response","294","1256944","0.0-5.0-10.0-1.7","spark_pilot_norest","8647","3","15","Female","","","","","","","","null","<div style=""font-size:60px;"">+</div>","null","fixation","","","","","","","","","","","",""
"learning-instructions","295","1262902","0.0-5.0-0.1-0.2","spark_pilot_norest","8647","3","15","Female","","","","","","","","1979","<p> This time you are searching for treasure in the <b>canyon</b>.</p>","","instructions","","","","","","","","","","","",""
"learning-instructions","296","1294302","0.0-5.0-0.1-0.3","spark_pilot_norest","8647","3","15","Female","","","","","","","","14151","<p><b>New</b> animals with <b>new</b> treasure chests live here. You need to explore to discover where the animal with the best treasure chest is.</p>
                    <p> Like before, once you figure out which animal has the chest with the most treasure, you should try to get to that animal and select that chest! </p>","","instructions","","","","","","","","","","","",""
"learning-instructions","297","1310169","0.0-5.0-1.1-0.1","spark_pilot_norest","8647","3","15","Female","","","","","","","","1135","<p> Remember, when you see a picture of the place, use the up and down keys to <b>find an animal</b>.</p>
            <p> When you encounter an animal, you should use the left and right keys to <b>select a treasure chest</b>.</p>
            <p> Don't forget to look out for the robber! </p>","","instructions","","","","","","","","","","","",""
"revaluation","298","1316171","0.0-5.0-2.1-0.50","spark_pilot_norest","8647","3","15","Female","","false","","","","","","[1149,454]","./assets/img/canyon/memory/16.jpg","[""ArrowDown"",""ArrowLeft""]","value training","canyon","5","{""ArrowUp,ArrowLeft"":26,""ArrowUp,ArrowRight"":10,""ArrowDown,ArrowLeft"":5,""ArrowDown,ArrowRight"":17}","false","ArrowDown,ArrowLeft","false","revaluation","2","0","","",""
"html-keyboard-response","299","1316672","0.0-5.0-2.1-1.50","spark_pilot_norest","8647","3","15","Female","","","","","","","","null","<div style=""font-size:60px;"">+</div>","null","fixation","","","","","","","","","1","","",""
"revaluation","300","1322675","0.0-5.0-2.1-0.51","spark_pilot_norest","8647","3","15","Female","","false","","","","","","[143,93]","./assets/img/canyon/memory/11.jpg","[""ArrowDown"",""ArrowRight""]","value training","canyon","17","{""ArrowUp,ArrowLeft"":26,""ArrowUp,ArrowRight"":10,""ArrowDown,ArrowLeft"":5,""ArrowDown,ArrowRight"":17}","false","ArrowDown,ArrowRight","false","revaluation","2","2","","",""
"html-keyboard-response","301","1323175","0.0-5.0-2.1-1.51","spark_pilot_norest","8647","3","15","Female","","","","","","","","null","<div style=""font-size:60px;"">+</div>","null","fixation","","","","","","","","","3","","",""
"revaluation","302","1327177","0.0-5.0-2.1-0.52","spark_pilot_norest","8647","3","15","Female","","false","","","","","","[1481.9999999997672]","./assets/img/canyon/catch/0.jpg","[""ArrowUp""]","value training","canyon","-10","{""ArrowUp,ArrowLeft"":26,""ArrowUp,ArrowRight"":10,""ArrowDown,ArrowLeft"":5,""ArrowDown,ArrowRight"":17}","false","ArrowUp","true","revaluation","2","4","","",""
"html-keyboard-response","303","1327679","0.0-5.0-2.1-1.52","spark_pilot_norest","8647","3","15","Female","","","","","","","","null","<div style=""font-size:60px;"">+</div>","null","fixation","","","","","","","","","5","","",""
"revaluation","304","1331682","0.0-5.0-2.1-0.53","spark_pilot_norest","8647","3","15","Female","","true","","","","","","[]","./assets/img/canyon/memory/37.jpg","[]","value training","canyon","-5","{""ArrowUp,ArrowLeft"":26,""ArrowUp,ArrowRight"":10,""ArrowDown,ArrowLeft"":5,""ArrowDown,ArrowRight"":17}","false","","false","revaluation","2","6","","",""
"html-keyboard-response","305","1332183","0.0-5.0-2.1-1.53","spark_pilot_norest","8647","3","15","Female","","","","","","","","null","<div style=""font-size:60px;"">+</div>","null","fixation","","","","","","","","","7","","",""
"revaluation","306","1336185","0.0-5.0-2.1-0.54","spark_pilot_norest","8647","3","15","Female","","false","","","","","","[1292]","./assets/img/canyon/catch/2.jpg","[""ArrowUp""]","value training","canyon","-10","{""ArrowUp,ArrowLeft"":26,""ArrowUp,ArrowRight"":10,""ArrowDown,ArrowLeft"":5,""ArrowDown,ArrowRight"":17}","false","ArrowUp","true","revaluation","2","8","","",""
"html-keyboard-response","307","1336687","0.0-5.0-2.1-1.54","spark_pilot_norest","8647","3","15","Female","","","","","","","","null","<div style=""font-size:60px;"">+</div>","null","fixation","","","","","","","","","9","","",""
"revaluation","308","1342691","0.0-5.0-2.1-0.55","spark_pilot_norest","8647","3","15","Female","","true","","","","","","[1833]","./assets/img/canyon/memory/10.jpg","[""ArrowDown""]","value training","canyon","-5","{""ArrowUp,ArrowLeft"":26,""ArrowUp,ArrowRight"":10,""ArrowDown,ArrowLeft"":5,""ArrowDown,ArrowRight"":17}","false","ArrowDown","false","revaluation","2","10","","",""
"html-keyboard-response","309","1343192","0.0-5.0-2.1-1.55","spark_pilot_norest","8647","3","15","Female","","","","","","","","null","<div style=""font-size:60px;"">+</div>","null","fixation","","","","","","","","","11","","",""
"revaluation","310","1349195","0.0-5.0-2.1-0.56","spark_pilot_norest","8647","3","15","Female","","false","","","","","","[310,547]","./assets/img/canyon/memory/40.jpg","[""ArrowUp"",""ArrowRight""]","value training","canyon","10","{""ArrowUp,ArrowLeft"":26,""ArrowUp,ArrowRight"":10,""ArrowDown,ArrowLeft"":5,""ArrowDown,ArrowRight"":17}","false","ArrowUp,ArrowRight","false","revaluation","2","12","","",""
"html-keyboard-response","311","1349696","0.0-5.0-2.1-1.56","spark_pilot_norest","8647","3","15","Female","","","","","","","","null","<div style=""font-size:60px;"">+</div>","null","fixation","","","","","","","","","13","","",""
"revaluation","312","1355699","0.0-5.0-2.1-0.57","spark_pilot_norest","8647","3","15","Female","","false","","","","","","[83.99999999976717,600.9999999997672]","./assets/img/canyon/memory/32.jpg","[""ArrowUp"",""ArrowLeft""]","value training","canyon","26","{""ArrowUp,ArrowLeft"":26,""ArrowUp,ArrowRight"":10,""ArrowDown,ArrowLeft"":5,""ArrowDown,ArrowRight"":17}","true","ArrowUp,ArrowLeft","false","revaluation","2","14","","",""
"html-keyboard-response","313","1356201","0.0-5.0-2.1-1.57","spark_pilot_norest","8647","3","15","Female","","","","","","","","null","<div style=""font-size:60px;"">+</div>","null","fixation","","","","","","","","","15","","",""
