"trial_type","trial_index","time_elapsed","internal_node_id","task_version","subject_id","assigned_condition","age","gender","success","timeout","failed_images","failed_audio","failed_video","browser_interaction","rt","stimulus","response","task_part","environment","score","rewardMap","correct","fullState","isCatch","condition","order","trial_num","key_press","ground_truth","bonus"
"pavlovia","0","1211","0.0-0.0","spark_pilot_norest","11122","2","7","Male","","","","","","","","","","","","","","","","","","","","","",""
"preload","1","8253","0.0-1.0","spark_pilot_norest","11122","2","7","Male","true","false","[]","[]","[]","[{""event"":""fullscreenenter"",""trial"":2,""time"":10822}]","","","","","","","","","","","","","","","",""
"fullscreen","2","11710","0.0-2.0","spark_pilot_norest","11122","2","7","Male","true","","","","","","","","","","","","","","","","","","","","",""
"audio-button-response","3","15407","0.0-3.0-0.0-0.0","spark_pilot_norest","11122","2","7","Male","","","","","","","3595","./assets/audio/audiotest/turtle.mp3","2","audio_test","","","","","","","","","","","",""
"learning-instructions","4","27091","0.0-3.0-1.0-0.0","spark_pilot_norest","11122","2","7","Male","","","","","","","4693.699999999255","<p> Welcome! Please remember to stay in fullscreen mode and don't click away from the experiment. </p>","","instructions","","","","","","","","","","","",""
"learning-instructions","5","40154","0.0-3.0-1.0-0.1","spark_pilot_norest","11122","2","7","Male","","","","","","","4631.60000000149","<p> Today you will be playing a game to earn treasure. </p>
            <p> At the end of the experiment, you will earn a bonus based on how much treasure you find. </p>
            <img src='./assets/img/instructions/treasure.jpg' class='instructions-image'>","","instructions","","","","","","","","","","","",""
"learning-instructions","6","51671","0.0-3.0-1.0-0.2","spark_pilot_norest","11122","2","7","Male","","","","","","","3230.800000000745","<p> Animals have hidden treasure in treasure chests. </p>
            <p> You need to first find an animal and then choose which of their treasure chests to search. </p>
            <img src='./assets/img/space/animals/cat.jpg' class='instructions-image'>","","instructions","","","","","","","","","","","",""
"learning-instructions","7","68046","0.0-3.0-1.0-0.3","spark_pilot_norest","11122","2","7","Male","","","","","","","3189.89999999851","<p> In each round, you will search for treasure in a different place. In the real game, there will be two rounds. </p>
            <p> You will begin with a separate, practice round where you will search for treasure in outer space. </p>
            <img src='./assets/img/space/0.jpg' class='instructions-image'>","","instructions","","","","","","","","","","","",""
"learning-instructions","8","85626","0.0-3.0-1.0-0.4","spark_pilot_norest","11122","2","7","Male","","","","","","","6113","<p> On every turn, you will see a picture of the place that you are in, but the specific image may be different each time. </p>
            <p> For example, both of these images mean you are in outer space. </p>
            <img src='./assets/img/instructions/outerspace.jpg' class='instructions-image'>","","instructions","","","","","","","","","","","",""
"learning-instructions","9","95016","0.0-3.0-1.0-0.5","spark_pilot_norest","11122","2","7","Male","","","","","","","1530.5","<p> You need to decide which direction to travel in. </p>
            <p> You can choose between going <b>up or down</b> by using the arrow keys. </p>
            <img src='./assets/img/instructions/updown.jpg' class='instructions-image'>","","instructions","","","","","","","","","","","",""
"learning-instructions","10","106015","0.0-3.0-1.0-0.6","spark_pilot_norest","11122","2","7","Male","","","","","","","2161.800000000745","<p> You will have <b>2 seconds</b> to make your choice. </p>
            <p> If you do not make a choice within 2 seconds, you will not find an animal or earn treasure. </p>
            <img src='./assets/img/instructions/2seconds.jpg' class='instructions-image'>","","instructions","","","","","","","","","","","",""
"learning-instructions","11","115764","0.0-3.0-1.0-0.7","spark_pilot_norest","11122","2","7","Male","","","","","","","2683.60000000149","<p> Let’s try practicing that now! </p>
            <p> When you see a picture of the place you are in, press the <b>up</b> key to travel up. </p>
            <img src='./assets/img/instructions/pressUp.jpg' class='instructions-image'>","","instructions","","","","","","","","","","","",""
"revaluation","12","119784","0.0-3.0-2.0-0.0","spark_pilot_norest","11122","2","7","Male","","false","","","","","[1107.800000000745]","./assets/img/space/0.jpg","[""ArrowUp""]","first stage practice","space","0","null","null","ArrowUp","false","","","","","",""
"html-keyboard-response","13","120286","0.0-3.0-2.0-1.0","spark_pilot_norest","11122","2","7","Male","","","","","","","null","<div style=""font-size:60px;"">+</div>","null","fixation","","","","","","","","","","","",""
"revaluation","14","124291","0.0-3.0-2.0-0.1","spark_pilot_norest","11122","2","7","Male","","true","","","","","[]","./assets/img/space/1.jpg","[]","first stage practice","space","-5","null","null","","false","","","","","",""
"html-keyboard-response","15","124793","0.0-3.0-2.0-1.1","spark_pilot_norest","11122","2","7","Male","","","","","","","null","<div style=""font-size:60px;"">+</div>","null","fixation","","","","","","","","","","","",""
"revaluation","16","128801","0.0-3.0-2.0-0.2","spark_pilot_norest","11122","2","7","Male","","false","","","","","[688.0999999977648]","./assets/img/space/2.jpg","[""ArrowUp""]","first stage practice","space","0","null","null","ArrowUp","false","","","","","",""
"html-keyboard-response","17","129304","0.0-3.0-2.0-1.2","spark_pilot_norest","11122","2","7","Male","","","","","","","null","<div style=""font-size:60px;"">+</div>","null","fixation","","","","","","","","","","","",""
"learning-instructions","18","134851","0.0-3.0-3.0-0.0","spark_pilot_norest","11122","2","7","Male","","","","","","","832.3000000007451","<p> Great job! Now try pressing the <b>down</b> key to travel down. </p>
            <img src='./assets/img/instructions/pressDown.jpg' class='instructions-image'>","","instructions","","","","","","","","","","","",""
"revaluation","19","138855","0.0-3.0-4.0-0.0","spark_pilot_norest","11122","2","7","Male","","false","","","","","[1446.1000000014901]","./assets/img/space/3.jpg","[""ArrowDown""]","first stage practice","space","0","null","null","ArrowDown","false","","","","","",""
"html-keyboard-response","20","139357","0.0-3.0-4.0-1.0","spark_pilot_norest","11122","2","7","Male","","","","","","","null","<div style=""font-size:60px;"">+</div>","null","fixation","","","","","","","","","","","",""
"revaluation","21","143362","0.0-3.0-4.0-0.1","spark_pilot_norest","11122","2","7","Male","","false","","","","","[1424.5]","./assets/img/space/4.jpg","[""ArrowDown""]","first stage practice","space","0","null","null","ArrowDown","false","","","","","",""
"html-keyboard-response","22","143863","0.0-3.0-4.0-1.1","spark_pilot_norest","11122","2","7","Male","","","","","","","null","<div style=""font-size:60px;"">+</div>","null","fixation","","","","","","","","","","","",""
"revaluation","23","147870","0.0-3.0-4.0-0.2","spark_pilot_norest","11122","2","7","Male","","false","","","","","[1171.300000000745]","./assets/img/space/5.jpg","[""ArrowDown""]","first stage practice","space","0","null","null","ArrowDown","false","","","","","",""
"html-keyboard-response","24","148371","0.0-3.0-4.0-1.2","spark_pilot_norest","11122","2","7","Male","","","","","","","null","<div style=""font-size:60px;"">+</div>","null","fixation","","","","","","","","","","","",""
"learning-instructions","25","160941","0.0-3.0-5.0-0.0","spark_pilot_norest","11122","2","7","Male","","","","","","","2699.300000000745","<p> The animals don’t move, so the animal in the upper part of a place will stay in the upper part of a place, and the animal in the lower part of a place will stay in the lower part of a place. </p>","","instructions","","","","","","","","","","","",""
"learning-instructions","26","171422","0.0-3.0-5.0-0.1","spark_pilot_norest","11122","2","7","Male","","","","","","","1318.300000000745","<p> Each animal has two treasure chests for you to choose from. </p>
            <p> The amount of treasure in each chest can range from <b> 0 to 40 pieces.</b></p>","","instructions","","","","","","","","","","","",""
"learning-instructions","27","183804","0.0-3.0-5.0-0.2","spark_pilot_norest","11122","2","7","Male","","","","","","","1166.699999999255","<p> You should decide which chest to search for treasure by using the <b>left</b> and <b>right</b> arrow keys. </p>
            <p><b> Pay attention to which animal is on the screen, as the animals have different treasure chests. </b></p>
            <img src='./assets/img/instructions/leftright.jpg' class='instructions-image'>","","instructions","","","","","","","","","","","",""
"learning-instructions","28","191511","0.0-3.0-5.0-0.3","spark_pilot_norest","11122","2","7","Male","","","","","","","1311.7000000029802","<p> Let’s try practicing that now. </p>
            <p> When you see an animal, choose which chest to search for treasure. </p>
            <img src='./assets/img/instructions/chooseChest.jpg' class='instructions-image'>","","instructions","","","","","","","","","","","",""
"revaluation","29","195520","0.0-3.0-6.0-0.0","spark_pilot_norest","11122","2","7","Male","","false","","","","","[1041.1000000014901]","./assets/img/space/animals/rabbit.jpg","[""ArrowRight""]","second stage practice","space","23","{""ArrowUp,ArrowLeft"":3,""ArrowUp,ArrowRight"":36,""ArrowDown,ArrowLeft"":15,""ArrowDown,ArrowRight"":23}","true","ArrowDown,ArrowRight","","","","","","",""
"html-keyboard-response","30","196022","0.0-3.0-6.0-1.0","spark_pilot_norest","11122","2","7","Male","","","","","","","null","<div style=""font-size:60px;"">+</div>","null","fixation","","","","","","","","","","","",""
"revaluation","31","200029","0.0-3.0-6.0-0.1","spark_pilot_norest","11122","2","7","Male","","false","","","","","[771.1999999992549]","./assets/img/space/animals/cat.jpg","[""ArrowLeft""]","second stage practice","space","3","{""ArrowUp,ArrowLeft"":3,""ArrowUp,ArrowRight"":36,""ArrowDown,ArrowLeft"":15,""ArrowDown,ArrowRight"":23}","false","ArrowUp,ArrowLeft","","","","","","",""
"html-keyboard-response","32","200531","0.0-3.0-6.0-1.1","spark_pilot_norest","11122","2","7","Male","","","","","","","null","<div style=""font-size:60px;"">+</div>","null","fixation","","","","","","","","","","","",""
"revaluation","33","204535","0.0-3.0-6.0-0.2","spark_pilot_norest","11122","2","7","Male","","false","","","","","[649.6999999992549]","./assets/img/space/animals/cat.jpg","[""ArrowRight""]","second stage practice","space","36","{""ArrowUp,ArrowLeft"":3,""ArrowUp,ArrowRight"":36,""ArrowDown,ArrowLeft"":15,""ArrowDown,ArrowRight"":23}","true","ArrowUp,ArrowRight","","","","","","",""
"html-keyboard-response","34","205037","0.0-3.0-6.0-1.2","spark_pilot_norest","11122","2","7","Male","","","","","","","null","<div style=""font-size:60px;"">+</div>","null","fixation","","","","","","","","","","","",""
"revaluation","35","209043","0.0-3.0-6.0-0.3","spark_pilot_norest","11122","2","7","Male","","false","","","","","[392.8999999985099]","./assets/img/space/animals/rabbit.jpg","[""ArrowLeft""]","second stage practice","space","15","{""ArrowUp,ArrowLeft"":3,""ArrowUp,ArrowRight"":36,""ArrowDown,ArrowLeft"":15,""ArrowDown,ArrowRight"":23}","false","ArrowDown,ArrowLeft","","","","","","",""
"html-keyboard-response","36","209544","0.0-3.0-6.0-1.3","spark_pilot_norest","11122","2","7","Male","","","","","","","null","<div style=""font-size:60px;"">+</div>","null","fixation","","","","","","","","","","","",""
"learning-instructions","37","229287","0.0-3.0-7.0-0.0","spark_pilot_norest","11122","2","7","Male","","","","","","","2884.699999999255","<p> Great job. Now let’s try putting it together. </p>
            <p> On each turn, you will first see a picture to remind you of the place you are in, and you need to choose whether to go up or down. </p>
            <p> Then you will see an animal and choose which of its chests to search for treasure. </p>","","instructions","","","","","","","","","","","",""
"learning-instructions","38","238972","0.0-3.0-7.0-0.1","spark_pilot_norest","11122","2","7","Male","","","","","","","1370","<p> When you choose whether to go up or down, try to go to the animal with the chest with the most treasure. </p>
            <p> Try practicing that now! </p>","","instructions","","","","","","","","","","","",""
"revaluation","39","244977","0.0-3.0-8.0-0.0","spark_pilot_norest","11122","2","7","Male","","false","","","","","[1261.800000000745,1278]","./assets/img/space/6.jpg","[""ArrowUp"",""ArrowRight""]","full practice","space","36","{""ArrowUp,ArrowLeft"":3,""ArrowUp,ArrowRight"":36,""ArrowDown,ArrowLeft"":15,""ArrowDown,ArrowRight"":23}","true","ArrowUp,ArrowRight","false","","","","","",""
"html-keyboard-response","40","245478","0.0-3.0-8.0-1.0","spark_pilot_norest","11122","2","7","Male","","","","","","","null","<div style=""font-size:60px;"">+</div>","null","fixation","","","","","","","","","","","",""
"revaluation","41","251483","0.0-3.0-8.0-0.1","spark_pilot_norest","11122","2","7","Male","","false","","","","","[1357.5999999977648,775.5]","./assets/img/space/7.jpg","[""ArrowUp"",""ArrowLeft""]","full practice","space","3","{""ArrowUp,ArrowLeft"":3,""ArrowUp,ArrowRight"":36,""ArrowDown,ArrowLeft"":15,""ArrowDown,ArrowRight"":23}","false","ArrowUp,ArrowLeft","false","","","","","",""
"html-keyboard-response","42","251984","0.0-3.0-8.0-1.1","spark_pilot_norest","11122","2","7","Male","","","","","","","null","<div style=""font-size:60px;"">+</div>","null","fixation","","","","","","","","","","","",""
"revaluation","43","257989","0.0-3.0-8.0-0.2","spark_pilot_norest","11122","2","7","Male","","false","","","","","[1359.7999999970198,938.6999999992549]","./assets/img/space/8.jpg","[""ArrowDown"",""ArrowRight""]","full practice","space","23","{""ArrowUp,ArrowLeft"":3,""ArrowUp,ArrowRight"":36,""ArrowDown,ArrowLeft"":15,""ArrowDown,ArrowRight"":23}","false","ArrowDown,ArrowRight","false","","","","","",""
"html-keyboard-response","44","258491","0.0-3.0-8.0-1.2","spark_pilot_norest","11122","2","7","Male","","","","","","","null","<div style=""font-size:60px;"">+</div>","null","fixation","","","","","","","","","","","",""
"revaluation","45","264495","0.0-3.0-8.0-0.3","spark_pilot_norest","11122","2","7","Male","","false","","","","","[883.8000000007451,1188.199999999255]","./assets/img/space/9.jpg","[""ArrowUp"",""ArrowRight""]","full practice","space","36","{""ArrowUp,ArrowLeft"":3,""ArrowUp,ArrowRight"":36,""ArrowDown,ArrowLeft"":15,""ArrowDown,ArrowRight"":23}","true","ArrowUp,ArrowRight","false","","","","","",""
"html-keyboard-response","46","264996","0.0-3.0-8.0-1.3","spark_pilot_norest","11122","2","7","Male","","","","","","","null","<div style=""font-size:60px;"">+</div>","null","fixation","","","","","","","","","","","",""
"revaluation","47","271002","0.0-3.0-8.0-0.4","spark_pilot_norest","11122","2","7","Male","","false","","","","","[1127.8999999985099,588.2000000029802]","./assets/img/space/10.jpg","[""ArrowUp"",""ArrowRight""]","full practice","space","36","{""ArrowUp,ArrowLeft"":3,""ArrowUp,ArrowRight"":36,""ArrowDown,ArrowLeft"":15,""ArrowDown,ArrowRight"":23}","true","ArrowUp,ArrowRight","false","","","","","",""
"html-keyboard-response","48","271504","0.0-3.0-8.0-1.4","spark_pilot_norest","11122","2","7","Male","","","","","","","null","<div style=""font-size:60px;"">+</div>","null","fixation","","","","","","","","","","","",""
"learning-instructions","49","286961","0.0-3.0-9.0-0.0","spark_pilot_norest","11122","2","7","Male","","","","","","","5078.199999999255","<p> One last thing: sometimes, you will see a robber. The robber can be anywhere in the picture. </p>
            <p> If you do not stop them, you will lose treasure. </p>
            <img src='./assets/img/instructions/robber.jpg' class='instructions-image'>","","instructions","","","","","","","","","","","",""
"learning-instructions","50","294864","0.0-3.0-9.0-0.1","spark_pilot_norest","11122","2","7","Male","","","","","","","714.4000000022352","<p> If you see the robber, you should <b>press the space bar</b> rather than using the arrow keys. </p>
            <p> Try practicing that now! </p>","","instructions","","","","","","","","","","","",""
"revaluation","51","298868","0.0-3.0-10.0-0.0","spark_pilot_norest","11122","2","7","Male","","false","","","","","[1209.199999999255]","./assets/img/space/catch/0.jpg","[""spaceBar""]","catch practice","space","0","{""ArrowUp,ArrowLeft"":3,""ArrowUp,ArrowRight"":36,""ArrowDown,ArrowLeft"":15,""ArrowDown,ArrowRight"":23}","true","spaceBar","true","","","","","",""
"html-keyboard-response","52","299369","0.0-3.0-10.0-1.0","spark_pilot_norest","11122","2","7","Male","","","","","","","null","<div style=""font-size:60px;"">+</div>","null","fixation","","","","","","","","","","","",""
"revaluation","53","303376","0.0-3.0-10.0-0.1","spark_pilot_norest","11122","2","7","Male","","false","","","","","[581.6000000014901]","./assets/img/space/catch/1.jpg","[""spaceBar""]","catch practice","space","0","{""ArrowUp,ArrowLeft"":3,""ArrowUp,ArrowRight"":36,""ArrowDown,ArrowLeft"":15,""ArrowDown,ArrowRight"":23}","true","spaceBar","true","","","","","",""
"html-keyboard-response","54","303877","0.0-3.0-10.0-1.1","spark_pilot_norest","11122","2","7","Male","","","","","","","null","<div style=""font-size:60px;"">+</div>","null","fixation","","","","","","","","","","","",""
"revaluation","55","307884","0.0-3.0-10.0-0.2","spark_pilot_norest","11122","2","7","Male","","false","","","","","[510]","./assets/img/space/catch/2.jpg","[""spaceBar""]","catch practice","space","0","{""ArrowUp,ArrowLeft"":3,""ArrowUp,ArrowRight"":36,""ArrowDown,ArrowLeft"":15,""ArrowDown,ArrowRight"":23}","true","spaceBar","true","","","","","",""
"html-keyboard-response","56","308386","0.0-3.0-10.0-1.2","spark_pilot_norest","11122","2","7","Male","","","","","","","null","<div style=""font-size:60px;"">+</div>","null","fixation","","","","","","","","","","","",""
"learning-instructions","57","319102","0.0-3.0-11.0-0.0-0.0","spark_pilot_norest","11122","2","7","Male","","","","","","","5421.400000002235","<p> Now, you will practice a shortened version of the game to get a sense of how it all fits together. </p>","","instructions","","","","","","","","","","","",""
"learning-instructions","58","334144","0.0-3.0-11.0-0.0-0.1","spark_pilot_norest","11122","2","7","Male","","","","","","","11824.400000002235","<p>This time you are searching for treasure in outer space.</p>","","instructions","","","","","","","","","","","",""
"learning-instructions","59","350006","0.0-3.0-11.0-1.0-0.0","spark_pilot_norest","11122","2","7","Male","","","","","","","1040.0999999977648","<p> Remember, when you see a picture of the place, use the up and down keys to <b>find an animal</b>.</p>
            <p> When you encounter an animal, you should use the left and right keys to <b>select a treasure chest</b>.</p>
            <p> Don't forget to look out for the robber! </p>","","instructions","","","","","","","","","","","",""
"revaluation","60","354012","0.0-3.0-11.0-2.0-0.0","spark_pilot_norest","11122","2","7","Male","","true","","","","","[]","./assets/img/space/11.jpg","[]","practice block","space","-5","{""ArrowUp,ArrowLeft"":3,""ArrowUp,ArrowRight"":36,""ArrowDown,ArrowLeft"":15,""ArrowDown,ArrowRight"":23}","false","","false","","","","","",""
"html-keyboard-response","61","354513","0.0-3.0-11.0-2.0-1.0","spark_pilot_norest","11122","2","7","Male","","","","","","","null","<div style=""font-size:60px;"">+</div>","null","fixation","","","","","","","","","","","",""
"revaluation","62","360518","0.0-3.0-11.0-2.0-0.1","spark_pilot_norest","11122","2","7","Male","","false","","","","","[455.19999999925494,1329.2000000029802]","./assets/img/space/12.jpg","[""ArrowUp"",""ArrowRight""]","practice block","space","36","{""ArrowUp,ArrowLeft"":3,""ArrowUp,ArrowRight"":36,""ArrowDown,ArrowLeft"":15,""ArrowDown,ArrowRight"":23}","true","ArrowUp,ArrowRight","false","","","","","",""
"html-keyboard-response","63","361019","0.0-3.0-11.0-2.0-1.1","spark_pilot_norest","11122","2","7","Male","","","","","","","null","<div style=""font-size:60px;"">+</div>","null","fixation","","","","","","","","","","","",""
"revaluation","64","367025","0.0-3.0-11.0-2.0-0.2","spark_pilot_norest","11122","2","7","Male","","false","","","","","[907,884.8000000007451]","./assets/img/space/13.jpg","[""ArrowUp"",""ArrowRight""]","practice block","space","36","{""ArrowUp,ArrowLeft"":3,""ArrowUp,ArrowRight"":36,""ArrowDown,ArrowLeft"":15,""ArrowDown,ArrowRight"":23}","true","ArrowUp,ArrowRight","false","","","","","",""
"html-keyboard-response","65","367526","0.0-3.0-11.0-2.0-1.2","spark_pilot_norest","11122","2","7","Male","","","","","","","null","<div style=""font-size:60px;"">+</div>","null","fixation","","","","","","","","","","","",""
"revaluation","66","373530","0.0-3.0-11.0-2.0-0.3","spark_pilot_norest","11122","2","7","Male","","false","","","","","[957.9000000022352,696.8000000007451]","./assets/img/space/14.jpg","[""ArrowUp"",""ArrowRight""]","practice block","space","36","{""ArrowUp,ArrowLeft"":3,""ArrowUp,ArrowRight"":36,""ArrowDown,ArrowLeft"":15,""ArrowDown,ArrowRight"":23}","true","ArrowUp,ArrowRight","false","","","","","",""
"html-keyboard-response","67","374032","0.0-3.0-11.0-2.0-1.3","spark_pilot_norest","11122","2","7","Male","","","","","","","null","<div style=""font-size:60px;"">+</div>","null","fixation","","","","","","","","","","","",""
"revaluation","68","380038","0.0-3.0-11.0-2.0-0.4","spark_pilot_norest","11122","2","7","Male","","false","","","","","[1359.5,793]","./assets/img/space/11.jpg","[""ArrowUp"",""ArrowRight""]","practice block","space","36","{""ArrowUp,ArrowLeft"":3,""ArrowUp,ArrowRight"":36,""ArrowDown,ArrowLeft"":15,""ArrowDown,ArrowRight"":23}","true","ArrowUp,ArrowRight","false","","","","","",""
"html-keyboard-response","69","380541","0.0-3.0-11.0-2.0-1.4","spark_pilot_norest","11122","2","7","Male","","","","","","","null","<div style=""font-size:60px;"">+</div>","null","fixation","","","","","","","","","","","",""
"revaluation","70","386552","0.0-3.0-11.0-2.0-0.5","spark_pilot_norest","11122","2","7","Male","","false","","","","","[951.5999999977648,730.3000000007451]","./assets/img/space/12.jpg","[""ArrowDown"",""ArrowRight""]","practice block","space","23","{""ArrowUp,ArrowLeft"":3,""ArrowUp,ArrowRight"":36,""ArrowDown,ArrowLeft"":15,""ArrowDown,ArrowRight"":23}","false","ArrowDown,ArrowRight","false","","","","","",""
"html-keyboard-response","71","387055","0.0-3.0-11.0-2.0-1.5","spark_pilot_norest","11122","2","7","Male","","","","","","","null","<div style=""font-size:60px;"">+</div>","null","fixation","","","","","","","","","","","",""
"revaluation","72","393064","0.0-3.0-11.0-2.0-0.6","spark_pilot_norest","11122","2","7","Male","","false","","","","","[1372.0999999977648,742.7999999970198]","./assets/img/space/13.jpg","[""ArrowUp"",""ArrowRight""]","practice block","space","36","{""ArrowUp,ArrowLeft"":3,""ArrowUp,ArrowRight"":36,""ArrowDown,ArrowLeft"":15,""ArrowDown,ArrowRight"":23}","true","ArrowUp,ArrowRight","false","","","","","",""
"html-keyboard-response","73","393567","0.0-3.0-11.0-2.0-1.6","spark_pilot_norest","11122","2","7","Male","","","","","","","null","<div style=""font-size:60px;"">+</div>","null","fixation","","","","","","","","","","","",""
"revaluation","74","399576","0.0-3.0-11.0-2.0-0.7","spark_pilot_norest","11122","2","7","Male","","false","","","","","[759.6999999992549,785.8000000007451]","./assets/img/space/14.jpg","[""ArrowUp"",""ArrowRight""]","practice block","space","36","{""ArrowUp,ArrowLeft"":3,""ArrowUp,ArrowRight"":36,""ArrowDown,ArrowLeft"":15,""ArrowDown,ArrowRight"":23}","true","ArrowUp,ArrowRight","false","","","","","",""
"html-keyboard-response","75","400078","0.0-3.0-11.0-2.0-1.7","spark_pilot_norest","11122","2","7","Male","","","","","","","null","<div style=""font-size:60px;"">+</div>","null","fixation","","","","","","","","","","","",""
"revaluation","76","404087","0.0-3.0-11.0-2.0-0.8","spark_pilot_norest","11122","2","7","Male","","false","","","","","[1303.300000000745]","./assets/img/space/catch/3.jpg","[""spaceBar""]","practice block","space","0","{""ArrowUp,ArrowLeft"":3,""ArrowUp,ArrowRight"":36,""ArrowDown,ArrowLeft"":15,""ArrowDown,ArrowRight"":23}","true","spaceBar","true","","","","","",""
"html-keyboard-response","77","404588","0.0-3.0-11.0-2.0-1.8","spark_pilot_norest","11122","2","7","Male","","","","","","","null","<div style=""font-size:60px;"">+</div>","null","fixation","","","","","","","","","","","",""
"learning-instructions","78","419365","0.0-3.0-11.0-3.0-0.0","spark_pilot_norest","11122","2","7","Male","","","","","","","1736","<p> Now, you will travel with a friend who will choose whether you go up or down first. </p>
            <p> On these turns, you will just see the animal that they found. You will still get to choose which chest to search for treasure.</p>","","instructions","","","","","","","","","","","",""
"revaluation","79","423369","0.0-3.0-11.0-4.0-0.0","spark_pilot_norest","11122","2","7","Male","","false","","","","","[1631.199999999255]","./assets/img/space/animals/cat.jpg","[""ArrowRight""]","practice block","space","36","{""ArrowUp,ArrowLeft"":3,""ArrowUp,ArrowRight"":36,""ArrowDown,ArrowLeft"":15,""ArrowDown,ArrowRight"":23}","true","ArrowUp,ArrowRight","","","","","","",""
"html-keyboard-response","80","423871","0.0-3.0-11.0-4.0-1.0","spark_pilot_norest","11122","2","7","Male","","","","","","","null","<div style=""font-size:60px;"">+</div>","null","fixation","","","","","","","","","","","",""
"revaluation","81","427875","0.0-3.0-11.0-4.0-0.1","spark_pilot_norest","11122","2","7","Male","","false","","","","","[1084]","./assets/img/space/animals/cat.jpg","[""ArrowRight""]","practice block","space","36","{""ArrowUp,ArrowLeft"":3,""ArrowUp,ArrowRight"":36,""ArrowDown,ArrowLeft"":15,""ArrowDown,ArrowRight"":23}","true","ArrowUp,ArrowRight","","","","","","",""
"html-keyboard-response","82","428377","0.0-3.0-11.0-4.0-1.1","spark_pilot_norest","11122","2","7","Male","","","","","","","null","<div style=""font-size:60px;"">+</div>","null","fixation","","","","","","","","","","","",""
"revaluation","83","432381","0.0-3.0-11.0-4.0-0.2","spark_pilot_norest","11122","2","7","Male","","false","","","","","[1536.2999999970198]","./assets/img/space/animals/rabbit.jpg","[""ArrowRight""]","practice block","space","23","{""ArrowUp,ArrowLeft"":3,""ArrowUp,ArrowRight"":36,""ArrowDown,ArrowLeft"":15,""ArrowDown,ArrowRight"":23}","true","ArrowDown,ArrowRight","","","","","","",""
"html-keyboard-response","84","432882","0.0-3.0-11.0-4.0-1.2","spark_pilot_norest","11122","2","7","Male","","","","","","","null","<div style=""font-size:60px;"">+</div>","null","fixation","","","","","","","","","","","",""
"revaluation","85","436889","0.0-3.0-11.0-4.0-0.3","spark_pilot_norest","11122","2","7","Male","","false","","","","","[583.8000000007451]","./assets/img/space/animals/rabbit.jpg","[""ArrowLeft""]","practice block","space","15","{""ArrowUp,ArrowLeft"":3,""ArrowUp,ArrowRight"":36,""ArrowDown,ArrowLeft"":15,""ArrowDown,ArrowRight"":23}","false","ArrowDown,ArrowLeft","","","","","","",""
"html-keyboard-response","86","437390","0.0-3.0-11.0-4.0-1.3","spark_pilot_norest","11122","2","7","Male","","","","","","","null","<div style=""font-size:60px;"">+</div>","null","fixation","","","","","","","","","","","",""
"learning-instructions","87","445538","0.0-3.0-11.0-5.0-0.0","spark_pilot_norest","11122","2","7","Male","","","","","","","null","<p> You have almost finished this part of the game! </p>
            <p> We are going to ask you to make a few more choices. </p>","","instructions","","","","","","","","","","","",""
"learning-instructions","88","461581","0.0-3.0-11.0-5.0-0.1","spark_pilot_norest","11122","2","7","Male","","","","","","","null","<p> First, you need to decide whether to go up or down. When you see each picture, use the arrow keys to make your choice. </p>
            <p><b>You will not see which animal you found, but try to get to the one that will give you the most treasure.</b></p>","","instructions","","","","","","","","","","","",""
"html-keyboard-response","89","462583","0.0-3.0-11.0-6.0-0.0","spark_pilot_norest","11122","2","7","Male","","","","","","","null","<div style=""font-size:100px;color:red;"">Starting in...</div>","null","","","","","","","","","","","","",""
"html-keyboard-response","90","463584","0.0-3.0-11.0-6.0-1.0","spark_pilot_norest","11122","2","7","Male","","","","","","","null","<div style=""font-size:200px;color:red;"">3</div>","null","","","","","","","","","","","","",""
"html-keyboard-response","91","464585","0.0-3.0-11.0-6.0-2.0","spark_pilot_norest","11122","2","7","Male","","","","","","","null","<div style=""font-size:200px;color:red;"">2</div>","null","","","","","","","","","","","","",""
"html-keyboard-response","92","465586","0.0-3.0-11.0-6.0-3.0","spark_pilot_norest","11122","2","7","Male","","","","","","","null","<div style=""font-size:200px;color:red;"">1</div>","null","","","","","","","","","","","","",""
"revaluation","93","466766","0.0-3.0-11.0-7.0","spark_pilot_norest","11122","2","7","Male","","false","","","","","[1176.5999999977648]","./assets/img/space/15.jpg","[""ArrowDown""]","practice block","space","0","{""ArrowUp,ArrowLeft"":3,""ArrowUp,ArrowRight"":36,""ArrowDown,ArrowLeft"":15,""ArrowDown,ArrowRight"":23}","false","ArrowDown","false","","","","","",""
"html-keyboard-response","94","467268","0.0-3.0-11.0-8.0","spark_pilot_norest","11122","2","7","Male","","","","","","","null","<div style=""font-size:60px;"">+</div>","null","fixation","","","","","","","","","","","",""
"learning-instructions","95","480674","0.0-3.0-11.0-9.0-0.0","spark_pilot_norest","11122","2","7","Male","","","","","","","null","<p> Now you will see the animals again and can search their chests for treasure. </p>
            <p> This time, you will not see how much treasure you earned, but you will earn more bonus money for making better choices. </p>","","instructions","","","","","","","","","","","",""
"html-keyboard-response","96","481676","0.0-3.0-11.0-10.0-0.0","spark_pilot_norest","11122","2","7","Male","","","","","","","null","<div style=""font-size:100px;color:red;"">Starting in...</div>","null","","","","","","","","","","","","",""
"html-keyboard-response","97","482677","0.0-3.0-11.0-10.0-1.0","spark_pilot_norest","11122","2","7","Male","","","","","","","null","<div style=""font-size:200px;color:red;"">3</div>","null","","","","","","","","","","","","",""
"html-keyboard-response","98","483678","0.0-3.0-11.0-10.0-2.0","spark_pilot_norest","11122","2","7","Male","","","","","","","null","<div style=""font-size:200px;color:red;"">2</div>","null","","","","","","","","","","","","",""
"html-keyboard-response","99","484679","0.0-3.0-11.0-10.0-3.0","spark_pilot_norest","11122","2","7","Male","","","","","","","null","<div style=""font-size:200px;color:red;"">1</div>","null","","","","","","","","","","","","",""
"revaluation","100","485928","0.0-3.0-11.0-11.0-0.0","spark_pilot_norest","11122","2","7","Male","","false","","","","","[1245.7000000029802]","./assets/img/space/animals/cat.jpg","[""ArrowRight""]","practice block","space","0","{""ArrowUp,ArrowLeft"":3,""ArrowUp,ArrowRight"":36,""ArrowDown,ArrowLeft"":15,""ArrowDown,ArrowRight"":23}","true","ArrowUp,ArrowRight","","","","","","",""
"html-keyboard-response","101","486432","0.0-3.0-11.0-11.0-1.0","spark_pilot_norest","11122","2","7","Male","","","","","","","null","<div style=""font-size:60px;"">+</div>","null","fixation","","","","","","","","","","","",""
"revaluation","102","487249","0.0-3.0-11.0-11.0-0.1","spark_pilot_norest","11122","2","7","Male","","false","","","","","[813.4000000022352]","./assets/img/space/animals/rabbit.jpg","[""ArrowRight""]","practice block","space","0","{""ArrowUp,ArrowLeft"":3,""ArrowUp,ArrowRight"":36,""ArrowDown,ArrowLeft"":15,""ArrowDown,ArrowRight"":23}","true","ArrowDown,ArrowRight","","","","","","",""
"html-keyboard-response","103","487751","0.0-3.0-11.0-11.0-1.1","spark_pilot_norest","11122","2","7","Male","","","","","","","null","<div style=""font-size:60px;"">+</div>","null","fixation","","","","","","","","","","","",""
"learning-instructions","104","496518","0.0-3.0-12.0-0.0","spark_pilot_norest","11122","2","7","Male","","","","","","","4168.5","<p> Before you start, we're going to ask you a few questions about how the game works. </p>","","instructions","","","","","","","","","","","",""
"comp-q","105","506056","0.0-3.0-13.0-0.0-0.0","spark_pilot_norest","11122","2","7","Male","","","","","","","3922.10000000149","<p> <b> True or False? </b> </p>
            <p> There can be 50 pieces of treasure in a given animal's chest. </p>","1","comp_question","","","","true","","","","","","","",""
"comp-q","106","515988","0.0-3.0-13.0-0.0-1.0","spark_pilot_norest","11122","2","7","Male","","","","","","","3254.699999999255","<p> <b> That's right! </b> The amount of treasure in each chest can range from 0 to 40 pieces. </p>","0","comp_answer","","","","","","","","","","","",""
"comp-q","107","525903","0.0-3.0-13.0-0.1-0.1","spark_pilot_norest","11122","2","7","Male","","","","","","","2780.800000000745","<p> <b> True or False? </b> </p><p> In this game, all animals have the same amount of treasure in their left and right chests. </p>","1","comp_question","","","","true","","","","","","","",""
"comp-q","108","533449","0.0-3.0-13.0-0.1-1.1","spark_pilot_norest","11122","2","7","Male","","","","","","","2294.60000000149","<p> <b> That's right! </b> Animals have different amounts of treasure in their treasure chests. </p>","0","comp_answer","","","","","","","","","","","",""
"comp-q","109","542938","0.0-3.0-13.0-0.2-0.2","spark_pilot_norest","11122","2","7","Male","","","","","","","3623.199999999255","<p> <b> True or False? </b> </p><p> The same animal will always be there if you go up in the same place. </p>","0","comp_question","","","","true","","","","","","","",""
"comp-q","110","551310","0.0-3.0-13.0-0.2-1.2","spark_pilot_norest","11122","2","7","Male","","","","","","","1905","<p> <b> That's right! </b> One animal lives in the upper part and one lives in the lower part of every place. </p>","0","comp_answer","","","","","","","","","","","",""
"comp-q","111","558791","0.0-3.0-13.0-0.3-0.3","spark_pilot_norest","11122","2","7","Male","","","","","","","1930.199999999255","<p> <b> True or False? </b> </p><p> If you see a different picture, it means you are in a new place. </p>","1","comp_question","","","","true","","","","","","","",""
"comp-q","112","572482","0.0-3.0-13.0-0.3-1.3","spark_pilot_norest","11122","2","7","Male","","","","","","","2436.10000000149","<p> <b> That's right! </b> Lots of different images may show the same place. For example,  you may see three different images that all remind you that you are in outer space. </p>","0","comp_answer","","","","","","","","","","","",""
"learning-instructions","113","586629","0.0-3.0-14.0-0.0","spark_pilot_norest","11122","2","7","Male","","","","","","","4274.89999999851","<p> Good job. Remember to do your best because the amount of treasure you earn will be converted into bonus money. </p>
            <p> It’s time to start the real game! </p>","","instructions","","","","","","","","","","","",""
"learning-instructions","114","590718","0.0-4.0-0.0-0.0","spark_pilot_norest","11122","2","7","Male","","","","","","","1355.300000000745","<p> This time you are searching for treasure in the <b>ocean</b>.</p>","","instructions","","","","","","","","","","","",""
"learning-instructions","115","615187","0.0-4.0-0.0-0.1","spark_pilot_norest","11122","2","7","Male","","","","","","","7136.599999997765","<p><b>New</b> animals with <b>new</b> treasure chests live here. You need to explore to discover where the animal with the best treasure chest is.</p>
                    <p> Like before, once you figure out which animal has the chest with the most treasure, you should try to get to that animal and select that chest! </p>","","instructions","","","","","","","","","","","",""
"learning-instructions","116","635355","0.0-4.0-1.0-0.0","spark_pilot_norest","11122","2","7","Male","","","","","","","5437.300000000745","<p> Remember, when you see a picture of the place, use the up and down keys to <b>find an animal</b>.</p>
            <p> When you encounter an animal, you should use the left and right keys to <b>select a treasure chest</b>.</p>
            <p> Don't forget to look out for the robber! </p>","","instructions","","","","","","","","","","","",""
"revaluation","117","639360","0.0-4.0-2.0-0.0","spark_pilot_norest","11122","2","7","Male","","false","","","","","[1894.199999999255]","./assets/img/ocean/catch/4.jpg","[""spaceBar""]","value training","ocean","0","{""ArrowUp,ArrowLeft"":23,""ArrowUp,ArrowRight"":10,""ArrowDown,ArrowLeft"":8,""ArrowDown,ArrowRight"":30}","true","spaceBar","true","revaluation","1","0","","",""
"html-keyboard-response","118","639864","0.0-4.0-2.0-1.0","spark_pilot_norest","11122","2","7","Male","","","","","","","null","<div style=""font-size:60px;"">+</div>","null","fixation","","","","","","","","","1","","",""
"revaluation","119","645870","0.0-4.0-2.0-0.1","spark_pilot_norest","11122","2","7","Male","","false","","","","","[1652.7999999970198,1444.0999999977648]","./assets/img/ocean/memory/31.jpg","[""ArrowDown"",""ArrowRight""]","value training","ocean","30","{""ArrowUp,ArrowLeft"":23,""ArrowUp,ArrowRight"":10,""ArrowDown,ArrowLeft"":8,""ArrowDown,ArrowRight"":30}","true","ArrowDown,ArrowRight","false","revaluation","1","2","","",""
"html-keyboard-response","120","646371","0.0-4.0-2.0-1.1","spark_pilot_norest","11122","2","7","Male","","","","","","","null","<div style=""font-size:60px;"">+</div>","null","fixation","","","","","","","","","3","","",""
"revaluation","121","650375","0.0-4.0-2.0-0.2","spark_pilot_norest","11122","2","7","Male","","false","","","","","[1452.1000000014901]","./assets/img/ocean/catch/2.jpg","[""spaceBar""]","value training","ocean","0","{""ArrowUp,ArrowLeft"":23,""ArrowUp,ArrowRight"":10,""ArrowDown,ArrowLeft"":8,""ArrowDown,ArrowRight"":30}","true","spaceBar","true","revaluation","1","4","","",""
"html-keyboard-response","122","650877","0.0-4.0-2.0-1.2","spark_pilot_norest","11122","2","7","Male","","","","","","","null","<div style=""font-size:60px;"">+</div>","null","fixation","","","","","","","","","5","","",""
"revaluation","123","654885","0.0-4.0-2.0-0.3","spark_pilot_norest","11122","2","7","Male","","false","","","","","[1299.1000000014901]","./assets/img/ocean/catch/7.jpg","[""spaceBar""]","value training","ocean","0","{""ArrowUp,ArrowLeft"":23,""ArrowUp,ArrowRight"":10,""ArrowDown,ArrowLeft"":8,""ArrowDown,ArrowRight"":30}","true","spaceBar","true","revaluation","1","6","","",""
"html-keyboard-response","124","655386","0.0-4.0-2.0-1.3","spark_pilot_norest","11122","2","7","Male","","","","","","","null","<div style=""font-size:60px;"">+</div>","null","fixation","","","","","","","","","7","","",""
"revaluation","125","661390","0.0-4.0-2.0-0.4","spark_pilot_norest","11122","2","7","Male","","true","","","","","[747.1999999992549]","./assets/img/ocean/memory/21.jpg","[""ArrowUp""]","value training","ocean","-5","{""ArrowUp,ArrowLeft"":23,""ArrowUp,ArrowRight"":10,""ArrowDown,ArrowLeft"":8,""ArrowDown,ArrowRight"":30}","false","ArrowUp","false","revaluation","1","8","","",""
"html-keyboard-response","126","661892","0.0-4.0-2.0-1.4","spark_pilot_norest","11122","2","7","Male","","","","","","","null","<div style=""font-size:60px;"">+</div>","null","fixation","","","","","","","","","9","","",""
"revaluation","127","665899","0.0-4.0-2.0-0.5","spark_pilot_norest","11122","2","7","Male","","true","","","","","[]","./assets/img/ocean/memory/40.jpg","[]","value training","ocean","-5","{""ArrowUp,ArrowLeft"":23,""ArrowUp,ArrowRight"":10,""ArrowDown,ArrowLeft"":8,""ArrowDown,ArrowRight"":30}","false","","false","revaluation","1","10","","",""
"html-keyboard-response","128","666401","0.0-4.0-2.0-1.5","spark_pilot_norest","11122","2","7","Male","","","","","","","null","<div style=""font-size:60px;"">+</div>","null","fixation","","","","","","","","","11","","",""
"revaluation","129","672407","0.0-4.0-2.0-0.6","spark_pilot_norest","11122","2","7","Male","","false","","","","","[726.1999999992549,1046.3999999985099]","./assets/img/ocean/memory/8.jpg","[""ArrowDown"",""ArrowLeft""]","value training","ocean","8","{""ArrowUp,ArrowLeft"":23,""ArrowUp,ArrowRight"":10,""ArrowDown,ArrowLeft"":8,""ArrowDown,ArrowRight"":30}","false","ArrowDown,ArrowLeft","false","revaluation","1","12","","",""
"html-keyboard-response","130","672910","0.0-4.0-2.0-1.6","spark_pilot_norest","11122","2","7","Male","","","","","","","null","<div style=""font-size:60px;"">+</div>","null","fixation","","","","","","","","","13","","",""
"revaluation","131","678915","0.0-4.0-2.0-0.7","spark_pilot_norest","11122","2","7","Male","","false","","","","","[1085.5,1244]","./assets/img/ocean/memory/11.jpg","[""ArrowDown"",""ArrowRight""]","value training","ocean","30","{""ArrowUp,ArrowLeft"":23,""ArrowUp,ArrowRight"":10,""ArrowDown,ArrowLeft"":8,""ArrowDown,ArrowRight"":30}","true","ArrowDown,ArrowRight","false","revaluation","1","14","","",""
"html-keyboard-response","132","679418","0.0-4.0-2.0-1.7","spark_pilot_norest","11122","2","7","Male","","","","","","","null","<div style=""font-size:60px;"">+</div>","null","fixation","","","","","","","","","15","","",""
"revaluation","133","683425","0.0-4.0-2.0-0.8","spark_pilot_norest","11122","2","7","Male","","false","","","","","[1311.4000000022352]","./assets/img/ocean/catch/1.jpg","[""spaceBar""]","value training","ocean","0","{""ArrowUp,ArrowLeft"":23,""ArrowUp,ArrowRight"":10,""ArrowDown,ArrowLeft"":8,""ArrowDown,ArrowRight"":30}","true","spaceBar","true","revaluation","1","16","","",""
"html-keyboard-response","134","683926","0.0-4.0-2.0-1.8","spark_pilot_norest","11122","2","7","Male","","","","","","","null","<div style=""font-size:60px;"">+</div>","null","fixation","","","","","","","","","17","","",""
"revaluation","135","689936","0.0-4.0-2.0-0.9","spark_pilot_norest","11122","2","7","Male","","false","","","","","[958.6000000014901,484]","./assets/img/ocean/memory/9.jpg","[""ArrowDown"",""ArrowRight""]","value training","ocean","30","{""ArrowUp,ArrowLeft"":23,""ArrowUp,ArrowRight"":10,""ArrowDown,ArrowLeft"":8,""ArrowDown,ArrowRight"":30}","true","ArrowDown,ArrowRight","false","revaluation","1","18","","",""
"html-keyboard-response","136","690439","0.0-4.0-2.0-1.9","spark_pilot_norest","11122","2","7","Male","","","","","","","null","<div style=""font-size:60px;"">+</div>","null","fixation","","","","","","","","","19","","",""
"revaluation","137","696448","0.0-4.0-2.0-0.10","spark_pilot_norest","11122","2","7","Male","","false","","","","","[852.3999999985099,538.5]","./assets/img/ocean/memory/41.jpg","[""ArrowUp"",""ArrowLeft""]","value training","ocean","23","{""ArrowUp,ArrowLeft"":23,""ArrowUp,ArrowRight"":10,""ArrowDown,ArrowLeft"":8,""ArrowDown,ArrowRight"":30}","false","ArrowUp,ArrowLeft","false","revaluation","1","20","","",""
"html-keyboard-response","138","696951","0.0-4.0-2.0-1.10","spark_pilot_norest","11122","2","7","Male","","","","","","","null","<div style=""font-size:60px;"">+</div>","null","fixation","","","","","","","","","21","","",""
"revaluation","139","702959","0.0-4.0-2.0-0.11","spark_pilot_norest","11122","2","7","Male","","false","","","","","[1432.6000000014901,583.0999999977648]","./assets/img/ocean/memory/18.jpg","[""ArrowUp"",""ArrowRight""]","value training","ocean","10","{""ArrowUp,ArrowLeft"":23,""ArrowUp,ArrowRight"":10,""ArrowDown,ArrowLeft"":8,""ArrowDown,ArrowRight"":30}","false","ArrowUp,ArrowRight","false","revaluation","1","22","","",""
"html-keyboard-response","140","703463","0.0-4.0-2.0-1.11","spark_pilot_norest","11122","2","7","Male","","","","","","","null","<div style=""font-size:60px;"">+</div>","null","fixation","","","","","","","","","23","","",""
"revaluation","141","709476","0.0-4.0-2.0-0.12","spark_pilot_norest","11122","2","7","Male","","false","","","","","[1034.8999999985099,483.79999999701977]","./assets/img/ocean/memory/7.jpg","[""ArrowDown"",""ArrowRight""]","value training","ocean","30","{""ArrowUp,ArrowLeft"":23,""ArrowUp,ArrowRight"":10,""ArrowDown,ArrowLeft"":8,""ArrowDown,ArrowRight"":30}","true","ArrowDown,ArrowRight","false","revaluation","1","24","","",""
"html-keyboard-response","142","709978","0.0-4.0-2.0-1.12","spark_pilot_norest","11122","2","7","Male","","","","","","","null","<div style=""font-size:60px;"">+</div>","null","fixation","","","","","","","","","25","","",""
"revaluation","143","715988","0.0-4.0-2.0-0.13","spark_pilot_norest","11122","2","7","Male","","false","","","","","[645,557.3000000007451]","./assets/img/ocean/memory/0.jpg","[""ArrowDown"",""ArrowRight""]","value training","ocean","30","{""ArrowUp,ArrowLeft"":23,""ArrowUp,ArrowRight"":10,""ArrowDown,ArrowLeft"":8,""ArrowDown,ArrowRight"":30}","true","ArrowDown,ArrowRight","false","revaluation","1","26","","",""
"html-keyboard-response","144","716490","0.0-4.0-2.0-1.13","spark_pilot_norest","11122","2","7","Male","","","","","","","null","<div style=""font-size:60px;"">+</div>","null","fixation","","","","","","","","","27","","",""
"revaluation","145","720498","0.0-4.0-2.0-0.14","spark_pilot_norest","11122","2","7","Male","","false","","","","","[883.9000000022352]","./assets/img/ocean/catch/5.jpg","[""spaceBar""]","value training","ocean","0","{""ArrowUp,ArrowLeft"":23,""ArrowUp,ArrowRight"":10,""ArrowDown,ArrowLeft"":8,""ArrowDown,ArrowRight"":30}","true","spaceBar","true","revaluation","1","28","","",""
"html-keyboard-response","146","721000","0.0-4.0-2.0-1.14","spark_pilot_norest","11122","2","7","Male","","","","","","","null","<div style=""font-size:60px;"">+</div>","null","fixation","","","","","","","","","29","","",""
"revaluation","147","727010","0.0-4.0-2.0-0.15","spark_pilot_norest","11122","2","7","Male","","false","","","","","[1212.699999999255,427.8999999985099]","./assets/img/ocean/memory/4.jpg","[""ArrowDown"",""ArrowRight""]","value training","ocean","30","{""ArrowUp,ArrowLeft"":23,""ArrowUp,ArrowRight"":10,""ArrowDown,ArrowLeft"":8,""ArrowDown,ArrowRight"":30}","true","ArrowDown,ArrowRight","false","revaluation","1","30","","",""
"html-keyboard-response","148","727512","0.0-4.0-2.0-1.15","spark_pilot_norest","11122","2","7","Male","","","","","","","null","<div style=""font-size:60px;"">+</div>","null","fixation","","","","","","","","","31","","",""
"revaluation","149","733521","0.0-4.0-2.0-0.16","spark_pilot_norest","11122","2","7","Male","","false","","","","","[1213,464.5999999977648]","./assets/img/ocean/memory/13.jpg","[""ArrowDown"",""ArrowRight""]","value training","ocean","30","{""ArrowUp,ArrowLeft"":23,""ArrowUp,ArrowRight"":10,""ArrowDown,ArrowLeft"":8,""ArrowDown,ArrowRight"":30}","true","ArrowDown,ArrowRight","false","revaluation","1","32","","",""
"html-keyboard-response","150","734023","0.0-4.0-2.0-1.16","spark_pilot_norest","11122","2","7","Male","","","","","","","null","<div style=""font-size:60px;"">+</div>","null","fixation","","","","","","","","","33","","",""
"revaluation","151","740028","0.0-4.0-2.0-0.17","spark_pilot_norest","11122","2","7","Male","","false","","","","","[494.19999999925494,388.80000000074506]","./assets/img/ocean/memory/36.jpg","[""ArrowDown"",""ArrowRight""]","value training","ocean","30","{""ArrowUp,ArrowLeft"":23,""ArrowUp,ArrowRight"":10,""ArrowDown,ArrowLeft"":8,""ArrowDown,ArrowRight"":30}","true","ArrowDown,ArrowRight","false","revaluation","1","34","","",""
"html-keyboard-response","152","740529","0.0-4.0-2.0-1.17","spark_pilot_norest","11122","2","7","Male","","","","","","","null","<div style=""font-size:60px;"">+</div>","null","fixation","","","","","","","","","35","","",""
"revaluation","153","746538","0.0-4.0-2.0-0.18","spark_pilot_norest","11122","2","7","Male","","false","","","","","[685.5,436.80000000074506]","./assets/img/ocean/memory/1.jpg","[""ArrowDown"",""ArrowRight""]","value training","ocean","30","{""ArrowUp,ArrowLeft"":23,""ArrowUp,ArrowRight"":10,""ArrowDown,ArrowLeft"":8,""ArrowDown,ArrowRight"":30}","true","ArrowDown,ArrowRight","false","revaluation","1","36","","",""
"html-keyboard-response","154","747041","0.0-4.0-2.0-1.18","spark_pilot_norest","11122","2","7","Male","","","","","","","null","<div style=""font-size:60px;"">+</div>","null","fixation","","","","","","","","","37","","",""
"revaluation","155","753049","0.0-4.0-2.0-0.19","spark_pilot_norest","11122","2","7","Male","","false","","","","","[1042.5999999977648,643.1999999992549]","./assets/img/ocean/memory/31.jpg","[""ArrowDown"",""ArrowRight""]","value training","ocean","30","{""ArrowUp,ArrowLeft"":23,""ArrowUp,ArrowRight"":10,""ArrowDown,ArrowLeft"":8,""ArrowDown,ArrowRight"":30}","true","ArrowDown,ArrowRight","false","revaluation","1","38","","",""
"html-keyboard-response","156","753551","0.0-4.0-2.0-1.19","spark_pilot_norest","11122","2","7","Male","","","","","","","null","<div style=""font-size:60px;"">+</div>","null","fixation","","","","","","","","","39","","",""
"revaluation","157","759563","0.0-4.0-2.0-0.20","spark_pilot_norest","11122","2","7","Male","","false","","","","","[877.7000000029802,451.20000000298023]","./assets/img/ocean/memory/8.jpg","[""ArrowDown"",""ArrowRight""]","value training","ocean","30","{""ArrowUp,ArrowLeft"":23,""ArrowUp,ArrowRight"":10,""ArrowDown,ArrowLeft"":8,""ArrowDown,ArrowRight"":30}","true","ArrowDown,ArrowRight","false","revaluation","1","40","","",""
"html-keyboard-response","158","760065","0.0-4.0-2.0-1.20","spark_pilot_norest","11122","2","7","Male","","","","","","","null","<div style=""font-size:60px;"">+</div>","null","fixation","","","","","","","","","41","","",""
"revaluation","159","766075","0.0-4.0-2.0-0.21","spark_pilot_norest","11122","2","7","Male","","false","","","","","[940.7000000029802,594]","./assets/img/ocean/memory/18.jpg","[""ArrowDown"",""ArrowRight""]","value training","ocean","30","{""ArrowUp,ArrowLeft"":23,""ArrowUp,ArrowRight"":10,""ArrowDown,ArrowLeft"":8,""ArrowDown,ArrowRight"":30}","true","ArrowDown,ArrowRight","false","revaluation","1","42","","",""
"html-keyboard-response","160","766578","0.0-4.0-2.0-1.21","spark_pilot_norest","11122","2","7","Male","","","","","","","null","<div style=""font-size:60px;"">+</div>","null","fixation","","","","","","","","","43","","",""
"revaluation","161","772589","0.0-4.0-2.0-0.22","spark_pilot_norest","11122","2","7","Male","","false","","","","","[1013.3000000007451,447.8999999985099]","./assets/img/ocean/memory/15.jpg","[""ArrowDown"",""ArrowRight""]","value training","ocean","30","{""ArrowUp,ArrowLeft"":23,""ArrowUp,ArrowRight"":10,""ArrowDown,ArrowLeft"":8,""ArrowDown,ArrowRight"":30}","true","ArrowDown,ArrowRight","false","revaluation","1","44","","",""
"html-keyboard-response","162","773091","0.0-4.0-2.0-1.22","spark_pilot_norest","11122","2","7","Male","","","","","","","null","<div style=""font-size:60px;"">+</div>","null","fixation","","","","","","","","","45","","",""
"revaluation","163","779102","0.0-4.0-2.0-0.23","spark_pilot_norest","11122","2","7","Male","","false","","","","","[875.6999999992549,544.3999999985099]","./assets/img/ocean/memory/33.jpg","[""ArrowDown"",""ArrowRight""]","value training","ocean","30","{""ArrowUp,ArrowLeft"":23,""ArrowUp,ArrowRight"":10,""ArrowDown,ArrowLeft"":8,""ArrowDown,ArrowRight"":30}","true","ArrowDown,ArrowRight","false","revaluation","1","46","","",""
"html-keyboard-response","164","779604","0.0-4.0-2.0-1.23","spark_pilot_norest","11122","2","7","Male","","","","","","","null","<div style=""font-size:60px;"">+</div>","null","fixation","","","","","","","","","47","","",""
"revaluation","165","785614","0.0-4.0-2.0-0.24","spark_pilot_norest","11122","2","7","Male","","false","","","","","[1112.800000000745,460.19999999925494]","./assets/img/ocean/memory/4.jpg","[""ArrowDown"",""ArrowRight""]","value training","ocean","30","{""ArrowUp,ArrowLeft"":23,""ArrowUp,ArrowRight"":10,""ArrowDown,ArrowLeft"":8,""ArrowDown,ArrowRight"":30}","true","ArrowDown,ArrowRight","false","revaluation","1","48","","",""
"html-keyboard-response","166","786116","0.0-4.0-2.0-1.24","spark_pilot_norest","11122","2","7","Male","","","","","","","null","<div style=""font-size:60px;"">+</div>","null","fixation","","","","","","","","","49","","",""
"revaluation","167","792125","0.0-4.0-2.0-0.25","spark_pilot_norest","11122","2","7","Male","","false","","","","","[547.7999999970198,651.9000000022352]","./assets/img/ocean/memory/0.jpg","[""ArrowDown"",""ArrowRight""]","value training","ocean","30","{""ArrowUp,ArrowLeft"":23,""ArrowUp,ArrowRight"":10,""ArrowDown,ArrowLeft"":8,""ArrowDown,ArrowRight"":30}","true","ArrowDown,ArrowRight","false","revaluation","1","50","","",""
"html-keyboard-response","168","792628","0.0-4.0-2.0-1.25","spark_pilot_norest","11122","2","7","Male","","","","","","","null","<div style=""font-size:60px;"">+</div>","null","fixation","","","","","","","","","51","","",""
"revaluation","169","798636","0.0-4.0-2.0-0.26","spark_pilot_norest","11122","2","7","Male","","false","","","","","[651.1000000014901,492.5]","./assets/img/ocean/memory/38.jpg","[""ArrowDown"",""ArrowRight""]","value training","ocean","30","{""ArrowUp,ArrowLeft"":23,""ArrowUp,ArrowRight"":10,""ArrowDown,ArrowLeft"":8,""ArrowDown,ArrowRight"":30}","true","ArrowDown,ArrowRight","false","revaluation","1","52","","",""
"html-keyboard-response","170","799138","0.0-4.0-2.0-1.26","spark_pilot_norest","11122","2","7","Male","","","","","","","null","<div style=""font-size:60px;"">+</div>","null","fixation","","","","","","","","","53","","",""
"revaluation","171","805148","0.0-4.0-2.0-0.27","spark_pilot_norest","11122","2","7","Male","","false","","","","","[1097.5,637.1999999992549]","./assets/img/ocean/memory/30.jpg","[""ArrowDown"",""ArrowRight""]","value training","ocean","30","{""ArrowUp,ArrowLeft"":23,""ArrowUp,ArrowRight"":10,""ArrowDown,ArrowLeft"":8,""ArrowDown,ArrowRight"":30}","true","ArrowDown,ArrowRight","false","revaluation","1","54","","",""
"html-keyboard-response","172","805650","0.0-4.0-2.0-1.27","spark_pilot_norest","11122","2","7","Male","","","","","","","null","<div style=""font-size:60px;"">+</div>","null","fixation","","","","","","","","","55","","",""
"revaluation","173","811659","0.0-4.0-2.0-0.28","spark_pilot_norest","11122","2","7","Male","","false","","","","","[536.1999999992549,563.1999999992549]","./assets/img/ocean/memory/30.jpg","[""ArrowDown"",""ArrowRight""]","value training","ocean","30","{""ArrowUp,ArrowLeft"":23,""ArrowUp,ArrowRight"":10,""ArrowDown,ArrowLeft"":8,""ArrowDown,ArrowRight"":30}","true","ArrowDown,ArrowRight","false","revaluation","1","56","","",""
"html-keyboard-response","174","812162","0.0-4.0-2.0-1.28","spark_pilot_norest","11122","2","7","Male","","","","","","","null","<div style=""font-size:60px;"">+</div>","null","fixation","","","","","","","","","57","","",""
"revaluation","175","818171","0.0-4.0-2.0-0.29","spark_pilot_norest","11122","2","7","Male","","false","","","","","[814.6000000014901,725.6999999992549]","./assets/img/ocean/memory/1.jpg","[""ArrowDown"",""ArrowRight""]","value training","ocean","30","{""ArrowUp,ArrowLeft"":23,""ArrowUp,ArrowRight"":10,""ArrowDown,ArrowLeft"":8,""ArrowDown,ArrowRight"":30}","true","ArrowDown,ArrowRight","false","revaluation","1","58","","",""
"html-keyboard-response","176","818673","0.0-4.0-2.0-1.29","spark_pilot_norest","11122","2","7","Male","","","","","","","null","<div style=""font-size:60px;"">+</div>","null","fixation","","","","","","","","","59","","",""
"revaluation","177","824679","0.0-4.0-2.0-0.30","spark_pilot_norest","11122","2","7","Male","","false","","","","","[860.1999999992549,696.1999999992549]","./assets/img/ocean/memory/22.jpg","[""ArrowDown"",""ArrowRight""]","value training","ocean","30","{""ArrowUp,ArrowLeft"":23,""ArrowUp,ArrowRight"":10,""ArrowDown,ArrowLeft"":8,""ArrowDown,ArrowRight"":30}","true","ArrowDown,ArrowRight","false","revaluation","1","60","","",""
"html-keyboard-response","178","825181","0.0-4.0-2.0-1.30","spark_pilot_norest","11122","2","7","Male","","","","","","","null","<div style=""font-size:60px;"">+</div>","null","fixation","","","","","","","","","61","","",""
"revaluation","179","829196","0.0-4.0-2.0-0.31","spark_pilot_norest","11122","2","7","Male","","false","","","","","[733.2000000029802]","./assets/img/ocean/catch/0.jpg","[""spaceBar""]","value training","ocean","0","{""ArrowUp,ArrowLeft"":23,""ArrowUp,ArrowRight"":10,""ArrowDown,ArrowLeft"":8,""ArrowDown,ArrowRight"":30}","true","spaceBar","true","revaluation","1","62","","",""
"html-keyboard-response","180","829698","0.0-4.0-2.0-1.31","spark_pilot_norest","11122","2","7","Male","","","","","","","null","<div style=""font-size:60px;"">+</div>","null","fixation","","","","","","","","","63","","",""
"revaluation","181","835705","0.0-4.0-2.0-0.32","spark_pilot_norest","11122","2","7","Male","","false","","","","","[1021.1000000014901,445.29999999701977]","./assets/img/ocean/memory/21.jpg","[""ArrowDown"",""ArrowRight""]","value training","ocean","30","{""ArrowUp,ArrowLeft"":23,""ArrowUp,ArrowRight"":10,""ArrowDown,ArrowLeft"":8,""ArrowDown,ArrowRight"":30}","true","ArrowDown,ArrowRight","false","revaluation","1","64","","",""
"html-keyboard-response","182","836206","0.0-4.0-2.0-1.32","spark_pilot_norest","11122","2","7","Male","","","","","","","null","<div style=""font-size:60px;"">+</div>","null","fixation","","","","","","","","","65","","",""
"revaluation","183","842213","0.0-4.0-2.0-0.33","spark_pilot_norest","11122","2","7","Male","","true","","","","","[867.4000000022352]","./assets/img/ocean/memory/22.jpg","[""ArrowDown""]","value training","ocean","-5","{""ArrowUp,ArrowLeft"":23,""ArrowUp,ArrowRight"":10,""ArrowDown,ArrowLeft"":8,""ArrowDown,ArrowRight"":30}","false","ArrowDown","false","revaluation","1","66","","",""
"html-keyboard-response","184","842716","0.0-4.0-2.0-1.33","spark_pilot_norest","11122","2","7","Male","","","","","","","null","<div style=""font-size:60px;"">+</div>","null","fixation","","","","","","","","","67","","",""
"revaluation","185","846725","0.0-4.0-2.0-0.34","spark_pilot_norest","11122","2","7","Male","","true","","","","","[]","./assets/img/ocean/memory/17.jpg","[]","value training","ocean","-5","{""ArrowUp,ArrowLeft"":23,""ArrowUp,ArrowRight"":10,""ArrowDown,ArrowLeft"":8,""ArrowDown,ArrowRight"":30}","false","","false","revaluation","1","68","","",""
"html-keyboard-response","186","847228","0.0-4.0-2.0-1.34","spark_pilot_norest","11122","2","7","Male","","","","","","","null","<div style=""font-size:60px;"">+</div>","null","fixation","","","","","","","","","69","","",""
"revaluation","187","853241","0.0-4.0-2.0-0.35","spark_pilot_norest","11122","2","7","Male","","false","","","","","[797.7999999970198,1143.1000000014901]","./assets/img/ocean/memory/13.jpg","[""ArrowDown"",""ArrowRight""]","value training","ocean","30","{""ArrowUp,ArrowLeft"":23,""ArrowUp,ArrowRight"":10,""ArrowDown,ArrowLeft"":8,""ArrowDown,ArrowRight"":30}","true","ArrowDown,ArrowRight","false","revaluation","1","70","","",""
"html-keyboard-response","188","853743","0.0-4.0-2.0-1.35","spark_pilot_norest","11122","2","7","Male","","","","","","","null","<div style=""font-size:60px;"">+</div>","null","fixation","","","","","","","","","71","","",""
"revaluation","189","859747","0.0-4.0-2.0-0.36","spark_pilot_norest","11122","2","7","Male","","false","","","","","[606.7000000029802,423.70000000298023]","./assets/img/ocean/memory/33.jpg","[""ArrowDown"",""ArrowRight""]","value training","ocean","30","{""ArrowUp,ArrowLeft"":23,""ArrowUp,ArrowRight"":10,""ArrowDown,ArrowLeft"":8,""ArrowDown,ArrowRight"":30}","true","ArrowDown,ArrowRight","false","revaluation","1","72","","",""
"html-keyboard-response","190","860250","0.0-4.0-2.0-1.36","spark_pilot_norest","11122","2","7","Male","","","","","","","null","<div style=""font-size:60px;"">+</div>","null","fixation","","","","","","","","","73","","",""
"revaluation","191","866260","0.0-4.0-2.0-0.37","spark_pilot_norest","11122","2","7","Male","","false","","","","","[1083.300000000745,468.5]","./assets/img/ocean/memory/41.jpg","[""ArrowDown"",""ArrowRight""]","value training","ocean","30","{""ArrowUp,ArrowLeft"":23,""ArrowUp,ArrowRight"":10,""ArrowDown,ArrowLeft"":8,""ArrowDown,ArrowRight"":30}","true","ArrowDown,ArrowRight","false","revaluation","1","74","","",""
"html-keyboard-response","192","866762","0.0-4.0-2.0-1.37","spark_pilot_norest","11122","2","7","Male","","","","","","","null","<div style=""font-size:60px;"">+</div>","null","fixation","","","","","","","","","75","","",""
"revaluation","193","872773","0.0-4.0-2.0-0.38","spark_pilot_norest","11122","2","7","Male","","false","","","","","[1408.800000000745,424.5999999977648]","./assets/img/ocean/memory/15.jpg","[""ArrowDown"",""ArrowRight""]","value training","ocean","30","{""ArrowUp,ArrowLeft"":23,""ArrowUp,ArrowRight"":10,""ArrowDown,ArrowLeft"":8,""ArrowDown,ArrowRight"":30}","true","ArrowDown,ArrowRight","false","revaluation","1","76","","",""
"html-keyboard-response","194","873276","0.0-4.0-2.0-1.38","spark_pilot_norest","11122","2","7","Male","","","","","","","null","<div style=""font-size:60px;"">+</div>","null","fixation","","","","","","","","","77","","",""
"revaluation","195","879289","0.0-4.0-2.0-0.39","spark_pilot_norest","11122","2","7","Male","","false","","","","","[879.9000000022352,682.3999999985099]","./assets/img/ocean/memory/11.jpg","[""ArrowDown"",""ArrowRight""]","value training","ocean","30","{""ArrowUp,ArrowLeft"":23,""ArrowUp,ArrowRight"":10,""ArrowDown,ArrowLeft"":8,""ArrowDown,ArrowRight"":30}","true","ArrowDown,ArrowRight","false","revaluation","1","78","","",""
"html-keyboard-response","196","879791","0.0-4.0-2.0-1.39","spark_pilot_norest","11122","2","7","Male","","","","","","","null","<div style=""font-size:60px;"">+</div>","null","fixation","","","","","","","","","79","","",""
"revaluation","197","885801","0.0-4.0-2.0-0.40","spark_pilot_norest","11122","2","7","Male","","false","","","","","[894.3999999985099,523]","./assets/img/ocean/memory/17.jpg","[""ArrowDown"",""ArrowRight""]","value training","ocean","30","{""ArrowUp,ArrowLeft"":23,""ArrowUp,ArrowRight"":10,""ArrowDown,ArrowLeft"":8,""ArrowDown,ArrowRight"":30}","true","ArrowDown,ArrowRight","false","revaluation","1","80","","",""
"html-keyboard-response","198","886303","0.0-4.0-2.0-1.40","spark_pilot_norest","11122","2","7","Male","","","","","","","null","<div style=""font-size:60px;"">+</div>","null","fixation","","","","","","","","","81","","",""
"revaluation","199","892312","0.0-4.0-2.0-0.41","spark_pilot_norest","11122","2","7","Male","","false","","","","","[866.3000000007451,557.1999999992549]","./assets/img/ocean/memory/40.jpg","[""ArrowDown"",""ArrowRight""]","value training","ocean","30","{""ArrowUp,ArrowLeft"":23,""ArrowUp,ArrowRight"":10,""ArrowDown,ArrowLeft"":8,""ArrowDown,ArrowRight"":30}","true","ArrowDown,ArrowRight","false","revaluation","1","82","","",""
"html-keyboard-response","200","892815","0.0-4.0-2.0-1.41","spark_pilot_norest","11122","2","7","Male","","","","","","","null","<div style=""font-size:60px;"">+</div>","null","fixation","","","","","","","","","83","","",""
"revaluation","201","898821","0.0-4.0-2.0-0.42","spark_pilot_norest","11122","2","7","Male","","false","","","","","[580.8000000007451,740.0999999977648]","./assets/img/ocean/memory/9.jpg","[""ArrowDown"",""ArrowRight""]","value training","ocean","30","{""ArrowUp,ArrowLeft"":23,""ArrowUp,ArrowRight"":10,""ArrowDown,ArrowLeft"":8,""ArrowDown,ArrowRight"":30}","true","ArrowDown,ArrowRight","false","revaluation","1","84","","",""
"html-keyboard-response","202","899323","0.0-4.0-2.0-1.42","spark_pilot_norest","11122","2","7","Male","","","","","","","null","<div style=""font-size:60px;"">+</div>","null","fixation","","","","","","","","","85","","",""
"revaluation","203","903331","0.0-4.0-2.0-0.43","spark_pilot_norest","11122","2","7","Male","","false","","","","","[761.4000000022352]","./assets/img/ocean/catch/3.jpg","[""spaceBar""]","value training","ocean","0","{""ArrowUp,ArrowLeft"":23,""ArrowUp,ArrowRight"":10,""ArrowDown,ArrowLeft"":8,""ArrowDown,ArrowRight"":30}","true","spaceBar","true","revaluation","1","86","","",""
"html-keyboard-response","204","903832","0.0-4.0-2.0-1.43","spark_pilot_norest","11122","2","7","Male","","","","","","","null","<div style=""font-size:60px;"">+</div>","null","fixation","","","","","","","","","87","","",""
"revaluation","205","907836","0.0-4.0-2.0-0.44","spark_pilot_norest","11122","2","7","Male","","false","","","","","[922]","./assets/img/ocean/catch/6.jpg","[""spaceBar""]","value training","ocean","0","{""ArrowUp,ArrowLeft"":23,""ArrowUp,ArrowRight"":10,""ArrowDown,ArrowLeft"":8,""ArrowDown,ArrowRight"":30}","true","spaceBar","true","revaluation","1","88","","",""
"html-keyboard-response","206","908337","0.0-4.0-2.0-1.44","spark_pilot_norest","11122","2","7","Male","","","","","","","null","<div style=""font-size:60px;"">+</div>","null","fixation","","","","","","","","","89","","",""
"revaluation","207","914348","0.0-4.0-2.0-0.45","spark_pilot_norest","11122","2","7","Male","","false","","","","","[1016.1999999992549,426.6000000014901]","./assets/img/ocean/memory/38.jpg","[""ArrowDown"",""ArrowRight""]","value training","ocean","30","{""ArrowUp,ArrowLeft"":23,""ArrowUp,ArrowRight"":10,""ArrowDown,ArrowLeft"":8,""ArrowDown,ArrowRight"":30}","true","ArrowDown,ArrowRight","false","revaluation","1","90","","",""
"html-keyboard-response","208","914851","0.0-4.0-2.0-1.45","spark_pilot_norest","11122","2","7","Male","","","","","","","null","<div style=""font-size:60px;"">+</div>","null","fixation","","","","","","","","","91","","",""
"revaluation","209","920865","0.0-4.0-2.0-0.46","spark_pilot_norest","11122","2","7","Male","","false","","","","","[829.1000000014901,622.4000000022352]","./assets/img/ocean/memory/7.jpg","[""ArrowDown"",""ArrowRight""]","value training","ocean","30","{""ArrowUp,ArrowLeft"":23,""ArrowUp,ArrowRight"":10,""ArrowDown,ArrowLeft"":8,""ArrowDown,ArrowRight"":30}","true","ArrowDown,ArrowRight","false","revaluation","1","92","","",""
"html-keyboard-response","210","921367","0.0-4.0-2.0-1.46","spark_pilot_norest","11122","2","7","Male","","","","","","","null","<div style=""font-size:60px;"">+</div>","null","fixation","","","","","","","","","93","","",""
"revaluation","211","927378","0.0-4.0-2.0-0.47","spark_pilot_norest","11122","2","7","Male","","false","","","","","[1126,724.5999999977648]","./assets/img/ocean/memory/14.jpg","[""ArrowDown"",""ArrowRight""]","value training","ocean","30","{""ArrowUp,ArrowLeft"":23,""ArrowUp,ArrowRight"":10,""ArrowDown,ArrowLeft"":8,""ArrowDown,ArrowRight"":30}","true","ArrowDown,ArrowRight","false","revaluation","1","94","","",""
"html-keyboard-response","212","927880","0.0-4.0-2.0-1.47","spark_pilot_norest","11122","2","7","Male","","","","","","","null","<div style=""font-size:60px;"">+</div>","null","fixation","","","","","","","","","95","","",""
"revaluation","213","933891","0.0-4.0-2.0-0.48","spark_pilot_norest","11122","2","7","Male","","false","","","","","[829,445]","./assets/img/ocean/memory/36.jpg","[""ArrowDown"",""ArrowRight""]","value training","ocean","30","{""ArrowUp,ArrowLeft"":23,""ArrowUp,ArrowRight"":10,""ArrowDown,ArrowLeft"":8,""ArrowDown,ArrowRight"":30}","true","ArrowDown,ArrowRight","false","revaluation","1","96","","",""
"html-keyboard-response","214","934394","0.0-4.0-2.0-1.48","spark_pilot_norest","11122","2","7","Male","","","","","","","null","<div style=""font-size:60px;"">+</div>","null","fixation","","","","","","","","","97","","",""
"revaluation","215","940404","0.0-4.0-2.0-0.49","spark_pilot_norest","11122","2","7","Male","","false","","","","","[597.6000000014901,374]","./assets/img/ocean/memory/14.jpg","[""ArrowDown"",""ArrowRight""]","value training","ocean","30","{""ArrowUp,ArrowLeft"":23,""ArrowUp,ArrowRight"":10,""ArrowDown,ArrowLeft"":8,""ArrowDown,ArrowRight"":30}","true","ArrowDown,ArrowRight","false","revaluation","1","98","","",""
"html-keyboard-response","216","940906","0.0-4.0-2.0-1.49","spark_pilot_norest","11122","2","7","Male","","","","","","","null","<div style=""font-size:60px;"">+</div>","null","fixation","","","","","","","","","99","","",""
"learning-instructions","217","960155","0.0-4.0-3.0-0.0","spark_pilot_norest","11122","2","7","Male","","","","","","","6258.89999999851","<p> Now, you will travel with a friend who will choose whether you go up or down first. </p>
            <p> On these turns, you will just see the animal that they found. You will still get to choose which chest to search for treasure.</p>","","instructions","","","","","","","","","","","",""
"revaluation","218","964158","0.0-4.0-4.0-0.0","spark_pilot_norest","11122","2","7","Male","","false","","","","","[1518.9000000022352]","./assets/img/ocean/animals/seahorse.jpg","[""ArrowRight""]","revaluation","ocean","15","{""ArrowUp,ArrowLeft"":27,""ArrowUp,ArrowRight"":15,""ArrowDown,ArrowLeft"":21,""ArrowDown,ArrowRight"":7}","false","ArrowUp,ArrowRight","","revaluation","1","0","","",""
"html-keyboard-response","219","964663","0.0-4.0-4.0-1.0","spark_pilot_norest","11122","2","7","Male","","","","","","","null","<div style=""font-size:60px;"">+</div>","null","fixation","","","","","","","","","1","","",""
"revaluation","220","968667","0.0-4.0-4.0-0.1","spark_pilot_norest","11122","2","7","Male","","false","","","","","[984.7000000029802]","./assets/img/ocean/animals/octopus.jpg","[""ArrowRight""]","revaluation","ocean","7","{""ArrowUp,ArrowLeft"":27,""ArrowUp,ArrowRight"":15,""ArrowDown,ArrowLeft"":21,""ArrowDown,ArrowRight"":7}","false","ArrowDown,ArrowRight","","revaluation","1","2","","",""
"html-keyboard-response","221","969169","0.0-4.0-4.0-1.1","spark_pilot_norest","11122","2","7","Male","","","","","","","null","<div style=""font-size:60px;"">+</div>","null","fixation","","","","","","","","","3","","",""
"revaluation","222","973174","0.0-4.0-4.0-0.2","spark_pilot_norest","11122","2","7","Male","","false","","","","","[585.9000000022352]","./assets/img/ocean/animals/octopus.jpg","[""ArrowLeft""]","revaluation","ocean","21","{""ArrowUp,ArrowLeft"":27,""ArrowUp,ArrowRight"":15,""ArrowDown,ArrowLeft"":21,""ArrowDown,ArrowRight"":7}","true","ArrowDown,ArrowLeft","","revaluation","1","4","","",""
"html-keyboard-response","223","973675","0.0-4.0-4.0-1.2","spark_pilot_norest","11122","2","7","Male","","","","","","","null","<div style=""font-size:60px;"">+</div>","null","fixation","","","","","","","","","5","","",""
"revaluation","224","977679","0.0-4.0-4.0-0.3","spark_pilot_norest","11122","2","7","Male","","false","","","","","[1027.6000000014901]","./assets/img/ocean/animals/octopus.jpg","[""ArrowLeft""]","revaluation","ocean","21","{""ArrowUp,ArrowLeft"":27,""ArrowUp,ArrowRight"":15,""ArrowDown,ArrowLeft"":21,""ArrowDown,ArrowRight"":7}","true","ArrowDown,ArrowLeft","","revaluation","1","6","","",""
"html-keyboard-response","225","978181","0.0-4.0-4.0-1.3","spark_pilot_norest","11122","2","7","Male","","","","","","","null","<div style=""font-size:60px;"">+</div>","null","fixation","","","","","","","","","7","","",""
"revaluation","226","982186","0.0-4.0-4.0-0.4","spark_pilot_norest","11122","2","7","Male","","false","","","","","[1116.1000000014901]","./assets/img/ocean/animals/seahorse.jpg","[""ArrowRight""]","revaluation","ocean","15","{""ArrowUp,ArrowLeft"":27,""ArrowUp,ArrowRight"":15,""ArrowDown,ArrowLeft"":21,""ArrowDown,ArrowRight"":7}","false","ArrowUp,ArrowRight","","revaluation","1","8","","",""
"html-keyboard-response","227","982687","0.0-4.0-4.0-1.4","spark_pilot_norest","11122","2","7","Male","","","","","","","null","<div style=""font-size:60px;"">+</div>","null","fixation","","","","","","","","","9","","",""
"revaluation","228","986692","0.0-4.0-4.0-0.5","spark_pilot_norest","11122","2","7","Male","","false","","","","","[568.3000000007451]","./assets/img/ocean/animals/seahorse.jpg","[""ArrowLeft""]","revaluation","ocean","27","{""ArrowUp,ArrowLeft"":27,""ArrowUp,ArrowRight"":15,""ArrowDown,ArrowLeft"":21,""ArrowDown,ArrowRight"":7}","true","ArrowUp,ArrowLeft","","revaluation","1","10","","",""
"html-keyboard-response","229","987194","0.0-4.0-4.0-1.5","spark_pilot_norest","11122","2","7","Male","","","","","","","null","<div style=""font-size:60px;"">+</div>","null","fixation","","","","","","","","","11","","",""
"revaluation","230","991204","0.0-4.0-4.0-0.6","spark_pilot_norest","11122","2","7","Male","","false","","","","","[1056.800000000745]","./assets/img/ocean/animals/seahorse.jpg","[""ArrowLeft""]","revaluation","ocean","27","{""ArrowUp,ArrowLeft"":27,""ArrowUp,ArrowRight"":15,""ArrowDown,ArrowLeft"":21,""ArrowDown,ArrowRight"":7}","true","ArrowUp,ArrowLeft","","revaluation","1","12","","",""
"html-keyboard-response","231","991707","0.0-4.0-4.0-1.6","spark_pilot_norest","11122","2","7","Male","","","","","","","null","<div style=""font-size:60px;"">+</div>","null","fixation","","","","","","","","","13","","",""
"revaluation","232","995716","0.0-4.0-4.0-0.7","spark_pilot_norest","11122","2","7","Male","","false","","","","","[1107.5]","./assets/img/ocean/animals/octopus.jpg","[""ArrowRight""]","revaluation","ocean","7","{""ArrowUp,ArrowLeft"":27,""ArrowUp,ArrowRight"":15,""ArrowDown,ArrowLeft"":21,""ArrowDown,ArrowRight"":7}","false","ArrowDown,ArrowRight","","revaluation","1","14","","",""
"html-keyboard-response","233","996218","0.0-4.0-4.0-1.7","spark_pilot_norest","11122","2","7","Male","","","","","","","null","<div style=""font-size:60px;"">+</div>","null","fixation","","","","","","","","","15","","",""
"revaluation","234","1000232","0.0-4.0-4.0-0.8","spark_pilot_norest","11122","2","7","Male","","false","","","","","[626.1000000014901]","./assets/img/ocean/animals/octopus.jpg","[""ArrowLeft""]","revaluation","ocean","21","{""ArrowUp,ArrowLeft"":27,""ArrowUp,ArrowRight"":15,""ArrowDown,ArrowLeft"":21,""ArrowDown,ArrowRight"":7}","true","ArrowDown,ArrowLeft","","revaluation","1","16","","",""
"html-keyboard-response","235","1000734","0.0-4.0-4.0-1.8","spark_pilot_norest","11122","2","7","Male","","","","","","","null","<div style=""font-size:60px;"">+</div>","null","fixation","","","","","","","","","17","","",""
"revaluation","236","1004744","0.0-4.0-4.0-0.9","spark_pilot_norest","11122","2","7","Male","","false","","","","","[728.6000000014901]","./assets/img/ocean/animals/seahorse.jpg","[""ArrowLeft""]","revaluation","ocean","27","{""ArrowUp,ArrowLeft"":27,""ArrowUp,ArrowRight"":15,""ArrowDown,ArrowLeft"":21,""ArrowDown,ArrowRight"":7}","true","ArrowUp,ArrowLeft","","revaluation","1","18","","",""
"html-keyboard-response","237","1005246","0.0-4.0-4.0-1.9","spark_pilot_norest","11122","2","7","Male","","","","","","","null","<div style=""font-size:60px;"">+</div>","null","fixation","","","","","","","","","19","","",""
"revaluation","238","1009257","0.0-4.0-4.0-0.10","spark_pilot_norest","11122","2","7","Male","","false","","","","","[735.3000000007451]","./assets/img/ocean/animals/seahorse.jpg","[""ArrowLeft""]","revaluation","ocean","27","{""ArrowUp,ArrowLeft"":27,""ArrowUp,ArrowRight"":15,""ArrowDown,ArrowLeft"":21,""ArrowDown,ArrowRight"":7}","true","ArrowUp,ArrowLeft","","revaluation","1","20","","",""
"html-keyboard-response","239","1009759","0.0-4.0-4.0-1.10","spark_pilot_norest","11122","2","7","Male","","","","","","","null","<div style=""font-size:60px;"">+</div>","null","fixation","","","","","","","","","21","","",""
"revaluation","240","1013769","0.0-4.0-4.0-0.11","spark_pilot_norest","11122","2","7","Male","","false","","","","","[856.8999999985099]","./assets/img/ocean/animals/seahorse.jpg","[""ArrowLeft""]","revaluation","ocean","27","{""ArrowUp,ArrowLeft"":27,""ArrowUp,ArrowRight"":15,""ArrowDown,ArrowLeft"":21,""ArrowDown,ArrowRight"":7}","true","ArrowUp,ArrowLeft","","revaluation","1","22","","",""
"html-keyboard-response","241","1014272","0.0-4.0-4.0-1.11","spark_pilot_norest","11122","2","7","Male","","","","","","","null","<div style=""font-size:60px;"">+</div>","null","fixation","","","","","","","","","23","","",""
"revaluation","242","1018280","0.0-4.0-4.0-0.12","spark_pilot_norest","11122","2","7","Male","","false","","","","","[745.4000000022352]","./assets/img/ocean/animals/octopus.jpg","[""ArrowLeft""]","revaluation","ocean","21","{""ArrowUp,ArrowLeft"":27,""ArrowUp,ArrowRight"":15,""ArrowDown,ArrowLeft"":21,""ArrowDown,ArrowRight"":7}","true","ArrowDown,ArrowLeft","","revaluation","1","24","","",""
"html-keyboard-response","243","1018782","0.0-4.0-4.0-1.12","spark_pilot_norest","11122","2","7","Male","","","","","","","null","<div style=""font-size:60px;"">+</div>","null","fixation","","","","","","","","","25","","",""
"revaluation","244","1022792","0.0-4.0-4.0-0.13","spark_pilot_norest","11122","2","7","Male","","false","","","","","[950.6000000014901]","./assets/img/ocean/animals/octopus.jpg","[""ArrowLeft""]","revaluation","ocean","21","{""ArrowUp,ArrowLeft"":27,""ArrowUp,ArrowRight"":15,""ArrowDown,ArrowLeft"":21,""ArrowDown,ArrowRight"":7}","true","ArrowDown,ArrowLeft","","revaluation","1","26","","",""
"html-keyboard-response","245","1023294","0.0-4.0-4.0-1.13","spark_pilot_norest","11122","2","7","Male","","","","","","","null","<div style=""font-size:60px;"">+</div>","null","fixation","","","","","","","","","27","","",""
"revaluation","246","1027303","0.0-4.0-4.0-0.14","spark_pilot_norest","11122","2","7","Male","","false","","","","","[459.0999999977648]","./assets/img/ocean/animals/seahorse.jpg","[""ArrowLeft""]","revaluation","ocean","27","{""ArrowUp,ArrowLeft"":27,""ArrowUp,ArrowRight"":15,""ArrowDown,ArrowLeft"":21,""ArrowDown,ArrowRight"":7}","true","ArrowUp,ArrowLeft","","revaluation","1","28","","",""
"html-keyboard-response","247","1027806","0.0-4.0-4.0-1.14","spark_pilot_norest","11122","2","7","Male","","","","","","","null","<div style=""font-size:60px;"">+</div>","null","fixation","","","","","","","","","29","","",""
"revaluation","248","1031815","0.0-4.0-4.0-0.15","spark_pilot_norest","11122","2","7","Male","","false","","","","","[801.5999999977648]","./assets/img/ocean/animals/seahorse.jpg","[""ArrowLeft""]","revaluation","ocean","27","{""ArrowUp,ArrowLeft"":27,""ArrowUp,ArrowRight"":15,""ArrowDown,ArrowLeft"":21,""ArrowDown,ArrowRight"":7}","true","ArrowUp,ArrowLeft","","revaluation","1","30","","",""
"html-keyboard-response","249","1032317","0.0-4.0-4.0-1.15","spark_pilot_norest","11122","2","7","Male","","","","","","","null","<div style=""font-size:60px;"">+</div>","null","fixation","","","","","","","","","31","","",""
"revaluation","250","1036325","0.0-4.0-4.0-0.16","spark_pilot_norest","11122","2","7","Male","","false","","","","","[981.4000000022352]","./assets/img/ocean/animals/octopus.jpg","[""ArrowLeft""]","revaluation","ocean","21","{""ArrowUp,ArrowLeft"":27,""ArrowUp,ArrowRight"":15,""ArrowDown,ArrowLeft"":21,""ArrowDown,ArrowRight"":7}","true","ArrowDown,ArrowLeft","","revaluation","1","32","","",""
"html-keyboard-response","251","1036828","0.0-4.0-4.0-1.16","spark_pilot_norest","11122","2","7","Male","","","","","","","null","<div style=""font-size:60px;"">+</div>","null","fixation","","","","","","","","","33","","",""
"revaluation","252","1040832","0.0-4.0-4.0-0.17","spark_pilot_norest","11122","2","7","Male","","false","","","","","[662.4000000022352]","./assets/img/ocean/animals/octopus.jpg","[""ArrowLeft""]","revaluation","ocean","21","{""ArrowUp,ArrowLeft"":27,""ArrowUp,ArrowRight"":15,""ArrowDown,ArrowLeft"":21,""ArrowDown,ArrowRight"":7}","true","ArrowDown,ArrowLeft","","revaluation","1","34","","",""
"html-keyboard-response","253","1041334","0.0-4.0-4.0-1.17","spark_pilot_norest","11122","2","7","Male","","","","","","","null","<div style=""font-size:60px;"">+</div>","null","fixation","","","","","","","","","35","","",""
"learning-instructions","254","1049536","0.0-4.0-5.0-0.0","spark_pilot_norest","11122","2","7","Male","","","","","","","null","<p> You have almost finished this part of the game! </p>
            <p> We are going to ask you to make a few more choices. </p>","","instructions","","","","","","","","","","","",""
"learning-instructions","255","1065504","0.0-4.0-5.0-0.1","spark_pilot_norest","11122","2","7","Male","","","","","","","null","<p> First, you need to decide whether to go up or down. When you see each picture, use the arrow keys to make your choice. </p>
            <p><b>You will not see which animal you found, but try to get to the one that will give you the most treasure.</b></p>","","instructions","","","","","","","","","","","",""
"html-keyboard-response","256","1066505","0.0-4.0-6.0-0.0","spark_pilot_norest","11122","2","7","Male","","","","","","","null","<div style=""font-size:100px;color:red;"">Starting in...</div>","null","","","","","","","","","","","","",""
"html-keyboard-response","257","1067506","0.0-4.0-6.0-1.0","spark_pilot_norest","11122","2","7","Male","","","","","","","null","<div style=""font-size:200px;color:red;"">3</div>","null","","","","","","","","","","","","",""
"html-keyboard-response","258","1068507","0.0-4.0-6.0-2.0","spark_pilot_norest","11122","2","7","Male","","","","","","","null","<div style=""font-size:200px;color:red;"">2</div>","null","","","","","","","","","","","","",""
"html-keyboard-response","259","1069509","0.0-4.0-6.0-3.0","spark_pilot_norest","11122","2","7","Male","","","","","","","null","<div style=""font-size:200px;color:red;"">1</div>","null","","","","","","","","","","","","",""
"revaluation","260","1070740","0.0-4.0-7.0-0.0","spark_pilot_norest","11122","2","7","Male","","false","","","","","[1229.699999999255]","./assets/img/ocean/test/0.jpg","[""ArrowDown""]","first stage test","ocean","0","{""ArrowUp,ArrowLeft"":27,""ArrowUp,ArrowRight"":15,""ArrowDown,ArrowLeft"":21,""ArrowDown,ArrowRight"":7}","false","ArrowDown","false","revaluation","1","","","",""
"html-keyboard-response","261","1071242","0.0-4.0-7.0-1.0","spark_pilot_norest","11122","2","7","Male","","","","","","","null","<div style=""font-size:60px;"">+</div>","null","fixation","","","","","","","","","","","",""
"revaluation","262","1073199","0.0-4.0-7.0-0.1","spark_pilot_norest","11122","2","7","Male","","false","","","","","[1954.4000000022352]","./assets/img/ocean/test/1.jpg","[""ArrowDown""]","first stage test","ocean","0","{""ArrowUp,ArrowLeft"":27,""ArrowUp,ArrowRight"":15,""ArrowDown,ArrowLeft"":21,""ArrowDown,ArrowRight"":7}","false","ArrowDown","false","revaluation","1","","","",""
"html-keyboard-response","263","1073701","0.0-4.0-7.0-1.1","spark_pilot_norest","11122","2","7","Male","","","","","","","null","<div style=""font-size:60px;"">+</div>","null","fixation","","","","","","","","","","","",""
"revaluation","264","1074682","0.0-4.0-7.0-0.2","spark_pilot_norest","11122","2","7","Male","","false","","","","","[977.5]","./assets/img/ocean/test/3.jpg","[""ArrowDown""]","first stage test","ocean","0","{""ArrowUp,ArrowLeft"":27,""ArrowUp,ArrowRight"":15,""ArrowDown,ArrowLeft"":21,""ArrowDown,ArrowRight"":7}","false","ArrowDown","false","revaluation","1","","","",""
"html-keyboard-response","265","1075183","0.0-4.0-7.0-1.2","spark_pilot_norest","11122","2","7","Male","","","","","","","null","<div style=""font-size:60px;"">+</div>","null","fixation","","","","","","","","","","","",""
"revaluation","266","1076028","0.0-4.0-7.0-0.3","spark_pilot_norest","11122","2","7","Male","","false","","","","","[839.5]","./assets/img/ocean/test/2.jpg","[""ArrowDown""]","first stage test","ocean","0","{""ArrowUp,ArrowLeft"":27,""ArrowUp,ArrowRight"":15,""ArrowDown,ArrowLeft"":21,""ArrowDown,ArrowRight"":7}","false","ArrowDown","false","revaluation","1","","","",""
"html-keyboard-response","267","1076529","0.0-4.0-7.0-1.3","spark_pilot_norest","11122","2","7","Male","","","","","","","null","<div style=""font-size:60px;"">+</div>","null","fixation","","","","","","","","","","","",""
"learning-instructions","268","1089878","0.0-4.0-8.0-0.0","spark_pilot_norest","11122","2","7","Male","","","","","","","null","<p> Now you will see the animals again and can search their chests for treasure. </p>
            <p> This time, you will not see how much treasure you earned, but you will earn more bonus money for making better choices. </p>","","instructions","","","","","","","","","","","",""
"html-keyboard-response","269","1090879","0.0-4.0-9.0-0.0","spark_pilot_norest","11122","2","7","Male","","","","","","","null","<div style=""font-size:100px;color:red;"">Starting in...</div>","null","","","","","","","","","","","","",""
"html-keyboard-response","270","1091880","0.0-4.0-9.0-1.0","spark_pilot_norest","11122","2","7","Male","","","","","","","null","<div style=""font-size:200px;color:red;"">3</div>","null","","","","","","","","","","","","",""
"html-keyboard-response","271","1092881","0.0-4.0-9.0-2.0","spark_pilot_norest","11122","2","7","Male","","","","","","","null","<div style=""font-size:200px;color:red;"">2</div>","null","","","","","","","","","","","","",""
"html-keyboard-response","272","1093882","0.0-4.0-9.0-3.0","spark_pilot_norest","11122","2","7","Male","","","","","","","null","<div style=""font-size:200px;color:red;"">1</div>","null","","","","","","","","","","","","",""
"revaluation","273","1095372","0.0-4.0-10.0-0.0","spark_pilot_norest","11122","2","7","Male","","false","","","","","[1487.699999999255]","./assets/img/ocean/animals/seahorse.jpg","[""ArrowRight""]","second stage test","ocean","0","{""ArrowUp,ArrowLeft"":27,""ArrowUp,ArrowRight"":15,""ArrowDown,ArrowLeft"":21,""ArrowDown,ArrowRight"":7}","false","ArrowUp,ArrowRight","","revaluation","1","","","",""
"html-keyboard-response","274","1095874","0.0-4.0-10.0-1.0","spark_pilot_norest","11122","2","7","Male","","","","","","","null","<div style=""font-size:60px;"">+</div>","null","fixation","","","","","","","","","","","",""
"revaluation","275","1096664","0.0-4.0-10.0-0.1","spark_pilot_norest","11122","2","7","Male","","false","","","","","[786]","./assets/img/ocean/animals/seahorse.jpg","[""ArrowRight""]","second stage test","ocean","0","{""ArrowUp,ArrowLeft"":27,""ArrowUp,ArrowRight"":15,""ArrowDown,ArrowLeft"":21,""ArrowDown,ArrowRight"":7}","false","ArrowUp,ArrowRight","","revaluation","1","","","",""
"html-keyboard-response","276","1097165","0.0-4.0-10.0-1.1","spark_pilot_norest","11122","2","7","Male","","","","","","","null","<div style=""font-size:60px;"">+</div>","null","fixation","","","","","","","","","","","",""
"revaluation","277","1097772","0.0-4.0-10.0-0.2","spark_pilot_norest","11122","2","7","Male","","false","","","","","[603.2000000029802]","./assets/img/ocean/animals/seahorse.jpg","[""ArrowLeft""]","second stage test","ocean","0","{""ArrowUp,ArrowLeft"":27,""ArrowUp,ArrowRight"":15,""ArrowDown,ArrowLeft"":21,""ArrowDown,ArrowRight"":7}","true","ArrowUp,ArrowLeft","","revaluation","1","","","",""
"html-keyboard-response","278","1098274","0.0-4.0-10.0-1.2","spark_pilot_norest","11122","2","7","Male","","","","","","","null","<div style=""font-size:60px;"">+</div>","null","fixation","","","","","","","","","","","",""
"revaluation","279","1098790","0.0-4.0-10.0-0.3","spark_pilot_norest","11122","2","7","Male","","false","","","","","[513]","./assets/img/ocean/animals/seahorse.jpg","[""ArrowRight""]","second stage test","ocean","0","{""ArrowUp,ArrowLeft"":27,""ArrowUp,ArrowRight"":15,""ArrowDown,ArrowLeft"":21,""ArrowDown,ArrowRight"":7}","false","ArrowUp,ArrowRight","","revaluation","1","","","",""
"html-keyboard-response","280","1099292","0.0-4.0-10.0-1.3","spark_pilot_norest","11122","2","7","Male","","","","","","","null","<div style=""font-size:60px;"">+</div>","null","fixation","","","","","","","","","","","",""
"revaluation","281","1100163","0.0-4.0-10.0-0.4","spark_pilot_norest","11122","2","7","Male","","false","","","","","[867.6999999992549]","./assets/img/ocean/animals/octopus.jpg","[""ArrowLeft""]","second stage test","ocean","0","{""ArrowUp,ArrowLeft"":27,""ArrowUp,ArrowRight"":15,""ArrowDown,ArrowLeft"":21,""ArrowDown,ArrowRight"":7}","true","ArrowDown,ArrowLeft","","revaluation","1","","","",""
"html-keyboard-response","282","1100664","0.0-4.0-10.0-1.4","spark_pilot_norest","11122","2","7","Male","","","","","","","null","<div style=""font-size:60px;"">+</div>","null","fixation","","","","","","","","","","","",""
"revaluation","283","1101212","0.0-4.0-10.0-0.5","spark_pilot_norest","11122","2","7","Male","","false","","","","","[544.1999999992549]","./assets/img/ocean/animals/octopus.jpg","[""ArrowRight""]","second stage test","ocean","0","{""ArrowUp,ArrowLeft"":27,""ArrowUp,ArrowRight"":15,""ArrowDown,ArrowLeft"":21,""ArrowDown,ArrowRight"":7}","false","ArrowDown,ArrowRight","","revaluation","1","","","",""
"html-keyboard-response","284","1101714","0.0-4.0-10.0-1.5","spark_pilot_norest","11122","2","7","Male","","","","","","","null","<div style=""font-size:60px;"">+</div>","null","fixation","","","","","","","","","","","",""
"revaluation","285","1102187","0.0-4.0-10.0-0.6","spark_pilot_norest","11122","2","7","Male","","false","","","","","[468.9000000022352]","./assets/img/ocean/animals/octopus.jpg","[""ArrowLeft""]","second stage test","ocean","0","{""ArrowUp,ArrowLeft"":27,""ArrowUp,ArrowRight"":15,""ArrowDown,ArrowLeft"":21,""ArrowDown,ArrowRight"":7}","true","ArrowDown,ArrowLeft","","revaluation","1","","","",""
"html-keyboard-response","286","1102689","0.0-4.0-10.0-1.6","spark_pilot_norest","11122","2","7","Male","","","","","","","null","<div style=""font-size:60px;"">+</div>","null","fixation","","","","","","","","","","","",""
"revaluation","287","1103064","0.0-4.0-10.0-0.7","spark_pilot_norest","11122","2","7","Male","","false","","","","","[371.4000000022352]","./assets/img/ocean/animals/octopus.jpg","[""ArrowRight""]","second stage test","ocean","0","{""ArrowUp,ArrowLeft"":27,""ArrowUp,ArrowRight"":15,""ArrowDown,ArrowLeft"":21,""ArrowDown,ArrowRight"":7}","false","ArrowDown,ArrowRight","","revaluation","1","","","",""
"html-keyboard-response","288","1103565","0.0-4.0-10.0-1.7","spark_pilot_norest","11122","2","7","Male","","","","","","","null","<div style=""font-size:60px;"">+</div>","null","fixation","","","","","","","","","","","",""
"learning-instructions","289","1110493","0.0-4.0-0.1-0.2","spark_pilot_norest","11122","2","7","Male","","","","","","","4140.60000000149","<p> This time you are searching for treasure in the <b>canyon</b>.</p>","","instructions","","","","","","","","","","","",""
"learning-instructions","290","1129418","0.0-4.0-0.1-0.3","spark_pilot_norest","11122","2","7","Male","","","","","","","1668.1000000014901","<p><b>New</b> animals with <b>new</b> treasure chests live here. You need to explore to discover where the animal with the best treasure chest is.</p>
                    <p> Like before, once you figure out which animal has the chest with the most treasure, you should try to get to that animal and select that chest! </p>","","instructions","","","","","","","","","","","",""
"learning-instructions","291","1149554","0.0-4.0-1.1-0.1","spark_pilot_norest","11122","2","7","Male","","","","","","","5408.60000000149","<p> Remember, when you see a picture of the place, use the up and down keys to <b>find an animal</b>.</p>
            <p> When you encounter an animal, you should use the left and right keys to <b>select a treasure chest</b>.</p>
            <p> Don't forget to look out for the robber! </p>","","instructions","","","","","","","","","","","",""
"revaluation","292","1155561","0.0-4.0-2.1-0.50","spark_pilot_norest","11122","2","7","Male","","false","","","","","[1107.7999999970198,662.1000000014901]","./assets/img/canyon/memory/17.jpg","[""ArrowDown"",""ArrowRight""]","value training","canyon","17","{""ArrowUp,ArrowLeft"":26,""ArrowUp,ArrowRight"":10,""ArrowDown,ArrowLeft"":5,""ArrowDown,ArrowRight"":17}","false","ArrowDown,ArrowRight","false","original","2","0","","",""
"html-keyboard-response","293","1156063","0.0-4.0-2.1-1.50","spark_pilot_norest","11122","2","7","Male","","","","","","","null","<div style=""font-size:60px;"">+</div>","null","fixation","","","","","","","","","1","","",""
"revaluation","294","1162068","0.0-4.0-2.1-0.51","spark_pilot_norest","11122","2","7","Male","","false","","","","","[399.5999999977648,389.6000000014901]","./assets/img/canyon/memory/17.jpg","[""ArrowDown"",""ArrowLeft""]","value training","canyon","5","{""ArrowUp,ArrowLeft"":26,""ArrowUp,ArrowRight"":10,""ArrowDown,ArrowLeft"":5,""ArrowDown,ArrowRight"":17}","false","ArrowDown,ArrowLeft","false","original","2","2","","",""
"html-keyboard-response","295","1162569","0.0-4.0-2.1-1.51","spark_pilot_norest","11122","2","7","Male","","","","","","","null","<div style=""font-size:60px;"">+</div>","null","fixation","","","","","","","","","3","","",""
"revaluation","296","1166574","0.0-4.0-2.1-0.52","spark_pilot_norest","11122","2","7","Male","","false","","","","","[973.4000000022352]","./assets/img/canyon/catch/7.jpg","[""spaceBar""]","value training","canyon","0","{""ArrowUp,ArrowLeft"":26,""ArrowUp,ArrowRight"":10,""ArrowDown,ArrowLeft"":5,""ArrowDown,ArrowRight"":17}","true","spaceBar","true","original","2","4","","",""
"html-keyboard-response","297","1167075","0.0-4.0-2.1-1.52","spark_pilot_norest","11122","2","7","Male","","","","","","","null","<div style=""font-size:60px;"">+</div>","null","fixation","","","","","","","","","5","","",""
"revaluation","298","1173080","0.0-4.0-2.1-0.53","spark_pilot_norest","11122","2","7","Male","","false","","","","","[880,624.0999999977648]","./assets/img/canyon/memory/18.jpg","[""ArrowUp"",""ArrowLeft""]","value training","canyon","26","{""ArrowUp,ArrowLeft"":26,""ArrowUp,ArrowRight"":10,""ArrowDown,ArrowLeft"":5,""ArrowDown,ArrowRight"":17}","true","ArrowUp,ArrowLeft","false","original","2","6","","",""
"html-keyboard-response","299","1173582","0.0-4.0-2.1-1.53","spark_pilot_norest","11122","2","7","Male","","","","","","","null","<div style=""font-size:60px;"">+</div>","null","fixation","","","","","","","","","7","","",""
"revaluation","300","1179588","0.0-4.0-2.1-0.54","spark_pilot_norest","11122","2","7","Male","","false","","","","","[968.3999999985099,466.8999999985099]","./assets/img/canyon/memory/4.jpg","[""ArrowUp"",""ArrowRight""]","value training","canyon","10","{""ArrowUp,ArrowLeft"":26,""ArrowUp,ArrowRight"":10,""ArrowDown,ArrowLeft"":5,""ArrowDown,ArrowRight"":17}","false","ArrowUp,ArrowRight","false","original","2","8","","",""
"html-keyboard-response","301","1180090","0.0-4.0-2.1-1.54","spark_pilot_norest","11122","2","7","Male","","","","","","","null","<div style=""font-size:60px;"">+</div>","null","fixation","","","","","","","","","9","","",""
"revaluation","302","1186099","0.0-4.0-2.1-0.55","spark_pilot_norest","11122","2","7","Male","","false","","","","","[743.8999999985099,452.69999999925494]","./assets/img/canyon/memory/21.jpg","[""ArrowUp"",""ArrowLeft""]","value training","canyon","26","{""ArrowUp,ArrowLeft"":26,""ArrowUp,ArrowRight"":10,""ArrowDown,ArrowLeft"":5,""ArrowDown,ArrowRight"":17}","true","ArrowUp,ArrowLeft","false","original","2","10","","",""
"html-keyboard-response","303","1186601","0.0-4.0-2.1-1.55","spark_pilot_norest","11122","2","7","Male","","","","","","","null","<div style=""font-size:60px;"">+</div>","null","fixation","","","","","","","","","11","","",""
"revaluation","304","1192605","0.0-4.0-2.1-0.56","spark_pilot_norest","11122","2","7","Male","","false","","","","","[707.5,388.8999999985099]","./assets/img/canyon/memory/9.jpg","[""ArrowUp"",""ArrowLeft""]","value training","canyon","26","{""ArrowUp,ArrowLeft"":26,""ArrowUp,ArrowRight"":10,""ArrowDown,ArrowLeft"":5,""ArrowDown,ArrowRight"":17}","true","ArrowUp,ArrowLeft","false","original","2","12","","",""
"html-keyboard-response","305","1193107","0.0-4.0-2.1-1.56","spark_pilot_norest","11122","2","7","Male","","","","","","","null","<div style=""font-size:60px;"">+</div>","null","fixation","","","","","","","","","13","","",""
"revaluation","306","1199115","0.0-4.0-2.1-0.57","spark_pilot_norest","11122","2","7","Male","","false","","","","","[577.8000000007451,680]","./assets/img/canyon/memory/11.jpg","[""ArrowUp"",""ArrowLeft""]","value training","canyon","26","{""ArrowUp,ArrowLeft"":26,""ArrowUp,ArrowRight"":10,""ArrowDown,ArrowLeft"":5,""ArrowDown,ArrowRight"":17}","true","ArrowUp,ArrowLeft","false","original","2","14","","",""
"html-keyboard-response","307","1199616","0.0-4.0-2.1-1.57","spark_pilot_norest","11122","2","7","Male","","","","","","","null","<div style=""font-size:60px;"">+</div>","null","fixation","","","","","","","","","15","","",""
"revaluation","308","1203624","0.0-4.0-2.1-0.58","spark_pilot_norest","11122","2","7","Male","","false","","","","","[785.8999999985099]","./assets/img/canyon/catch/3.jpg","[""spaceBar""]","value training","canyon","0","{""ArrowUp,ArrowLeft"":26,""ArrowUp,ArrowRight"":10,""ArrowDown,ArrowLeft"":5,""ArrowDown,ArrowRight"":17}","true","spaceBar","true","original","2","16","","",""
"html-keyboard-response","309","1204126","0.0-4.0-2.1-1.58","spark_pilot_norest","11122","2","7","Male","","","","","","","null","<div style=""font-size:60px;"">+</div>","null","fixation","","","","","","","","","17","","",""
"revaluation","310","1210134","0.0-4.0-2.1-0.59","spark_pilot_norest","11122","2","7","Male","","false","","","","","[1773.2000000029802,1254.699999999255]","./assets/img/canyon/memory/31.jpg","[""ArrowUp"",""ArrowLeft""]","value training","canyon","26","{""ArrowUp,ArrowLeft"":26,""ArrowUp,ArrowRight"":10,""ArrowDown,ArrowLeft"":5,""ArrowDown,ArrowRight"":17}","true","ArrowUp,ArrowLeft","false","original","2","18","","",""
"html-keyboard-response","311","1210635","0.0-4.0-2.1-1.59","spark_pilot_norest","11122","2","7","Male","","","","","","","null","<div style=""font-size:60px;"">+</div>","null","fixation","","","","","","","","","19","","",""
"revaluation","312","1214640","0.0-4.0-2.1-0.60","spark_pilot_norest","11122","2","7","Male","","false","","","","","[883.3000000007451]","./assets/img/canyon/catch/4.jpg","[""spaceBar""]","value training","canyon","0","{""ArrowUp,ArrowLeft"":26,""ArrowUp,ArrowRight"":10,""ArrowDown,ArrowLeft"":5,""ArrowDown,ArrowRight"":17}","true","spaceBar","true","original","2","20","","",""
"html-keyboard-response","313","1215142","0.0-4.0-2.1-1.60","spark_pilot_norest","11122","2","7","Male","","","","","","","null","<div style=""font-size:60px;"">+</div>","null","fixation","","","","","","","","","21","","",""
