"trial_type","trial_index","time_elapsed","internal_node_id","task_version","subject_id","assigned_condition","age","gender","success","timeout","failed_images","failed_audio","failed_video","browser_interaction","rt","stimulus","response","task_part","environment","score","rewardMap","correct","fullState","isCatch","condition","order","trial_num","key_press","ground_truth","bonus"
"pavlovia","0","1105","0.0-0.0","spark_pilot_norest","13782","2","18","Male","","","","","","","","","","","","","","","","","","","","","",""
"preload","1","25386","0.0-1.0","spark_pilot_norest","13782","2","18","Male","true","false","[]","[]","[]","[{""event"":""fullscreenenter"",""trial"":2,""time"":27880}]","","","","","","","","","","","","","","","",""
"fullscreen","2","28857","0.0-2.0","spark_pilot_norest","13782","2","18","Male","true","","","","","","","","","","","","","","","","","","","","",""
"audio-button-response","3","30482","0.0-3.0-0.0-0.0","spark_pilot_norest","13782","2","18","Male","","","","","","","1621","./assets/audio/audiotest/turtle.mp3","2","audio_test","","","","","","","","","","","",""
"learning-instructions","4","40763","0.0-3.0-1.0-0.0","spark_pilot_norest","13782","2","18","Male","","","","","","","3302.199999999255","<p> Welcome! Please remember to stay in fullscreen mode and don't click away from the experiment. </p>","","instructions","","","","","","","","","","","",""
"learning-instructions","5","52956","0.0-3.0-1.0-0.1","spark_pilot_norest","13782","2","18","Male","","","","","","","3792.199999999255","<p> Today you will be playing a game to earn treasure. </p>
            <p> At the end of the experiment, you will earn a bonus based on how much treasure you find. </p>
            <img src='./assets/img/instructions/treasure.jpg' class='instructions-image'>","","instructions","","","","","","","","","","","",""
"learning-instructions","6","62115","0.0-3.0-1.0-0.2","spark_pilot_norest","13782","2","18","Male","","","","","","","910.3000000007451","<p> Animals have hidden treasure in treasure chests. </p>
            <p> You need to first find an animal and then choose which of their treasure chests to search. </p>
            <img src='./assets/img/space/animals/cat.jpg' class='instructions-image'>","","instructions","","","","","","","","","","","",""
"learning-instructions","7","76124","0.0-3.0-1.0-0.3","spark_pilot_norest","13782","2","18","Male","","","","","","","864.6999999992549","<p> In each round, you will search for treasure in a different place. In the real game, there will be two rounds. </p>
            <p> You will begin with a separate, practice round where you will search for treasure in outer space. </p>
            <img src='./assets/img/space/0.jpg' class='instructions-image'>","","instructions","","","","","","","","","","","",""
"learning-instructions","8","89444","0.0-3.0-1.0-0.4","spark_pilot_norest","13782","2","18","Male","","","","","","","1907.2000000029802","<p> On every turn, you will see a picture of the place that you are in, but the specific image may be different each time. </p>
            <p> For example, both of these images mean you are in outer space. </p>
            <img src='./assets/img/instructions/outerspace.jpg' class='instructions-image'>","","instructions","","","","","","","","","","","",""
"learning-instructions","9","97732","0.0-3.0-1.0-0.5","spark_pilot_norest","13782","2","18","Male","","","","","","","455.80000000074506","<p> You need to decide which direction to travel in. </p>
            <p> You can choose between going <b>up or down</b> by using the arrow keys. </p>
            <img src='./assets/img/instructions/updown.jpg' class='instructions-image'>","","instructions","","","","","","","","","","","",""
"learning-instructions","10","107582","0.0-3.0-1.0-0.6","spark_pilot_norest","13782","2","18","Male","","","","","","","1046.5999999977648","<p> You will have <b>2 seconds</b> to make your choice. </p>
            <p> If you do not make a choice within 2 seconds, you will not find an animal or earn treasure. </p>
            <img src='./assets/img/instructions/2seconds.jpg' class='instructions-image'>","","instructions","","","","","","","","","","","",""
"learning-instructions","11","115358","0.0-3.0-1.0-0.7","spark_pilot_norest","13782","2","18","Male","","","","","","","747.6000000014901","<p> Let’s try practicing that now! </p>
            <p> When you see a picture of the place you are in, press the <b>up</b> key to travel up. </p>
            <img src='./assets/img/instructions/pressUp.jpg' class='instructions-image'>","","instructions","","","","","","","","","","","",""
"revaluation","12","119396","0.0-3.0-2.0-0.0","spark_pilot_norest","13782","2","18","Male","","false","","","","","[890.1000000014901]","./assets/img/space/0.jpg","[""ArrowUp""]","first stage practice","space","0","null","null","ArrowUp","false","","","","","",""
"html-keyboard-response","13","119909","0.0-3.0-2.0-1.0","spark_pilot_norest","13782","2","18","Male","","","","","","","null","<div style=""font-size:60px;"">+</div>","null","fixation","","","","","","","","","","","",""
"revaluation","14","123932","0.0-3.0-2.0-0.1","spark_pilot_norest","13782","2","18","Male","","false","","","","","[840.1999999992549]","./assets/img/space/1.jpg","[""ArrowUp""]","first stage practice","space","0","null","null","ArrowUp","false","","","","","",""
"html-keyboard-response","15","124441","0.0-3.0-2.0-1.1","spark_pilot_norest","13782","2","18","Male","","","","","","","null","<div style=""font-size:60px;"">+</div>","null","fixation","","","","","","","","","","","",""
"revaluation","16","128447","0.0-3.0-2.0-0.2","spark_pilot_norest","13782","2","18","Male","","false","","","","","[606]","./assets/img/space/2.jpg","[""ArrowUp""]","first stage practice","space","0","null","null","ArrowUp","false","","","","","",""
"html-keyboard-response","17","128960","0.0-3.0-2.0-1.2","spark_pilot_norest","13782","2","18","Male","","","","","","","null","<div style=""font-size:60px;"">+</div>","null","fixation","","","","","","","","","","","",""
"learning-instructions","18","134237","0.0-3.0-3.0-0.0","spark_pilot_norest","13782","2","18","Male","","","","","","","587.3000000007451","<p> Great job! Now try pressing the <b>down</b> key to travel down. </p>
            <img src='./assets/img/instructions/pressDown.jpg' class='instructions-image'>","","instructions","","","","","","","","","","","",""
"revaluation","19","138268","0.0-3.0-4.0-0.0","spark_pilot_norest","13782","2","18","Male","","false","","","","","[604]","./assets/img/space/3.jpg","[""ArrowDown""]","first stage practice","space","0","null","null","ArrowDown","false","","","","","",""
"html-keyboard-response","20","138774","0.0-3.0-4.0-1.0","spark_pilot_norest","13782","2","18","Male","","","","","","","null","<div style=""font-size:60px;"">+</div>","null","fixation","","","","","","","","","","","",""
"revaluation","21","142785","0.0-3.0-4.0-0.1","spark_pilot_norest","13782","2","18","Male","","false","","","","","[390.9000000022352]","./assets/img/space/4.jpg","[""ArrowDown""]","first stage practice","space","0","null","null","ArrowDown","false","","","","","",""
"html-keyboard-response","22","143293","0.0-3.0-4.0-1.1","spark_pilot_norest","13782","2","18","Male","","","","","","","null","<div style=""font-size:60px;"">+</div>","null","fixation","","","","","","","","","","","",""
"revaluation","23","147318","0.0-3.0-4.0-0.2","spark_pilot_norest","13782","2","18","Male","","false","","","","","[428.30000000074506]","./assets/img/space/5.jpg","[""ArrowDown""]","first stage practice","space","0","null","null","ArrowDown","false","","","","","",""
"html-keyboard-response","24","147825","0.0-3.0-4.0-1.2","spark_pilot_norest","13782","2","18","Male","","","","","","","null","<div style=""font-size:60px;"">+</div>","null","fixation","","","","","","","","","","","",""
"learning-instructions","25","158167","0.0-3.0-5.0-0.0","spark_pilot_norest","13782","2","18","Male","","","","","","","510.79999999701977","<p> The animals don’t move, so the animal in the upper part of a place will stay in the upper part of a place, and the animal in the lower part of a place will stay in the lower part of a place. </p>","","instructions","","","","","","","","","","","",""
"learning-instructions","26","167713","0.0-3.0-5.0-0.1","spark_pilot_norest","13782","2","18","Male","","","","","","","425.20000000298023","<p> Each animal has two treasure chests for you to choose from. </p>
            <p> The amount of treasure in each chest can range from <b> 0 to 40 pieces.</b></p>","","instructions","","","","","","","","","","","",""
"learning-instructions","27","179389","0.0-3.0-5.0-0.2","spark_pilot_norest","13782","2","18","Male","","","","","","","506.9000000022352","<p> You should decide which chest to search for treasure by using the <b>left</b> and <b>right</b> arrow keys. </p>
            <p><b> Pay attention to which animal is on the screen, as the animals have different treasure chests. </b></p>
            <img src='./assets/img/instructions/leftright.jpg' class='instructions-image'>","","instructions","","","","","","","","","","","",""
"learning-instructions","28","186181","0.0-3.0-5.0-0.3","spark_pilot_norest","13782","2","18","Male","","","","","","","438.80000000074506","<p> Let’s try practicing that now. </p>
            <p> When you see an animal, choose which chest to search for treasure. </p>
            <img src='./assets/img/instructions/chooseChest.jpg' class='instructions-image'>","","instructions","","","","","","","","","","","",""
"revaluation","29","190194","0.0-3.0-6.0-0.0","spark_pilot_norest","13782","2","18","Male","","false","","","","","[683.6000000014901]","./assets/img/space/animals/cat.jpg","[""ArrowRight""]","second stage practice","space","36","{""ArrowUp,ArrowLeft"":3,""ArrowUp,ArrowRight"":36,""ArrowDown,ArrowLeft"":15,""ArrowDown,ArrowRight"":23}","true","ArrowUp,ArrowRight","","","","","","",""
"html-keyboard-response","30","190706","0.0-3.0-6.0-1.0","spark_pilot_norest","13782","2","18","Male","","","","","","","null","<div style=""font-size:60px;"">+</div>","null","fixation","","","","","","","","","","","",""
"revaluation","31","194727","0.0-3.0-6.0-0.1","spark_pilot_norest","13782","2","18","Male","","false","","","","","[1088.9000000022352]","./assets/img/space/animals/cat.jpg","[""ArrowLeft""]","second stage practice","space","3","{""ArrowUp,ArrowLeft"":3,""ArrowUp,ArrowRight"":36,""ArrowDown,ArrowLeft"":15,""ArrowDown,ArrowRight"":23}","false","ArrowUp,ArrowLeft","","","","","","",""
"html-keyboard-response","32","195240","0.0-3.0-6.0-1.1","spark_pilot_norest","13782","2","18","Male","","","","","","","null","<div style=""font-size:60px;"">+</div>","null","fixation","","","","","","","","","","","",""
"revaluation","33","199246","0.0-3.0-6.0-0.2","spark_pilot_norest","13782","2","18","Male","","false","","","","","[1227]","./assets/img/space/animals/rabbit.jpg","[""ArrowLeft""]","second stage practice","space","15","{""ArrowUp,ArrowLeft"":3,""ArrowUp,ArrowRight"":36,""ArrowDown,ArrowLeft"":15,""ArrowDown,ArrowRight"":23}","false","ArrowDown,ArrowLeft","","","","","","",""
"html-keyboard-response","34","199756","0.0-3.0-6.0-1.2","spark_pilot_norest","13782","2","18","Male","","","","","","","null","<div style=""font-size:60px;"">+</div>","null","fixation","","","","","","","","","","","",""
"revaluation","35","203779","0.0-3.0-6.0-0.3","spark_pilot_norest","13782","2","18","Male","","false","","","","","[405.29999999701977]","./assets/img/space/animals/rabbit.jpg","[""ArrowRight""]","second stage practice","space","23","{""ArrowUp,ArrowLeft"":3,""ArrowUp,ArrowRight"":36,""ArrowDown,ArrowLeft"":15,""ArrowDown,ArrowRight"":23}","true","ArrowDown,ArrowRight","","","","","","",""
"html-keyboard-response","36","204291","0.0-3.0-6.0-1.3","spark_pilot_norest","13782","2","18","Male","","","","","","","null","<div style=""font-size:60px;"">+</div>","null","fixation","","","","","","","","","","","",""
"learning-instructions","37","222088","0.0-3.0-7.0-0.0","spark_pilot_norest","13782","2","18","Male","","","","","","","996.0999999977648","<p> Great job. Now let’s try putting it together. </p>
            <p> On each turn, you will first see a picture to remind you of the place you are in, and you need to choose whether to go up or down. </p>
            <p> Then you will see an animal and choose which of its chests to search for treasure. </p>","","instructions","","","","","","","","","","","",""
"learning-instructions","38","230822","0.0-3.0-7.0-0.1","spark_pilot_norest","13782","2","18","Male","","","","","","","491.8999999985099","<p> When you choose whether to go up or down, try to go to the animal with the chest with the most treasure. </p>
            <p> Try practicing that now! </p>","","instructions","","","","","","","","","","","",""
"revaluation","39","236857","0.0-3.0-8.0-0.0","spark_pilot_norest","13782","2","18","Male","","false","","","","","[776.8999999985099,439.79999999701977]","./assets/img/space/6.jpg","[""ArrowUp"",""ArrowRight""]","full practice","space","36","{""ArrowUp,ArrowLeft"":3,""ArrowUp,ArrowRight"":36,""ArrowDown,ArrowLeft"":15,""ArrowDown,ArrowRight"":23}","true","ArrowUp,ArrowRight","false","","","","","",""
"html-keyboard-response","40","237375","0.0-3.0-8.0-1.0","spark_pilot_norest","13782","2","18","Male","","","","","","","null","<div style=""font-size:60px;"">+</div>","null","fixation","","","","","","","","","","","",""
"revaluation","41","243423","0.0-3.0-8.0-0.1","spark_pilot_norest","13782","2","18","Male","","false","","","","","[723.6999999992549,609.1000000014901]","./assets/img/space/7.jpg","[""ArrowUp"",""ArrowRight""]","full practice","space","36","{""ArrowUp,ArrowLeft"":3,""ArrowUp,ArrowRight"":36,""ArrowDown,ArrowLeft"":15,""ArrowDown,ArrowRight"":23}","true","ArrowUp,ArrowRight","false","","","","","",""
"html-keyboard-response","42","243940","0.0-3.0-8.0-1.1","spark_pilot_norest","13782","2","18","Male","","","","","","","null","<div style=""font-size:60px;"">+</div>","null","fixation","","","","","","","","","","","",""
"revaluation","43","249956","0.0-3.0-8.0-0.2","spark_pilot_norest","13782","2","18","Male","","false","","","","","[710.9000000022352,467]","./assets/img/space/8.jpg","[""ArrowUp"",""ArrowRight""]","full practice","space","36","{""ArrowUp,ArrowLeft"":3,""ArrowUp,ArrowRight"":36,""ArrowDown,ArrowLeft"":15,""ArrowDown,ArrowRight"":23}","true","ArrowUp,ArrowRight","false","","","","","",""
"html-keyboard-response","44","250472","0.0-3.0-8.0-1.2","spark_pilot_norest","13782","2","18","Male","","","","","","","null","<div style=""font-size:60px;"">+</div>","null","fixation","","","","","","","","","","","",""
"revaluation","45","256511","0.0-3.0-8.0-0.3","spark_pilot_norest","13782","2","18","Male","","false","","","","","[619.0999999977648,543.3000000007451]","./assets/img/space/9.jpg","[""ArrowUp"",""ArrowRight""]","full practice","space","36","{""ArrowUp,ArrowLeft"":3,""ArrowUp,ArrowRight"":36,""ArrowDown,ArrowLeft"":15,""ArrowDown,ArrowRight"":23}","true","ArrowUp,ArrowRight","false","","","","","",""
"html-keyboard-response","46","257023","0.0-3.0-8.0-1.3","spark_pilot_norest","13782","2","18","Male","","","","","","","null","<div style=""font-size:60px;"">+</div>","null","fixation","","","","","","","","","","","",""
"revaluation","47","263038","0.0-3.0-8.0-0.4","spark_pilot_norest","13782","2","18","Male","","false","","","","","[571.6000000014901,473.80000000074506]","./assets/img/space/10.jpg","[""ArrowUp"",""ArrowRight""]","full practice","space","36","{""ArrowUp,ArrowLeft"":3,""ArrowUp,ArrowRight"":36,""ArrowDown,ArrowLeft"":15,""ArrowDown,ArrowRight"":23}","true","ArrowUp,ArrowRight","false","","","","","",""
"html-keyboard-response","48","263540","0.0-3.0-8.0-1.4","spark_pilot_norest","13782","2","18","Male","","","","","","","null","<div style=""font-size:60px;"">+</div>","null","fixation","","","","","","","","","","","",""
"learning-instructions","49","274381","0.0-3.0-9.0-0.0","spark_pilot_norest","13782","2","18","Male","","","","","","","569.0999999977648","<p> One last thing: sometimes, you will see a robber. The robber can be anywhere in the picture. </p>
            <p> If you do not stop them, you will lose treasure. </p>
            <img src='./assets/img/instructions/robber.jpg' class='instructions-image'>","","instructions","","","","","","","","","","","",""
"learning-instructions","50","285532","0.0-3.0-9.0-0.1","spark_pilot_norest","13782","2","18","Male","","","","","","","3997.60000000149","<p> If you see the robber, you should <b>press the space bar</b> rather than using the arrow keys. </p>
            <p> Try practicing that now! </p>","","instructions","","","","","","","","","","","",""
"revaluation","51","289538","0.0-3.0-10.0-0.0","spark_pilot_norest","13782","2","18","Male","","false","","","","","[668]","./assets/img/space/catch/0.jpg","[""spaceBar""]","catch practice","space","0","{""ArrowUp,ArrowLeft"":3,""ArrowUp,ArrowRight"":36,""ArrowDown,ArrowLeft"":15,""ArrowDown,ArrowRight"":23}","true","spaceBar","true","","","","","",""
"html-keyboard-response","52","290047","0.0-3.0-10.0-1.0","spark_pilot_norest","13782","2","18","Male","","","","","","","null","<div style=""font-size:60px;"">+</div>","null","fixation","","","","","","","","","","","",""
"revaluation","53","294072","0.0-3.0-10.0-0.1","spark_pilot_norest","13782","2","18","Male","","false","","","","","[906.1000000014901]","./assets/img/space/catch/1.jpg","[""spaceBar""]","catch practice","space","0","{""ArrowUp,ArrowLeft"":3,""ArrowUp,ArrowRight"":36,""ArrowDown,ArrowLeft"":15,""ArrowDown,ArrowRight"":23}","true","spaceBar","true","","","","","",""
"html-keyboard-response","54","294583","0.0-3.0-10.0-1.1","spark_pilot_norest","13782","2","18","Male","","","","","","","null","<div style=""font-size:60px;"">+</div>","null","fixation","","","","","","","","","","","",""
"revaluation","55","298606","0.0-3.0-10.0-0.2","spark_pilot_norest","13782","2","18","Male","","false","","","","","[581.1000000014901]","./assets/img/space/catch/2.jpg","[""spaceBar""]","catch practice","space","0","{""ArrowUp,ArrowLeft"":3,""ArrowUp,ArrowRight"":36,""ArrowDown,ArrowLeft"":15,""ArrowDown,ArrowRight"":23}","true","spaceBar","true","","","","","",""
"html-keyboard-response","56","299123","0.0-3.0-10.0-1.2","spark_pilot_norest","13782","2","18","Male","","","","","","","null","<div style=""font-size:60px;"">+</div>","null","fixation","","","","","","","","","","","",""
"learning-instructions","57","305574","0.0-3.0-11.0-0.0-0.0","spark_pilot_norest","13782","2","18","Male","","","","","","","1212.300000000745","<p> Now, you will practice a shortened version of the game to get a sense of how it all fits together. </p>","","instructions","","","","","","","","","","","",""
"learning-instructions","58","309793","0.0-3.0-11.0-0.0-0.1","spark_pilot_norest","13782","2","18","Male","","","","","","","1036.1000000014901","<p>This time you are searching for treasure in outer space.</p>","","instructions","","","","","","","","","","","",""
"learning-instructions","59","325182","0.0-3.0-11.0-1.0-0.0","spark_pilot_norest","13782","2","18","Male","","","","","","","638.3999999985099","<p> Remember, when you see a picture of the place, use the up and down keys to <b>find an animal</b>.</p>
            <p> When you encounter an animal, you should use the left and right keys to <b>select a treasure chest</b>.</p>
            <p> Don't forget to look out for the robber! </p>","","instructions","","","","","","","","","","","",""
"revaluation","60","331221","0.0-3.0-11.0-2.0-0.0","spark_pilot_norest","13782","2","18","Male","","false","","","","","[937.1999999992549,486.19999999925494]","./assets/img/space/11.jpg","[""ArrowUp"",""ArrowRight""]","practice block","space","36","{""ArrowUp,ArrowLeft"":3,""ArrowUp,ArrowRight"":36,""ArrowDown,ArrowLeft"":15,""ArrowDown,ArrowRight"":23}","true","ArrowUp,ArrowRight","false","","","","","",""
"html-keyboard-response","61","331738","0.0-3.0-11.0-2.0-1.0","spark_pilot_norest","13782","2","18","Male","","","","","","","null","<div style=""font-size:60px;"">+</div>","null","fixation","","","","","","","","","","","",""
"revaluation","62","337775","0.0-3.0-11.0-2.0-0.1","spark_pilot_norest","13782","2","18","Male","","false","","","","","[688.4000000022352,459.6000000014901]","./assets/img/space/12.jpg","[""ArrowUp"",""ArrowRight""]","practice block","space","36","{""ArrowUp,ArrowLeft"":3,""ArrowUp,ArrowRight"":36,""ArrowDown,ArrowLeft"":15,""ArrowDown,ArrowRight"":23}","true","ArrowUp,ArrowRight","false","","","","","",""
"html-keyboard-response","63","338285","0.0-3.0-11.0-2.0-1.1","spark_pilot_norest","13782","2","18","Male","","","","","","","null","<div style=""font-size:60px;"">+</div>","null","fixation","","","","","","","","","","","",""
"revaluation","64","344317","0.0-3.0-11.0-2.0-0.2","spark_pilot_norest","13782","2","18","Male","","false","","","","","[806.4000000022352,342.29999999701977]","./assets/img/space/13.jpg","[""ArrowUp"",""ArrowRight""]","practice block","space","36","{""ArrowUp,ArrowLeft"":3,""ArrowUp,ArrowRight"":36,""ArrowDown,ArrowLeft"":15,""ArrowDown,ArrowRight"":23}","true","ArrowUp,ArrowRight","false","","","","","",""
"html-keyboard-response","65","344819","0.0-3.0-11.0-2.0-1.2","spark_pilot_norest","13782","2","18","Male","","","","","","","null","<div style=""font-size:60px;"">+</div>","null","fixation","","","","","","","","","","","",""
"revaluation","66","350842","0.0-3.0-11.0-2.0-0.3","spark_pilot_norest","13782","2","18","Male","","false","","","","","[1009.3000000007451,307.69999999925494]","./assets/img/space/14.jpg","[""ArrowUp"",""ArrowRight""]","practice block","space","36","{""ArrowUp,ArrowLeft"":3,""ArrowUp,ArrowRight"":36,""ArrowDown,ArrowLeft"":15,""ArrowDown,ArrowRight"":23}","true","ArrowUp,ArrowRight","false","","","","","",""
"html-keyboard-response","67","351344","0.0-3.0-11.0-2.0-1.3","spark_pilot_norest","13782","2","18","Male","","","","","","","null","<div style=""font-size:60px;"">+</div>","null","fixation","","","","","","","","","","","",""
"revaluation","68","357352","0.0-3.0-11.0-2.0-0.4","spark_pilot_norest","13782","2","18","Male","","false","","","","","[993,289]","./assets/img/space/11.jpg","[""ArrowUp"",""ArrowRight""]","practice block","space","36","{""ArrowUp,ArrowLeft"":3,""ArrowUp,ArrowRight"":36,""ArrowDown,ArrowLeft"":15,""ArrowDown,ArrowRight"":23}","true","ArrowUp,ArrowRight","false","","","","","",""
"html-keyboard-response","69","357853","0.0-3.0-11.0-2.0-1.4","spark_pilot_norest","13782","2","18","Male","","","","","","","null","<div style=""font-size:60px;"">+</div>","null","fixation","","","","","","","","","","","",""
"revaluation","70","363859","0.0-3.0-11.0-2.0-0.5","spark_pilot_norest","13782","2","18","Male","","false","","","","","[1169,302.69999999925494]","./assets/img/space/12.jpg","[""ArrowUp"",""ArrowRight""]","practice block","space","36","{""ArrowUp,ArrowLeft"":3,""ArrowUp,ArrowRight"":36,""ArrowDown,ArrowLeft"":15,""ArrowDown,ArrowRight"":23}","true","ArrowUp,ArrowRight","false","","","","","",""
"html-keyboard-response","71","364360","0.0-3.0-11.0-2.0-1.5","spark_pilot_norest","13782","2","18","Male","","","","","","","null","<div style=""font-size:60px;"">+</div>","null","fixation","","","","","","","","","","","",""
"revaluation","72","370364","0.0-3.0-11.0-2.0-0.6","spark_pilot_norest","13782","2","18","Male","","false","","","","","[1171.300000000745,341.3999999985099]","./assets/img/space/13.jpg","[""ArrowUp"",""ArrowRight""]","practice block","space","36","{""ArrowUp,ArrowLeft"":3,""ArrowUp,ArrowRight"":36,""ArrowDown,ArrowLeft"":15,""ArrowDown,ArrowRight"":23}","true","ArrowUp,ArrowRight","false","","","","","",""
"html-keyboard-response","73","370866","0.0-3.0-11.0-2.0-1.6","spark_pilot_norest","13782","2","18","Male","","","","","","","null","<div style=""font-size:60px;"">+</div>","null","fixation","","","","","","","","","","","",""
"revaluation","74","376880","0.0-3.0-11.0-2.0-0.7","spark_pilot_norest","13782","2","18","Male","","false","","","","","[1313.3999999985099,362.69999999925494]","./assets/img/space/14.jpg","[""ArrowUp"",""ArrowRight""]","practice block","space","36","{""ArrowUp,ArrowLeft"":3,""ArrowUp,ArrowRight"":36,""ArrowDown,ArrowLeft"":15,""ArrowDown,ArrowRight"":23}","true","ArrowUp,ArrowRight","false","","","","","",""
"html-keyboard-response","75","377383","0.0-3.0-11.0-2.0-1.7","spark_pilot_norest","13782","2","18","Male","","","","","","","null","<div style=""font-size:60px;"">+</div>","null","fixation","","","","","","","","","","","",""
"revaluation","76","381386","0.0-3.0-11.0-2.0-0.8","spark_pilot_norest","13782","2","18","Male","","false","","","","","[622.6000000014901]","./assets/img/space/catch/3.jpg","[""spaceBar""]","practice block","space","0","{""ArrowUp,ArrowLeft"":3,""ArrowUp,ArrowRight"":36,""ArrowDown,ArrowLeft"":15,""ArrowDown,ArrowRight"":23}","true","spaceBar","true","","","","","",""
"html-keyboard-response","77","381888","0.0-3.0-11.0-2.0-1.8","spark_pilot_norest","13782","2","18","Male","","","","","","","null","<div style=""font-size:60px;"">+</div>","null","fixation","","","","","","","","","","","",""
"learning-instructions","78","396926","0.0-3.0-11.0-3.0-0.0","spark_pilot_norest","13782","2","18","Male","","","","","","","1842.5999999977648","<p> Now, you will travel with a friend who will choose whether you go up or down first. </p>
            <p> On these turns, you will just see the animal that they found. You will still get to choose which chest to search for treasure.</p>","","instructions","","","","","","","","","","","",""
"revaluation","79","400930","0.0-3.0-11.0-4.0-0.0","spark_pilot_norest","13782","2","18","Male","","false","","","","","[926.1999999992549]","./assets/img/space/animals/rabbit.jpg","[""ArrowRight""]","practice block","space","23","{""ArrowUp,ArrowLeft"":3,""ArrowUp,ArrowRight"":36,""ArrowDown,ArrowLeft"":15,""ArrowDown,ArrowRight"":23}","true","ArrowDown,ArrowRight","","","","","","",""
"html-keyboard-response","80","401435","0.0-3.0-11.0-4.0-1.0","spark_pilot_norest","13782","2","18","Male","","","","","","","null","<div style=""font-size:60px;"">+</div>","null","fixation","","","","","","","","","","","",""
"revaluation","81","405454","0.0-3.0-11.0-4.0-0.1","spark_pilot_norest","13782","2","18","Male","","false","","","","","[392.0999999977648]","./assets/img/space/animals/cat.jpg","[""ArrowRight""]","practice block","space","36","{""ArrowUp,ArrowLeft"":3,""ArrowUp,ArrowRight"":36,""ArrowDown,ArrowLeft"":15,""ArrowDown,ArrowRight"":23}","true","ArrowUp,ArrowRight","","","","","","",""
"html-keyboard-response","82","405958","0.0-3.0-11.0-4.0-1.1","spark_pilot_norest","13782","2","18","Male","","","","","","","null","<div style=""font-size:60px;"">+</div>","null","fixation","","","","","","","","","","","",""
"revaluation","83","409973","0.0-3.0-11.0-4.0-0.2","spark_pilot_norest","13782","2","18","Male","","false","","","","","[350]","./assets/img/space/animals/cat.jpg","[""ArrowRight""]","practice block","space","36","{""ArrowUp,ArrowLeft"":3,""ArrowUp,ArrowRight"":36,""ArrowDown,ArrowLeft"":15,""ArrowDown,ArrowRight"":23}","true","ArrowUp,ArrowRight","","","","","","",""
"html-keyboard-response","84","410486","0.0-3.0-11.0-4.0-1.2","spark_pilot_norest","13782","2","18","Male","","","","","","","null","<div style=""font-size:60px;"">+</div>","null","fixation","","","","","","","","","","","",""
"revaluation","85","414505","0.0-3.0-11.0-4.0-0.3","spark_pilot_norest","13782","2","18","Male","","false","","","","","[394.5]","./assets/img/space/animals/rabbit.jpg","[""ArrowRight""]","practice block","space","23","{""ArrowUp,ArrowLeft"":3,""ArrowUp,ArrowRight"":36,""ArrowDown,ArrowLeft"":15,""ArrowDown,ArrowRight"":23}","true","ArrowDown,ArrowRight","","","","","","",""
"html-keyboard-response","86","415007","0.0-3.0-11.0-4.0-1.3","spark_pilot_norest","13782","2","18","Male","","","","","","","null","<div style=""font-size:60px;"">+</div>","null","fixation","","","","","","","","","","","",""
"learning-instructions","87","423127","0.0-3.0-11.0-5.0-0.0","spark_pilot_norest","13782","2","18","Male","","","","","","","null","<p> You have almost finished this part of the game! </p>
            <p> We are going to ask you to make a few more choices. </p>","","instructions","","","","","","","","","","","",""
"learning-instructions","88","439127","0.0-3.0-11.0-5.0-0.1","spark_pilot_norest","13782","2","18","Male","","","","","","","null","<p> First, you need to decide whether to go up or down. When you see each picture, use the arrow keys to make your choice. </p>
            <p><b>You will not see which animal you found, but try to get to the one that will give you the most treasure.</b></p>","","instructions","","","","","","","","","","","",""
"html-keyboard-response","89","440135","0.0-3.0-11.0-6.0-0.0","spark_pilot_norest","13782","2","18","Male","","","","","","","null","<div style=""font-size:100px;color:red;"">Starting in...</div>","null","","","","","","","","","","","","",""
"html-keyboard-response","90","441148","0.0-3.0-11.0-6.0-1.0","spark_pilot_norest","13782","2","18","Male","","","","","","","null","<div style=""font-size:200px;color:red;"">3</div>","null","","","","","","","","","","","","",""
"html-keyboard-response","91","442161","0.0-3.0-11.0-6.0-2.0","spark_pilot_norest","13782","2","18","Male","","","","","","","null","<div style=""font-size:200px;color:red;"">2</div>","null","","","","","","","","","","","","",""
"html-keyboard-response","92","443164","0.0-3.0-11.0-6.0-3.0","spark_pilot_norest","13782","2","18","Male","","","","","","","null","<div style=""font-size:200px;color:red;"">1</div>","null","","","","","","","","","","","","",""
"revaluation","93","443863","0.0-3.0-11.0-7.0","spark_pilot_norest","13782","2","18","Male","","false","","","","","[696.8000000007451]","./assets/img/space/15.jpg","[""ArrowUp""]","practice block","space","0","{""ArrowUp,ArrowLeft"":3,""ArrowUp,ArrowRight"":36,""ArrowDown,ArrowLeft"":15,""ArrowDown,ArrowRight"":23}","true","ArrowUp","false","","","","","",""
"html-keyboard-response","94","444368","0.0-3.0-11.0-8.0","spark_pilot_norest","13782","2","18","Male","","","","","","","null","<div style=""font-size:60px;"">+</div>","null","fixation","","","","","","","","","","","",""
"learning-instructions","95","457745","0.0-3.0-11.0-9.0-0.0","spark_pilot_norest","13782","2","18","Male","","","","","","","null","<p> Now you will see the animals again and can search their chests for treasure. </p>
            <p> This time, you will not see how much treasure you earned, but you will earn more bonus money for making better choices. </p>","","instructions","","","","","","","","","","","",""
"html-keyboard-response","96","458748","0.0-3.0-11.0-10.0-0.0","spark_pilot_norest","13782","2","18","Male","","","","","","","null","<div style=""font-size:100px;color:red;"">Starting in...</div>","null","","","","","","","","","","","","",""
"html-keyboard-response","97","459761","0.0-3.0-11.0-10.0-1.0","spark_pilot_norest","13782","2","18","Male","","","","","","","null","<div style=""font-size:200px;color:red;"">3</div>","null","","","","","","","","","","","","",""
"html-keyboard-response","98","460764","0.0-3.0-11.0-10.0-2.0","spark_pilot_norest","13782","2","18","Male","","","","","","","null","<div style=""font-size:200px;color:red;"">2</div>","null","","","","","","","","","","","","",""
"html-keyboard-response","99","461773","0.0-3.0-11.0-10.0-3.0","spark_pilot_norest","13782","2","18","Male","","","","","","","null","<div style=""font-size:200px;color:red;"">1</div>","null","","","","","","","","","","","","",""
"revaluation","100","462386","0.0-3.0-11.0-11.0-0.0","spark_pilot_norest","13782","2","18","Male","","false","","","","","[610]","./assets/img/space/animals/cat.jpg","[""ArrowRight""]","practice block","space","0","{""ArrowUp,ArrowLeft"":3,""ArrowUp,ArrowRight"":36,""ArrowDown,ArrowLeft"":15,""ArrowDown,ArrowRight"":23}","true","ArrowUp,ArrowRight","","","","","","",""
"html-keyboard-response","101","462887","0.0-3.0-11.0-11.0-1.0","spark_pilot_norest","13782","2","18","Male","","","","","","","null","<div style=""font-size:60px;"">+</div>","null","fixation","","","","","","","","","","","",""
"revaluation","102","463578","0.0-3.0-11.0-11.0-0.1","spark_pilot_norest","13782","2","18","Male","","false","","","","","[689.4000000022352]","./assets/img/space/animals/rabbit.jpg","[""ArrowRight""]","practice block","space","0","{""ArrowUp,ArrowLeft"":3,""ArrowUp,ArrowRight"":36,""ArrowDown,ArrowLeft"":15,""ArrowDown,ArrowRight"":23}","true","ArrowDown,ArrowRight","","","","","","",""
"html-keyboard-response","103","464084","0.0-3.0-11.0-11.0-1.1","spark_pilot_norest","13782","2","18","Male","","","","","","","null","<div style=""font-size:60px;"">+</div>","null","fixation","","","","","","","","","","","",""
"learning-instructions","104","469794","0.0-3.0-12.0-0.0","spark_pilot_norest","13782","2","18","Male","","","","","","","1135.199999999255","<p> Before you start, we're going to ask you a few questions about how the game works. </p>","","instructions","","","","","","","","","","","",""
"comp-q","105","477294","0.0-3.0-13.0-0.0-0.0","spark_pilot_norest","13782","2","18","Male","","","","","","","1913.5","<p> <b> True or False? </b> </p>
            <p> There can be 50 pieces of treasure in a given animal's chest. </p>","1","comp_question","","","","true","","","","","","","",""
"comp-q","106","488183","0.0-3.0-13.0-0.0-1.0","spark_pilot_norest","13782","2","18","Male","","","","","","","4248.39999999851","<p> <b> That's right! </b> The amount of treasure in each chest can range from 0 to 40 pieces. </p>","0","comp_answer","","","","","","","","","","","",""
"comp-q","107","495993","0.0-3.0-13.0-0.1-0.1","spark_pilot_norest","13782","2","18","Male","","","","","","","709.6000000014901","<p> <b> True or False? </b> </p><p> In this game, all animals have the same amount of treasure in their left and right chests. </p>","1","comp_question","","","","true","","","","","","","",""
"comp-q","108","502784","0.0-3.0-13.0-0.1-1.1","spark_pilot_norest","13782","2","18","Male","","","","","","","1569.0999999977648","<p> <b> That's right! </b> Animals have different amounts of treasure in their treasure chests. </p>","0","comp_answer","","","","","","","","","","","",""
"comp-q","109","510549","0.0-3.0-13.0-0.2-0.2","spark_pilot_norest","13782","2","18","Male","","","","","","","1931.8999999985099","<p> <b> True or False? </b> </p><p> The same animal will always be there if you go up in the same place. </p>","0","comp_question","","","","true","","","","","","","",""
"comp-q","110","518610","0.0-3.0-13.0-0.2-1.2","spark_pilot_norest","13782","2","18","Male","","","","","","","1630.199999999255","<p> <b> That's right! </b> One animal lives in the upper part and one lives in the lower part of every place. </p>","0","comp_answer","","","","","","","","","","","",""
"comp-q","111","526171","0.0-3.0-13.0-0.3-0.3","spark_pilot_norest","13782","2","18","Male","","","","","","","2054.10000000149","<p> <b> True or False? </b> </p><p> If you see a different picture, it means you are in a new place. </p>","0","comp_question","","","","false","","","","","","","",""
"comp-q","112","538648","0.0-3.0-13.0-0.3-1.3","spark_pilot_norest","13782","2","18","Male","","","","","","","1400.1000000014901","<p> <b>Incorrect.</b> Lots of different images may show the same place. For example,  you may see three different images that all remind you that you are in outer space. </p>","0","comp_answer","","","","","","","","","","","",""
"comp-q","113","544864","0.0-3.0-13.0-0.4-0.4","spark_pilot_norest","13782","2","18","Male","","","","","","","714.7999999970198","<p> <b> True or False? </b> </p><p> If you see a different picture, it means you are in a new place. </p>","1","comp_question","","","","true","","","","","","","",""
"comp-q","114","557631","0.0-3.0-13.0-0.4-1.4","spark_pilot_norest","13782","2","18","Male","","","","","","","1555.5","<p> <b> That's right! </b> Lots of different images may show the same place. For example,  you may see three different images that all remind you that you are in outer space. </p>","0","comp_answer","","","","","","","","","","","",""
"learning-instructions","115","568362","0.0-3.0-14.0-0.0","spark_pilot_norest","13782","2","18","Male","","","","","","","895","<p> Good job. Remember to do your best because the amount of treasure you earn will be converted into bonus money. </p>
            <p> It’s time to start the real game! </p>","","instructions","","","","","","","","","","","",""
"learning-instructions","116","571910","0.0-4.0-0.0-0.0","spark_pilot_norest","13782","2","18","Male","","","","","","","848.0999999977648","<p> This time you are searching for treasure in the <b>ocean</b>.</p>","","instructions","","","","","","","","","","","",""
"learning-instructions","117","589942","0.0-4.0-0.0-0.1","spark_pilot_norest","13782","2","18","Male","","","","","","","756.4000000022352","<p><b>New</b> animals with <b>new</b> treasure chests live here. You need to explore to discover where the animal with the best treasure chest is.</p>
                    <p> Like before, once you figure out which animal has the chest with the most treasure, you should try to get to that animal and select that chest! </p>","","instructions","","","","","","","","","","","",""
"learning-instructions","118","665614","0.0-4.0-1.0-0.0","spark_pilot_norest","13782","2","18","Male","","","","","","","60941.199999999255","<p> Remember, when you see a picture of the place, use the up and down keys to <b>find an animal</b>.</p>
            <p> When you encounter an animal, you should use the left and right keys to <b>select a treasure chest</b>.</p>
            <p> Don't forget to look out for the robber! </p>","","instructions","","","","","","","","","","","",""
"revaluation","119","671622","0.0-4.0-2.0-0.0","spark_pilot_norest","13782","2","18","Male","","false","","","","","[1022.7000000029802,807.3000000007451]","./assets/img/ocean/memory/30.jpg","[""ArrowUp"",""ArrowRight""]","value training","ocean","10","{""ArrowUp,ArrowLeft"":23,""ArrowUp,ArrowRight"":10,""ArrowDown,ArrowLeft"":8,""ArrowDown,ArrowRight"":30}","false","ArrowUp,ArrowRight","false","revaluation","1","0","","",""
"html-keyboard-response","120","672125","0.0-4.0-2.0-1.0","spark_pilot_norest","13782","2","18","Male","","","","","","","null","<div style=""font-size:60px;"">+</div>","null","fixation","","","","","","","","","1","","",""
"revaluation","121","676129","0.0-4.0-2.0-0.1","spark_pilot_norest","13782","2","18","Male","","false","","","","","[821]","./assets/img/ocean/catch/4.jpg","[""spaceBar""]","value training","ocean","0","{""ArrowUp,ArrowLeft"":23,""ArrowUp,ArrowRight"":10,""ArrowDown,ArrowLeft"":8,""ArrowDown,ArrowRight"":30}","true","spaceBar","true","revaluation","1","2","","",""
"html-keyboard-response","122","676634","0.0-4.0-2.0-1.1","spark_pilot_norest","13782","2","18","Male","","","","","","","null","<div style=""font-size:60px;"">+</div>","null","fixation","","","","","","","","","3","","",""
"revaluation","123","682640","0.0-4.0-2.0-0.2","spark_pilot_norest","13782","2","18","Male","","false","","","","","[951.3999999985099,467.3999999985099]","./assets/img/ocean/memory/14.jpg","[""ArrowUp"",""ArrowLeft""]","value training","ocean","23","{""ArrowUp,ArrowLeft"":23,""ArrowUp,ArrowRight"":10,""ArrowDown,ArrowLeft"":8,""ArrowDown,ArrowRight"":30}","false","ArrowUp,ArrowLeft","false","revaluation","1","4","","",""
"html-keyboard-response","124","683142","0.0-4.0-2.0-1.2","spark_pilot_norest","13782","2","18","Male","","","","","","","null","<div style=""font-size:60px;"">+</div>","null","fixation","","","","","","","","","5","","",""
"revaluation","125","689161","0.0-4.0-2.0-0.3","spark_pilot_norest","13782","2","18","Male","","false","","","","","[944.5,379.20000000298023]","./assets/img/ocean/memory/0.jpg","[""ArrowDown"",""ArrowRight""]","value training","ocean","30","{""ArrowUp,ArrowLeft"":23,""ArrowUp,ArrowRight"":10,""ArrowDown,ArrowLeft"":8,""ArrowDown,ArrowRight"":30}","true","ArrowDown,ArrowRight","false","revaluation","1","6","","",""
"html-keyboard-response","126","689662","0.0-4.0-2.0-1.3","spark_pilot_norest","13782","2","18","Male","","","","","","","null","<div style=""font-size:60px;"">+</div>","null","fixation","","","","","","","","","7","","",""
"revaluation","127","695669","0.0-4.0-2.0-0.4","spark_pilot_norest","13782","2","18","Male","","false","","","","","[1174.300000000745,487.0999999977648]","./assets/img/ocean/memory/37.jpg","[""ArrowDown"",""ArrowLeft""]","value training","ocean","8","{""ArrowUp,ArrowLeft"":23,""ArrowUp,ArrowRight"":10,""ArrowDown,ArrowLeft"":8,""ArrowDown,ArrowRight"":30}","false","ArrowDown,ArrowLeft","false","revaluation","1","8","","",""
"html-keyboard-response","128","696170","0.0-4.0-2.0-1.4","spark_pilot_norest","13782","2","18","Male","","","","","","","null","<div style=""font-size:60px;"">+</div>","null","fixation","","","","","","","","","9","","",""
"revaluation","129","702175","0.0-4.0-2.0-0.5","spark_pilot_norest","13782","2","18","Male","","false","","","","","[971.6000000014901,906.8999999985099]","./assets/img/ocean/memory/34.jpg","[""ArrowUp"",""ArrowLeft""]","value training","ocean","23","{""ArrowUp,ArrowLeft"":23,""ArrowUp,ArrowRight"":10,""ArrowDown,ArrowLeft"":8,""ArrowDown,ArrowRight"":30}","false","ArrowUp,ArrowLeft","false","revaluation","1","10","","",""
"html-keyboard-response","130","702677","0.0-4.0-2.0-1.5","spark_pilot_norest","13782","2","18","Male","","","","","","","null","<div style=""font-size:60px;"">+</div>","null","fixation","","","","","","","","","11","","",""
"revaluation","131","708687","0.0-4.0-2.0-0.6","spark_pilot_norest","13782","2","18","Male","","false","","","","","[776,530.8000000007451]","./assets/img/ocean/memory/3.jpg","[""ArrowDown"",""ArrowRight""]","value training","ocean","30","{""ArrowUp,ArrowLeft"":23,""ArrowUp,ArrowRight"":10,""ArrowDown,ArrowLeft"":8,""ArrowDown,ArrowRight"":30}","true","ArrowDown,ArrowRight","false","revaluation","1","12","","",""
"html-keyboard-response","132","709188","0.0-4.0-2.0-1.6","spark_pilot_norest","13782","2","18","Male","","","","","","","null","<div style=""font-size:60px;"">+</div>","null","fixation","","","","","","","","","13","","",""
"revaluation","133","715193","0.0-4.0-2.0-0.7","spark_pilot_norest","13782","2","18","Male","","false","","","","","[1290.3999999985099,351.79999999701977]","./assets/img/ocean/memory/30.jpg","[""ArrowDown"",""ArrowRight""]","value training","ocean","30","{""ArrowUp,ArrowLeft"":23,""ArrowUp,ArrowRight"":10,""ArrowDown,ArrowLeft"":8,""ArrowDown,ArrowRight"":30}","true","ArrowDown,ArrowRight","false","revaluation","1","14","","",""
"html-keyboard-response","134","715694","0.0-4.0-2.0-1.7","spark_pilot_norest","13782","2","18","Male","","","","","","","null","<div style=""font-size:60px;"">+</div>","null","fixation","","","","","","","","","15","","",""
"revaluation","135","721709","0.0-4.0-2.0-0.8","spark_pilot_norest","13782","2","18","Male","","false","","","","","[635.5,375.3999999985099]","./assets/img/ocean/memory/18.jpg","[""ArrowDown"",""ArrowRight""]","value training","ocean","30","{""ArrowUp,ArrowLeft"":23,""ArrowUp,ArrowRight"":10,""ArrowDown,ArrowLeft"":8,""ArrowDown,ArrowRight"":30}","true","ArrowDown,ArrowRight","false","revaluation","1","16","","",""
"html-keyboard-response","136","722211","0.0-4.0-2.0-1.8","spark_pilot_norest","13782","2","18","Male","","","","","","","null","<div style=""font-size:60px;"">+</div>","null","fixation","","","","","","","","","17","","",""
"revaluation","137","728216","0.0-4.0-2.0-0.9","spark_pilot_norest","13782","2","18","Male","","false","","","","","[554.4000000022352,301.3999999985099]","./assets/img/ocean/memory/22.jpg","[""ArrowDown"",""ArrowRight""]","value training","ocean","30","{""ArrowUp,ArrowLeft"":23,""ArrowUp,ArrowRight"":10,""ArrowDown,ArrowLeft"":8,""ArrowDown,ArrowRight"":30}","true","ArrowDown,ArrowRight","false","revaluation","1","18","","",""
"html-keyboard-response","138","728718","0.0-4.0-2.0-1.9","spark_pilot_norest","13782","2","18","Male","","","","","","","null","<div style=""font-size:60px;"">+</div>","null","fixation","","","","","","","","","19","","",""
"revaluation","139","734723","0.0-4.0-2.0-0.10","spark_pilot_norest","13782","2","18","Male","","false","","","","","[648.1000000014901,367]","./assets/img/ocean/memory/29.jpg","[""ArrowDown"",""ArrowRight""]","value training","ocean","30","{""ArrowUp,ArrowLeft"":23,""ArrowUp,ArrowRight"":10,""ArrowDown,ArrowLeft"":8,""ArrowDown,ArrowRight"":30}","true","ArrowDown,ArrowRight","false","revaluation","1","20","","",""
"html-keyboard-response","140","735225","0.0-4.0-2.0-1.10","spark_pilot_norest","13782","2","18","Male","","","","","","","null","<div style=""font-size:60px;"">+</div>","null","fixation","","","","","","","","","21","","",""
"revaluation","141","741230","0.0-4.0-2.0-0.11","spark_pilot_norest","13782","2","18","Male","","false","","","","","[820.7000000029802,286.70000000298023]","./assets/img/ocean/memory/31.jpg","[""ArrowDown"",""ArrowRight""]","value training","ocean","30","{""ArrowUp,ArrowLeft"":23,""ArrowUp,ArrowRight"":10,""ArrowDown,ArrowLeft"":8,""ArrowDown,ArrowRight"":30}","true","ArrowDown,ArrowRight","false","revaluation","1","22","","",""
"html-keyboard-response","142","741732","0.0-4.0-2.0-1.11","spark_pilot_norest","13782","2","18","Male","","","","","","","null","<div style=""font-size:60px;"">+</div>","null","fixation","","","","","","","","","23","","",""
"revaluation","143","747737","0.0-4.0-2.0-0.12","spark_pilot_norest","13782","2","18","Male","","false","","","","","[717.5,281.19999999925494]","./assets/img/ocean/memory/37.jpg","[""ArrowDown"",""ArrowRight""]","value training","ocean","30","{""ArrowUp,ArrowLeft"":23,""ArrowUp,ArrowRight"":10,""ArrowDown,ArrowLeft"":8,""ArrowDown,ArrowRight"":30}","true","ArrowDown,ArrowRight","false","revaluation","1","24","","",""
"html-keyboard-response","144","748239","0.0-4.0-2.0-1.12","spark_pilot_norest","13782","2","18","Male","","","","","","","null","<div style=""font-size:60px;"">+</div>","null","fixation","","","","","","","","","25","","",""
"revaluation","145","754254","0.0-4.0-2.0-0.13","spark_pilot_norest","13782","2","18","Male","","false","","","","","[713.8000000007451,301.30000000074506]","./assets/img/ocean/memory/4.jpg","[""ArrowDown"",""ArrowRight""]","value training","ocean","30","{""ArrowUp,ArrowLeft"":23,""ArrowUp,ArrowRight"":10,""ArrowDown,ArrowLeft"":8,""ArrowDown,ArrowRight"":30}","true","ArrowDown,ArrowRight","false","revaluation","1","26","","",""
"html-keyboard-response","146","754756","0.0-4.0-2.0-1.13","spark_pilot_norest","13782","2","18","Male","","","","","","","null","<div style=""font-size:60px;"">+</div>","null","fixation","","","","","","","","","27","","",""
"revaluation","147","758761","0.0-4.0-2.0-0.14","spark_pilot_norest","13782","2","18","Male","","false","","","","","[945.8999999985099]","./assets/img/ocean/catch/5.jpg","[""spaceBar""]","value training","ocean","0","{""ArrowUp,ArrowLeft"":23,""ArrowUp,ArrowRight"":10,""ArrowDown,ArrowLeft"":8,""ArrowDown,ArrowRight"":30}","true","spaceBar","true","revaluation","1","28","","",""
"html-keyboard-response","148","759263","0.0-4.0-2.0-1.14","spark_pilot_norest","13782","2","18","Male","","","","","","","null","<div style=""font-size:60px;"">+</div>","null","fixation","","","","","","","","","29","","",""
"revaluation","149","765269","0.0-4.0-2.0-0.15","spark_pilot_norest","13782","2","18","Male","","false","","","","","[881.7999999970198,349.19999999925494]","./assets/img/ocean/memory/3.jpg","[""ArrowDown"",""ArrowRight""]","value training","ocean","30","{""ArrowUp,ArrowLeft"":23,""ArrowUp,ArrowRight"":10,""ArrowDown,ArrowLeft"":8,""ArrowDown,ArrowRight"":30}","true","ArrowDown,ArrowRight","false","revaluation","1","30","","",""
"html-keyboard-response","150","765770","0.0-4.0-2.0-1.15","spark_pilot_norest","13782","2","18","Male","","","","","","","null","<div style=""font-size:60px;"">+</div>","null","fixation","","","","","","","","","31","","",""
"revaluation","151","771776","0.0-4.0-2.0-0.16","spark_pilot_norest","13782","2","18","Male","","false","","","","","[680.6000000014901,254.40000000223517]","./assets/img/ocean/memory/1.jpg","[""ArrowDown"",""ArrowRight""]","value training","ocean","30","{""ArrowUp,ArrowLeft"":23,""ArrowUp,ArrowRight"":10,""ArrowDown,ArrowLeft"":8,""ArrowDown,ArrowRight"":30}","true","ArrowDown,ArrowRight","false","revaluation","1","32","","",""
"html-keyboard-response","152","772278","0.0-4.0-2.0-1.16","spark_pilot_norest","13782","2","18","Male","","","","","","","null","<div style=""font-size:60px;"">+</div>","null","fixation","","","","","","","","","33","","",""
"revaluation","153","778284","0.0-4.0-2.0-0.17","spark_pilot_norest","13782","2","18","Male","","false","","","","","[919.5999999977648,325.29999999701977]","./assets/img/ocean/memory/26.jpg","[""ArrowDown"",""ArrowRight""]","value training","ocean","30","{""ArrowUp,ArrowLeft"":23,""ArrowUp,ArrowRight"":10,""ArrowDown,ArrowLeft"":8,""ArrowDown,ArrowRight"":30}","true","ArrowDown,ArrowRight","false","revaluation","1","34","","",""
"html-keyboard-response","154","778786","0.0-4.0-2.0-1.17","spark_pilot_norest","13782","2","18","Male","","","","","","","null","<div style=""font-size:60px;"">+</div>","null","fixation","","","","","","","","","35","","",""
"revaluation","155","784792","0.0-4.0-2.0-0.18","spark_pilot_norest","13782","2","18","Male","","false","","","","","[684,302]","./assets/img/ocean/memory/34.jpg","[""ArrowDown"",""ArrowRight""]","value training","ocean","30","{""ArrowUp,ArrowLeft"":23,""ArrowUp,ArrowRight"":10,""ArrowDown,ArrowLeft"":8,""ArrowDown,ArrowRight"":30}","true","ArrowDown,ArrowRight","false","revaluation","1","36","","",""
"html-keyboard-response","156","785294","0.0-4.0-2.0-1.18","spark_pilot_norest","13782","2","18","Male","","","","","","","null","<div style=""font-size:60px;"">+</div>","null","fixation","","","","","","","","","37","","",""
"revaluation","157","791298","0.0-4.0-2.0-0.19","spark_pilot_norest","13782","2","18","Male","","false","","","","","[1315.2999999970198,315.6000000014901]","./assets/img/ocean/memory/0.jpg","[""ArrowDown"",""ArrowRight""]","value training","ocean","30","{""ArrowUp,ArrowLeft"":23,""ArrowUp,ArrowRight"":10,""ArrowDown,ArrowLeft"":8,""ArrowDown,ArrowRight"":30}","true","ArrowDown,ArrowRight","false","revaluation","1","38","","",""
"html-keyboard-response","158","791799","0.0-4.0-2.0-1.19","spark_pilot_norest","13782","2","18","Male","","","","","","","null","<div style=""font-size:60px;"">+</div>","null","fixation","","","","","","","","","39","","",""
"revaluation","159","797804","0.0-4.0-2.0-0.20","spark_pilot_norest","13782","2","18","Male","","false","","","","","[1146.8999999985099,326.20000000298023]","./assets/img/ocean/memory/39.jpg","[""ArrowDown"",""ArrowRight""]","value training","ocean","30","{""ArrowUp,ArrowLeft"":23,""ArrowUp,ArrowRight"":10,""ArrowDown,ArrowLeft"":8,""ArrowDown,ArrowRight"":30}","true","ArrowDown,ArrowRight","false","revaluation","1","40","","",""
"html-keyboard-response","160","798306","0.0-4.0-2.0-1.20","spark_pilot_norest","13782","2","18","Male","","","","","","","null","<div style=""font-size:60px;"">+</div>","null","fixation","","","","","","","","","41","","",""
"revaluation","161","804311","0.0-4.0-2.0-0.21","spark_pilot_norest","13782","2","18","Male","","false","","","","","[994.1000000014901,361.30000000074506]","./assets/img/ocean/memory/35.jpg","[""ArrowDown"",""ArrowRight""]","value training","ocean","30","{""ArrowUp,ArrowLeft"":23,""ArrowUp,ArrowRight"":10,""ArrowDown,ArrowLeft"":8,""ArrowDown,ArrowRight"":30}","true","ArrowDown,ArrowRight","false","revaluation","1","42","","",""
"html-keyboard-response","162","804813","0.0-4.0-2.0-1.21","spark_pilot_norest","13782","2","18","Male","","","","","","","null","<div style=""font-size:60px;"">+</div>","null","fixation","","","","","","","","","43","","",""
"revaluation","163","810827","0.0-4.0-2.0-0.22","spark_pilot_norest","13782","2","18","Male","","false","","","","","[1100.199999999255,420.0999999977648]","./assets/img/ocean/memory/2.jpg","[""ArrowDown"",""ArrowRight""]","value training","ocean","30","{""ArrowUp,ArrowLeft"":23,""ArrowUp,ArrowRight"":10,""ArrowDown,ArrowLeft"":8,""ArrowDown,ArrowRight"":30}","true","ArrowDown,ArrowRight","false","revaluation","1","44","","",""
"html-keyboard-response","164","811328","0.0-4.0-2.0-1.22","spark_pilot_norest","13782","2","18","Male","","","","","","","null","<div style=""font-size:60px;"">+</div>","null","fixation","","","","","","","","","45","","",""
"revaluation","165","817333","0.0-4.0-2.0-0.23","spark_pilot_norest","13782","2","18","Male","","false","","","","","[1191.0999999977648,299.4000000022352]","./assets/img/ocean/memory/41.jpg","[""ArrowDown"",""ArrowRight""]","value training","ocean","30","{""ArrowUp,ArrowLeft"":23,""ArrowUp,ArrowRight"":10,""ArrowDown,ArrowLeft"":8,""ArrowDown,ArrowRight"":30}","true","ArrowDown,ArrowRight","false","revaluation","1","46","","",""
"html-keyboard-response","166","817835","0.0-4.0-2.0-1.23","spark_pilot_norest","13782","2","18","Male","","","","","","","null","<div style=""font-size:60px;"">+</div>","null","fixation","","","","","","","","","47","","",""
"revaluation","167","823840","0.0-4.0-2.0-0.24","spark_pilot_norest","13782","2","18","Male","","false","","","","","[922.8999999985099,291.4000000022352]","./assets/img/ocean/memory/1.jpg","[""ArrowDown"",""ArrowRight""]","value training","ocean","30","{""ArrowUp,ArrowLeft"":23,""ArrowUp,ArrowRight"":10,""ArrowDown,ArrowLeft"":8,""ArrowDown,ArrowRight"":30}","true","ArrowDown,ArrowRight","false","revaluation","1","48","","",""
"html-keyboard-response","168","824344","0.0-4.0-2.0-1.24","spark_pilot_norest","13782","2","18","Male","","","","","","","null","<div style=""font-size:60px;"">+</div>","null","fixation","","","","","","","","","49","","",""
"revaluation","169","830351","0.0-4.0-2.0-0.25","spark_pilot_norest","13782","2","18","Male","","false","","","","","[1620.4000000022352,546.6999999992549]","./assets/img/ocean/memory/15.jpg","[""ArrowDown"",""ArrowRight""]","value training","ocean","30","{""ArrowUp,ArrowLeft"":23,""ArrowUp,ArrowRight"":10,""ArrowDown,ArrowLeft"":8,""ArrowDown,ArrowRight"":30}","true","ArrowDown,ArrowRight","false","revaluation","1","50","","",""
"html-keyboard-response","170","830852","0.0-4.0-2.0-1.25","spark_pilot_norest","13782","2","18","Male","","","","","","","null","<div style=""font-size:60px;"">+</div>","null","fixation","","","","","","","","","51","","",""
"revaluation","171","834855","0.0-4.0-2.0-0.26","spark_pilot_norest","13782","2","18","Male","","false","","","","","[717.6000000014901]","./assets/img/ocean/catch/6.jpg","[""spaceBar""]","value training","ocean","0","{""ArrowUp,ArrowLeft"":23,""ArrowUp,ArrowRight"":10,""ArrowDown,ArrowLeft"":8,""ArrowDown,ArrowRight"":30}","true","spaceBar","true","revaluation","1","52","","",""
"html-keyboard-response","172","835357","0.0-4.0-2.0-1.26","spark_pilot_norest","13782","2","18","Male","","","","","","","null","<div style=""font-size:60px;"">+</div>","null","fixation","","","","","","","","","53","","",""
"revaluation","173","841361","0.0-4.0-2.0-0.27","spark_pilot_norest","13782","2","18","Male","","false","","","","","[1134.4000000022352,289.80000000074506]","./assets/img/ocean/memory/4.jpg","[""ArrowDown"",""ArrowRight""]","value training","ocean","30","{""ArrowUp,ArrowLeft"":23,""ArrowUp,ArrowRight"":10,""ArrowDown,ArrowLeft"":8,""ArrowDown,ArrowRight"":30}","true","ArrowDown,ArrowRight","false","revaluation","1","54","","",""
"html-keyboard-response","174","841863","0.0-4.0-2.0-1.27","spark_pilot_norest","13782","2","18","Male","","","","","","","null","<div style=""font-size:60px;"">+</div>","null","fixation","","","","","","","","","55","","",""
"revaluation","175","847868","0.0-4.0-2.0-0.28","spark_pilot_norest","13782","2","18","Male","","false","","","","","[711,296.4000000022352]","./assets/img/ocean/memory/31.jpg","[""ArrowDown"",""ArrowRight""]","value training","ocean","30","{""ArrowUp,ArrowLeft"":23,""ArrowUp,ArrowRight"":10,""ArrowDown,ArrowLeft"":8,""ArrowDown,ArrowRight"":30}","true","ArrowDown,ArrowRight","false","revaluation","1","56","","",""
"html-keyboard-response","176","848370","0.0-4.0-2.0-1.28","spark_pilot_norest","13782","2","18","Male","","","","","","","null","<div style=""font-size:60px;"">+</div>","null","fixation","","","","","","","","","57","","",""
"revaluation","177","854374","0.0-4.0-2.0-0.29","spark_pilot_norest","13782","2","18","Male","","false","","","","","[886.5,273]","./assets/img/ocean/memory/15.jpg","[""ArrowDown"",""ArrowRight""]","value training","ocean","30","{""ArrowUp,ArrowLeft"":23,""ArrowUp,ArrowRight"":10,""ArrowDown,ArrowLeft"":8,""ArrowDown,ArrowRight"":30}","true","ArrowDown,ArrowRight","false","revaluation","1","58","","",""
"html-keyboard-response","178","854876","0.0-4.0-2.0-1.29","spark_pilot_norest","13782","2","18","Male","","","","","","","null","<div style=""font-size:60px;"">+</div>","null","fixation","","","","","","","","","59","","",""
"revaluation","179","860882","0.0-4.0-2.0-0.30","spark_pilot_norest","13782","2","18","Male","","false","","","","","[766.5,340.19999999925494]","./assets/img/ocean/memory/41.jpg","[""ArrowDown"",""ArrowRight""]","value training","ocean","30","{""ArrowUp,ArrowLeft"":23,""ArrowUp,ArrowRight"":10,""ArrowDown,ArrowLeft"":8,""ArrowDown,ArrowRight"":30}","true","ArrowDown,ArrowRight","false","revaluation","1","60","","",""
"html-keyboard-response","180","861384","0.0-4.0-2.0-1.30","spark_pilot_norest","13782","2","18","Male","","","","","","","null","<div style=""font-size:60px;"">+</div>","null","fixation","","","","","","","","","61","","",""
"revaluation","181","867389","0.0-4.0-2.0-0.31","spark_pilot_norest","13782","2","18","Male","","false","","","","","[825,306]","./assets/img/ocean/memory/33.jpg","[""ArrowDown"",""ArrowRight""]","value training","ocean","30","{""ArrowUp,ArrowLeft"":23,""ArrowUp,ArrowRight"":10,""ArrowDown,ArrowLeft"":8,""ArrowDown,ArrowRight"":30}","true","ArrowDown,ArrowRight","false","revaluation","1","62","","",""
"html-keyboard-response","182","867891","0.0-4.0-2.0-1.31","spark_pilot_norest","13782","2","18","Male","","","","","","","null","<div style=""font-size:60px;"">+</div>","null","fixation","","","","","","","","","63","","",""
"revaluation","183","873897","0.0-4.0-2.0-0.32","spark_pilot_norest","13782","2","18","Male","","false","","","","","[770.4000000022352,442.69999999925494]","./assets/img/ocean/memory/29.jpg","[""ArrowDown"",""ArrowRight""]","value training","ocean","30","{""ArrowUp,ArrowLeft"":23,""ArrowUp,ArrowRight"":10,""ArrowDown,ArrowLeft"":8,""ArrowDown,ArrowRight"":30}","true","ArrowDown,ArrowRight","false","revaluation","1","64","","",""
"html-keyboard-response","184","874399","0.0-4.0-2.0-1.32","spark_pilot_norest","13782","2","18","Male","","","","","","","null","<div style=""font-size:60px;"">+</div>","null","fixation","","","","","","","","","65","","",""
"revaluation","185","880402","0.0-4.0-2.0-0.33","spark_pilot_norest","13782","2","18","Male","","false","","","","","[724.3000000007451,223.59999999776483]","./assets/img/ocean/memory/26.jpg","[""ArrowDown"",""ArrowRight""]","value training","ocean","30","{""ArrowUp,ArrowLeft"":23,""ArrowUp,ArrowRight"":10,""ArrowDown,ArrowLeft"":8,""ArrowDown,ArrowRight"":30}","true","ArrowDown,ArrowRight","false","revaluation","1","66","","",""
"html-keyboard-response","186","880904","0.0-4.0-2.0-1.33","spark_pilot_norest","13782","2","18","Male","","","","","","","null","<div style=""font-size:60px;"">+</div>","null","fixation","","","","","","","","","67","","",""
"revaluation","187","886910","0.0-4.0-2.0-0.34","spark_pilot_norest","13782","2","18","Male","","false","","","","","[632.3999999985099,542.7000000029802]","./assets/img/ocean/memory/25.jpg","[""ArrowDown"",""ArrowRight""]","value training","ocean","30","{""ArrowUp,ArrowLeft"":23,""ArrowUp,ArrowRight"":10,""ArrowDown,ArrowLeft"":8,""ArrowDown,ArrowRight"":30}","true","ArrowDown,ArrowRight","false","revaluation","1","68","","",""
"html-keyboard-response","188","887411","0.0-4.0-2.0-1.34","spark_pilot_norest","13782","2","18","Male","","","","","","","null","<div style=""font-size:60px;"">+</div>","null","fixation","","","","","","","","","69","","",""
"revaluation","189","893416","0.0-4.0-2.0-0.35","spark_pilot_norest","13782","2","18","Male","","false","","","","","[1381.300000000745,304.9000000022352]","./assets/img/ocean/memory/12.jpg","[""ArrowDown"",""ArrowRight""]","value training","ocean","30","{""ArrowUp,ArrowLeft"":23,""ArrowUp,ArrowRight"":10,""ArrowDown,ArrowLeft"":8,""ArrowDown,ArrowRight"":30}","true","ArrowDown,ArrowRight","false","revaluation","1","70","","",""
"html-keyboard-response","190","893917","0.0-4.0-2.0-1.35","spark_pilot_norest","13782","2","18","Male","","","","","","","null","<div style=""font-size:60px;"">+</div>","null","fixation","","","","","","","","","71","","",""
"revaluation","191","899931","0.0-4.0-2.0-0.36","spark_pilot_norest","13782","2","18","Male","","false","","","","","[890.3000000007451,455.8999999985099]","./assets/img/ocean/memory/33.jpg","[""ArrowDown"",""ArrowRight""]","value training","ocean","30","{""ArrowUp,ArrowLeft"":23,""ArrowUp,ArrowRight"":10,""ArrowDown,ArrowLeft"":8,""ArrowDown,ArrowRight"":30}","true","ArrowDown,ArrowRight","false","revaluation","1","72","","",""
"html-keyboard-response","192","900433","0.0-4.0-2.0-1.36","spark_pilot_norest","13782","2","18","Male","","","","","","","null","<div style=""font-size:60px;"">+</div>","null","fixation","","","","","","","","","73","","",""
"revaluation","193","904437","0.0-4.0-2.0-0.37","spark_pilot_norest","13782","2","18","Male","","false","","","","","[720.1999999992549]","./assets/img/ocean/catch/1.jpg","[""spaceBar""]","value training","ocean","0","{""ArrowUp,ArrowLeft"":23,""ArrowUp,ArrowRight"":10,""ArrowDown,ArrowLeft"":8,""ArrowDown,ArrowRight"":30}","true","spaceBar","true","revaluation","1","74","","",""
"html-keyboard-response","194","904938","0.0-4.0-2.0-1.37","spark_pilot_norest","13782","2","18","Male","","","","","","","null","<div style=""font-size:60px;"">+</div>","null","fixation","","","","","","","","","75","","",""
"revaluation","195","910945","0.0-4.0-2.0-0.38","spark_pilot_norest","13782","2","18","Male","","false","","","","","[663.5,449.29999999701977]","./assets/img/ocean/memory/35.jpg","[""ArrowDown"",""ArrowRight""]","value training","ocean","30","{""ArrowUp,ArrowLeft"":23,""ArrowUp,ArrowRight"":10,""ArrowDown,ArrowLeft"":8,""ArrowDown,ArrowRight"":30}","true","ArrowDown,ArrowRight","false","revaluation","1","76","","",""
"html-keyboard-response","196","911447","0.0-4.0-2.0-1.38","spark_pilot_norest","13782","2","18","Male","","","","","","","null","<div style=""font-size:60px;"">+</div>","null","fixation","","","","","","","","","77","","",""
"revaluation","197","917453","0.0-4.0-2.0-0.39","spark_pilot_norest","13782","2","18","Male","","false","","","","","[554.1999999992549,246.80000000074506]","./assets/img/ocean/memory/12.jpg","[""ArrowDown"",""ArrowRight""]","value training","ocean","30","{""ArrowUp,ArrowLeft"":23,""ArrowUp,ArrowRight"":10,""ArrowDown,ArrowLeft"":8,""ArrowDown,ArrowRight"":30}","true","ArrowDown,ArrowRight","false","revaluation","1","78","","",""
"html-keyboard-response","198","917955","0.0-4.0-2.0-1.39","spark_pilot_norest","13782","2","18","Male","","","","","","","null","<div style=""font-size:60px;"">+</div>","null","fixation","","","","","","","","","79","","",""
"revaluation","199","921973","0.0-4.0-2.0-0.40","spark_pilot_norest","13782","2","18","Male","","false","","","","","[734.8999999985099]","./assets/img/ocean/catch/3.jpg","[""spaceBar""]","value training","ocean","0","{""ArrowUp,ArrowLeft"":23,""ArrowUp,ArrowRight"":10,""ArrowDown,ArrowLeft"":8,""ArrowDown,ArrowRight"":30}","true","spaceBar","true","revaluation","1","80","","",""
"html-keyboard-response","200","922475","0.0-4.0-2.0-1.40","spark_pilot_norest","13782","2","18","Male","","","","","","","null","<div style=""font-size:60px;"">+</div>","null","fixation","","","","","","","","","81","","",""
"revaluation","201","928491","0.0-4.0-2.0-0.41","spark_pilot_norest","13782","2","18","Male","","false","","","","","[627.8999999985099,326.5]","./assets/img/ocean/memory/22.jpg","[""ArrowDown"",""ArrowRight""]","value training","ocean","30","{""ArrowUp,ArrowLeft"":23,""ArrowUp,ArrowRight"":10,""ArrowDown,ArrowLeft"":8,""ArrowDown,ArrowRight"":30}","true","ArrowDown,ArrowRight","false","revaluation","1","82","","",""
"html-keyboard-response","202","928992","0.0-4.0-2.0-1.41","spark_pilot_norest","13782","2","18","Male","","","","","","","null","<div style=""font-size:60px;"">+</div>","null","fixation","","","","","","","","","83","","",""
"revaluation","203","934997","0.0-4.0-2.0-0.42","spark_pilot_norest","13782","2","18","Male","","false","","","","","[1128.199999999255,299.6000000014901]","./assets/img/ocean/memory/14.jpg","[""ArrowDown"",""ArrowRight""]","value training","ocean","30","{""ArrowUp,ArrowLeft"":23,""ArrowUp,ArrowRight"":10,""ArrowDown,ArrowLeft"":8,""ArrowDown,ArrowRight"":30}","true","ArrowDown,ArrowRight","false","revaluation","1","84","","",""
"html-keyboard-response","204","935499","0.0-4.0-2.0-1.42","spark_pilot_norest","13782","2","18","Male","","","","","","","null","<div style=""font-size:60px;"">+</div>","null","fixation","","","","","","","","","85","","",""
"revaluation","205","941515","0.0-4.0-2.0-0.43","spark_pilot_norest","13782","2","18","Male","","false","","","","","[780,436.0999999977648]","./assets/img/ocean/memory/2.jpg","[""ArrowDown"",""ArrowRight""]","value training","ocean","30","{""ArrowUp,ArrowLeft"":23,""ArrowUp,ArrowRight"":10,""ArrowDown,ArrowLeft"":8,""ArrowDown,ArrowRight"":30}","true","ArrowDown,ArrowRight","false","revaluation","1","86","","",""
"html-keyboard-response","206","942016","0.0-4.0-2.0-1.43","spark_pilot_norest","13782","2","18","Male","","","","","","","null","<div style=""font-size:60px;"">+</div>","null","fixation","","","","","","","","","87","","",""
"revaluation","207","948022","0.0-4.0-2.0-0.44","spark_pilot_norest","13782","2","18","Male","","false","","","","","[802.6000000014901,326.8999999985099]","./assets/img/ocean/memory/25.jpg","[""ArrowDown"",""ArrowRight""]","value training","ocean","30","{""ArrowUp,ArrowLeft"":23,""ArrowUp,ArrowRight"":10,""ArrowDown,ArrowLeft"":8,""ArrowDown,ArrowRight"":30}","true","ArrowDown,ArrowRight","false","revaluation","1","88","","",""
"html-keyboard-response","208","948524","0.0-4.0-2.0-1.44","spark_pilot_norest","13782","2","18","Male","","","","","","","null","<div style=""font-size:60px;"">+</div>","null","fixation","","","","","","","","","89","","",""
"revaluation","209","954530","0.0-4.0-2.0-0.45","spark_pilot_norest","13782","2","18","Male","","false","","","","","[909.5,708.3000000007451]","./assets/img/ocean/memory/18.jpg","[""ArrowDown"",""ArrowRight""]","value training","ocean","30","{""ArrowUp,ArrowLeft"":23,""ArrowUp,ArrowRight"":10,""ArrowDown,ArrowLeft"":8,""ArrowDown,ArrowRight"":30}","true","ArrowDown,ArrowRight","false","revaluation","1","90","","",""
"html-keyboard-response","210","955036","0.0-4.0-2.0-1.45","spark_pilot_norest","13782","2","18","Male","","","","","","","null","<div style=""font-size:60px;"">+</div>","null","fixation","","","","","","","","","91","","",""
"revaluation","211","959039","0.0-4.0-2.0-0.46","spark_pilot_norest","13782","2","18","Male","","false","","","","","[588.0999999977648]","./assets/img/ocean/catch/0.jpg","[""spaceBar""]","value training","ocean","0","{""ArrowUp,ArrowLeft"":23,""ArrowUp,ArrowRight"":10,""ArrowDown,ArrowLeft"":8,""ArrowDown,ArrowRight"":30}","true","spaceBar","true","revaluation","1","92","","",""
"html-keyboard-response","212","959545","0.0-4.0-2.0-1.46","spark_pilot_norest","13782","2","18","Male","","","","","","","null","<div style=""font-size:60px;"">+</div>","null","fixation","","","","","","","","","93","","",""
"revaluation","213","963548","0.0-4.0-2.0-0.47","spark_pilot_norest","13782","2","18","Male","","false","","","","","[612.4000000022352]","./assets/img/ocean/catch/7.jpg","[""spaceBar""]","value training","ocean","0","{""ArrowUp,ArrowLeft"":23,""ArrowUp,ArrowRight"":10,""ArrowDown,ArrowLeft"":8,""ArrowDown,ArrowRight"":30}","true","spaceBar","true","revaluation","1","94","","",""
"html-keyboard-response","214","964049","0.0-4.0-2.0-1.47","spark_pilot_norest","13782","2","18","Male","","","","","","","null","<div style=""font-size:60px;"">+</div>","null","fixation","","","","","","","","","95","","",""
"revaluation","215","968053","0.0-4.0-2.0-0.48","spark_pilot_norest","13782","2","18","Male","","false","","","","","[548.8000000007451]","./assets/img/ocean/catch/2.jpg","[""spaceBar""]","value training","ocean","0","{""ArrowUp,ArrowLeft"":23,""ArrowUp,ArrowRight"":10,""ArrowDown,ArrowLeft"":8,""ArrowDown,ArrowRight"":30}","true","spaceBar","true","revaluation","1","96","","",""
"html-keyboard-response","216","968555","0.0-4.0-2.0-1.48","spark_pilot_norest","13782","2","18","Male","","","","","","","null","<div style=""font-size:60px;"">+</div>","null","fixation","","","","","","","","","97","","",""
"revaluation","217","974561","0.0-4.0-2.0-0.49","spark_pilot_norest","13782","2","18","Male","","false","","","","","[882.1999999992549,300.5]","./assets/img/ocean/memory/39.jpg","[""ArrowDown"",""ArrowRight""]","value training","ocean","30","{""ArrowUp,ArrowLeft"":23,""ArrowUp,ArrowRight"":10,""ArrowDown,ArrowLeft"":8,""ArrowDown,ArrowRight"":30}","true","ArrowDown,ArrowRight","false","revaluation","1","98","","",""
"html-keyboard-response","218","975062","0.0-4.0-2.0-1.49","spark_pilot_norest","13782","2","18","Male","","","","","","","null","<div style=""font-size:60px;"">+</div>","null","fixation","","","","","","","","","99","","",""
"learning-instructions","219","989895","0.0-4.0-3.0-0.0","spark_pilot_norest","13782","2","18","Male","","","","","","","1662.800000000745","<p> Now, you will travel with a friend who will choose whether you go up or down first. </p>
            <p> On these turns, you will just see the animal that they found. You will still get to choose which chest to search for treasure.</p>","","instructions","","","","","","","","","","","",""
"revaluation","220","993906","0.0-4.0-4.0-0.0","spark_pilot_norest","13782","2","18","Male","","false","","","","","[659.2000000029802]","./assets/img/ocean/animals/octopus.jpg","[""ArrowLeft""]","revaluation","ocean","27","{""ArrowUp,ArrowLeft"":27,""ArrowUp,ArrowRight"":15,""ArrowDown,ArrowLeft"":21,""ArrowDown,ArrowRight"":7}","true","ArrowUp,ArrowLeft","","revaluation","1","0","","",""
"html-keyboard-response","221","994422","0.0-4.0-4.0-1.0","spark_pilot_norest","13782","2","18","Male","","","","","","","null","<div style=""font-size:60px;"">+</div>","null","fixation","","","","","","","","","1","","",""
"revaluation","222","998446","0.0-4.0-4.0-0.1","spark_pilot_norest","13782","2","18","Male","","false","","","","","[584.6999999992549]","./assets/img/ocean/animals/octopus.jpg","[""ArrowLeft""]","revaluation","ocean","27","{""ArrowUp,ArrowLeft"":27,""ArrowUp,ArrowRight"":15,""ArrowDown,ArrowLeft"":21,""ArrowDown,ArrowRight"":7}","true","ArrowUp,ArrowLeft","","revaluation","1","2","","",""
"html-keyboard-response","223","998959","0.0-4.0-4.0-1.1","spark_pilot_norest","13782","2","18","Male","","","","","","","null","<div style=""font-size:60px;"">+</div>","null","fixation","","","","","","","","","3","","",""
"revaluation","224","1002970","0.0-4.0-4.0-0.2","spark_pilot_norest","13782","2","18","Male","","false","","","","","[1013.6999999992549]","./assets/img/ocean/animals/octopus.jpg","[""ArrowLeft""]","revaluation","ocean","27","{""ArrowUp,ArrowLeft"":27,""ArrowUp,ArrowRight"":15,""ArrowDown,ArrowLeft"":21,""ArrowDown,ArrowRight"":7}","true","ArrowUp,ArrowLeft","","revaluation","1","4","","",""
"html-keyboard-response","225","1003474","0.0-4.0-4.0-1.2","spark_pilot_norest","13782","2","18","Male","","","","","","","null","<div style=""font-size:60px;"">+</div>","null","fixation","","","","","","","","","5","","",""
"revaluation","226","1007494","0.0-4.0-4.0-0.3","spark_pilot_norest","13782","2","18","Male","","false","","","","","[510]","./assets/img/ocean/animals/octopus.jpg","[""ArrowLeft""]","revaluation","ocean","27","{""ArrowUp,ArrowLeft"":27,""ArrowUp,ArrowRight"":15,""ArrowDown,ArrowLeft"":21,""ArrowDown,ArrowRight"":7}","true","ArrowUp,ArrowLeft","","revaluation","1","6","","",""
"html-keyboard-response","227","1008007","0.0-4.0-4.0-1.3","spark_pilot_norest","13782","2","18","Male","","","","","","","null","<div style=""font-size:60px;"">+</div>","null","fixation","","","","","","","","","7","","",""
"revaluation","228","1012029","0.0-4.0-4.0-0.4","spark_pilot_norest","13782","2","18","Male","","false","","","","","[686.2000000029802]","./assets/img/ocean/animals/seahorse.jpg","[""ArrowRight""]","revaluation","ocean","7","{""ArrowUp,ArrowLeft"":27,""ArrowUp,ArrowRight"":15,""ArrowDown,ArrowLeft"":21,""ArrowDown,ArrowRight"":7}","false","ArrowDown,ArrowRight","","revaluation","1","8","","",""
"html-keyboard-response","229","1012545","0.0-4.0-4.0-1.4","spark_pilot_norest","13782","2","18","Male","","","","","","","null","<div style=""font-size:60px;"">+</div>","null","fixation","","","","","","","","","9","","",""
"revaluation","230","1016561","0.0-4.0-4.0-0.5","spark_pilot_norest","13782","2","18","Male","","false","","","","","[835]","./assets/img/ocean/animals/seahorse.jpg","[""ArrowLeft""]","revaluation","ocean","21","{""ArrowUp,ArrowLeft"":27,""ArrowUp,ArrowRight"":15,""ArrowDown,ArrowLeft"":21,""ArrowDown,ArrowRight"":7}","true","ArrowDown,ArrowLeft","","revaluation","1","10","","",""
"html-keyboard-response","231","1017074","0.0-4.0-4.0-1.5","spark_pilot_norest","13782","2","18","Male","","","","","","","null","<div style=""font-size:60px;"">+</div>","null","fixation","","","","","","","","","11","","",""
"revaluation","232","1021081","0.0-4.0-4.0-0.6","spark_pilot_norest","13782","2","18","Male","","false","","","","","[601.7999999970198]","./assets/img/ocean/animals/octopus.jpg","[""ArrowRight""]","revaluation","ocean","15","{""ArrowUp,ArrowLeft"":27,""ArrowUp,ArrowRight"":15,""ArrowDown,ArrowLeft"":21,""ArrowDown,ArrowRight"":7}","false","ArrowUp,ArrowRight","","revaluation","1","12","","",""
"html-keyboard-response","233","1021583","0.0-4.0-4.0-1.6","spark_pilot_norest","13782","2","18","Male","","","","","","","null","<div style=""font-size:60px;"">+</div>","null","fixation","","","","","","","","","13","","",""
"revaluation","234","1025586","0.0-4.0-4.0-0.7","spark_pilot_norest","13782","2","18","Male","","false","","","","","[421.9000000022352]","./assets/img/ocean/animals/octopus.jpg","[""ArrowLeft""]","revaluation","ocean","27","{""ArrowUp,ArrowLeft"":27,""ArrowUp,ArrowRight"":15,""ArrowDown,ArrowLeft"":21,""ArrowDown,ArrowRight"":7}","true","ArrowUp,ArrowLeft","","revaluation","1","14","","",""
"html-keyboard-response","235","1026088","0.0-4.0-4.0-1.7","spark_pilot_norest","13782","2","18","Male","","","","","","","null","<div style=""font-size:60px;"">+</div>","null","fixation","","","","","","","","","15","","",""
"revaluation","236","1030091","0.0-4.0-4.0-0.8","spark_pilot_norest","13782","2","18","Male","","false","","","","","[478]","./assets/img/ocean/animals/seahorse.jpg","[""ArrowLeft""]","revaluation","ocean","21","{""ArrowUp,ArrowLeft"":27,""ArrowUp,ArrowRight"":15,""ArrowDown,ArrowLeft"":21,""ArrowDown,ArrowRight"":7}","true","ArrowDown,ArrowLeft","","revaluation","1","16","","",""
"html-keyboard-response","237","1030593","0.0-4.0-4.0-1.8","spark_pilot_norest","13782","2","18","Male","","","","","","","null","<div style=""font-size:60px;"">+</div>","null","fixation","","","","","","","","","17","","",""
"revaluation","238","1034600","0.0-4.0-4.0-0.9","spark_pilot_norest","13782","2","18","Male","","false","","","","","[468.0999999977648]","./assets/img/ocean/animals/seahorse.jpg","[""ArrowLeft""]","revaluation","ocean","21","{""ArrowUp,ArrowLeft"":27,""ArrowUp,ArrowRight"":15,""ArrowDown,ArrowLeft"":21,""ArrowDown,ArrowRight"":7}","true","ArrowDown,ArrowLeft","","revaluation","1","18","","",""
"html-keyboard-response","239","1035102","0.0-4.0-4.0-1.9","spark_pilot_norest","13782","2","18","Male","","","","","","","null","<div style=""font-size:60px;"">+</div>","null","fixation","","","","","","","","","19","","",""
"revaluation","240","1039106","0.0-4.0-4.0-0.10","spark_pilot_norest","13782","2","18","Male","","false","","","","","[249.80000000074506]","./assets/img/ocean/animals/seahorse.jpg","[""ArrowLeft""]","revaluation","ocean","21","{""ArrowUp,ArrowLeft"":27,""ArrowUp,ArrowRight"":15,""ArrowDown,ArrowLeft"":21,""ArrowDown,ArrowRight"":7}","true","ArrowDown,ArrowLeft","","revaluation","1","20","","",""
"html-keyboard-response","241","1039607","0.0-4.0-4.0-1.10","spark_pilot_norest","13782","2","18","Male","","","","","","","null","<div style=""font-size:60px;"">+</div>","null","fixation","","","","","","","","","21","","",""
"revaluation","242","1043610","0.0-4.0-4.0-0.11","spark_pilot_norest","13782","2","18","Male","","false","","","","","[197.09999999776483]","./assets/img/ocean/animals/seahorse.jpg","[""ArrowLeft""]","revaluation","ocean","21","{""ArrowUp,ArrowLeft"":27,""ArrowUp,ArrowRight"":15,""ArrowDown,ArrowLeft"":21,""ArrowDown,ArrowRight"":7}","true","ArrowDown,ArrowLeft","","revaluation","1","22","","",""
"html-keyboard-response","243","1044112","0.0-4.0-4.0-1.11","spark_pilot_norest","13782","2","18","Male","","","","","","","null","<div style=""font-size:60px;"">+</div>","null","fixation","","","","","","","","","23","","",""
"revaluation","244","1048117","0.0-4.0-4.0-0.12","spark_pilot_norest","13782","2","18","Male","","false","","","","","[177]","./assets/img/ocean/animals/seahorse.jpg","[""ArrowLeft""]","revaluation","ocean","21","{""ArrowUp,ArrowLeft"":27,""ArrowUp,ArrowRight"":15,""ArrowDown,ArrowLeft"":21,""ArrowDown,ArrowRight"":7}","true","ArrowDown,ArrowLeft","","revaluation","1","24","","",""
"html-keyboard-response","245","1048618","0.0-4.0-4.0-1.12","spark_pilot_norest","13782","2","18","Male","","","","","","","null","<div style=""font-size:60px;"">+</div>","null","fixation","","","","","","","","","25","","",""
"revaluation","246","1052622","0.0-4.0-4.0-0.13","spark_pilot_norest","13782","2","18","Male","","false","","","","","[112]","./assets/img/ocean/animals/octopus.jpg","[""ArrowLeft""]","revaluation","ocean","27","{""ArrowUp,ArrowLeft"":27,""ArrowUp,ArrowRight"":15,""ArrowDown,ArrowLeft"":21,""ArrowDown,ArrowRight"":7}","true","ArrowUp,ArrowLeft","","revaluation","1","26","","",""
"html-keyboard-response","247","1053123","0.0-4.0-4.0-1.13","spark_pilot_norest","13782","2","18","Male","","","","","","","null","<div style=""font-size:60px;"">+</div>","null","fixation","","","","","","","","","27","","",""
"revaluation","248","1057126","0.0-4.0-4.0-0.14","spark_pilot_norest","13782","2","18","Male","","false","","","","","[65]","./assets/img/ocean/animals/octopus.jpg","[""ArrowLeft""]","revaluation","ocean","27","{""ArrowUp,ArrowLeft"":27,""ArrowUp,ArrowRight"":15,""ArrowDown,ArrowLeft"":21,""ArrowDown,ArrowRight"":7}","true","ArrowUp,ArrowLeft","","revaluation","1","28","","",""
"html-keyboard-response","249","1057628","0.0-4.0-4.0-1.14","spark_pilot_norest","13782","2","18","Male","","","","","","","null","<div style=""font-size:60px;"">+</div>","null","fixation","","","","","","","","","29","","",""
"revaluation","250","1061632","0.0-4.0-4.0-0.15","spark_pilot_norest","13782","2","18","Male","","false","","","","","[369.29999999701977]","./assets/img/ocean/animals/octopus.jpg","[""ArrowLeft""]","revaluation","ocean","27","{""ArrowUp,ArrowLeft"":27,""ArrowUp,ArrowRight"":15,""ArrowDown,ArrowLeft"":21,""ArrowDown,ArrowRight"":7}","true","ArrowUp,ArrowLeft","","revaluation","1","30","","",""
"html-keyboard-response","251","1062133","0.0-4.0-4.0-1.15","spark_pilot_norest","13782","2","18","Male","","","","","","","null","<div style=""font-size:60px;"">+</div>","null","fixation","","","","","","","","","31","","",""
"revaluation","252","1066138","0.0-4.0-4.0-0.16","spark_pilot_norest","13782","2","18","Male","","false","","","","","[315.30000000074506]","./assets/img/ocean/animals/seahorse.jpg","[""ArrowLeft""]","revaluation","ocean","21","{""ArrowUp,ArrowLeft"":27,""ArrowUp,ArrowRight"":15,""ArrowDown,ArrowLeft"":21,""ArrowDown,ArrowRight"":7}","true","ArrowDown,ArrowLeft","","revaluation","1","32","","",""
"html-keyboard-response","253","1066639","0.0-4.0-4.0-1.16","spark_pilot_norest","13782","2","18","Male","","","","","","","null","<div style=""font-size:60px;"">+</div>","null","fixation","","","","","","","","","33","","",""
"revaluation","254","1070642","0.0-4.0-4.0-0.17","spark_pilot_norest","13782","2","18","Male","","false","","","","","[411.30000000074506]","./assets/img/ocean/animals/seahorse.jpg","[""ArrowLeft""]","revaluation","ocean","21","{""ArrowUp,ArrowLeft"":27,""ArrowUp,ArrowRight"":15,""ArrowDown,ArrowLeft"":21,""ArrowDown,ArrowRight"":7}","true","ArrowDown,ArrowLeft","","revaluation","1","34","","",""
"html-keyboard-response","255","1071144","0.0-4.0-4.0-1.17","spark_pilot_norest","13782","2","18","Male","","","","","","","null","<div style=""font-size:60px;"">+</div>","null","fixation","","","","","","","","","35","","",""
"learning-instructions","256","1079539","0.0-4.0-5.0-0.0","spark_pilot_norest","13782","2","18","Male","","","","","","","null","<p> You have almost finished this part of the game! </p>
            <p> We are going to ask you to make a few more choices. </p>","","instructions","","","","","","","","","","","",""
"learning-instructions","257","1095521","0.0-4.0-5.0-0.1","spark_pilot_norest","13782","2","18","Male","","","","","","","null","<p> First, you need to decide whether to go up or down. When you see each picture, use the arrow keys to make your choice. </p>
            <p><b>You will not see which animal you found, but try to get to the one that will give you the most treasure.</b></p>","","instructions","","","","","","","","","","","",""
"html-keyboard-response","258","1096524","0.0-4.0-6.0-0.0","spark_pilot_norest","13782","2","18","Male","","","","","","","null","<div style=""font-size:100px;color:red;"">Starting in...</div>","null","","","","","","","","","","","","",""
"html-keyboard-response","259","1097529","0.0-4.0-6.0-1.0","spark_pilot_norest","13782","2","18","Male","","","","","","","null","<div style=""font-size:200px;color:red;"">3</div>","null","","","","","","","","","","","","",""
"html-keyboard-response","260","1098535","0.0-4.0-6.0-2.0","spark_pilot_norest","13782","2","18","Male","","","","","","","null","<div style=""font-size:200px;color:red;"">2</div>","null","","","","","","","","","","","","",""
"html-keyboard-response","261","1099537","0.0-4.0-6.0-3.0","spark_pilot_norest","13782","2","18","Male","","","","","","","null","<div style=""font-size:200px;color:red;"">1</div>","null","","","","","","","","","","","","",""
"revaluation","262","1100187","0.0-4.0-7.0-0.0","spark_pilot_norest","13782","2","18","Male","","false","","","","","[648.1000000014901]","./assets/img/ocean/test/0.jpg","[""ArrowUp""]","first stage test","ocean","0","{""ArrowUp,ArrowLeft"":27,""ArrowUp,ArrowRight"":15,""ArrowDown,ArrowLeft"":21,""ArrowDown,ArrowRight"":7}","true","ArrowUp","false","revaluation","1","","","",""
"html-keyboard-response","263","1100690","0.0-4.0-7.0-1.0","spark_pilot_norest","13782","2","18","Male","","","","","","","null","<div style=""font-size:60px;"">+</div>","null","fixation","","","","","","","","","","","",""
"revaluation","264","1101957","0.0-4.0-7.0-0.1","spark_pilot_norest","13782","2","18","Male","","false","","","","","[1265.300000000745]","./assets/img/ocean/test/3.jpg","[""ArrowUp""]","first stage test","ocean","0","{""ArrowUp,ArrowLeft"":27,""ArrowUp,ArrowRight"":15,""ArrowDown,ArrowLeft"":21,""ArrowDown,ArrowRight"":7}","true","ArrowUp","false","revaluation","1","","","",""
"html-keyboard-response","265","1102472","0.0-4.0-7.0-1.1","spark_pilot_norest","13782","2","18","Male","","","","","","","null","<div style=""font-size:60px;"">+</div>","null","fixation","","","","","","","","","","","",""
"revaluation","266","1103890","0.0-4.0-7.0-0.2","spark_pilot_norest","13782","2","18","Male","","false","","","","","[1416]","./assets/img/ocean/test/1.jpg","[""ArrowUp""]","first stage test","ocean","0","{""ArrowUp,ArrowLeft"":27,""ArrowUp,ArrowRight"":15,""ArrowDown,ArrowLeft"":21,""ArrowDown,ArrowRight"":7}","true","ArrowUp","false","revaluation","1","","","",""
"html-keyboard-response","267","1104406","0.0-4.0-7.0-1.2","spark_pilot_norest","13782","2","18","Male","","","","","","","null","<div style=""font-size:60px;"">+</div>","null","fixation","","","","","","","","","","","",""
"revaluation","268","1106239","0.0-4.0-7.0-0.3","spark_pilot_norest","13782","2","18","Male","","false","","","","","[1830.699999999255]","./assets/img/ocean/test/2.jpg","[""ArrowUp""]","first stage test","ocean","0","{""ArrowUp,ArrowLeft"":27,""ArrowUp,ArrowRight"":15,""ArrowDown,ArrowLeft"":21,""ArrowDown,ArrowRight"":7}","true","ArrowUp","false","revaluation","1","","","",""
"html-keyboard-response","269","1106756","0.0-4.0-7.0-1.3","spark_pilot_norest","13782","2","18","Male","","","","","","","null","<div style=""font-size:60px;"">+</div>","null","fixation","","","","","","","","","","","",""
"learning-instructions","270","1120107","0.0-4.0-8.0-0.0","spark_pilot_norest","13782","2","18","Male","","","","","","","null","<p> Now you will see the animals again and can search their chests for treasure. </p>
            <p> This time, you will not see how much treasure you earned, but you will earn more bonus money for making better choices. </p>","","instructions","","","","","","","","","","","",""
"html-keyboard-response","271","1121124","0.0-4.0-9.0-0.0","spark_pilot_norest","13782","2","18","Male","","","","","","","null","<div style=""font-size:100px;color:red;"">Starting in...</div>","null","","","","","","","","","","","","",""
"html-keyboard-response","272","1122134","0.0-4.0-9.0-1.0","spark_pilot_norest","13782","2","18","Male","","","","","","","null","<div style=""font-size:200px;color:red;"">3</div>","null","","","","","","","","","","","","",""
"html-keyboard-response","273","1123149","0.0-4.0-9.0-2.0","spark_pilot_norest","13782","2","18","Male","","","","","","","null","<div style=""font-size:200px;color:red;"">2</div>","null","","","","","","","","","","","","",""
"html-keyboard-response","274","1124151","0.0-4.0-9.0-3.0","spark_pilot_norest","13782","2","18","Male","","","","","","","null","<div style=""font-size:200px;color:red;"">1</div>","null","","","","","","","","","","","","",""
"revaluation","275","1124851","0.0-4.0-10.0-0.0","spark_pilot_norest","13782","2","18","Male","","false","","","","","[697.3999999985099]","./assets/img/ocean/animals/octopus.jpg","[""ArrowLeft""]","second stage test","ocean","0","{""ArrowUp,ArrowLeft"":27,""ArrowUp,ArrowRight"":15,""ArrowDown,ArrowLeft"":21,""ArrowDown,ArrowRight"":7}","true","ArrowUp,ArrowLeft","","revaluation","1","","","",""
"html-keyboard-response","276","1125357","0.0-4.0-10.0-1.0","spark_pilot_norest","13782","2","18","Male","","","","","","","null","<div style=""font-size:60px;"">+</div>","null","fixation","","","","","","","","","","","",""
"revaluation","277","1125838","0.0-4.0-10.0-0.1","spark_pilot_norest","13782","2","18","Male","","false","","","","","[479.5]","./assets/img/ocean/animals/octopus.jpg","[""ArrowLeft""]","second stage test","ocean","0","{""ArrowUp,ArrowLeft"":27,""ArrowUp,ArrowRight"":15,""ArrowDown,ArrowLeft"":21,""ArrowDown,ArrowRight"":7}","true","ArrowUp,ArrowLeft","","revaluation","1","","","",""
"html-keyboard-response","278","1126355","0.0-4.0-10.0-1.1","spark_pilot_norest","13782","2","18","Male","","","","","","","null","<div style=""font-size:60px;"">+</div>","null","fixation","","","","","","","","","","","",""
"revaluation","279","1126767","0.0-4.0-10.0-0.2","spark_pilot_norest","13782","2","18","Male","","false","","","","","[410.3999999985099]","./assets/img/ocean/animals/octopus.jpg","[""ArrowLeft""]","second stage test","ocean","0","{""ArrowUp,ArrowLeft"":27,""ArrowUp,ArrowRight"":15,""ArrowDown,ArrowLeft"":21,""ArrowDown,ArrowRight"":7}","true","ArrowUp,ArrowLeft","","revaluation","1","","","",""
"html-keyboard-response","280","1127270","0.0-4.0-10.0-1.2","spark_pilot_norest","13782","2","18","Male","","","","","","","null","<div style=""font-size:60px;"">+</div>","null","fixation","","","","","","","","","","","",""
"revaluation","281","1127598","0.0-4.0-10.0-0.3","spark_pilot_norest","13782","2","18","Male","","false","","","","","[326.19999999925494]","./assets/img/ocean/animals/octopus.jpg","[""ArrowLeft""]","second stage test","ocean","0","{""ArrowUp,ArrowLeft"":27,""ArrowUp,ArrowRight"":15,""ArrowDown,ArrowLeft"":21,""ArrowDown,ArrowRight"":7}","true","ArrowUp,ArrowLeft","","revaluation","1","","","",""
"html-keyboard-response","282","1128103","0.0-4.0-10.0-1.3","spark_pilot_norest","13782","2","18","Male","","","","","","","null","<div style=""font-size:60px;"">+</div>","null","fixation","","","","","","","","","","","",""
"revaluation","283","1128705","0.0-4.0-10.0-0.4","spark_pilot_norest","13782","2","18","Male","","false","","","","","[599.4000000022352]","./assets/img/ocean/animals/seahorse.jpg","[""ArrowLeft""]","second stage test","ocean","0","{""ArrowUp,ArrowLeft"":27,""ArrowUp,ArrowRight"":15,""ArrowDown,ArrowLeft"":21,""ArrowDown,ArrowRight"":7}","true","ArrowDown,ArrowLeft","","revaluation","1","","","",""
"html-keyboard-response","284","1129218","0.0-4.0-10.0-1.4","spark_pilot_norest","13782","2","18","Male","","","","","","","null","<div style=""font-size:60px;"">+</div>","null","fixation","","","","","","","","","","","",""
"revaluation","285","1129635","0.0-4.0-10.0-0.5","spark_pilot_norest","13782","2","18","Male","","false","","","","","[415.30000000074506]","./assets/img/ocean/animals/seahorse.jpg","[""ArrowLeft""]","second stage test","ocean","0","{""ArrowUp,ArrowLeft"":27,""ArrowUp,ArrowRight"":15,""ArrowDown,ArrowLeft"":21,""ArrowDown,ArrowRight"":7}","true","ArrowDown,ArrowLeft","","revaluation","1","","","",""
"html-keyboard-response","286","1130141","0.0-4.0-10.0-1.5","spark_pilot_norest","13782","2","18","Male","","","","","","","null","<div style=""font-size:60px;"">+</div>","null","fixation","","","","","","","","","","","",""
"revaluation","287","1130492","0.0-4.0-10.0-0.6","spark_pilot_norest","13782","2","18","Male","","false","","","","","[348.9000000022352]","./assets/img/ocean/animals/seahorse.jpg","[""ArrowLeft""]","second stage test","ocean","0","{""ArrowUp,ArrowLeft"":27,""ArrowUp,ArrowRight"":15,""ArrowDown,ArrowLeft"":21,""ArrowDown,ArrowRight"":7}","true","ArrowDown,ArrowLeft","","revaluation","1","","","",""
"html-keyboard-response","288","1131003","0.0-4.0-10.0-1.6","spark_pilot_norest","13782","2","18","Male","","","","","","","null","<div style=""font-size:60px;"">+</div>","null","fixation","","","","","","","","","","","",""
"revaluation","289","1131325","0.0-4.0-10.0-0.7","spark_pilot_norest","13782","2","18","Male","","false","","","","","[320.8999999985099]","./assets/img/ocean/animals/seahorse.jpg","[""ArrowLeft""]","second stage test","ocean","0","{""ArrowUp,ArrowLeft"":27,""ArrowUp,ArrowRight"":15,""ArrowDown,ArrowLeft"":21,""ArrowDown,ArrowRight"":7}","true","ArrowDown,ArrowLeft","","revaluation","1","","","",""
"html-keyboard-response","290","1131838","0.0-4.0-10.0-1.7","spark_pilot_norest","13782","2","18","Male","","","","","","","null","<div style=""font-size:60px;"">+</div>","null","fixation","","","","","","","","","","","",""
"learning-instructions","291","1135768","0.0-4.0-0.1-0.2","spark_pilot_norest","13782","2","18","Male","","","","","","","1178.5","<p> This time you are searching for treasure in the <b>canyon</b>.</p>","","instructions","","","","","","","","","","","",""
"learning-instructions","292","1153743","0.0-4.0-0.1-0.3","spark_pilot_norest","13782","2","18","Male","","","","","","","720.3000000007451","<p><b>New</b> animals with <b>new</b> treasure chests live here. You need to explore to discover where the animal with the best treasure chest is.</p>
                    <p> Like before, once you figure out which animal has the chest with the most treasure, you should try to get to that animal and select that chest! </p>","","instructions","","","","","","","","","","","",""
"learning-instructions","293","1169023","0.0-4.0-1.1-0.1","spark_pilot_norest","13782","2","18","Male","","","","","","","554.8999999985099","<p> Remember, when you see a picture of the place, use the up and down keys to <b>find an animal</b>.</p>
            <p> When you encounter an animal, you should use the left and right keys to <b>select a treasure chest</b>.</p>
            <p> Don't forget to look out for the robber! </p>","","instructions","","","","","","","","","","","",""
"revaluation","294","1173049","0.0-4.0-2.1-0.50","spark_pilot_norest","13782","2","18","Male","","false","","","","","[816.6999999992549]","./assets/img/canyon/catch/7.jpg","[""spaceBar""]","value training","canyon","0","{""ArrowUp,ArrowLeft"":26,""ArrowUp,ArrowRight"":10,""ArrowDown,ArrowLeft"":5,""ArrowDown,ArrowRight"":17}","true","spaceBar","true","original","2","0","","",""
"html-keyboard-response","295","1173556","0.0-4.0-2.1-1.50","spark_pilot_norest","13782","2","18","Male","","","","","","","null","<div style=""font-size:60px;"">+</div>","null","fixation","","","","","","","","","1","","",""
"revaluation","296","1177577","0.0-4.0-2.1-0.51","spark_pilot_norest","13782","2","18","Male","","false","","","","","[650.1999999992549]","./assets/img/canyon/catch/1.jpg","[""spaceBar""]","value training","canyon","0","{""ArrowUp,ArrowLeft"":26,""ArrowUp,ArrowRight"":10,""ArrowDown,ArrowLeft"":5,""ArrowDown,ArrowRight"":17}","true","spaceBar","true","original","2","2","","",""
"html-keyboard-response","297","1178086","0.0-4.0-2.1-1.51","spark_pilot_norest","13782","2","18","Male","","","","","","","null","<div style=""font-size:60px;"">+</div>","null","fixation","","","","","","","","","3","","",""
"revaluation","298","1184126","0.0-4.0-2.1-0.52","spark_pilot_norest","13782","2","18","Male","","false","","","","","[743.3000000007451,595.3999999985099]","./assets/img/canyon/memory/25.jpg","[""ArrowUp"",""ArrowRight""]","value training","canyon","10","{""ArrowUp,ArrowLeft"":26,""ArrowUp,ArrowRight"":10,""ArrowDown,ArrowLeft"":5,""ArrowDown,ArrowRight"":17}","false","ArrowUp,ArrowRight","false","original","2","4","","",""
"html-keyboard-response","299","1184636","0.0-4.0-2.1-1.52","spark_pilot_norest","13782","2","18","Male","","","","","","","null","<div style=""font-size:60px;"">+</div>","null","fixation","","","","","","","","","5","","",""
"revaluation","300","1190676","0.0-4.0-2.1-0.53","spark_pilot_norest","13782","2","18","Male","","false","","","","","[905.3999999985099,245.30000000074506]","./assets/img/canyon/memory/31.jpg","[""ArrowUp"",""ArrowLeft""]","value training","canyon","26","{""ArrowUp,ArrowLeft"":26,""ArrowUp,ArrowRight"":10,""ArrowDown,ArrowLeft"":5,""ArrowDown,ArrowRight"":17}","true","ArrowUp,ArrowLeft","false","original","2","6","","",""
"html-keyboard-response","301","1191193","0.0-4.0-2.1-1.53","spark_pilot_norest","13782","2","18","Male","","","","","","","null","<div style=""font-size:60px;"">+</div>","null","fixation","","","","","","","","","7","","",""
"revaluation","302","1197210","0.0-4.0-2.1-0.54","spark_pilot_norest","13782","2","18","Male","","false","","","","","[1100,348.19999999925494]","./assets/img/canyon/memory/12.jpg","[""ArrowDown"",""ArrowRight""]","value training","canyon","17","{""ArrowUp,ArrowLeft"":26,""ArrowUp,ArrowRight"":10,""ArrowDown,ArrowLeft"":5,""ArrowDown,ArrowRight"":17}","false","ArrowDown,ArrowRight","false","original","2","8","","",""
"html-keyboard-response","303","1197720","0.0-4.0-2.1-1.54","spark_pilot_norest","13782","2","18","Male","","","","","","","null","<div style=""font-size:60px;"">+</div>","null","fixation","","","","","","","","","9","","",""
"revaluation","304","1203738","0.0-4.0-2.1-0.55","spark_pilot_norest","13782","2","18","Male","","false","","","","","[1009.3999999985099,388.6000000014901]","./assets/img/canyon/memory/34.jpg","[""ArrowDown"",""ArrowLeft""]","value training","canyon","5","{""ArrowUp,ArrowLeft"":26,""ArrowUp,ArrowRight"":10,""ArrowDown,ArrowLeft"":5,""ArrowDown,ArrowRight"":17}","false","ArrowDown,ArrowLeft","false","original","2","10","","",""
"html-keyboard-response","305","1204239","0.0-4.0-2.1-1.55","spark_pilot_norest","13782","2","18","Male","","","","","","","null","<div style=""font-size:60px;"">+</div>","null","fixation","","","","","","","","","11","","",""
"revaluation","306","1210243","0.0-4.0-2.1-0.56","spark_pilot_norest","13782","2","18","Male","","false","","","","","[879.1000000014901,235.40000000223517]","./assets/img/canyon/memory/35.jpg","[""ArrowUp"",""ArrowLeft""]","value training","canyon","26","{""ArrowUp,ArrowLeft"":26,""ArrowUp,ArrowRight"":10,""ArrowDown,ArrowLeft"":5,""ArrowDown,ArrowRight"":17}","true","ArrowUp,ArrowLeft","false","original","2","12","","",""
"html-keyboard-response","307","1210745","0.0-4.0-2.1-1.56","spark_pilot_norest","13782","2","18","Male","","","","","","","null","<div style=""font-size:60px;"">+</div>","null","fixation","","","","","","","","","13","","",""
"revaluation","308","1216750","0.0-4.0-2.1-0.57","spark_pilot_norest","13782","2","18","Male","","false","","","","","[620.1000000014901,372.9000000022352]","./assets/img/canyon/memory/12.jpg","[""ArrowUp"",""ArrowLeft""]","value training","canyon","26","{""ArrowUp,ArrowLeft"":26,""ArrowUp,ArrowRight"":10,""ArrowDown,ArrowLeft"":5,""ArrowDown,ArrowRight"":17}","true","ArrowUp,ArrowLeft","false","original","2","14","","",""
"html-keyboard-response","309","1217251","0.0-4.0-2.1-1.57","spark_pilot_norest","13782","2","18","Male","","","","","","","null","<div style=""font-size:60px;"">+</div>","null","fixation","","","","","","","","","15","","",""
"revaluation","310","1221254","0.0-4.0-2.1-0.58","spark_pilot_norest","13782","2","18","Male","","false","","","","","[598.1000000014901]","./assets/img/canyon/catch/5.jpg","[""spaceBar""]","value training","canyon","0","{""ArrowUp,ArrowLeft"":26,""ArrowUp,ArrowRight"":10,""ArrowDown,ArrowLeft"":5,""ArrowDown,ArrowRight"":17}","true","spaceBar","true","original","2","16","","",""
"html-keyboard-response","311","1221756","0.0-4.0-2.1-1.58","spark_pilot_norest","13782","2","18","Male","","","","","","","null","<div style=""font-size:60px;"">+</div>","null","fixation","","","","","","","","","17","","",""
