"trial_type","trial_index","time_elapsed","internal_node_id","task_version","subject_id","assigned_condition","age","gender","success","timeout","failed_images","failed_audio","failed_video","browser_interaction","rt","stimulus","response","task_part","environment","score","rewardMap","correct","fullState","isCatch","condition","order","trial_num","key_press","ground_truth","bonus"
"pavlovia","0","1082","0.0-0.0","spark_pilot_norest","8211","7","22","Male","","","","","","","","","","","","","","","","","","","","","",""
"preload","1","12506","0.0-1.0","spark_pilot_norest","8211","7","22","Male","true","false","[]","[]","[]","[{""event"":""fullscreenenter"",""trial"":2,""time"":13971},{""event"":""blur"",""trial"":49,""time"":329225},{""event"":""focus"",""trial"":49,""time"":401225}]","","","","","","","","","","","","","","","",""
"fullscreen","2","14957","0.0-2.0","spark_pilot_norest","8211","7","22","Male","true","","","","","","","","","","","","","","","","","","","","",""
"audio-button-response","3","17570","0.0-3.0-0.0-0.0","spark_pilot_norest","8211","7","22","Male","","","","","","","1669","./assets/audio/audiotest/turtle.mp3","2","audio_test","","","","","","","","","","","",""
"learning-instructions","4","25825","0.0-3.0-1.0-0.0","spark_pilot_norest","8211","7","22","Male","","","","","","","1260.699999988079","<p> Welcome! Please remember to stay in fullscreen mode and don't click away from the experiment. </p>","","instructions","","","","","","","","","","","",""
"learning-instructions","5","34694","0.0-3.0-1.0-0.1","spark_pilot_norest","8211","7","22","Male","","","","","","","463.5999999642372","<p> Today you will be playing a game to earn treasure. </p>
            <p> At the end of the experiment, you will earn a bonus based on how much treasure you find. </p>
            <img src='./assets/img/instructions/treasure.jpg' class='instructions-image'>","","instructions","","","","","","","","","","","",""
"learning-instructions","6","43338","0.0-3.0-1.0-0.2","spark_pilot_norest","8211","7","22","Male","","","","","","","387.7000000476837","<p> Animals have hidden treasure in treasure chests. </p>
            <p> You need to first find an animal and then choose which of their treasure chests to search. </p>
            <img src='./assets/img/space/animals/cat.jpg' class='instructions-image'>","","instructions","","","","","","","","","","","",""
"learning-instructions","7","56923","0.0-3.0-1.0-0.3","spark_pilot_norest","8211","7","22","Male","","","","","","","442.5999999642372","<p> In each round, you will search for treasure in a different place. In the real game, there will be two rounds. </p>
            <p> You will begin with a separate, practice round where you will search for treasure in outer space. </p>
            <img src='./assets/img/space/0.jpg' class='instructions-image'>","","instructions","","","","","","","","","","","",""
"learning-instructions","8","70135","0.0-3.0-1.0-0.4","spark_pilot_norest","8211","7","22","Male","","","","","","","1794.6000000238419","<p> On every turn, you will see a picture of the place that you are in, but the specific image may be different each time. </p>
            <p> For example, both of these images mean you are in outer space. </p>
            <img src='./assets/img/instructions/outerspace.jpg' class='instructions-image'>","","instructions","","","","","","","","","","","",""
"learning-instructions","9","78419","0.0-3.0-1.0-0.5","spark_pilot_norest","8211","7","22","Male","","","","","","","458.5","<p> You need to decide which direction to travel in. </p>
            <p> You can choose between going <b>up or down</b> by using the arrow keys. </p>
            <img src='./assets/img/instructions/updown.jpg' class='instructions-image'>","","instructions","","","","","","","","","","","",""
"learning-instructions","10","87615","0.0-3.0-1.0-0.6","spark_pilot_norest","8211","7","22","Male","","","","","","","385.4000000357628","<p> You will have <b>2 seconds</b> to make your choice. </p>
            <p> If you do not make a choice within 2 seconds, you will not find an animal or earn treasure. </p>
            <img src='./assets/img/instructions/2seconds.jpg' class='instructions-image'>","","instructions","","","","","","","","","","","",""
"learning-instructions","11","95073","0.0-3.0-1.0-0.7","spark_pilot_norest","8211","7","22","Male","","","","","","","433.69999998807907","<p> Let’s try practicing that now! </p>
            <p> When you see a picture of the place you are in, press the <b>up</b> key to travel up. </p>
            <img src='./assets/img/instructions/pressUp.jpg' class='instructions-image'>","","instructions","","","","","","","","","","","",""
"revaluation","12","99091","0.0-3.0-2.0-0.0","spark_pilot_norest","8211","7","22","Male","","false","","","","","[457.19999998807907]","./assets/img/space/0.jpg","[""ArrowUp""]","first stage practice","space","0","null","null","ArrowUp","false","","","","","",""
"html-keyboard-response","13","99599","0.0-3.0-2.0-1.0","spark_pilot_norest","8211","7","22","Male","","","","","","","null","<div style=""font-size:60px;"">+</div>","null","fixation","","","","","","","","","","","",""
"revaluation","14","103614","0.0-3.0-2.0-0.1","spark_pilot_norest","8211","7","22","Male","","true","","","","","[]","./assets/img/space/1.jpg","[]","first stage practice","space","-5","null","null","","false","","","","","",""
"html-keyboard-response","15","104125","0.0-3.0-2.0-1.1","spark_pilot_norest","8211","7","22","Male","","","","","","","null","<div style=""font-size:60px;"">+</div>","null","fixation","","","","","","","","","","","",""
"revaluation","16","108149","0.0-3.0-2.0-0.2","spark_pilot_norest","8211","7","22","Male","","false","","","","","[491]","./assets/img/space/2.jpg","[""ArrowUp""]","first stage practice","space","0","null","null","ArrowUp","false","","","","","",""
"html-keyboard-response","17","108657","0.0-3.0-2.0-1.2","spark_pilot_norest","8211","7","22","Male","","","","","","","null","<div style=""font-size:60px;"">+</div>","null","fixation","","","","","","","","","","","",""
"learning-instructions","18","114215","0.0-3.0-3.0-0.0","spark_pilot_norest","8211","7","22","Male","","","","","","","866","<p> Great job! Now try pressing the <b>down</b> key to travel down. </p>
            <img src='./assets/img/instructions/pressDown.jpg' class='instructions-image'>","","instructions","","","","","","","","","","","",""
"revaluation","19","118231","0.0-3.0-4.0-0.0","spark_pilot_norest","8211","7","22","Male","","false","","","","","[325.5]","./assets/img/space/3.jpg","[""ArrowDown""]","first stage practice","space","0","null","null","ArrowDown","false","","","","","",""
"html-keyboard-response","20","118742","0.0-3.0-4.0-1.0","spark_pilot_norest","8211","7","22","Male","","","","","","","null","<div style=""font-size:60px;"">+</div>","null","fixation","","","","","","","","","","","",""
"revaluation","21","122760","0.0-3.0-4.0-0.1","spark_pilot_norest","8211","7","22","Male","","false","","","","","[276.10000002384186]","./assets/img/space/4.jpg","[""ArrowDown""]","first stage practice","space","0","null","null","ArrowDown","false","","","","","",""
"html-keyboard-response","22","123275","0.0-3.0-4.0-1.1","spark_pilot_norest","8211","7","22","Male","","","","","","","null","<div style=""font-size:60px;"">+</div>","null","fixation","","","","","","","","","","","",""
"revaluation","23","127288","0.0-3.0-4.0-0.2","spark_pilot_norest","8211","7","22","Male","","false","","","","","[317.5]","./assets/img/space/5.jpg","[""ArrowDown""]","first stage practice","space","0","null","null","ArrowDown","false","","","","","",""
"html-keyboard-response","24","127794","0.0-3.0-4.0-1.2","spark_pilot_norest","8211","7","22","Male","","","","","","","null","<div style=""font-size:60px;"">+</div>","null","fixation","","","","","","","","","","","",""
"learning-instructions","25","138516","0.0-3.0-5.0-0.0","spark_pilot_norest","8211","7","22","Male","","","","","","","884.5","<p> The animals don’t move, so the animal in the upper part of a place will stay in the upper part of a place, and the animal in the lower part of a place will stay in the lower part of a place. </p>","","instructions","","","","","","","","","","","",""
"learning-instructions","26","148225","0.0-3.0-5.0-0.1","spark_pilot_norest","8211","7","22","Male","","","","","","","586.3000000119209","<p> Each animal has two treasure chests for you to choose from. </p>
            <p> The amount of treasure in each chest can range from <b> 0 to 40 pieces.</b></p>","","instructions","","","","","","","","","","","",""
"learning-instructions","27","160100","0.0-3.0-5.0-0.2","spark_pilot_norest","8211","7","22","Male","","","","","","","700.0999999642372","<p> You should decide which chest to search for treasure by using the <b>left</b> and <b>right</b> arrow keys. </p>
            <p><b> Pay attention to which animal is on the screen, as the animals have different treasure chests. </b></p>
            <img src='./assets/img/instructions/leftright.jpg' class='instructions-image'>","","instructions","","","","","","","","","","","",""
"learning-instructions","28","167133","0.0-3.0-5.0-0.3","spark_pilot_norest","8211","7","22","Male","","","","","","","662.8000000119209","<p> Let’s try practicing that now. </p>
            <p> When you see an animal, choose which chest to search for treasure. </p>
            <img src='./assets/img/instructions/chooseChest.jpg' class='instructions-image'>","","instructions","","","","","","","","","","","",""
"revaluation","29","171161","0.0-3.0-6.0-0.0","spark_pilot_norest","8211","7","22","Male","","false","","","","","[388.80000001192093]","./assets/img/space/animals/rabbit.jpg","[""ArrowLeft""]","second stage practice","space","15","{""ArrowUp,ArrowLeft"":3,""ArrowUp,ArrowRight"":36,""ArrowDown,ArrowLeft"":15,""ArrowDown,ArrowRight"":23}","false","ArrowDown,ArrowLeft","","","","","","",""
"html-keyboard-response","30","171669","0.0-3.0-6.0-1.0","spark_pilot_norest","8211","7","22","Male","","","","","","","null","<div style=""font-size:60px;"">+</div>","null","fixation","","","","","","","","","","","",""
"revaluation","31","175686","0.0-3.0-6.0-0.1","spark_pilot_norest","8211","7","22","Male","","false","","","","","[750]","./assets/img/space/animals/cat.jpg","[""ArrowLeft""]","second stage practice","space","3","{""ArrowUp,ArrowLeft"":3,""ArrowUp,ArrowRight"":36,""ArrowDown,ArrowLeft"":15,""ArrowDown,ArrowRight"":23}","false","ArrowUp,ArrowLeft","","","","","","",""
"html-keyboard-response","32","176194","0.0-3.0-6.0-1.1","spark_pilot_norest","8211","7","22","Male","","","","","","","null","<div style=""font-size:60px;"">+</div>","null","fixation","","","","","","","","","","","",""
"revaluation","33","180206","0.0-3.0-6.0-0.2","spark_pilot_norest","8211","7","22","Male","","false","","","","","[456.30000001192093]","./assets/img/space/animals/rabbit.jpg","[""ArrowRight""]","second stage practice","space","23","{""ArrowUp,ArrowLeft"":3,""ArrowUp,ArrowRight"":36,""ArrowDown,ArrowLeft"":15,""ArrowDown,ArrowRight"":23}","true","ArrowDown,ArrowRight","","","","","","",""
"html-keyboard-response","34","180715","0.0-3.0-6.0-1.2","spark_pilot_norest","8211","7","22","Male","","","","","","","null","<div style=""font-size:60px;"">+</div>","null","fixation","","","","","","","","","","","",""
"revaluation","35","184732","0.0-3.0-6.0-0.3","spark_pilot_norest","8211","7","22","Male","","false","","","","","[325.30000001192093]","./assets/img/space/animals/cat.jpg","[""ArrowRight""]","second stage practice","space","36","{""ArrowUp,ArrowLeft"":3,""ArrowUp,ArrowRight"":36,""ArrowDown,ArrowLeft"":15,""ArrowDown,ArrowRight"":23}","true","ArrowUp,ArrowRight","","","","","","",""
"html-keyboard-response","36","185241","0.0-3.0-6.0-1.3","spark_pilot_norest","8211","7","22","Male","","","","","","","null","<div style=""font-size:60px;"">+</div>","null","fixation","","","","","","","","","","","",""
"learning-instructions","37","202512","0.0-3.0-7.0-0.0","spark_pilot_norest","8211","7","22","Male","","","","","","","451","<p> Great job. Now let’s try putting it together. </p>
            <p> On each turn, you will first see a picture to remind you of the place you are in, and you need to choose whether to go up or down. </p>
            <p> Then you will see an animal and choose which of its chests to search for treasure. </p>","","instructions","","","","","","","","","","","",""
"learning-instructions","38","211216","0.0-3.0-7.0-0.1","spark_pilot_norest","8211","7","22","Male","","","","","","","456.10000002384186","<p> When you choose whether to go up or down, try to go to the animal with the chest with the most treasure. </p>
            <p> Try practicing that now! </p>","","instructions","","","","","","","","","","","",""
"revaluation","39","217242","0.0-3.0-8.0-0.0","spark_pilot_norest","8211","7","22","Male","","false","","","","","[356.60000002384186,612.1999999880791]","./assets/img/space/6.jpg","[""ArrowUp"",""ArrowRight""]","full practice","space","36","{""ArrowUp,ArrowLeft"":3,""ArrowUp,ArrowRight"":36,""ArrowDown,ArrowLeft"":15,""ArrowDown,ArrowRight"":23}","true","ArrowUp,ArrowRight","false","","","","","",""
"html-keyboard-response","40","217753","0.0-3.0-8.0-1.0","spark_pilot_norest","8211","7","22","Male","","","","","","","null","<div style=""font-size:60px;"">+</div>","null","fixation","","","","","","","","","","","",""
"revaluation","41","223791","0.0-3.0-8.0-0.1","spark_pilot_norest","8211","7","22","Male","","false","","","","","[825.0999999642372,754.0999999642372]","./assets/img/space/7.jpg","[""ArrowUp"",""ArrowRight""]","full practice","space","36","{""ArrowUp,ArrowLeft"":3,""ArrowUp,ArrowRight"":36,""ArrowDown,ArrowLeft"":15,""ArrowDown,ArrowRight"":23}","true","ArrowUp,ArrowRight","false","","","","","",""
"html-keyboard-response","42","224303","0.0-3.0-8.0-1.1","spark_pilot_norest","8211","7","22","Male","","","","","","","null","<div style=""font-size:60px;"">+</div>","null","fixation","","","","","","","","","","","",""
"revaluation","43","230313","0.0-3.0-8.0-0.2","spark_pilot_norest","8211","7","22","Male","","false","","","","","[413.0999999642372,711.1000000238419]","./assets/img/space/8.jpg","[""ArrowUp"",""ArrowRight""]","full practice","space","36","{""ArrowUp,ArrowLeft"":3,""ArrowUp,ArrowRight"":36,""ArrowDown,ArrowLeft"":15,""ArrowDown,ArrowRight"":23}","true","ArrowUp,ArrowRight","false","","","","","",""
"html-keyboard-response","44","230825","0.0-3.0-8.0-1.2","spark_pilot_norest","8211","7","22","Male","","","","","","","null","<div style=""font-size:60px;"">+</div>","null","fixation","","","","","","","","","","","",""
"revaluation","45","236848","0.0-3.0-8.0-0.3","spark_pilot_norest","8211","7","22","Male","","false","","","","","[825.6999999880791,661.9000000357628]","./assets/img/space/9.jpg","[""ArrowDown"",""ArrowLeft""]","full practice","space","15","{""ArrowUp,ArrowLeft"":3,""ArrowUp,ArrowRight"":36,""ArrowDown,ArrowLeft"":15,""ArrowDown,ArrowRight"":23}","false","ArrowDown,ArrowLeft","false","","","","","",""
"html-keyboard-response","46","237358","0.0-3.0-8.0-1.3","spark_pilot_norest","8211","7","22","Male","","","","","","","null","<div style=""font-size:60px;"">+</div>","null","fixation","","","","","","","","","","","",""
"revaluation","47","243363","0.0-3.0-8.0-0.4","spark_pilot_norest","8211","7","22","Male","","false","","","","","[386.2999999523163,477.10000002384186]","./assets/img/space/10.jpg","[""ArrowDown"",""ArrowRight""]","full practice","space","23","{""ArrowUp,ArrowLeft"":3,""ArrowUp,ArrowRight"":36,""ArrowDown,ArrowLeft"":15,""ArrowDown,ArrowRight"":23}","false","ArrowDown,ArrowRight","false","","","","","",""
"html-keyboard-response","48","243864","0.0-3.0-8.0-1.4","spark_pilot_norest","8211","7","22","Male","","","","","","[{""event"":""fullscreenenter"",""trial"":2,""time"":13971},{""event"":""blur"",""trial"":49,""time"":329225},{""event"":""focus"",""trial"":49,""time"":401225}]","null","<div style=""font-size:60px;"">+</div>","null","fixation","","","","","","","","","","","",""
"learning-instructions","49","406606","0.0-3.0-9.0-0.0","spark_pilot_norest","8211","7","22","Male","","","","","","","152441","<p> One last thing: sometimes, you will see a robber. The robber can be anywhere in the picture. </p>
            <p> If you do not stop them, you will lose treasure. </p>
            <img src='./assets/img/instructions/robber.jpg' class='instructions-image'>","","instructions","","","","","","","","","","","",""
"learning-instructions","50","417491","0.0-3.0-9.0-0.1","spark_pilot_norest","8211","7","22","Male","","","","","","","2765.099999964237","<p> If you see the robber, you should <b>press the space bar</b> rather than using the arrow keys. </p>
            <p> Try practicing that now! </p>","","instructions","","","","","","","","","","","",""
"revaluation","51","421508","0.0-3.0-10.0-0.0","spark_pilot_norest","8211","7","22","Male","","false","","","","","[1180.300000011921]","./assets/img/space/catch/0.jpg","[""spaceBar""]","catch practice","space","0","{""ArrowUp,ArrowLeft"":3,""ArrowUp,ArrowRight"":36,""ArrowDown,ArrowLeft"":15,""ArrowDown,ArrowRight"":23}","true","spaceBar","true","","","","","",""
"html-keyboard-response","52","422009","0.0-3.0-10.0-1.0","spark_pilot_norest","8211","7","22","Male","","","","","","","null","<div style=""font-size:60px;"">+</div>","null","fixation","","","","","","","","","","","",""
"revaluation","53","426023","0.0-3.0-10.0-0.1","spark_pilot_norest","8211","7","22","Male","","false","","","","","[514.6000000238419]","./assets/img/space/catch/1.jpg","[""spaceBar""]","catch practice","space","0","{""ArrowUp,ArrowLeft"":3,""ArrowUp,ArrowRight"":36,""ArrowDown,ArrowLeft"":15,""ArrowDown,ArrowRight"":23}","true","spaceBar","true","","","","","",""
"html-keyboard-response","54","426536","0.0-3.0-10.0-1.1","spark_pilot_norest","8211","7","22","Male","","","","","","","null","<div style=""font-size:60px;"">+</div>","null","fixation","","","","","","","","","","","",""
"revaluation","55","430553","0.0-3.0-10.0-0.2","spark_pilot_norest","8211","7","22","Male","","false","","","","","[462.0999999642372]","./assets/img/space/catch/2.jpg","[""spaceBar""]","catch practice","space","0","{""ArrowUp,ArrowLeft"":3,""ArrowUp,ArrowRight"":36,""ArrowDown,ArrowLeft"":15,""ArrowDown,ArrowRight"":23}","true","spaceBar","true","","","","","",""
"html-keyboard-response","56","431065","0.0-3.0-10.0-1.2","spark_pilot_norest","8211","7","22","Male","","","","","","","null","<div style=""font-size:60px;"">+</div>","null","fixation","","","","","","","","","","","",""
"learning-instructions","57","437625","0.0-3.0-11.0-0.0-0.0","spark_pilot_norest","8211","7","22","Male","","","","","","","1298.4000000357628","<p> Now, you will practice a shortened version of the game to get a sense of how it all fits together. </p>","","instructions","","","","","","","","","","","",""
"learning-instructions","58","441811","0.0-3.0-11.0-0.0-0.1","spark_pilot_norest","8211","7","22","Male","","","","","","","1004.1000000238419","<p>This time you are searching for treasure in outer space.</p>","","instructions","","","","","","","","","","","",""
"learning-instructions","59","461047","0.0-3.0-11.0-1.0-0.0","spark_pilot_norest","8211","7","22","Male","","","","","","","4470.700000047684","<p> Remember, when you see a picture of the place, use the up and down keys to <b>find an animal</b>.</p>
            <p> When you encounter an animal, you should use the left and right keys to <b>select a treasure chest</b>.</p>
            <p> Don't forget to look out for the robber! </p>","","instructions","","","","","","","","","","","",""
"revaluation","60","467067","0.0-3.0-11.0-2.0-0.0","spark_pilot_norest","8211","7","22","Male","","false","","","","","[697.6999999880791,582.6000000238419]","./assets/img/space/11.jpg","[""ArrowUp"",""ArrowRight""]","practice block","space","36","{""ArrowUp,ArrowLeft"":3,""ArrowUp,ArrowRight"":36,""ArrowDown,ArrowLeft"":15,""ArrowDown,ArrowRight"":23}","true","ArrowUp,ArrowRight","false","","","","","",""
"html-keyboard-response","61","467583","0.0-3.0-11.0-2.0-1.0","spark_pilot_norest","8211","7","22","Male","","","","","","","null","<div style=""font-size:60px;"">+</div>","null","fixation","","","","","","","","","","","",""
"revaluation","62","473608","0.0-3.0-11.0-2.0-0.1","spark_pilot_norest","8211","7","22","Male","","false","","","","","[648.3000000119209,301.5]","./assets/img/space/12.jpg","[""ArrowUp"",""ArrowLeft""]","practice block","space","3","{""ArrowUp,ArrowLeft"":3,""ArrowUp,ArrowRight"":36,""ArrowDown,ArrowLeft"":15,""ArrowDown,ArrowRight"":23}","false","ArrowUp,ArrowLeft","false","","","","","",""
"html-keyboard-response","63","474120","0.0-3.0-11.0-2.0-1.1","spark_pilot_norest","8211","7","22","Male","","","","","","","null","<div style=""font-size:60px;"">+</div>","null","fixation","","","","","","","","","","","",""
"revaluation","64","480161","0.0-3.0-11.0-2.0-0.2","spark_pilot_norest","8211","7","22","Male","","false","","","","","[234.0999999642372,271.60000002384186]","./assets/img/space/13.jpg","[""ArrowDown"",""ArrowRight""]","practice block","space","23","{""ArrowUp,ArrowLeft"":3,""ArrowUp,ArrowRight"":36,""ArrowDown,ArrowLeft"":15,""ArrowDown,ArrowRight"":23}","false","ArrowDown,ArrowRight","false","","","","","",""
"html-keyboard-response","65","480668","0.0-3.0-11.0-2.0-1.2","spark_pilot_norest","8211","7","22","Male","","","","","","","null","<div style=""font-size:60px;"">+</div>","null","fixation","","","","","","","","","","","",""
"revaluation","66","486699","0.0-3.0-11.0-2.0-0.3","spark_pilot_norest","8211","7","22","Male","","false","","","","","[276,206.5]","./assets/img/space/14.jpg","[""ArrowDown"",""ArrowLeft""]","practice block","space","15","{""ArrowUp,ArrowLeft"":3,""ArrowUp,ArrowRight"":36,""ArrowDown,ArrowLeft"":15,""ArrowDown,ArrowRight"":23}","false","ArrowDown,ArrowLeft","false","","","","","",""
"html-keyboard-response","67","487200","0.0-3.0-11.0-2.0-1.3","spark_pilot_norest","8211","7","22","Male","","","","","","","null","<div style=""font-size:60px;"">+</div>","null","fixation","","","","","","","","","","","",""
"revaluation","68","493219","0.0-3.0-11.0-2.0-0.4","spark_pilot_norest","8211","7","22","Male","","false","","","","","[252.30000001192093,254.69999998807907]","./assets/img/space/11.jpg","[""ArrowUp"",""ArrowRight""]","practice block","space","36","{""ArrowUp,ArrowLeft"":3,""ArrowUp,ArrowRight"":36,""ArrowDown,ArrowLeft"":15,""ArrowDown,ArrowRight"":23}","true","ArrowUp,ArrowRight","false","","","","","",""
"html-keyboard-response","69","493721","0.0-3.0-11.0-2.0-1.4","spark_pilot_norest","8211","7","22","Male","","","","","","","null","<div style=""font-size:60px;"">+</div>","null","fixation","","","","","","","","","","","",""
"revaluation","70","499726","0.0-3.0-11.0-2.0-0.5","spark_pilot_norest","8211","7","22","Male","","false","","","","","[463.30000001192093,298.30000001192093]","./assets/img/space/12.jpg","[""ArrowUp"",""ArrowRight""]","practice block","space","36","{""ArrowUp,ArrowLeft"":3,""ArrowUp,ArrowRight"":36,""ArrowDown,ArrowLeft"":15,""ArrowDown,ArrowRight"":23}","true","ArrowUp,ArrowRight","false","","","","","",""
"html-keyboard-response","71","500230","0.0-3.0-11.0-2.0-1.5","spark_pilot_norest","8211","7","22","Male","","","","","","","null","<div style=""font-size:60px;"">+</div>","null","fixation","","","","","","","","","","","",""
"revaluation","72","506235","0.0-3.0-11.0-2.0-0.6","spark_pilot_norest","8211","7","22","Male","","false","","","","","[413.60000002384186,286.10000002384186]","./assets/img/space/13.jpg","[""ArrowUp"",""ArrowRight""]","practice block","space","36","{""ArrowUp,ArrowLeft"":3,""ArrowUp,ArrowRight"":36,""ArrowDown,ArrowLeft"":15,""ArrowDown,ArrowRight"":23}","true","ArrowUp,ArrowRight","false","","","","","",""
"html-keyboard-response","73","506737","0.0-3.0-11.0-2.0-1.6","spark_pilot_norest","8211","7","22","Male","","","","","","","null","<div style=""font-size:60px;"">+</div>","null","fixation","","","","","","","","","","","",""
"revaluation","74","512744","0.0-3.0-11.0-2.0-0.7","spark_pilot_norest","8211","7","22","Male","","false","","","","","[495.4000000357628,292.60000002384186]","./assets/img/space/14.jpg","[""ArrowUp"",""ArrowRight""]","practice block","space","36","{""ArrowUp,ArrowLeft"":3,""ArrowUp,ArrowRight"":36,""ArrowDown,ArrowLeft"":15,""ArrowDown,ArrowRight"":23}","true","ArrowUp,ArrowRight","false","","","","","",""
"html-keyboard-response","75","513255","0.0-3.0-11.0-2.0-1.7","spark_pilot_norest","8211","7","22","Male","","","","","","","null","<div style=""font-size:60px;"">+</div>","null","fixation","","","","","","","","","","","",""
"revaluation","76","517259","0.0-3.0-11.0-2.0-0.8","spark_pilot_norest","8211","7","22","Male","","false","","","","","[731.9000000357628]","./assets/img/space/catch/3.jpg","[""spaceBar""]","practice block","space","0","{""ArrowUp,ArrowLeft"":3,""ArrowUp,ArrowRight"":36,""ArrowDown,ArrowLeft"":15,""ArrowDown,ArrowRight"":23}","true","spaceBar","true","","","","","",""
"html-keyboard-response","77","517761","0.0-3.0-11.0-2.0-1.8","spark_pilot_norest","8211","7","22","Male","","","","","","","null","<div style=""font-size:60px;"">+</div>","null","fixation","","","","","","","","","","","",""
"learning-instructions","78","589848","0.0-3.0-11.0-3.0-0.0","spark_pilot_norest","8211","7","22","Male","","","","","","","58216.69999998808","<p> Now, you will travel with a friend who will choose whether you go up or down first. </p>
            <p> On these turns, you will just see the animal that they found. You will still get to choose which chest to search for treasure.</p>","","instructions","","","","","","","","","","","",""
"revaluation","79","593852","0.0-3.0-11.0-4.0-0.0","spark_pilot_norest","8211","7","22","Male","","false","","","","","[884.1999999880791]","./assets/img/space/animals/cat.jpg","[""ArrowRight""]","practice block","space","36","{""ArrowUp,ArrowLeft"":3,""ArrowUp,ArrowRight"":36,""ArrowDown,ArrowLeft"":15,""ArrowDown,ArrowRight"":23}","true","ArrowUp,ArrowRight","","","","","","",""
"html-keyboard-response","80","594353","0.0-3.0-11.0-4.0-1.0","spark_pilot_norest","8211","7","22","Male","","","","","","","null","<div style=""font-size:60px;"">+</div>","null","fixation","","","","","","","","","","","",""
"revaluation","81","598358","0.0-3.0-11.0-4.0-0.1","spark_pilot_norest","8211","7","22","Male","","false","","","","","[595.3999999761581]","./assets/img/space/animals/rabbit.jpg","[""ArrowLeft""]","practice block","space","15","{""ArrowUp,ArrowLeft"":3,""ArrowUp,ArrowRight"":36,""ArrowDown,ArrowLeft"":15,""ArrowDown,ArrowRight"":23}","false","ArrowDown,ArrowLeft","","","","","","",""
"html-keyboard-response","82","598859","0.0-3.0-11.0-4.0-1.1","spark_pilot_norest","8211","7","22","Male","","","","","","","null","<div style=""font-size:60px;"">+</div>","null","fixation","","","","","","","","","","","",""
"revaluation","83","602864","0.0-3.0-11.0-4.0-0.2","spark_pilot_norest","8211","7","22","Male","","false","","","","","[285.5]","./assets/img/space/animals/cat.jpg","[""ArrowRight""]","practice block","space","36","{""ArrowUp,ArrowLeft"":3,""ArrowUp,ArrowRight"":36,""ArrowDown,ArrowLeft"":15,""ArrowDown,ArrowRight"":23}","true","ArrowUp,ArrowRight","","","","","","",""
"html-keyboard-response","84","603367","0.0-3.0-11.0-4.0-1.2","spark_pilot_norest","8211","7","22","Male","","","","","","","null","<div style=""font-size:60px;"">+</div>","null","fixation","","","","","","","","","","","",""
"revaluation","85","607372","0.0-3.0-11.0-4.0-0.3","spark_pilot_norest","8211","7","22","Male","","false","","","","","[287.9000000357628]","./assets/img/space/animals/rabbit.jpg","[""ArrowRight""]","practice block","space","23","{""ArrowUp,ArrowLeft"":3,""ArrowUp,ArrowRight"":36,""ArrowDown,ArrowLeft"":15,""ArrowDown,ArrowRight"":23}","true","ArrowDown,ArrowRight","","","","","","",""
"html-keyboard-response","86","607873","0.0-3.0-11.0-4.0-1.3","spark_pilot_norest","8211","7","22","Male","","","","","","","null","<div style=""font-size:60px;"">+</div>","null","fixation","","","","","","","","","","","",""
"learning-instructions","87","616965","0.0-3.0-11.0-5.0-0.0","spark_pilot_norest","8211","7","22","Male","","","","","","","null","<p> You have almost finished this part of the game! </p>
            <p> We are going to ask you to make a few more choices. </p>","","instructions","","","","","","","","","","","",""
"learning-instructions","88","632973","0.0-3.0-11.0-5.0-0.1","spark_pilot_norest","8211","7","22","Male","","","","","","","null","<p> First, you need to decide whether to go up or down. When you see each picture, use the arrow keys to make your choice. </p>
            <p><b>You will not see which animal you found, but try to get to the one that will give you the most treasure.</b></p>","","instructions","","","","","","","","","","","",""
"html-keyboard-response","89","633977","0.0-3.0-11.0-6.0-0.0","spark_pilot_norest","8211","7","22","Male","","","","","","","null","<div style=""font-size:100px;color:red;"">Starting in...</div>","null","","","","","","","","","","","","",""
"html-keyboard-response","90","634980","0.0-3.0-11.0-6.0-1.0","spark_pilot_norest","8211","7","22","Male","","","","","","","null","<div style=""font-size:200px;color:red;"">3</div>","null","","","","","","","","","","","","",""
"html-keyboard-response","91","635982","0.0-3.0-11.0-6.0-2.0","spark_pilot_norest","8211","7","22","Male","","","","","","","null","<div style=""font-size:200px;color:red;"">2</div>","null","","","","","","","","","","","","",""
"html-keyboard-response","92","636983","0.0-3.0-11.0-6.0-3.0","spark_pilot_norest","8211","7","22","Male","","","","","","","null","<div style=""font-size:200px;color:red;"">1</div>","null","","","","","","","","","","","","",""
"revaluation","93","637572","0.0-3.0-11.0-7.0","spark_pilot_norest","8211","7","22","Male","","false","","","","","[585.8000000119209]","./assets/img/space/15.jpg","[""ArrowUp""]","practice block","space","0","{""ArrowUp,ArrowLeft"":3,""ArrowUp,ArrowRight"":36,""ArrowDown,ArrowLeft"":15,""ArrowDown,ArrowRight"":23}","true","ArrowUp","false","","","","","",""
"html-keyboard-response","94","638073","0.0-3.0-11.0-8.0","spark_pilot_norest","8211","7","22","Male","","","","","","","null","<div style=""font-size:60px;"">+</div>","null","fixation","","","","","","","","","","","",""
"learning-instructions","95","651461","0.0-3.0-11.0-9.0-0.0","spark_pilot_norest","8211","7","22","Male","","","","","","","null","<p> Now you will see the animals again and can search their chests for treasure. </p>
            <p> This time, you will not see how much treasure you earned, but you will earn more bonus money for making better choices. </p>","","instructions","","","","","","","","","","","",""
"html-keyboard-response","96","652471","0.0-3.0-11.0-10.0-0.0","spark_pilot_norest","8211","7","22","Male","","","","","","","null","<div style=""font-size:100px;color:red;"">Starting in...</div>","null","","","","","","","","","","","","",""
"html-keyboard-response","97","653481","0.0-3.0-11.0-10.0-1.0","spark_pilot_norest","8211","7","22","Male","","","","","","","null","<div style=""font-size:200px;color:red;"">3</div>","null","","","","","","","","","","","","",""
"html-keyboard-response","98","654482","0.0-3.0-11.0-10.0-2.0","spark_pilot_norest","8211","7","22","Male","","","","","","","null","<div style=""font-size:200px;color:red;"">2</div>","null","","","","","","","","","","","","",""
"html-keyboard-response","99","655484","0.0-3.0-11.0-10.0-3.0","spark_pilot_norest","8211","7","22","Male","","","","","","","null","<div style=""font-size:200px;color:red;"">1</div>","null","","","","","","","","","","","","",""
"revaluation","100","656223","0.0-3.0-11.0-11.0-0.0","spark_pilot_norest","8211","7","22","Male","","false","","","","","[736.0999999642372]","./assets/img/space/animals/cat.jpg","[""ArrowRight""]","practice block","space","0","{""ArrowUp,ArrowLeft"":3,""ArrowUp,ArrowRight"":36,""ArrowDown,ArrowLeft"":15,""ArrowDown,ArrowRight"":23}","true","ArrowUp,ArrowRight","","","","","","",""
"html-keyboard-response","101","656731","0.0-3.0-11.0-11.0-1.0","spark_pilot_norest","8211","7","22","Male","","","","","","","null","<div style=""font-size:60px;"">+</div>","null","fixation","","","","","","","","","","","",""
"revaluation","102","657175","0.0-3.0-11.0-11.0-0.1","spark_pilot_norest","8211","7","22","Male","","false","","","","","[440.5999999642372]","./assets/img/space/animals/rabbit.jpg","[""ArrowRight""]","practice block","space","0","{""ArrowUp,ArrowLeft"":3,""ArrowUp,ArrowRight"":36,""ArrowDown,ArrowLeft"":15,""ArrowDown,ArrowRight"":23}","true","ArrowDown,ArrowRight","","","","","","",""
"html-keyboard-response","103","657690","0.0-3.0-11.0-11.0-1.1","spark_pilot_norest","8211","7","22","Male","","","","","","","null","<div style=""font-size:60px;"">+</div>","null","fixation","","","","","","","","","","","",""
"learning-instructions","104","663622","0.0-3.0-12.0-0.0","spark_pilot_norest","8211","7","22","Male","","","","","","","1348.8999999761581","<p> Before you start, we're going to ask you a few questions about how the game works. </p>","","instructions","","","","","","","","","","","",""
"comp-q","105","670368","0.0-3.0-13.0-0.0-0.0","spark_pilot_norest","8211","7","22","Male","","","","","","","1160.5","<p> <b> True or False? </b> </p>
            <p> There can be 50 pieces of treasure in a given animal's chest. </p>","1","comp_question","","","","true","","","","","","","",""
"comp-q","106","678005","0.0-3.0-13.0-0.0-1.0","spark_pilot_norest","8211","7","22","Male","","","","","","","993","<p> <b> That's right! </b> The amount of treasure in each chest can range from 0 to 40 pieces. </p>","0","comp_answer","","","","","","","","","","","",""
"comp-q","107","685820","0.0-3.0-13.0-0.1-0.1","spark_pilot_norest","8211","7","22","Male","","","","","","","697.0999999642372","<p> <b> True or False? </b> </p><p> In this game, all animals have the same amount of treasure in their left and right chests. </p>","1","comp_question","","","","true","","","","","","","",""
"comp-q","108","692630","0.0-3.0-13.0-0.1-1.1","spark_pilot_norest","8211","7","22","Male","","","","","","","1586.199999988079","<p> <b> That's right! </b> Animals have different amounts of treasure in their treasure chests. </p>","0","comp_answer","","","","","","","","","","","",""
"comp-q","109","700579","0.0-3.0-13.0-0.2-0.2","spark_pilot_norest","8211","7","22","Male","","","","","","","2097.399999976158","<p> <b> True or False? </b> </p><p> The same animal will always be there if you go up in the same place. </p>","0","comp_question","","","","true","","","","","","","",""
"comp-q","110","707990","0.0-3.0-13.0-0.2-1.2","spark_pilot_norest","8211","7","22","Male","","","","","","","956.8999999761581","<p> <b> That's right! </b> One animal lives in the upper part and one lives in the lower part of every place. </p>","0","comp_answer","","","","","","","","","","","",""
"comp-q","111","714323","0.0-3.0-13.0-0.3-0.3","spark_pilot_norest","8211","7","22","Male","","","","","","","800.0999999642372","<p> <b> True or False? </b> </p><p> If you see a different picture, it means you are in a new place. </p>","0","comp_question","","","","false","","","","","","","",""
"comp-q","112","726812","0.0-3.0-13.0-0.3-1.3","spark_pilot_norest","8211","7","22","Male","","","","","","","1379.4000000357628","<p> <b>Incorrect.</b> Lots of different images may show the same place. For example,  you may see three different images that all remind you that you are in outer space. </p>","0","comp_answer","","","","","","","","","","","",""
"comp-q","113","733125","0.0-3.0-13.0-0.4-0.4","spark_pilot_norest","8211","7","22","Male","","","","","","","802.2999999523163","<p> <b> True or False? </b> </p><p> If you see a different picture, it means you are in a new place. </p>","1","comp_question","","","","true","","","","","","","",""
"comp-q","114","745147","0.0-3.0-13.0-0.4-1.4","spark_pilot_norest","8211","7","22","Male","","","","","","","794.1999999880791","<p> <b> That's right! </b> Lots of different images may show the same place. For example,  you may see three different images that all remind you that you are in outer space. </p>","0","comp_answer","","","","","","","","","","","",""
"learning-instructions","115","755825","0.0-3.0-14.0-0.0","spark_pilot_norest","8211","7","22","Male","","","","","","","823.3000000119209","<p> Good job. Remember to do your best because the amount of treasure you earn will be converted into bonus money. </p>
            <p> It’s time to start the real game! </p>","","instructions","","","","","","","","","","","",""
"learning-instructions","116","759365","0.0-4.0-0.0-0.0","spark_pilot_norest","8211","7","22","Male","","","","","","","762.5","<p> This time you are searching for treasure in the <b>canyon</b>.</p>","","instructions","","","","","","","","","","","",""
"learning-instructions","117","777281","0.0-4.0-0.0-0.1","spark_pilot_norest","8211","7","22","Male","","","","","","","608.3999999761581","<p><b>New</b> animals with <b>new</b> treasure chests live here. You need to explore to discover where the animal with the best treasure chest is.</p>
                    <p> Like before, once you figure out which animal has the chest with the most treasure, you should try to get to that animal and select that chest! </p>","","instructions","","","","","","","","","","","",""
"learning-instructions","118","792906","0.0-4.0-1.0-0.0","spark_pilot_norest","8211","7","22","Male","","","","","","","893.5","<p> Remember, when you see a picture of the place, use the up and down keys to <b>find an animal</b>.</p>
            <p> When you encounter an animal, you should use the left and right keys to <b>select a treasure chest</b>.</p>
            <p> Don't forget to look out for the robber! </p>","","instructions","","","","","","","","","","","",""
"revaluation","119","798943","0.0-4.0-2.0-0.0","spark_pilot_norest","8211","7","22","Male","","false","","","","","[956.8999999761581,528.3000000119209]","./assets/img/canyon/memory/36.jpg","[""ArrowUp"",""ArrowRight""]","value training","canyon","10","{""ArrowUp,ArrowLeft"":23,""ArrowUp,ArrowRight"":10,""ArrowDown,ArrowLeft"":8,""ArrowDown,ArrowRight"":30}","false","ArrowUp,ArrowRight","false","original","1","0","","",""
"html-keyboard-response","120","799451","0.0-4.0-2.0-1.0","spark_pilot_norest","8211","7","22","Male","","","","","","","null","<div style=""font-size:60px;"">+</div>","null","fixation","","","","","","","","","1","","",""
"revaluation","121","805466","0.0-4.0-2.0-0.1","spark_pilot_norest","8211","7","22","Male","","false","","","","","[689.3000000119209,371]","./assets/img/canyon/memory/10.jpg","[""ArrowUp"",""ArrowLeft""]","value training","canyon","23","{""ArrowUp,ArrowLeft"":23,""ArrowUp,ArrowRight"":10,""ArrowDown,ArrowLeft"":8,""ArrowDown,ArrowRight"":30}","false","ArrowUp,ArrowLeft","false","original","1","2","","",""
"html-keyboard-response","122","805976","0.0-4.0-2.0-1.1","spark_pilot_norest","8211","7","22","Male","","","","","","","null","<div style=""font-size:60px;"">+</div>","null","fixation","","","","","","","","","3","","",""
"revaluation","123","811999","0.0-4.0-2.0-0.2","spark_pilot_norest","8211","7","22","Male","","false","","","","","[261.39999997615814,363.69999998807907]","./assets/img/canyon/memory/10.jpg","[""ArrowDown"",""ArrowLeft""]","value training","canyon","8","{""ArrowUp,ArrowLeft"":23,""ArrowUp,ArrowRight"":10,""ArrowDown,ArrowLeft"":8,""ArrowDown,ArrowRight"":30}","false","ArrowDown,ArrowLeft","false","original","1","4","","",""
"html-keyboard-response","124","812508","0.0-4.0-2.0-1.2","spark_pilot_norest","8211","7","22","Male","","","","","","","null","<div style=""font-size:60px;"">+</div>","null","fixation","","","","","","","","","5","","",""
"revaluation","125","818535","0.0-4.0-2.0-0.3","spark_pilot_norest","8211","7","22","Male","","false","","","","","[453.80000001192093,286.4000000357628]","./assets/img/canyon/memory/4.jpg","[""ArrowDown"",""ArrowRight""]","value training","canyon","30","{""ArrowUp,ArrowLeft"":23,""ArrowUp,ArrowRight"":10,""ArrowDown,ArrowLeft"":8,""ArrowDown,ArrowRight"":30}","true","ArrowDown,ArrowRight","false","original","1","6","","",""
"html-keyboard-response","126","819043","0.0-4.0-2.0-1.3","spark_pilot_norest","8211","7","22","Male","","","","","","","null","<div style=""font-size:60px;"">+</div>","null","fixation","","","","","","","","","7","","",""
"revaluation","127","825061","0.0-4.0-2.0-0.4","spark_pilot_norest","8211","7","22","Male","","false","","","","","[877.8000000119209,360.2000000476837]","./assets/img/canyon/memory/26.jpg","[""ArrowUp"",""ArrowLeft""]","value training","canyon","23","{""ArrowUp,ArrowLeft"":23,""ArrowUp,ArrowRight"":10,""ArrowDown,ArrowLeft"":8,""ArrowDown,ArrowRight"":30}","false","ArrowUp,ArrowLeft","false","original","1","8","","",""
"html-keyboard-response","128","825562","0.0-4.0-2.0-1.4","spark_pilot_norest","8211","7","22","Male","","","","","","","null","<div style=""font-size:60px;"">+</div>","null","fixation","","","","","","","","","9","","",""
"revaluation","129","829567","0.0-4.0-2.0-0.5","spark_pilot_norest","8211","7","22","Male","","false","","","","","[544.5]","./assets/img/canyon/catch/4.jpg","[""ArrowDown""]","value training","canyon","-10","{""ArrowUp,ArrowLeft"":23,""ArrowUp,ArrowRight"":10,""ArrowDown,ArrowLeft"":8,""ArrowDown,ArrowRight"":30}","false","ArrowDown","true","original","1","10","","",""
"html-keyboard-response","130","830069","0.0-4.0-2.0-1.5","spark_pilot_norest","8211","7","22","Male","","","","","","","null","<div style=""font-size:60px;"">+</div>","null","fixation","","","","","","","","","11","","",""
"revaluation","131","836073","0.0-4.0-2.0-0.6","spark_pilot_norest","8211","7","22","Male","","false","","","","","[717.3999999761581,363.69999998807907]","./assets/img/canyon/memory/20.jpg","[""ArrowDown"",""ArrowRight""]","value training","canyon","30","{""ArrowUp,ArrowLeft"":23,""ArrowUp,ArrowRight"":10,""ArrowDown,ArrowLeft"":8,""ArrowDown,ArrowRight"":30}","true","ArrowDown,ArrowRight","false","original","1","12","","",""
"html-keyboard-response","132","836575","0.0-4.0-2.0-1.6","spark_pilot_norest","8211","7","22","Male","","","","","","","null","<div style=""font-size:60px;"">+</div>","null","fixation","","","","","","","","","13","","",""
"revaluation","133","842580","0.0-4.0-2.0-0.7","spark_pilot_norest","8211","7","22","Male","","false","","","","","[490.80000001192093,386.39999997615814]","./assets/img/canyon/memory/12.jpg","[""ArrowDown"",""ArrowRight""]","value training","canyon","30","{""ArrowUp,ArrowLeft"":23,""ArrowUp,ArrowRight"":10,""ArrowDown,ArrowLeft"":8,""ArrowDown,ArrowRight"":30}","true","ArrowDown,ArrowRight","false","original","1","14","","",""
"html-keyboard-response","134","843081","0.0-4.0-2.0-1.7","spark_pilot_norest","8211","7","22","Male","","","","","","","null","<div style=""font-size:60px;"">+</div>","null","fixation","","","","","","","","","15","","",""
"revaluation","135","847085","0.0-4.0-2.0-0.8","spark_pilot_norest","8211","7","22","Male","","false","","","","","[630]","./assets/img/canyon/catch/7.jpg","[""spaceBar""]","value training","canyon","0","{""ArrowUp,ArrowLeft"":23,""ArrowUp,ArrowRight"":10,""ArrowDown,ArrowLeft"":8,""ArrowDown,ArrowRight"":30}","true","spaceBar","true","original","1","16","","",""
"html-keyboard-response","136","847586","0.0-4.0-2.0-1.8","spark_pilot_norest","8211","7","22","Male","","","","","","","null","<div style=""font-size:60px;"">+</div>","null","fixation","","","","","","","","","17","","",""
"revaluation","137","853605","0.0-4.0-2.0-0.9","spark_pilot_norest","8211","7","22","Male","","false","","","","","[406.7000000476837,309.69999998807907]","./assets/img/canyon/memory/0.jpg","[""ArrowDown"",""ArrowRight""]","value training","canyon","30","{""ArrowUp,ArrowLeft"":23,""ArrowUp,ArrowRight"":10,""ArrowDown,ArrowLeft"":8,""ArrowDown,ArrowRight"":30}","true","ArrowDown,ArrowRight","false","original","1","18","","",""
"html-keyboard-response","138","854106","0.0-4.0-2.0-1.9","spark_pilot_norest","8211","7","22","Male","","","","","","","null","<div style=""font-size:60px;"">+</div>","null","fixation","","","","","","","","","19","","",""
"revaluation","139","860111","0.0-4.0-2.0-0.10","spark_pilot_norest","8211","7","22","Male","","false","","","","","[677.5,383.7999999523163]","./assets/img/canyon/memory/26.jpg","[""ArrowDown"",""ArrowRight""]","value training","canyon","30","{""ArrowUp,ArrowLeft"":23,""ArrowUp,ArrowRight"":10,""ArrowDown,ArrowLeft"":8,""ArrowDown,ArrowRight"":30}","true","ArrowDown,ArrowRight","false","original","1","20","","",""
"html-keyboard-response","140","860613","0.0-4.0-2.0-1.10","spark_pilot_norest","8211","7","22","Male","","","","","","","null","<div style=""font-size:60px;"">+</div>","null","fixation","","","","","","","","","21","","",""
"revaluation","141","866620","0.0-4.0-2.0-0.11","spark_pilot_norest","8211","7","22","Male","","false","","","","","[1119,341.30000001192093]","./assets/img/canyon/memory/35.jpg","[""ArrowDown"",""ArrowRight""]","value training","canyon","30","{""ArrowUp,ArrowLeft"":23,""ArrowUp,ArrowRight"":10,""ArrowDown,ArrowLeft"":8,""ArrowDown,ArrowRight"":30}","true","ArrowDown,ArrowRight","false","original","1","22","","",""
"html-keyboard-response","142","867121","0.0-4.0-2.0-1.11","spark_pilot_norest","8211","7","22","Male","","","","","","","null","<div style=""font-size:60px;"">+</div>","null","fixation","","","","","","","","","23","","",""
"revaluation","143","873127","0.0-4.0-2.0-0.12","spark_pilot_norest","8211","7","22","Male","","false","","","","","[770.9000000357628,319.4000000357628]","./assets/img/canyon/memory/32.jpg","[""ArrowDown"",""ArrowRight""]","value training","canyon","30","{""ArrowUp,ArrowLeft"":23,""ArrowUp,ArrowRight"":10,""ArrowDown,ArrowLeft"":8,""ArrowDown,ArrowRight"":30}","true","ArrowDown,ArrowRight","false","original","1","24","","",""
"html-keyboard-response","144","873628","0.0-4.0-2.0-1.12","spark_pilot_norest","8211","7","22","Male","","","","","","","null","<div style=""font-size:60px;"">+</div>","null","fixation","","","","","","","","","25","","",""
"revaluation","145","879635","0.0-4.0-2.0-0.13","spark_pilot_norest","8211","7","22","Male","","false","","","","","[713.6999999880791,273.10000002384186]","./assets/img/canyon/memory/9.jpg","[""ArrowDown"",""ArrowRight""]","value training","canyon","30","{""ArrowUp,ArrowLeft"":23,""ArrowUp,ArrowRight"":10,""ArrowDown,ArrowLeft"":8,""ArrowDown,ArrowRight"":30}","true","ArrowDown,ArrowRight","false","original","1","26","","",""
"html-keyboard-response","146","880137","0.0-4.0-2.0-1.13","spark_pilot_norest","8211","7","22","Male","","","","","","","null","<div style=""font-size:60px;"">+</div>","null","fixation","","","","","","","","","27","","",""
"revaluation","147","884141","0.0-4.0-2.0-0.14","spark_pilot_norest","8211","7","22","Male","","false","","","","","[553.2999999523163]","./assets/img/canyon/catch/0.jpg","[""spaceBar""]","value training","canyon","0","{""ArrowUp,ArrowLeft"":23,""ArrowUp,ArrowRight"":10,""ArrowDown,ArrowLeft"":8,""ArrowDown,ArrowRight"":30}","true","spaceBar","true","original","1","28","","",""
"html-keyboard-response","148","884642","0.0-4.0-2.0-1.14","spark_pilot_norest","8211","7","22","Male","","","","","","","null","<div style=""font-size:60px;"">+</div>","null","fixation","","","","","","","","","29","","",""
"revaluation","149","888646","0.0-4.0-2.0-0.15","spark_pilot_norest","8211","7","22","Male","","false","","","","","[601.4000000357628]","./assets/img/canyon/catch/3.jpg","[""spaceBar""]","value training","canyon","0","{""ArrowUp,ArrowLeft"":23,""ArrowUp,ArrowRight"":10,""ArrowDown,ArrowLeft"":8,""ArrowDown,ArrowRight"":30}","true","spaceBar","true","original","1","30","","",""
"html-keyboard-response","150","889147","0.0-4.0-2.0-1.15","spark_pilot_norest","8211","7","22","Male","","","","","","","null","<div style=""font-size:60px;"">+</div>","null","fixation","","","","","","","","","31","","",""
"revaluation","151","895153","0.0-4.0-2.0-0.16","spark_pilot_norest","8211","7","22","Male","","false","","","","","[625.7999999523163,349.10000002384186]","./assets/img/canyon/memory/36.jpg","[""ArrowDown"",""ArrowRight""]","value training","canyon","30","{""ArrowUp,ArrowLeft"":23,""ArrowUp,ArrowRight"":10,""ArrowDown,ArrowLeft"":8,""ArrowDown,ArrowRight"":30}","true","ArrowDown,ArrowRight","false","original","1","32","","",""
"html-keyboard-response","152","895655","0.0-4.0-2.0-1.16","spark_pilot_norest","8211","7","22","Male","","","","","","","null","<div style=""font-size:60px;"">+</div>","null","fixation","","","","","","","","","33","","",""
"revaluation","153","901660","0.0-4.0-2.0-0.17","spark_pilot_norest","8211","7","22","Male","","false","","","","","[847.7000000476837,292.39999997615814]","./assets/img/canyon/memory/17.jpg","[""ArrowDown"",""ArrowRight""]","value training","canyon","30","{""ArrowUp,ArrowLeft"":23,""ArrowUp,ArrowRight"":10,""ArrowDown,ArrowLeft"":8,""ArrowDown,ArrowRight"":30}","true","ArrowDown,ArrowRight","false","original","1","34","","",""
"html-keyboard-response","154","902162","0.0-4.0-2.0-1.17","spark_pilot_norest","8211","7","22","Male","","","","","","","null","<div style=""font-size:60px;"">+</div>","null","fixation","","","","","","","","","35","","",""
"revaluation","155","906167","0.0-4.0-2.0-0.18","spark_pilot_norest","8211","7","22","Male","","false","","","","","[488.2999999523163]","./assets/img/canyon/catch/5.jpg","[""spaceBar""]","value training","canyon","0","{""ArrowUp,ArrowLeft"":23,""ArrowUp,ArrowRight"":10,""ArrowDown,ArrowLeft"":8,""ArrowDown,ArrowRight"":30}","true","spaceBar","true","original","1","36","","",""
"html-keyboard-response","156","906668","0.0-4.0-2.0-1.18","spark_pilot_norest","8211","7","22","Male","","","","","","","null","<div style=""font-size:60px;"">+</div>","null","fixation","","","","","","","","","37","","",""
"revaluation","157","912673","0.0-4.0-2.0-0.19","spark_pilot_norest","8211","7","22","Male","","false","","","","","[620.6999999880791,269.39999997615814]","./assets/img/canyon/memory/12.jpg","[""ArrowDown"",""ArrowRight""]","value training","canyon","30","{""ArrowUp,ArrowLeft"":23,""ArrowUp,ArrowRight"":10,""ArrowDown,ArrowLeft"":8,""ArrowDown,ArrowRight"":30}","true","ArrowDown,ArrowRight","false","original","1","38","","",""
"html-keyboard-response","158","913175","0.0-4.0-2.0-1.19","spark_pilot_norest","8211","7","22","Male","","","","","","","null","<div style=""font-size:60px;"">+</div>","null","fixation","","","","","","","","","39","","",""
"revaluation","159","919194","0.0-4.0-2.0-0.20","spark_pilot_norest","8211","7","22","Male","","false","","","","","[583.6000000238419,297.10000002384186]","./assets/img/canyon/memory/8.jpg","[""ArrowDown"",""ArrowRight""]","value training","canyon","30","{""ArrowUp,ArrowLeft"":23,""ArrowUp,ArrowRight"":10,""ArrowDown,ArrowLeft"":8,""ArrowDown,ArrowRight"":30}","true","ArrowDown,ArrowRight","false","original","1","40","","",""
"html-keyboard-response","160","919695","0.0-4.0-2.0-1.20","spark_pilot_norest","8211","7","22","Male","","","","","","","null","<div style=""font-size:60px;"">+</div>","null","fixation","","","","","","","","","41","","",""
"revaluation","161","925699","0.0-4.0-2.0-0.21","spark_pilot_norest","8211","7","22","Male","","false","","","","","[587.5999999642372,577.8000000119209]","./assets/img/canyon/memory/2.jpg","[""ArrowDown"",""ArrowRight""]","value training","canyon","30","{""ArrowUp,ArrowLeft"":23,""ArrowUp,ArrowRight"":10,""ArrowDown,ArrowLeft"":8,""ArrowDown,ArrowRight"":30}","true","ArrowDown,ArrowRight","false","original","1","42","","",""
"html-keyboard-response","162","926200","0.0-4.0-2.0-1.21","spark_pilot_norest","8211","7","22","Male","","","","","","","null","<div style=""font-size:60px;"">+</div>","null","fixation","","","","","","","","","43","","",""
"revaluation","163","932205","0.0-4.0-2.0-0.22","spark_pilot_norest","8211","7","22","Male","","false","","","","","[438.80000001192093,273.5999999642372]","./assets/img/canyon/memory/13.jpg","[""ArrowDown"",""ArrowRight""]","value training","canyon","30","{""ArrowUp,ArrowLeft"":23,""ArrowUp,ArrowRight"":10,""ArrowDown,ArrowLeft"":8,""ArrowDown,ArrowRight"":30}","true","ArrowDown,ArrowRight","false","original","1","44","","",""
"html-keyboard-response","164","932706","0.0-4.0-2.0-1.22","spark_pilot_norest","8211","7","22","Male","","","","","","","null","<div style=""font-size:60px;"">+</div>","null","fixation","","","","","","","","","45","","",""
"revaluation","165","938712","0.0-4.0-2.0-0.23","spark_pilot_norest","8211","7","22","Male","","false","","","","","[863.5,279.60000002384186]","./assets/img/canyon/memory/0.jpg","[""ArrowDown"",""ArrowRight""]","value training","canyon","30","{""ArrowUp,ArrowLeft"":23,""ArrowUp,ArrowRight"":10,""ArrowDown,ArrowLeft"":8,""ArrowDown,ArrowRight"":30}","true","ArrowDown,ArrowRight","false","original","1","46","","",""
"html-keyboard-response","166","939213","0.0-4.0-2.0-1.23","spark_pilot_norest","8211","7","22","Male","","","","","","","null","<div style=""font-size:60px;"">+</div>","null","fixation","","","","","","","","","47","","",""
"revaluation","167","945226","0.0-4.0-2.0-0.24","spark_pilot_norest","8211","7","22","Male","","false","","","","","[811.8000000119209,237.30000001192093]","./assets/img/canyon/memory/35.jpg","[""ArrowDown"",""ArrowRight""]","value training","canyon","30","{""ArrowUp,ArrowLeft"":23,""ArrowUp,ArrowRight"":10,""ArrowDown,ArrowLeft"":8,""ArrowDown,ArrowRight"":30}","true","ArrowDown,ArrowRight","false","original","1","48","","",""
"html-keyboard-response","168","945727","0.0-4.0-2.0-1.24","spark_pilot_norest","8211","7","22","Male","","","","","","","null","<div style=""font-size:60px;"">+</div>","null","fixation","","","","","","","","","49","","",""
"revaluation","169","951733","0.0-4.0-2.0-0.25","spark_pilot_norest","8211","7","22","Male","","false","","","","","[643.8000000119209,301.30000001192093]","./assets/img/canyon/memory/9.jpg","[""ArrowDown"",""ArrowRight""]","value training","canyon","30","{""ArrowUp,ArrowLeft"":23,""ArrowUp,ArrowRight"":10,""ArrowDown,ArrowLeft"":8,""ArrowDown,ArrowRight"":30}","true","ArrowDown,ArrowRight","false","original","1","50","","",""
"html-keyboard-response","170","952235","0.0-4.0-2.0-1.25","spark_pilot_norest","8211","7","22","Male","","","","","","","null","<div style=""font-size:60px;"">+</div>","null","fixation","","","","","","","","","51","","",""
"revaluation","171","958240","0.0-4.0-2.0-0.26","spark_pilot_norest","8211","7","22","Male","","false","","","","","[584.2999999523163,234.0999999642372]","./assets/img/canyon/memory/16.jpg","[""ArrowDown"",""ArrowRight""]","value training","canyon","30","{""ArrowUp,ArrowLeft"":23,""ArrowUp,ArrowRight"":10,""ArrowDown,ArrowLeft"":8,""ArrowDown,ArrowRight"":30}","true","ArrowDown,ArrowRight","false","original","1","52","","",""
"html-keyboard-response","172","958741","0.0-4.0-2.0-1.26","spark_pilot_norest","8211","7","22","Male","","","","","","","null","<div style=""font-size:60px;"">+</div>","null","fixation","","","","","","","","","53","","",""
"revaluation","173","962750","0.0-4.0-2.0-0.27","spark_pilot_norest","8211","7","22","Male","","false","","","","","[582.1000000238419]","./assets/img/canyon/catch/6.jpg","[""spaceBar""]","value training","canyon","0","{""ArrowUp,ArrowLeft"":23,""ArrowUp,ArrowRight"":10,""ArrowDown,ArrowLeft"":8,""ArrowDown,ArrowRight"":30}","true","spaceBar","true","original","1","54","","",""
"html-keyboard-response","174","963251","0.0-4.0-2.0-1.27","spark_pilot_norest","8211","7","22","Male","","","","","","","null","<div style=""font-size:60px;"">+</div>","null","fixation","","","","","","","","","55","","",""
"revaluation","175","969258","0.0-4.0-2.0-0.28","spark_pilot_norest","8211","7","22","Male","","false","","","","","[354.39999997615814,266.19999998807907]","./assets/img/canyon/memory/3.jpg","[""ArrowDown"",""ArrowRight""]","value training","canyon","30","{""ArrowUp,ArrowLeft"":23,""ArrowUp,ArrowRight"":10,""ArrowDown,ArrowLeft"":8,""ArrowDown,ArrowRight"":30}","true","ArrowDown,ArrowRight","false","original","1","56","","",""
"html-keyboard-response","176","969761","0.0-4.0-2.0-1.28","spark_pilot_norest","8211","7","22","Male","","","","","","","null","<div style=""font-size:60px;"">+</div>","null","fixation","","","","","","","","","57","","",""
"revaluation","177","975765","0.0-4.0-2.0-0.29","spark_pilot_norest","8211","7","22","Male","","false","","","","","[408.89999997615814,259.5]","./assets/img/canyon/memory/38.jpg","[""ArrowDown"",""ArrowRight""]","value training","canyon","30","{""ArrowUp,ArrowLeft"":23,""ArrowUp,ArrowRight"":10,""ArrowDown,ArrowLeft"":8,""ArrowDown,ArrowRight"":30}","true","ArrowDown,ArrowRight","false","original","1","58","","",""
"html-keyboard-response","178","976266","0.0-4.0-2.0-1.29","spark_pilot_norest","8211","7","22","Male","","","","","","","null","<div style=""font-size:60px;"">+</div>","null","fixation","","","","","","","","","59","","",""
"revaluation","179","982271","0.0-4.0-2.0-0.30","spark_pilot_norest","8211","7","22","Male","","false","","","","","[480.10000002384186,277.69999998807907]","./assets/img/canyon/memory/1.jpg","[""ArrowDown"",""ArrowRight""]","value training","canyon","30","{""ArrowUp,ArrowLeft"":23,""ArrowUp,ArrowRight"":10,""ArrowDown,ArrowLeft"":8,""ArrowDown,ArrowRight"":30}","true","ArrowDown,ArrowRight","false","original","1","60","","",""
"html-keyboard-response","180","982772","0.0-4.0-2.0-1.30","spark_pilot_norest","8211","7","22","Male","","","","","","","null","<div style=""font-size:60px;"">+</div>","null","fixation","","","","","","","","","61","","",""
"revaluation","181","988778","0.0-4.0-2.0-0.31","spark_pilot_norest","8211","7","22","Male","","false","","","","","[400.80000001192093,286.10000002384186]","./assets/img/canyon/memory/32.jpg","[""ArrowDown"",""ArrowRight""]","value training","canyon","30","{""ArrowUp,ArrowLeft"":23,""ArrowUp,ArrowRight"":10,""ArrowDown,ArrowLeft"":8,""ArrowDown,ArrowRight"":30}","true","ArrowDown,ArrowRight","false","original","1","62","","",""
"html-keyboard-response","182","989279","0.0-4.0-2.0-1.31","spark_pilot_norest","8211","7","22","Male","","","","","","","null","<div style=""font-size:60px;"">+</div>","null","fixation","","","","","","","","","63","","",""
"revaluation","183","993289","0.0-4.0-2.0-0.32","spark_pilot_norest","8211","7","22","Male","","false","","","","","[382.9000000357628]","./assets/img/canyon/catch/2.jpg","[""ArrowDown""]","value training","canyon","-10","{""ArrowUp,ArrowLeft"":23,""ArrowUp,ArrowRight"":10,""ArrowDown,ArrowLeft"":8,""ArrowDown,ArrowRight"":30}","false","ArrowDown","true","original","1","64","","",""
"html-keyboard-response","184","993791","0.0-4.0-2.0-1.32","spark_pilot_norest","8211","7","22","Male","","","","","","","null","<div style=""font-size:60px;"">+</div>","null","fixation","","","","","","","","","65","","",""
"revaluation","185","999806","0.0-4.0-2.0-0.33","spark_pilot_norest","8211","7","22","Male","","false","","","","","[401.39999997615814,279.30000001192093]","./assets/img/canyon/memory/31.jpg","[""ArrowDown"",""ArrowRight""]","value training","canyon","30","{""ArrowUp,ArrowLeft"":23,""ArrowUp,ArrowRight"":10,""ArrowDown,ArrowLeft"":8,""ArrowDown,ArrowRight"":30}","true","ArrowDown,ArrowRight","false","original","1","66","","",""
"html-keyboard-response","186","1000307","0.0-4.0-2.0-1.33","spark_pilot_norest","8211","7","22","Male","","","","","","","null","<div style=""font-size:60px;"">+</div>","null","fixation","","","","","","","","","67","","",""
"revaluation","187","1006312","0.0-4.0-2.0-0.34","spark_pilot_norest","8211","7","22","Male","","false","","","","","[457.19999998807907,293.10000002384186]","./assets/img/canyon/memory/8.jpg","[""ArrowDown"",""ArrowRight""]","value training","canyon","30","{""ArrowUp,ArrowLeft"":23,""ArrowUp,ArrowRight"":10,""ArrowDown,ArrowLeft"":8,""ArrowDown,ArrowRight"":30}","true","ArrowDown,ArrowRight","false","original","1","68","","",""
"html-keyboard-response","188","1006813","0.0-4.0-2.0-1.34","spark_pilot_norest","8211","7","22","Male","","","","","","","null","<div style=""font-size:60px;"">+</div>","null","fixation","","","","","","","","","69","","",""
"revaluation","189","1012818","0.0-4.0-2.0-0.35","spark_pilot_norest","8211","7","22","Male","","false","","","","","[506.0999999642372,280]","./assets/img/canyon/memory/38.jpg","[""ArrowDown"",""ArrowRight""]","value training","canyon","30","{""ArrowUp,ArrowLeft"":23,""ArrowUp,ArrowRight"":10,""ArrowDown,ArrowLeft"":8,""ArrowDown,ArrowRight"":30}","true","ArrowDown,ArrowRight","false","original","1","70","","",""
"html-keyboard-response","190","1013320","0.0-4.0-2.0-1.35","spark_pilot_norest","8211","7","22","Male","","","","","","","null","<div style=""font-size:60px;"">+</div>","null","fixation","","","","","","","","","71","","",""
"revaluation","191","1019326","0.0-4.0-2.0-0.36","spark_pilot_norest","8211","7","22","Male","","false","","","","","[581.8000000119209,267.19999998807907]","./assets/img/canyon/memory/3.jpg","[""ArrowDown"",""ArrowRight""]","value training","canyon","30","{""ArrowUp,ArrowLeft"":23,""ArrowUp,ArrowRight"":10,""ArrowDown,ArrowLeft"":8,""ArrowDown,ArrowRight"":30}","true","ArrowDown,ArrowRight","false","original","1","72","","",""
"html-keyboard-response","192","1019828","0.0-4.0-2.0-1.36","spark_pilot_norest","8211","7","22","Male","","","","","","","null","<div style=""font-size:60px;"">+</div>","null","fixation","","","","","","","","","73","","",""
"revaluation","193","1025832","0.0-4.0-2.0-0.37","spark_pilot_norest","8211","7","22","Male","","false","","","","","[632.8000000119209,254]","./assets/img/canyon/memory/2.jpg","[""ArrowDown"",""ArrowRight""]","value training","canyon","30","{""ArrowUp,ArrowLeft"":23,""ArrowUp,ArrowRight"":10,""ArrowDown,ArrowLeft"":8,""ArrowDown,ArrowRight"":30}","true","ArrowDown,ArrowRight","false","original","1","74","","",""
"html-keyboard-response","194","1026333","0.0-4.0-2.0-1.37","spark_pilot_norest","8211","7","22","Male","","","","","","","null","<div style=""font-size:60px;"">+</div>","null","fixation","","","","","","","","","75","","",""
"revaluation","195","1030338","0.0-4.0-2.0-0.38","spark_pilot_norest","8211","7","22","Male","","false","","","","","[562.8000000119209]","./assets/img/canyon/catch/1.jpg","[""spaceBar""]","value training","canyon","0","{""ArrowUp,ArrowLeft"":23,""ArrowUp,ArrowRight"":10,""ArrowDown,ArrowLeft"":8,""ArrowDown,ArrowRight"":30}","true","spaceBar","true","original","1","76","","",""
"html-keyboard-response","196","1030840","0.0-4.0-2.0-1.38","spark_pilot_norest","8211","7","22","Male","","","","","","","null","<div style=""font-size:60px;"">+</div>","null","fixation","","","","","","","","","77","","",""
"revaluation","197","1036846","0.0-4.0-2.0-0.39","spark_pilot_norest","8211","7","22","Male","","false","","","","","[731.0999999642372,287.9000000357628]","./assets/img/canyon/memory/15.jpg","[""ArrowDown"",""ArrowRight""]","value training","canyon","30","{""ArrowUp,ArrowLeft"":23,""ArrowUp,ArrowRight"":10,""ArrowDown,ArrowLeft"":8,""ArrowDown,ArrowRight"":30}","true","ArrowDown,ArrowRight","false","original","1","78","","",""
"html-keyboard-response","198","1037349","0.0-4.0-2.0-1.39","spark_pilot_norest","8211","7","22","Male","","","","","","","null","<div style=""font-size:60px;"">+</div>","null","fixation","","","","","","","","","79","","",""
"revaluation","199","1043360","0.0-4.0-2.0-0.40","spark_pilot_norest","8211","7","22","Male","","false","","","","","[592.5,259.89999997615814]","./assets/img/canyon/memory/13.jpg","[""ArrowDown"",""ArrowRight""]","value training","canyon","30","{""ArrowUp,ArrowLeft"":23,""ArrowUp,ArrowRight"":10,""ArrowDown,ArrowLeft"":8,""ArrowDown,ArrowRight"":30}","true","ArrowDown,ArrowRight","false","original","1","80","","",""
"html-keyboard-response","200","1043861","0.0-4.0-2.0-1.40","spark_pilot_norest","8211","7","22","Male","","","","","","","null","<div style=""font-size:60px;"">+</div>","null","fixation","","","","","","","","","81","","",""
"revaluation","201","1049867","0.0-4.0-2.0-0.41","spark_pilot_norest","8211","7","22","Male","","false","","","","","[619.3999999761581,223.10000002384186]","./assets/img/canyon/memory/16.jpg","[""ArrowDown"",""ArrowRight""]","value training","canyon","30","{""ArrowUp,ArrowLeft"":23,""ArrowUp,ArrowRight"":10,""ArrowDown,ArrowLeft"":8,""ArrowDown,ArrowRight"":30}","true","ArrowDown,ArrowRight","false","original","1","82","","",""
"html-keyboard-response","202","1050368","0.0-4.0-2.0-1.41","spark_pilot_norest","8211","7","22","Male","","","","","","","null","<div style=""font-size:60px;"">+</div>","null","fixation","","","","","","","","","83","","",""
"revaluation","203","1056374","0.0-4.0-2.0-0.42","spark_pilot_norest","8211","7","22","Male","","false","","","","","[653.1999999880791,238.60000002384186]","./assets/img/canyon/memory/20.jpg","[""ArrowDown"",""ArrowRight""]","value training","canyon","30","{""ArrowUp,ArrowLeft"":23,""ArrowUp,ArrowRight"":10,""ArrowDown,ArrowLeft"":8,""ArrowDown,ArrowRight"":30}","true","ArrowDown,ArrowRight","false","original","1","84","","",""
"html-keyboard-response","204","1056876","0.0-4.0-2.0-1.42","spark_pilot_norest","8211","7","22","Male","","","","","","","null","<div style=""font-size:60px;"">+</div>","null","fixation","","","","","","","","","85","","",""
"revaluation","205","1062883","0.0-4.0-2.0-0.43","spark_pilot_norest","8211","7","22","Male","","false","","","","","[460.80000001192093,232.19999998807907]","./assets/img/canyon/memory/4.jpg","[""ArrowDown"",""ArrowRight""]","value training","canyon","30","{""ArrowUp,ArrowLeft"":23,""ArrowUp,ArrowRight"":10,""ArrowDown,ArrowLeft"":8,""ArrowDown,ArrowRight"":30}","true","ArrowDown,ArrowRight","false","original","1","86","","",""
"html-keyboard-response","206","1063384","0.0-4.0-2.0-1.43","spark_pilot_norest","8211","7","22","Male","","","","","","","null","<div style=""font-size:60px;"">+</div>","null","fixation","","","","","","","","","87","","",""
"revaluation","207","1069389","0.0-4.0-2.0-0.44","spark_pilot_norest","8211","7","22","Male","","false","","","","","[858.6999999880791,246.30000001192093]","./assets/img/canyon/memory/39.jpg","[""ArrowDown"",""ArrowRight""]","value training","canyon","30","{""ArrowUp,ArrowLeft"":23,""ArrowUp,ArrowRight"":10,""ArrowDown,ArrowLeft"":8,""ArrowDown,ArrowRight"":30}","true","ArrowDown,ArrowRight","false","original","1","88","","",""
"html-keyboard-response","208","1069891","0.0-4.0-2.0-1.44","spark_pilot_norest","8211","7","22","Male","","","","","","","null","<div style=""font-size:60px;"">+</div>","null","fixation","","","","","","","","","89","","",""
"revaluation","209","1075897","0.0-4.0-2.0-0.45","spark_pilot_norest","8211","7","22","Male","","false","","","","","[566.8999999761581,225.89999997615814]","./assets/img/canyon/memory/39.jpg","[""ArrowDown"",""ArrowRight""]","value training","canyon","30","{""ArrowUp,ArrowLeft"":23,""ArrowUp,ArrowRight"":10,""ArrowDown,ArrowLeft"":8,""ArrowDown,ArrowRight"":30}","true","ArrowDown,ArrowRight","false","original","1","90","","",""
"html-keyboard-response","210","1076399","0.0-4.0-2.0-1.45","spark_pilot_norest","8211","7","22","Male","","","","","","","null","<div style=""font-size:60px;"">+</div>","null","fixation","","","","","","","","","91","","",""
"revaluation","211","1082405","0.0-4.0-2.0-0.46","spark_pilot_norest","8211","7","22","Male","","false","","","","","[391.39999997615814,534.8999999761581]","./assets/img/canyon/memory/31.jpg","[""ArrowDown"",""ArrowRight""]","value training","canyon","30","{""ArrowUp,ArrowLeft"":23,""ArrowUp,ArrowRight"":10,""ArrowDown,ArrowLeft"":8,""ArrowDown,ArrowRight"":30}","true","ArrowDown,ArrowRight","false","original","1","92","","",""
"html-keyboard-response","212","1082906","0.0-4.0-2.0-1.46","spark_pilot_norest","8211","7","22","Male","","","","","","","null","<div style=""font-size:60px;"">+</div>","null","fixation","","","","","","","","","93","","",""
"revaluation","213","1088911","0.0-4.0-2.0-0.47","spark_pilot_norest","8211","7","22","Male","","false","","","","","[383.80000001192093,246.0999999642372]","./assets/img/canyon/memory/15.jpg","[""ArrowDown"",""ArrowRight""]","value training","canyon","30","{""ArrowUp,ArrowLeft"":23,""ArrowUp,ArrowRight"":10,""ArrowDown,ArrowLeft"":8,""ArrowDown,ArrowRight"":30}","true","ArrowDown,ArrowRight","false","original","1","94","","",""
"html-keyboard-response","214","1089413","0.0-4.0-2.0-1.47","spark_pilot_norest","8211","7","22","Male","","","","","","","null","<div style=""font-size:60px;"">+</div>","null","fixation","","","","","","","","","95","","",""
"revaluation","215","1095418","0.0-4.0-2.0-0.48","spark_pilot_norest","8211","7","22","Male","","false","","","","","[532.8000000119209,255.69999998807907]","./assets/img/canyon/memory/17.jpg","[""ArrowDown"",""ArrowRight""]","value training","canyon","30","{""ArrowUp,ArrowLeft"":23,""ArrowUp,ArrowRight"":10,""ArrowDown,ArrowLeft"":8,""ArrowDown,ArrowRight"":30}","true","ArrowDown,ArrowRight","false","original","1","96","","",""
"html-keyboard-response","216","1095919","0.0-4.0-2.0-1.48","spark_pilot_norest","8211","7","22","Male","","","","","","","null","<div style=""font-size:60px;"">+</div>","null","fixation","","","","","","","","","97","","",""
"revaluation","217","1101925","0.0-4.0-2.0-0.49","spark_pilot_norest","8211","7","22","Male","","false","","","","","[545.1000000238419,278.9000000357628]","./assets/img/canyon/memory/1.jpg","[""ArrowDown"",""ArrowRight""]","value training","canyon","30","{""ArrowUp,ArrowLeft"":23,""ArrowUp,ArrowRight"":10,""ArrowDown,ArrowLeft"":8,""ArrowDown,ArrowRight"":30}","true","ArrowDown,ArrowRight","false","original","1","98","","",""
"html-keyboard-response","218","1102427","0.0-4.0-2.0-1.49","spark_pilot_norest","8211","7","22","Male","","","","","","","null","<div style=""font-size:60px;"">+</div>","null","fixation","","","","","","","","","99","","",""
"learning-instructions","219","1117724","0.0-4.0-3.0-0.0","spark_pilot_norest","8211","7","22","Male","","","","","","","1445.6000000238419","<p> Now, you will travel with a friend who will choose whether you go up or down first. </p>
            <p> On these turns, you will just see the animal that they found. You will still get to choose which chest to search for treasure.</p>","","instructions","","","","","","","","","","","",""
"revaluation","220","1121734","0.0-4.0-4.0-0.0","spark_pilot_norest","8211","7","22","Male","","false","","","","","[572.1999999880791]","./assets/img/canyon/animals/lion.jpg","[""ArrowRight""]","revaluation","canyon","30","{""ArrowUp,ArrowLeft"":23,""ArrowUp,ArrowRight"":10,""ArrowDown,ArrowLeft"":8,""ArrowDown,ArrowRight"":30}","true","ArrowDown,ArrowRight","","original","1","0","","",""
"html-keyboard-response","221","1122242","0.0-4.0-4.0-1.0","spark_pilot_norest","8211","7","22","Male","","","","","","","null","<div style=""font-size:60px;"">+</div>","null","fixation","","","","","","","","","1","","",""
"revaluation","222","1126256","0.0-4.0-4.0-0.1","spark_pilot_norest","8211","7","22","Male","","false","","","","","[511.10000002384186]","./assets/img/canyon/animals/lion.jpg","[""ArrowRight""]","revaluation","canyon","30","{""ArrowUp,ArrowLeft"":23,""ArrowUp,ArrowRight"":10,""ArrowDown,ArrowLeft"":8,""ArrowDown,ArrowRight"":30}","true","ArrowDown,ArrowRight","","original","1","2","","",""
"html-keyboard-response","223","1126766","0.0-4.0-4.0-1.1","spark_pilot_norest","8211","7","22","Male","","","","","","","null","<div style=""font-size:60px;"">+</div>","null","fixation","","","","","","","","","3","","",""
"revaluation","224","1130778","0.0-4.0-4.0-0.2","spark_pilot_norest","8211","7","22","Male","","false","","","","","[584.6999999880791]","./assets/img/canyon/animals/giraffe.jpg","[""ArrowLeft""]","revaluation","canyon","23","{""ArrowUp,ArrowLeft"":23,""ArrowUp,ArrowRight"":10,""ArrowDown,ArrowLeft"":8,""ArrowDown,ArrowRight"":30}","true","ArrowUp,ArrowLeft","","original","1","4","","",""
"html-keyboard-response","225","1131288","0.0-4.0-4.0-1.2","spark_pilot_norest","8211","7","22","Male","","","","","","","null","<div style=""font-size:60px;"">+</div>","null","fixation","","","","","","","","","5","","",""
"revaluation","226","1135306","0.0-4.0-4.0-0.3","spark_pilot_norest","8211","7","22","Male","","false","","","","","[569.3999999761581]","./assets/img/canyon/animals/giraffe.jpg","[""ArrowLeft""]","revaluation","canyon","23","{""ArrowUp,ArrowLeft"":23,""ArrowUp,ArrowRight"":10,""ArrowDown,ArrowLeft"":8,""ArrowDown,ArrowRight"":30}","true","ArrowUp,ArrowLeft","","original","1","6","","",""
"html-keyboard-response","227","1135814","0.0-4.0-4.0-1.3","spark_pilot_norest","8211","7","22","Male","","","","","","","null","<div style=""font-size:60px;"">+</div>","null","fixation","","","","","","","","","7","","",""
"revaluation","228","1139832","0.0-4.0-4.0-0.4","spark_pilot_norest","8211","7","22","Male","","false","","","","","[456.80000001192093]","./assets/img/canyon/animals/giraffe.jpg","[""ArrowLeft""]","revaluation","canyon","23","{""ArrowUp,ArrowLeft"":23,""ArrowUp,ArrowRight"":10,""ArrowDown,ArrowLeft"":8,""ArrowDown,ArrowRight"":30}","true","ArrowUp,ArrowLeft","","original","1","8","","",""
"html-keyboard-response","229","1140338","0.0-4.0-4.0-1.4","spark_pilot_norest","8211","7","22","Male","","","","","","","null","<div style=""font-size:60px;"">+</div>","null","fixation","","","","","","","","","9","","",""
"revaluation","230","1144352","0.0-4.0-4.0-0.5","spark_pilot_norest","8211","7","22","Male","","false","","","","","[440.80000001192093]","./assets/img/canyon/animals/lion.jpg","[""ArrowRight""]","revaluation","canyon","30","{""ArrowUp,ArrowLeft"":23,""ArrowUp,ArrowRight"":10,""ArrowDown,ArrowLeft"":8,""ArrowDown,ArrowRight"":30}","true","ArrowDown,ArrowRight","","original","1","10","","",""
"html-keyboard-response","231","1144866","0.0-4.0-4.0-1.5","spark_pilot_norest","8211","7","22","Male","","","","","","","null","<div style=""font-size:60px;"">+</div>","null","fixation","","","","","","","","","11","","",""
"revaluation","232","1148869","0.0-4.0-4.0-0.6","spark_pilot_norest","8211","7","22","Male","","false","","","","","[358.69999998807907]","./assets/img/canyon/animals/lion.jpg","[""ArrowRight""]","revaluation","canyon","30","{""ArrowUp,ArrowLeft"":23,""ArrowUp,ArrowRight"":10,""ArrowDown,ArrowLeft"":8,""ArrowDown,ArrowRight"":30}","true","ArrowDown,ArrowRight","","original","1","12","","",""
"html-keyboard-response","233","1149371","0.0-4.0-4.0-1.6","spark_pilot_norest","8211","7","22","Male","","","","","","","null","<div style=""font-size:60px;"">+</div>","null","fixation","","","","","","","","","13","","",""
"revaluation","234","1153376","0.0-4.0-4.0-0.7","spark_pilot_norest","8211","7","22","Male","","false","","","","","[358]","./assets/img/canyon/animals/lion.jpg","[""ArrowRight""]","revaluation","canyon","30","{""ArrowUp,ArrowLeft"":23,""ArrowUp,ArrowRight"":10,""ArrowDown,ArrowLeft"":8,""ArrowDown,ArrowRight"":30}","true","ArrowDown,ArrowRight","","original","1","14","","",""
"html-keyboard-response","235","1153877","0.0-4.0-4.0-1.7","spark_pilot_norest","8211","7","22","Male","","","","","","","null","<div style=""font-size:60px;"">+</div>","null","fixation","","","","","","","","","15","","",""
"revaluation","236","1157882","0.0-4.0-4.0-0.8","spark_pilot_norest","8211","7","22","Male","","false","","","","","[304.69999998807907]","./assets/img/canyon/animals/lion.jpg","[""ArrowRight""]","revaluation","canyon","30","{""ArrowUp,ArrowLeft"":23,""ArrowUp,ArrowRight"":10,""ArrowDown,ArrowLeft"":8,""ArrowDown,ArrowRight"":30}","true","ArrowDown,ArrowRight","","original","1","16","","",""
"html-keyboard-response","237","1158383","0.0-4.0-4.0-1.8","spark_pilot_norest","8211","7","22","Male","","","","","","","null","<div style=""font-size:60px;"">+</div>","null","fixation","","","","","","","","","17","","",""
"revaluation","238","1162388","0.0-4.0-4.0-0.9","spark_pilot_norest","8211","7","22","Male","","false","","","","","[559.3999999761581]","./assets/img/canyon/animals/giraffe.jpg","[""ArrowLeft""]","revaluation","canyon","23","{""ArrowUp,ArrowLeft"":23,""ArrowUp,ArrowRight"":10,""ArrowDown,ArrowLeft"":8,""ArrowDown,ArrowRight"":30}","true","ArrowUp,ArrowLeft","","original","1","18","","",""
"html-keyboard-response","239","1162890","0.0-4.0-4.0-1.9","spark_pilot_norest","8211","7","22","Male","","","","","","","null","<div style=""font-size:60px;"">+</div>","null","fixation","","","","","","","","","19","","",""
"revaluation","240","1166896","0.0-4.0-4.0-0.10","spark_pilot_norest","8211","7","22","Male","","false","","","","","[464.5]","./assets/img/canyon/animals/lion.jpg","[""ArrowRight""]","revaluation","canyon","30","{""ArrowUp,ArrowLeft"":23,""ArrowUp,ArrowRight"":10,""ArrowDown,ArrowLeft"":8,""ArrowDown,ArrowRight"":30}","true","ArrowDown,ArrowRight","","original","1","20","","",""
"html-keyboard-response","241","1167397","0.0-4.0-4.0-1.10","spark_pilot_norest","8211","7","22","Male","","","","","","","null","<div style=""font-size:60px;"">+</div>","null","fixation","","","","","","","","","21","","",""
"revaluation","242","1171402","0.0-4.0-4.0-0.11","spark_pilot_norest","8211","7","22","Male","","false","","","","","[416.89999997615814]","./assets/img/canyon/animals/giraffe.jpg","[""ArrowLeft""]","revaluation","canyon","23","{""ArrowUp,ArrowLeft"":23,""ArrowUp,ArrowRight"":10,""ArrowDown,ArrowLeft"":8,""ArrowDown,ArrowRight"":30}","true","ArrowUp,ArrowLeft","","original","1","22","","",""
"html-keyboard-response","243","1171903","0.0-4.0-4.0-1.11","spark_pilot_norest","8211","7","22","Male","","","","","","","null","<div style=""font-size:60px;"">+</div>","null","fixation","","","","","","","","","23","","",""
"revaluation","244","1175907","0.0-4.0-4.0-0.12","spark_pilot_norest","8211","7","22","Male","","false","","","","","[429.89999997615814]","./assets/img/canyon/animals/lion.jpg","[""ArrowRight""]","revaluation","canyon","30","{""ArrowUp,ArrowLeft"":23,""ArrowUp,ArrowRight"":10,""ArrowDown,ArrowLeft"":8,""ArrowDown,ArrowRight"":30}","true","ArrowDown,ArrowRight","","original","1","24","","",""
"html-keyboard-response","245","1176424","0.0-4.0-4.0-1.12","spark_pilot_norest","8211","7","22","Male","","","","","","","null","<div style=""font-size:60px;"">+</div>","null","fixation","","","","","","","","","25","","",""
"revaluation","246","1180429","0.0-4.0-4.0-0.13","spark_pilot_norest","8211","7","22","Male","","false","","","","","[569.8999999761581]","./assets/img/canyon/animals/giraffe.jpg","[""ArrowLeft""]","revaluation","canyon","23","{""ArrowUp,ArrowLeft"":23,""ArrowUp,ArrowRight"":10,""ArrowDown,ArrowLeft"":8,""ArrowDown,ArrowRight"":30}","true","ArrowUp,ArrowLeft","","original","1","26","","",""
"html-keyboard-response","247","1180931","0.0-4.0-4.0-1.13","spark_pilot_norest","8211","7","22","Male","","","","","","","null","<div style=""font-size:60px;"">+</div>","null","fixation","","","","","","","","","27","","",""
"revaluation","248","1184935","0.0-4.0-4.0-0.14","spark_pilot_norest","8211","7","22","Male","","false","","","","","[330]","./assets/img/canyon/animals/lion.jpg","[""ArrowRight""]","revaluation","canyon","30","{""ArrowUp,ArrowLeft"":23,""ArrowUp,ArrowRight"":10,""ArrowDown,ArrowLeft"":8,""ArrowDown,ArrowRight"":30}","true","ArrowDown,ArrowRight","","original","1","28","","",""
"html-keyboard-response","249","1185437","0.0-4.0-4.0-1.14","spark_pilot_norest","8211","7","22","Male","","","","","","","null","<div style=""font-size:60px;"">+</div>","null","fixation","","","","","","","","","29","","",""
"revaluation","250","1189443","0.0-4.0-4.0-0.15","spark_pilot_norest","8211","7","22","Male","","false","","","","","[632.6999999880791]","./assets/img/canyon/animals/giraffe.jpg","[""ArrowLeft""]","revaluation","canyon","23","{""ArrowUp,ArrowLeft"":23,""ArrowUp,ArrowRight"":10,""ArrowDown,ArrowLeft"":8,""ArrowDown,ArrowRight"":30}","true","ArrowUp,ArrowLeft","","original","1","30","","",""
"html-keyboard-response","251","1189945","0.0-4.0-4.0-1.15","spark_pilot_norest","8211","7","22","Male","","","","","","","null","<div style=""font-size:60px;"">+</div>","null","fixation","","","","","","","","","31","","",""
"revaluation","252","1193949","0.0-4.0-4.0-0.16","spark_pilot_norest","8211","7","22","Male","","false","","","","","[512.6999999880791]","./assets/img/canyon/animals/giraffe.jpg","[""ArrowLeft""]","revaluation","canyon","23","{""ArrowUp,ArrowLeft"":23,""ArrowUp,ArrowRight"":10,""ArrowDown,ArrowLeft"":8,""ArrowDown,ArrowRight"":30}","true","ArrowUp,ArrowLeft","","original","1","32","","",""
"html-keyboard-response","253","1194451","0.0-4.0-4.0-1.16","spark_pilot_norest","8211","7","22","Male","","","","","","","null","<div style=""font-size:60px;"">+</div>","null","fixation","","","","","","","","","33","","",""
"revaluation","254","1198455","0.0-4.0-4.0-0.17","spark_pilot_norest","8211","7","22","Male","","false","","","","","[543.9000000357628]","./assets/img/canyon/animals/giraffe.jpg","[""ArrowLeft""]","revaluation","canyon","23","{""ArrowUp,ArrowLeft"":23,""ArrowUp,ArrowRight"":10,""ArrowDown,ArrowLeft"":8,""ArrowDown,ArrowRight"":30}","true","ArrowUp,ArrowLeft","","original","1","34","","",""
"html-keyboard-response","255","1198957","0.0-4.0-4.0-1.17","spark_pilot_norest","8211","7","22","Male","","","","","","","null","<div style=""font-size:60px;"">+</div>","null","fixation","","","","","","","","","35","","",""
"learning-instructions","256","1208055","0.0-4.0-5.0-0.0","spark_pilot_norest","8211","7","22","Male","","","","","","","null","<p> You have almost finished this part of the game! </p>
            <p> We are going to ask you to make a few more choices. </p>","","instructions","","","","","","","","","","","",""
"learning-instructions","257","1224030","0.0-4.0-5.0-0.1","spark_pilot_norest","8211","7","22","Male","","","","","","","null","<p> First, you need to decide whether to go up or down. When you see each picture, use the arrow keys to make your choice. </p>
            <p><b>You will not see which animal you found, but try to get to the one that will give you the most treasure.</b></p>","","instructions","","","","","","","","","","","",""
"html-keyboard-response","258","1225032","0.0-4.0-6.0-0.0","spark_pilot_norest","8211","7","22","Male","","","","","","","null","<div style=""font-size:100px;color:red;"">Starting in...</div>","null","","","","","","","","","","","","",""
"html-keyboard-response","259","1226046","0.0-4.0-6.0-1.0","spark_pilot_norest","8211","7","22","Male","","","","","","","null","<div style=""font-size:200px;color:red;"">3</div>","null","","","","","","","","","","","","",""
"html-keyboard-response","260","1227053","0.0-4.0-6.0-2.0","spark_pilot_norest","8211","7","22","Male","","","","","","","null","<div style=""font-size:200px;color:red;"">2</div>","null","","","","","","","","","","","","",""
"html-keyboard-response","261","1228054","0.0-4.0-6.0-3.0","spark_pilot_norest","8211","7","22","Male","","","","","","","null","<div style=""font-size:200px;color:red;"">1</div>","null","","","","","","","","","","","","",""
"revaluation","262","1229375","0.0-4.0-7.0-0.0","spark_pilot_norest","8211","7","22","Male","","false","","","","","[1318.4000000357628]","./assets/img/canyon/test/1.jpg","[""ArrowUp""]","first stage test","canyon","0","{""ArrowUp,ArrowLeft"":23,""ArrowUp,ArrowRight"":10,""ArrowDown,ArrowLeft"":8,""ArrowDown,ArrowRight"":30}","false","ArrowUp","false","original","1","","","",""
"html-keyboard-response","263","1229889","0.0-4.0-7.0-1.0","spark_pilot_norest","8211","7","22","Male","","","","","","","null","<div style=""font-size:60px;"">+</div>","null","fixation","","","","","","","","","","","",""
"revaluation","264","1231305","0.0-4.0-7.0-0.1","spark_pilot_norest","8211","7","22","Male","","false","","","","","[1414.300000011921]","./assets/img/canyon/test/3.jpg","[""ArrowUp""]","first stage test","canyon","0","{""ArrowUp,ArrowLeft"":23,""ArrowUp,ArrowRight"":10,""ArrowDown,ArrowLeft"":8,""ArrowDown,ArrowRight"":30}","false","ArrowUp","false","original","1","","","",""
"html-keyboard-response","265","1231813","0.0-4.0-7.0-1.1","spark_pilot_norest","8211","7","22","Male","","","","","","","null","<div style=""font-size:60px;"">+</div>","null","fixation","","","","","","","","","","","",""
"revaluation","266","1232730","0.0-4.0-7.0-0.2","spark_pilot_norest","8211","7","22","Male","","false","","","","","[913.3000000119209]","./assets/img/canyon/test/0.jpg","[""ArrowUp""]","first stage test","canyon","0","{""ArrowUp,ArrowLeft"":23,""ArrowUp,ArrowRight"":10,""ArrowDown,ArrowLeft"":8,""ArrowDown,ArrowRight"":30}","false","ArrowUp","false","original","1","","","",""
"html-keyboard-response","267","1233239","0.0-4.0-7.0-1.2","spark_pilot_norest","8211","7","22","Male","","","","","","","null","<div style=""font-size:60px;"">+</div>","null","fixation","","","","","","","","","","","",""
"revaluation","268","1234396","0.0-4.0-7.0-0.3","spark_pilot_norest","8211","7","22","Male","","false","","","","","[1154.699999988079]","./assets/img/canyon/test/2.jpg","[""ArrowDown""]","first stage test","canyon","0","{""ArrowUp,ArrowLeft"":23,""ArrowUp,ArrowRight"":10,""ArrowDown,ArrowLeft"":8,""ArrowDown,ArrowRight"":30}","true","ArrowDown","false","original","1","","","",""
"html-keyboard-response","269","1234907","0.0-4.0-7.0-1.3","spark_pilot_norest","8211","7","22","Male","","","","","","","null","<div style=""font-size:60px;"">+</div>","null","fixation","","","","","","","","","","","",""
"learning-instructions","270","1248270","0.0-4.0-8.0-0.0","spark_pilot_norest","8211","7","22","Male","","","","","","","null","<p> Now you will see the animals again and can search their chests for treasure. </p>
            <p> This time, you will not see how much treasure you earned, but you will earn more bonus money for making better choices. </p>","","instructions","","","","","","","","","","","",""
"html-keyboard-response","271","1249280","0.0-4.0-9.0-0.0","spark_pilot_norest","8211","7","22","Male","","","","","","","null","<div style=""font-size:100px;color:red;"">Starting in...</div>","null","","","","","","","","","","","","",""
"html-keyboard-response","272","1250292","0.0-4.0-9.0-1.0","spark_pilot_norest","8211","7","22","Male","","","","","","","null","<div style=""font-size:200px;color:red;"">3</div>","null","","","","","","","","","","","","",""
"html-keyboard-response","273","1251293","0.0-4.0-9.0-2.0","spark_pilot_norest","8211","7","22","Male","","","","","","","null","<div style=""font-size:200px;color:red;"">2</div>","null","","","","","","","","","","","","",""
"html-keyboard-response","274","1252294","0.0-4.0-9.0-3.0","spark_pilot_norest","8211","7","22","Male","","","","","","","null","<div style=""font-size:200px;color:red;"">1</div>","null","","","","","","","","","","","","",""
"revaluation","275","1252825","0.0-4.0-10.0-0.0","spark_pilot_norest","8211","7","22","Male","","false","","","","","[526.9000000357628]","./assets/img/canyon/animals/giraffe.jpg","[""ArrowLeft""]","second stage test","canyon","0","{""ArrowUp,ArrowLeft"":23,""ArrowUp,ArrowRight"":10,""ArrowDown,ArrowLeft"":8,""ArrowDown,ArrowRight"":30}","true","ArrowUp,ArrowLeft","","original","1","","","",""
"html-keyboard-response","276","1253327","0.0-4.0-10.0-1.0","spark_pilot_norest","8211","7","22","Male","","","","","","","null","<div style=""font-size:60px;"">+</div>","null","fixation","","","","","","","","","","","",""
"revaluation","277","1253926","0.0-4.0-10.0-0.1","spark_pilot_norest","8211","7","22","Male","","false","","","","","[596.8999999761581]","./assets/img/canyon/animals/giraffe.jpg","[""ArrowLeft""]","second stage test","canyon","0","{""ArrowUp,ArrowLeft"":23,""ArrowUp,ArrowRight"":10,""ArrowDown,ArrowLeft"":8,""ArrowDown,ArrowRight"":30}","true","ArrowUp,ArrowLeft","","original","1","","","",""
"html-keyboard-response","278","1254432","0.0-4.0-10.0-1.1","spark_pilot_norest","8211","7","22","Male","","","","","","","null","<div style=""font-size:60px;"">+</div>","null","fixation","","","","","","","","","","","",""
"revaluation","279","1255124","0.0-4.0-10.0-0.2","spark_pilot_norest","8211","7","22","Male","","false","","","","","[689.1000000238419]","./assets/img/canyon/animals/giraffe.jpg","[""ArrowLeft""]","second stage test","canyon","0","{""ArrowUp,ArrowLeft"":23,""ArrowUp,ArrowRight"":10,""ArrowDown,ArrowLeft"":8,""ArrowDown,ArrowRight"":30}","true","ArrowUp,ArrowLeft","","original","1","","","",""
"html-keyboard-response","280","1255632","0.0-4.0-10.0-1.2","spark_pilot_norest","8211","7","22","Male","","","","","","","null","<div style=""font-size:60px;"">+</div>","null","fixation","","","","","","","","","","","",""
"revaluation","281","1256250","0.0-4.0-10.0-0.3","spark_pilot_norest","8211","7","22","Male","","false","","","","","[615]","./assets/img/canyon/animals/giraffe.jpg","[""ArrowLeft""]","second stage test","canyon","0","{""ArrowUp,ArrowLeft"":23,""ArrowUp,ArrowRight"":10,""ArrowDown,ArrowLeft"":8,""ArrowDown,ArrowRight"":30}","true","ArrowUp,ArrowLeft","","original","1","","","",""
"html-keyboard-response","282","1256761","0.0-4.0-10.0-1.3","spark_pilot_norest","8211","7","22","Male","","","","","","","null","<div style=""font-size:60px;"">+</div>","null","fixation","","","","","","","","","","","",""
"revaluation","283","1257276","0.0-4.0-10.0-0.4","spark_pilot_norest","8211","7","22","Male","","false","","","","","[511.0999999642372]","./assets/img/canyon/animals/lion.jpg","[""ArrowRight""]","second stage test","canyon","0","{""ArrowUp,ArrowLeft"":23,""ArrowUp,ArrowRight"":10,""ArrowDown,ArrowLeft"":8,""ArrowDown,ArrowRight"":30}","true","ArrowDown,ArrowRight","","original","1","","","",""
"html-keyboard-response","284","1257781","0.0-4.0-10.0-1.4","spark_pilot_norest","8211","7","22","Male","","","","","","","null","<div style=""font-size:60px;"">+</div>","null","fixation","","","","","","","","","","","",""
"revaluation","285","1258163","0.0-4.0-10.0-0.5","spark_pilot_norest","8211","7","22","Male","","false","","","","","[379.30000001192093]","./assets/img/canyon/animals/lion.jpg","[""ArrowRight""]","second stage test","canyon","0","{""ArrowUp,ArrowLeft"":23,""ArrowUp,ArrowRight"":10,""ArrowDown,ArrowLeft"":8,""ArrowDown,ArrowRight"":30}","true","ArrowDown,ArrowRight","","original","1","","","",""
"html-keyboard-response","286","1258673","0.0-4.0-10.0-1.5","spark_pilot_norest","8211","7","22","Male","","","","","","","null","<div style=""font-size:60px;"">+</div>","null","fixation","","","","","","","","","","","",""
"revaluation","287","1259172","0.0-4.0-10.0-0.6","spark_pilot_norest","8211","7","22","Male","","false","","","","","[496.9000000357628]","./assets/img/canyon/animals/lion.jpg","[""ArrowRight""]","second stage test","canyon","0","{""ArrowUp,ArrowLeft"":23,""ArrowUp,ArrowRight"":10,""ArrowDown,ArrowLeft"":8,""ArrowDown,ArrowRight"":30}","true","ArrowDown,ArrowRight","","original","1","","","",""
"html-keyboard-response","288","1259675","0.0-4.0-10.0-1.6","spark_pilot_norest","8211","7","22","Male","","","","","","","null","<div style=""font-size:60px;"">+</div>","null","fixation","","","","","","","","","","","",""
"revaluation","289","1260017","0.0-4.0-10.0-0.7","spark_pilot_norest","8211","7","22","Male","","false","","","","","[338.5]","./assets/img/canyon/animals/lion.jpg","[""ArrowRight""]","second stage test","canyon","0","{""ArrowUp,ArrowLeft"":23,""ArrowUp,ArrowRight"":10,""ArrowDown,ArrowLeft"":8,""ArrowDown,ArrowRight"":30}","true","ArrowDown,ArrowRight","","original","1","","","",""
"html-keyboard-response","290","1260524","0.0-4.0-10.0-1.7","spark_pilot_norest","8211","7","22","Male","","","","","","","null","<div style=""font-size:60px;"">+</div>","null","fixation","","","","","","","","","","","",""
"learning-instructions","291","1264325","0.0-4.0-0.1-0.2","spark_pilot_norest","8211","7","22","Male","","","","","","","1089.9000000357628","<p> This time you are searching for treasure in the <b>ocean</b>.</p>","","instructions","","","","","","","","","","","",""
"learning-instructions","292","1286884","0.0-4.0-0.1-0.3","spark_pilot_norest","8211","7","22","Male","","","","","","","5308.800000011921","<p><b>New</b> animals with <b>new</b> treasure chests live here. You need to explore to discover where the animal with the best treasure chest is.</p>
                    <p> Like before, once you figure out which animal has the chest with the most treasure, you should try to get to that animal and select that chest! </p>","","instructions","","","","","","","","","","","",""
"learning-instructions","293","1302158","0.0-4.0-1.1-0.1","spark_pilot_norest","8211","7","22","Male","","","","","","","543","<p> Remember, when you see a picture of the place, use the up and down keys to <b>find an animal</b>.</p>
            <p> When you encounter an animal, you should use the left and right keys to <b>select a treasure chest</b>.</p>
            <p> Don't forget to look out for the robber! </p>","","instructions","","","","","","","","","","","",""
"revaluation","294","1308187","0.0-4.0-2.1-0.50","spark_pilot_norest","8211","7","22","Male","","false","","","","","[901.7999999523163,546.8999999761581]","./assets/img/ocean/memory/4.jpg","[""ArrowDown"",""ArrowRight""]","value training","ocean","17","{""ArrowUp,ArrowLeft"":26,""ArrowUp,ArrowRight"":10,""ArrowDown,ArrowLeft"":5,""ArrowDown,ArrowRight"":17}","false","ArrowDown,ArrowRight","false","revaluation","2","0","","",""
"html-keyboard-response","295","1308689","0.0-4.0-2.1-1.50","spark_pilot_norest","8211","7","22","Male","","","","","","","null","<div style=""font-size:60px;"">+</div>","null","fixation","","","","","","","","","1","","",""
"revaluation","296","1314709","0.0-4.0-2.1-0.51","spark_pilot_norest","8211","7","22","Male","","false","","","","","[241.39999997615814,306.60000002384186]","./assets/img/ocean/memory/9.jpg","[""ArrowDown"",""ArrowLeft""]","value training","ocean","5","{""ArrowUp,ArrowLeft"":26,""ArrowUp,ArrowRight"":10,""ArrowDown,ArrowLeft"":5,""ArrowDown,ArrowRight"":17}","false","ArrowDown,ArrowLeft","false","revaluation","2","2","","",""
"html-keyboard-response","297","1315224","0.0-4.0-2.1-1.51","spark_pilot_norest","8211","7","22","Male","","","","","","","null","<div style=""font-size:60px;"">+</div>","null","fixation","","","","","","","","","3","","",""
"revaluation","298","1319250","0.0-4.0-2.1-0.52","spark_pilot_norest","8211","7","22","Male","","false","","","","","[251.9000000357628]","./assets/img/ocean/catch/2.jpg","[""ArrowUp""]","value training","ocean","-10","{""ArrowUp,ArrowLeft"":26,""ArrowUp,ArrowRight"":10,""ArrowDown,ArrowLeft"":5,""ArrowDown,ArrowRight"":17}","false","ArrowUp","true","revaluation","2","4","","",""
"html-keyboard-response","299","1319761","0.0-4.0-2.1-1.52","spark_pilot_norest","8211","7","22","Male","","","","","","","null","<div style=""font-size:60px;"">+</div>","null","fixation","","","","","","","","","5","","",""
"revaluation","300","1325774","0.0-4.0-2.1-0.53","spark_pilot_norest","8211","7","22","Male","","false","","","","","[540.6999999880791,401.80000001192093]","./assets/img/ocean/memory/13.jpg","[""ArrowUp"",""ArrowRight""]","value training","ocean","10","{""ArrowUp,ArrowLeft"":26,""ArrowUp,ArrowRight"":10,""ArrowDown,ArrowLeft"":5,""ArrowDown,ArrowRight"":17}","false","ArrowUp,ArrowRight","false","revaluation","2","6","","",""
"html-keyboard-response","301","1326281","0.0-4.0-2.1-1.53","spark_pilot_norest","8211","7","22","Male","","","","","","","null","<div style=""font-size:60px;"">+</div>","null","fixation","","","","","","","","","7","","",""
"revaluation","302","1330304","0.0-4.0-2.1-0.54","spark_pilot_norest","8211","7","22","Male","","false","","","","","[601.1999999880791]","./assets/img/ocean/catch/7.jpg","[""spaceBar""]","value training","ocean","0","{""ArrowUp,ArrowLeft"":26,""ArrowUp,ArrowRight"":10,""ArrowDown,ArrowLeft"":5,""ArrowDown,ArrowRight"":17}","true","spaceBar","true","revaluation","2","8","","",""
"html-keyboard-response","303","1330814","0.0-4.0-2.1-1.54","spark_pilot_norest","8211","7","22","Male","","","","","","","null","<div style=""font-size:60px;"">+</div>","null","fixation","","","","","","","","","9","","",""
"revaluation","304","1334818","0.0-4.0-2.1-0.55","spark_pilot_norest","8211","7","22","Male","","false","","","","","[305]","./assets/img/ocean/catch/4.jpg","[""ArrowUp""]","value training","ocean","-10","{""ArrowUp,ArrowLeft"":26,""ArrowUp,ArrowRight"":10,""ArrowDown,ArrowLeft"":5,""ArrowDown,ArrowRight"":17}","false","ArrowUp","true","revaluation","2","10","","",""
"html-keyboard-response","305","1335321","0.0-4.0-2.1-1.55","spark_pilot_norest","8211","7","22","Male","","","","","","","null","<div style=""font-size:60px;"">+</div>","null","fixation","","","","","","","","","11","","",""
"revaluation","306","1341326","0.0-4.0-2.1-0.56","spark_pilot_norest","8211","7","22","Male","","false","","","","","[558.5,313.0999999642372]","./assets/img/ocean/memory/2.jpg","[""ArrowUp"",""ArrowLeft""]","value training","ocean","26","{""ArrowUp,ArrowLeft"":26,""ArrowUp,ArrowRight"":10,""ArrowDown,ArrowLeft"":5,""ArrowDown,ArrowRight"":17}","true","ArrowUp,ArrowLeft","false","revaluation","2","12","","",""
"html-keyboard-response","307","1341828","0.0-4.0-2.1-1.56","spark_pilot_norest","8211","7","22","Male","","","","","","","null","<div style=""font-size:60px;"">+</div>","null","fixation","","","","","","","","","13","","",""
"revaluation","308","1347833","0.0-4.0-2.1-0.57","spark_pilot_norest","8211","7","22","Male","","false","","","","","[617.0999999642372,580.8000000119209]","./assets/img/ocean/memory/3.jpg","[""ArrowUp"",""ArrowLeft""]","value training","ocean","26","{""ArrowUp,ArrowLeft"":26,""ArrowUp,ArrowRight"":10,""ArrowDown,ArrowLeft"":5,""ArrowDown,ArrowRight"":17}","true","ArrowUp,ArrowLeft","false","revaluation","2","14","","",""
"html-keyboard-response","309","1348335","0.0-4.0-2.1-1.57","spark_pilot_norest","8211","7","22","Male","","","","","","","null","<div style=""font-size:60px;"">+</div>","null","fixation","","","","","","","","","15","","",""
"revaluation","310","1354341","0.0-4.0-2.1-0.58","spark_pilot_norest","8211","7","22","Male","","false","","","","","[819.6999999880791,297.69999998807907]","./assets/img/ocean/memory/31.jpg","[""ArrowUp"",""ArrowLeft""]","value training","ocean","26","{""ArrowUp,ArrowLeft"":26,""ArrowUp,ArrowRight"":10,""ArrowDown,ArrowLeft"":5,""ArrowDown,ArrowRight"":17}","true","ArrowUp,ArrowLeft","false","revaluation","2","16","","",""
"html-keyboard-response","311","1354842","0.0-4.0-2.1-1.58","spark_pilot_norest","8211","7","22","Male","","","","","","","null","<div style=""font-size:60px;"">+</div>","null","fixation","","","","","","","","","17","","",""
