"trial_type","trial_index","time_elapsed","internal_node_id","task_version","subject_id","assigned_condition","age","gender","success","timeout","failed_images","failed_audio","failed_video","browser_interaction","value","rt","stimulus","response","task_part","environment","score","rewardMap","correct","fullState","isCatch","condition","order","trial_num","key_press","ground_truth","bonus"
"pavlovia","0","1138","0.0-0.0","spark_pilot_norest","10589","6","23","Male","","","","","","","","","","","","","","","","","","","","","","",""
"preload","1","20747","0.0-1.0","spark_pilot_norest","10589","6","23","Male","true","false","[]","[]","[]","[{""event"":""fullscreenenter"",""trial"":2,""time"":40118}]","","","","","","","","","","","","","","","","",""
"fullscreen","2","41095","0.0-2.0","spark_pilot_norest","10589","6","23","Male","true","","","","","","","","","","","","","","","","","","","","","",""
"call-function","3","109551","0.0-3.0","spark_pilot_norest","10589","6","23","Male","","","","","","","","","","","","","","","","","","","","","","",""
"audio-button-response","4","111314","0.0-4.0-0.0-0.0","spark_pilot_norest","10589","6","23","Male","","","","","","","","1469","./assets/audio/audiotest/turtle.mp3","2","audio_test","","","","","","","","","","","",""
"learning-instructions","5","119958","0.0-4.0-1.0-0.0","spark_pilot_norest","10589","6","23","Male","","","","","","","","1684","<p> Welcome! Please remember to stay in fullscreen mode and don't click away from the experiment. </p>","","instructions","","","","","","","","","","","",""
"learning-instructions","6","133814","0.0-4.0-1.0-0.1","spark_pilot_norest","10589","6","23","Male","","","","","","","","5465","<p> Today you will be playing a game to earn treasure. </p>
            <p> At the end of the experiment, you will earn a bonus based on how much treasure you find. </p>
            <img src='./assets/img/instructions/treasure.jpg' class='instructions-image'>","","instructions","","","","","","","","","","","",""
"learning-instructions","7","144326","0.0-4.0-1.0-0.2","spark_pilot_norest","10589","6","23","Male","","","","","","","","2270.999999999971","<p> Animals have hidden treasure in treasure chests. </p>
            <p> You need to first find an animal and then choose which of their treasure chests to search. </p>
            <img src='./assets/img/space/animals/cat.jpg' class='instructions-image'>","","instructions","","","","","","","","","","","",""
"learning-instructions","8","158627","0.0-4.0-1.0-0.3","spark_pilot_norest","10589","6","23","Male","","","","","","","","1174","<p> In each round, you will search for treasure in a different place. In the real game, there will be two rounds. </p>
            <p> You will begin with a separate, practice round where you will search for treasure in outer space. </p>
            <img src='./assets/img/space/0.jpg' class='instructions-image'>","","instructions","","","","","","","","","","","",""
"learning-instructions","9","175633","0.0-4.0-1.0-0.4","spark_pilot_norest","10589","6","23","Male","","","","","","","","5610","<p> On every turn, you will see a picture of the place that you are in, but the specific image may be different each time. </p>
            <p> For example, both of these images mean you are in outer space. </p>
            <img src='./assets/img/instructions/outerspace.jpg' class='instructions-image'>","","instructions","","","","","","","","","","","",""
"learning-instructions","10","229579","0.0-4.0-1.0-0.5","spark_pilot_norest","10589","6","23","Male","","","","","","","","46133","<p> You need to decide which direction to travel in. </p>
            <p> You can choose between going <b>up or down</b> by using the arrow keys. </p>
            <img src='./assets/img/instructions/updown.jpg' class='instructions-image'>","","instructions","","","","","","","","","","","",""
"learning-instructions","11","239865","0.0-4.0-1.0-0.6","spark_pilot_norest","10589","6","23","Male","","","","","","","","1494","<p> You will have <b>2 seconds</b> to make your choice. </p>
            <p> If you do not make a choice within 2 seconds, you will not find an animal or earn treasure. </p>
            <img src='./assets/img/instructions/2seconds.jpg' class='instructions-image'>","","instructions","","","","","","","","","","","",""
"learning-instructions","12","248361","0.0-4.0-1.0-0.7","spark_pilot_norest","10589","6","23","Male","","","","","","","","1476","<p> Let’s try practicing that now! </p>
            <p> When you see a picture of the place you are in, press the <b>up</b> key to travel up. </p>
            <img src='./assets/img/instructions/pressUp.jpg' class='instructions-image'>","","instructions","","","","","","","","","","","",""
"revaluation","13","252376","0.0-4.0-2.0-0.0","spark_pilot_norest","10589","6","23","Male","","false","","","","","","[645]","./assets/img/space/0.jpg","[""ArrowUp""]","first stage practice","space","0","null","null","ArrowUp","false","","","","","",""
"html-keyboard-response","14","252879","0.0-4.0-2.0-1.0","spark_pilot_norest","10589","6","23","Male","","","","","","","","null","<div style=""font-size:60px;"">+</div>","null","fixation","","","","","","","","","","","",""
"revaluation","15","256886","0.0-4.0-2.0-0.1","spark_pilot_norest","10589","6","23","Male","","true","","","","","","[]","./assets/img/space/1.jpg","[]","first stage practice","space","-5","null","null","","false","","","","","",""
"html-keyboard-response","16","257389","0.0-4.0-2.0-1.1","spark_pilot_norest","10589","6","23","Male","","","","","","","","null","<div style=""font-size:60px;"">+</div>","null","fixation","","","","","","","","","","","",""
"revaluation","17","261396","0.0-4.0-2.0-0.2","spark_pilot_norest","10589","6","23","Male","","false","","","","","","[1230.000000000029]","./assets/img/space/2.jpg","[""ArrowUp""]","first stage practice","space","0","null","null","ArrowUp","false","","","","","",""
"html-keyboard-response","18","261899","0.0-4.0-2.0-1.2","spark_pilot_norest","10589","6","23","Male","","","","","","","","null","<div style=""font-size:60px;"">+</div>","null","fixation","","","","","","","","","","","",""
"learning-instructions","19","268692","0.0-4.0-3.0-0.0","spark_pilot_norest","10589","6","23","Male","","","","","","","","2104","<p> Great job! Now try pressing the <b>down</b> key to travel down. </p>
            <img src='./assets/img/instructions/pressDown.jpg' class='instructions-image'>","","instructions","","","","","","","","","","","",""
"revaluation","20","272697","0.0-4.0-4.0-0.0","spark_pilot_norest","10589","6","23","Male","","false","","","","","","[1084]","./assets/img/space/3.jpg","[""ArrowDown""]","first stage practice","space","0","null","null","ArrowDown","false","","","","","",""
"html-keyboard-response","21","273200","0.0-4.0-4.0-1.0","spark_pilot_norest","10589","6","23","Male","","","","","","","","null","<div style=""font-size:60px;"">+</div>","null","fixation","","","","","","","","","","","",""
"revaluation","22","277207","0.0-4.0-4.0-0.1","spark_pilot_norest","10589","6","23","Male","","true","","","","","","[]","./assets/img/space/4.jpg","[]","first stage practice","space","-5","null","null","","false","","","","","",""
"html-keyboard-response","23","277710","0.0-4.0-4.0-1.1","spark_pilot_norest","10589","6","23","Male","","","","","","","","null","<div style=""font-size:60px;"">+</div>","null","fixation","","","","","","","","","","","",""
"revaluation","24","281717","0.0-4.0-4.0-0.2","spark_pilot_norest","10589","6","23","Male","","false","","","","","","[470.0000000000582]","./assets/img/space/5.jpg","[""ArrowDown""]","first stage practice","space","0","null","null","ArrowDown","false","","","","","",""
"html-keyboard-response","25","282219","0.0-4.0-4.0-1.2","spark_pilot_norest","10589","6","23","Male","","","","","","","","null","<div style=""font-size:60px;"">+</div>","null","fixation","","","","","","","","","","","",""
"learning-instructions","26","293195","0.0-4.0-5.0-0.0","spark_pilot_norest","10589","6","23","Male","","","","","","","","1141","<p> The animals don’t move, so the animal in the upper part of a place will stay in the upper part of a place, and the animal in the lower part of a place will stay in the lower part of a place. </p>","","instructions","","","","","","","","","","","",""
"learning-instructions","27","304729","0.0-4.0-5.0-0.1","spark_pilot_norest","10589","6","23","Male","","","","","","","","2422","<p> Each animal has two treasure chests for you to choose from. </p>
            <p> The amount of treasure in each chest can range from <b> 0 to 40 pieces.</b></p>","","instructions","","","","","","","","","","","",""
"learning-instructions","28","317880","0.0-4.0-5.0-0.2","spark_pilot_norest","10589","6","23","Male","","","","","","","","1984","<p> You should decide which chest to search for treasure by using the <b>left</b> and <b>right</b> arrow keys. </p>
            <p><b> Pay attention to which animal is on the screen, as the animals have different treasure chests. </b></p>
            <img src='./assets/img/instructions/leftright.jpg' class='instructions-image'>","","instructions","","","","","","","","","","","",""
"learning-instructions","29","325012","0.0-4.0-5.0-0.3","spark_pilot_norest","10589","6","23","Male","","","","","","","","783","<p> Let’s try practicing that now. </p>
            <p> When you see an animal, choose which chest to search for treasure. </p>
            <img src='./assets/img/instructions/chooseChest.jpg' class='instructions-image'>","","instructions","","","","","","","","","","","",""
"revaluation","30","329020","0.0-4.0-6.0-0.0","spark_pilot_norest","10589","6","23","Male","","true","","","","","","[]","./assets/img/space/animals/cat.jpg","[]","second stage practice","space","-5","{""ArrowUp,ArrowLeft"":3,""ArrowUp,ArrowRight"":36,""ArrowDown,ArrowLeft"":15,""ArrowDown,ArrowRight"":23}","false","ArrowUp","","","","","","",""
"html-keyboard-response","31","329523","0.0-4.0-6.0-1.0","spark_pilot_norest","10589","6","23","Male","","","","","","","","null","<div style=""font-size:60px;"">+</div>","null","fixation","","","","","","","","","","","",""
"revaluation","32","333530","0.0-4.0-6.0-0.1","spark_pilot_norest","10589","6","23","Male","","false","","","","","","[672]","./assets/img/space/animals/cat.jpg","[""ArrowLeft""]","second stage practice","space","3","{""ArrowUp,ArrowLeft"":3,""ArrowUp,ArrowRight"":36,""ArrowDown,ArrowLeft"":15,""ArrowDown,ArrowRight"":23}","false","ArrowUp,ArrowLeft","","","","","","",""
"html-keyboard-response","33","334033","0.0-4.0-6.0-1.1","spark_pilot_norest","10589","6","23","Male","","","","","","","","null","<div style=""font-size:60px;"">+</div>","null","fixation","","","","","","","","","","","",""
"revaluation","34","338043","0.0-4.0-6.0-0.2","spark_pilot_norest","10589","6","23","Male","","false","","","","","","[318]","./assets/img/space/animals/rabbit.jpg","[""ArrowRight""]","second stage practice","space","23","{""ArrowUp,ArrowLeft"":3,""ArrowUp,ArrowRight"":36,""ArrowDown,ArrowLeft"":15,""ArrowDown,ArrowRight"":23}","true","ArrowDown,ArrowRight","","","","","","",""
"html-keyboard-response","35","338546","0.0-4.0-6.0-1.2","spark_pilot_norest","10589","6","23","Male","","","","","","","","null","<div style=""font-size:60px;"">+</div>","null","fixation","","","","","","","","","","","",""
"revaluation","36","342555","0.0-4.0-6.0-0.3","spark_pilot_norest","10589","6","23","Male","","false","","","","","","[493]","./assets/img/space/animals/rabbit.jpg","[""ArrowRight""]","second stage practice","space","23","{""ArrowUp,ArrowLeft"":3,""ArrowUp,ArrowRight"":36,""ArrowDown,ArrowLeft"":15,""ArrowDown,ArrowRight"":23}","true","ArrowDown,ArrowRight","","","","","","",""
"html-keyboard-response","37","343059","0.0-4.0-6.0-1.3","spark_pilot_norest","10589","6","23","Male","","","","","","","","null","<div style=""font-size:60px;"">+</div>","null","fixation","","","","","","","","","","","",""
"learning-instructions","38","361141","0.0-4.0-7.0-0.0","spark_pilot_norest","10589","6","23","Male","","","","","","","","1288","<p> Great job. Now let’s try putting it together. </p>
            <p> On each turn, you will first see a picture to remind you of the place you are in, and you need to choose whether to go up or down. </p>
            <p> Then you will see an animal and choose which of its chests to search for treasure. </p>","","instructions","","","","","","","","","","","",""
"learning-instructions","39","371170","0.0-4.0-7.0-0.1","spark_pilot_norest","10589","6","23","Male","","","","","","","","1790","<p> When you choose whether to go up or down, try to go to the animal with the chest with the most treasure. </p>
            <p> Try practicing that now! </p>","","instructions","","","","","","","","","","","",""
"revaluation","40","377178","0.0-4.0-8.0-0.0","spark_pilot_norest","10589","6","23","Male","","false","","","","","","[1085.9999999999418,806]","./assets/img/space/6.jpg","[""ArrowUp"",""ArrowRight""]","full practice","space","36","{""ArrowUp,ArrowLeft"":3,""ArrowUp,ArrowRight"":36,""ArrowDown,ArrowLeft"":15,""ArrowDown,ArrowRight"":23}","true","ArrowUp,ArrowRight","false","","","","","",""
"html-keyboard-response","41","377682","0.0-4.0-8.0-1.0","spark_pilot_norest","10589","6","23","Male","","","","","","","","null","<div style=""font-size:60px;"">+</div>","null","fixation","","","","","","","","","","","",""
"revaluation","42","383691","0.0-4.0-8.0-0.1","spark_pilot_norest","10589","6","23","Male","","false","","","","","","[1071.0000000000582,634]","./assets/img/space/7.jpg","[""ArrowDown"",""ArrowLeft""]","full practice","space","15","{""ArrowUp,ArrowLeft"":3,""ArrowUp,ArrowRight"":36,""ArrowDown,ArrowLeft"":15,""ArrowDown,ArrowRight"":23}","false","ArrowDown,ArrowLeft","false","","","","","",""
"html-keyboard-response","43","384194","0.0-4.0-8.0-1.1","spark_pilot_norest","10589","6","23","Male","","","","","","","","null","<div style=""font-size:60px;"">+</div>","null","fixation","","","","","","","","","","","",""
"revaluation","44","390202","0.0-4.0-8.0-0.2","spark_pilot_norest","10589","6","23","Male","","false","","","","","","[967.9999999999418,333]","./assets/img/space/8.jpg","[""ArrowUp"",""ArrowRight""]","full practice","space","36","{""ArrowUp,ArrowLeft"":3,""ArrowUp,ArrowRight"":36,""ArrowDown,ArrowLeft"":15,""ArrowDown,ArrowRight"":23}","true","ArrowUp,ArrowRight","false","","","","","",""
"html-keyboard-response","45","390705","0.0-4.0-8.0-1.2","spark_pilot_norest","10589","6","23","Male","","","","","","","","null","<div style=""font-size:60px;"">+</div>","null","fixation","","","","","","","","","","","",""
"revaluation","46","396715","0.0-4.0-8.0-0.3","spark_pilot_norest","10589","6","23","Male","","false","","","","","","[751.9999999999418,713.0000000000582]","./assets/img/space/9.jpg","[""ArrowDown"",""ArrowLeft""]","full practice","space","15","{""ArrowUp,ArrowLeft"":3,""ArrowUp,ArrowRight"":36,""ArrowDown,ArrowLeft"":15,""ArrowDown,ArrowRight"":23}","false","ArrowDown,ArrowLeft","false","","","","","",""
"html-keyboard-response","47","397220","0.0-4.0-8.0-1.3","spark_pilot_norest","10589","6","23","Male","","","","","","","","null","<div style=""font-size:60px;"">+</div>","null","fixation","","","","","","","","","","","",""
"revaluation","48","403230","0.0-4.0-8.0-0.4","spark_pilot_norest","10589","6","23","Male","","false","","","","","","[457,600]","./assets/img/space/10.jpg","[""ArrowUp"",""ArrowRight""]","full practice","space","36","{""ArrowUp,ArrowLeft"":3,""ArrowUp,ArrowRight"":36,""ArrowDown,ArrowLeft"":15,""ArrowDown,ArrowRight"":23}","true","ArrowUp,ArrowRight","false","","","","","",""
"html-keyboard-response","49","403733","0.0-4.0-8.0-1.4","spark_pilot_norest","10589","6","23","Male","","","","","","","","null","<div style=""font-size:60px;"">+</div>","null","fixation","","","","","","","","","","","",""
"learning-instructions","50","415672","0.0-4.0-9.0-0.0","spark_pilot_norest","10589","6","23","Male","","","","","","","","1643","<p> One last thing: sometimes, you will see a robber. The robber can be anywhere in the picture. </p>
            <p> If you do not stop them, you will lose treasure. </p>
            <img src='./assets/img/instructions/robber.jpg' class='instructions-image'>","","instructions","","","","","","","","","","","",""
"learning-instructions","51","427892","0.0-4.0-9.0-0.1","spark_pilot_norest","10589","6","23","Male","","","","","","","","5067","<p> If you see the robber, you should <b>press the space bar</b> rather than using the arrow keys. </p>
            <p> Try practicing that now! </p>","","instructions","","","","","","","","","","","",""
"revaluation","52","431899","0.0-4.0-10.0-0.0","spark_pilot_norest","10589","6","23","Male","","false","","","","","","[859.9999999999418]","./assets/img/space/catch/0.jpg","[""ArrowUp""]","catch practice","space","-10","{""ArrowUp,ArrowLeft"":3,""ArrowUp,ArrowRight"":36,""ArrowDown,ArrowLeft"":15,""ArrowDown,ArrowRight"":23}","false","ArrowUp","true","","","","","",""
"html-keyboard-response","53","432403","0.0-4.0-10.0-1.0","spark_pilot_norest","10589","6","23","Male","","","","","","","","null","<div style=""font-size:60px;"">+</div>","null","fixation","","","","","","","","","","","",""
"revaluation","54","436410","0.0-4.0-10.0-0.1","spark_pilot_norest","10589","6","23","Male","","false","","","","","","[784.9999999999418]","./assets/img/space/catch/1.jpg","[""spaceBar""]","catch practice","space","0","{""ArrowUp,ArrowLeft"":3,""ArrowUp,ArrowRight"":36,""ArrowDown,ArrowLeft"":15,""ArrowDown,ArrowRight"":23}","true","spaceBar","true","","","","","",""
"html-keyboard-response","55","436914","0.0-4.0-10.0-1.1","spark_pilot_norest","10589","6","23","Male","","","","","","","","null","<div style=""font-size:60px;"">+</div>","null","fixation","","","","","","","","","","","",""
"revaluation","56","440921","0.0-4.0-10.0-0.2","spark_pilot_norest","10589","6","23","Male","","false","","","","","","[1317]","./assets/img/space/catch/2.jpg","[""spaceBar""]","catch practice","space","0","{""ArrowUp,ArrowLeft"":3,""ArrowUp,ArrowRight"":36,""ArrowDown,ArrowLeft"":15,""ArrowDown,ArrowRight"":23}","true","spaceBar","true","","","","","",""
"html-keyboard-response","57","441424","0.0-4.0-10.0-1.2","spark_pilot_norest","10589","6","23","Male","","","","","","","","null","<div style=""font-size:60px;"">+</div>","null","fixation","","","","","","","","","","","",""
"learning-instructions","58","447864","0.0-4.0-11.0-0.0-0.0","spark_pilot_norest","10589","6","23","Male","","","","","","","","1213","<p> Now, you will practice a shortened version of the game to get a sense of how it all fits together. </p>","","instructions","","","","","","","","","","","",""
"learning-instructions","59","452351","0.0-4.0-11.0-0.0-0.1","spark_pilot_norest","10589","6","23","Male","","","","","","","","1311","<p>This time you are searching for treasure in outer space.</p>","","instructions","","","","","","","","","","","",""
"learning-instructions","60","469555","0.0-4.0-11.0-1.0-0.0","spark_pilot_norest","10589","6","23","Male","","","","","","","","2457","<p> Remember, when you see a picture of the place, use the up and down keys to <b>find an animal</b>.</p>
            <p> When you encounter an animal, you should use the left and right keys to <b>select a treasure chest</b>.</p>
            <p> Don't forget to look out for the robber! </p>","","instructions","","","","","","","","","","","",""
"revaluation","61","475563","0.0-4.0-11.0-2.0-0.0","spark_pilot_norest","10589","6","23","Male","","false","","","","","","[704,365]","./assets/img/space/11.jpg","[""ArrowUp"",""ArrowRight""]","practice block","space","36","{""ArrowUp,ArrowLeft"":3,""ArrowUp,ArrowRight"":36,""ArrowDown,ArrowLeft"":15,""ArrowDown,ArrowRight"":23}","true","ArrowUp,ArrowRight","false","","","","","",""
"html-keyboard-response","62","476067","0.0-4.0-11.0-2.0-1.0","spark_pilot_norest","10589","6","23","Male","","","","","","","","null","<div style=""font-size:60px;"">+</div>","null","fixation","","","","","","","","","","","",""
"revaluation","63","482076","0.0-4.0-11.0-2.0-0.1","spark_pilot_norest","10589","6","23","Male","","false","","","","","","[755,585.0000000000582]","./assets/img/space/12.jpg","[""ArrowDown"",""ArrowLeft""]","practice block","space","15","{""ArrowUp,ArrowLeft"":3,""ArrowUp,ArrowRight"":36,""ArrowDown,ArrowLeft"":15,""ArrowDown,ArrowRight"":23}","false","ArrowDown,ArrowLeft","false","","","","","",""
"html-keyboard-response","64","482580","0.0-4.0-11.0-2.0-1.1","spark_pilot_norest","10589","6","23","Male","","","","","","","","null","<div style=""font-size:60px;"">+</div>","null","fixation","","","","","","","","","","","",""
"revaluation","65","488589","0.0-4.0-11.0-2.0-0.2","spark_pilot_norest","10589","6","23","Male","","false","","","","","","[904,560.9999999999418]","./assets/img/space/13.jpg","[""ArrowDown"",""ArrowRight""]","practice block","space","23","{""ArrowUp,ArrowLeft"":3,""ArrowUp,ArrowRight"":36,""ArrowDown,ArrowLeft"":15,""ArrowDown,ArrowRight"":23}","false","ArrowDown,ArrowRight","false","","","","","",""
"html-keyboard-response","66","489092","0.0-4.0-11.0-2.0-1.2","spark_pilot_norest","10589","6","23","Male","","","","","","","","null","<div style=""font-size:60px;"">+</div>","null","fixation","","","","","","","","","","","",""
"revaluation","67","495100","0.0-4.0-11.0-2.0-0.3","spark_pilot_norest","10589","6","23","Male","","false","","","","","","[1042,729]","./assets/img/space/14.jpg","[""ArrowUp"",""ArrowRight""]","practice block","space","36","{""ArrowUp,ArrowLeft"":3,""ArrowUp,ArrowRight"":36,""ArrowDown,ArrowLeft"":15,""ArrowDown,ArrowRight"":23}","true","ArrowUp,ArrowRight","false","","","","","",""
"html-keyboard-response","68","495603","0.0-4.0-11.0-2.0-1.3","spark_pilot_norest","10589","6","23","Male","","","","","","","","null","<div style=""font-size:60px;"">+</div>","null","fixation","","","","","","","","","","","",""
"revaluation","69","501615","0.0-4.0-11.0-2.0-0.4","spark_pilot_norest","10589","6","23","Male","","false","","","","","","[1494,691]","./assets/img/space/11.jpg","[""ArrowDown"",""ArrowRight""]","practice block","space","23","{""ArrowUp,ArrowLeft"":3,""ArrowUp,ArrowRight"":36,""ArrowDown,ArrowLeft"":15,""ArrowDown,ArrowRight"":23}","false","ArrowDown,ArrowRight","false","","","","","",""
"html-keyboard-response","70","502119","0.0-4.0-11.0-2.0-1.4","spark_pilot_norest","10589","6","23","Male","","","","","","","","null","<div style=""font-size:60px;"">+</div>","null","fixation","","","","","","","","","","","",""
"revaluation","71","508130","0.0-4.0-11.0-2.0-0.5","spark_pilot_norest","10589","6","23","Male","","false","","","","","","[698,455.0000000000582]","./assets/img/space/12.jpg","[""ArrowDown"",""ArrowRight""]","practice block","space","23","{""ArrowUp,ArrowLeft"":3,""ArrowUp,ArrowRight"":36,""ArrowDown,ArrowLeft"":15,""ArrowDown,ArrowRight"":23}","false","ArrowDown,ArrowRight","false","","","","","",""
"html-keyboard-response","72","508633","0.0-4.0-11.0-2.0-1.5","spark_pilot_norest","10589","6","23","Male","","","","","","","","null","<div style=""font-size:60px;"">+</div>","null","fixation","","","","","","","","","","","",""
"revaluation","73","514643","0.0-4.0-11.0-2.0-0.6","spark_pilot_norest","10589","6","23","Male","","false","","","","","","[596,446.0000000000582]","./assets/img/space/13.jpg","[""ArrowUp"",""ArrowRight""]","practice block","space","36","{""ArrowUp,ArrowLeft"":3,""ArrowUp,ArrowRight"":36,""ArrowDown,ArrowLeft"":15,""ArrowDown,ArrowRight"":23}","true","ArrowUp,ArrowRight","false","","","","","",""
"html-keyboard-response","74","515146","0.0-4.0-11.0-2.0-1.6","spark_pilot_norest","10589","6","23","Male","","","","","","","","null","<div style=""font-size:60px;"">+</div>","null","fixation","","","","","","","","","","","",""
"revaluation","75","521155","0.0-4.0-11.0-2.0-0.7","spark_pilot_norest","10589","6","23","Male","","false","","","","","","[803,618]","./assets/img/space/14.jpg","[""ArrowDown"",""ArrowLeft""]","practice block","space","15","{""ArrowUp,ArrowLeft"":3,""ArrowUp,ArrowRight"":36,""ArrowDown,ArrowLeft"":15,""ArrowDown,ArrowRight"":23}","false","ArrowDown,ArrowLeft","false","","","","","",""
"html-keyboard-response","76","521658","0.0-4.0-11.0-2.0-1.7","spark_pilot_norest","10589","6","23","Male","","","","","","","","null","<div style=""font-size:60px;"">+</div>","null","fixation","","","","","","","","","","","",""
"revaluation","77","525664","0.0-4.0-11.0-2.0-0.8","spark_pilot_norest","10589","6","23","Male","","false","","","","","","[983.0000000000582]","./assets/img/space/catch/3.jpg","[""spaceBar""]","practice block","space","0","{""ArrowUp,ArrowLeft"":3,""ArrowUp,ArrowRight"":36,""ArrowDown,ArrowLeft"":15,""ArrowDown,ArrowRight"":23}","true","spaceBar","true","","","","","",""
"html-keyboard-response","78","526167","0.0-4.0-11.0-2.0-1.8","spark_pilot_norest","10589","6","23","Male","","","","","","","","null","<div style=""font-size:60px;"">+</div>","null","fixation","","","","","","","","","","","",""
"learning-instructions","79","540170","0.0-4.0-11.0-3.0-0.0","spark_pilot_norest","10589","6","23","Male","","","","","","","","1106","<p> Now, you will travel with a friend who will choose whether you go up or down first. </p>
            <p> On these turns, you will just see the animal that they found. You will still get to choose which chest to search for treasure.</p>","","instructions","","","","","","","","","","","",""
"revaluation","80","544180","0.0-4.0-11.0-4.0-0.0","spark_pilot_norest","10589","6","23","Male","","false","","","","","","[1098.9999999998836]","./assets/img/space/animals/cat.jpg","[""ArrowLeft""]","practice block","space","3","{""ArrowUp,ArrowLeft"":3,""ArrowUp,ArrowRight"":36,""ArrowDown,ArrowLeft"":15,""ArrowDown,ArrowRight"":23}","false","ArrowUp,ArrowLeft","","","","","","",""
"html-keyboard-response","81","544684","0.0-4.0-11.0-4.0-1.0","spark_pilot_norest","10589","6","23","Male","","","","","","","","null","<div style=""font-size:60px;"">+</div>","null","fixation","","","","","","","","","","","",""
"revaluation","82","548692","0.0-4.0-11.0-4.0-0.1","spark_pilot_norest","10589","6","23","Male","","false","","","","","","[576]","./assets/img/space/animals/rabbit.jpg","[""ArrowRight""]","practice block","space","23","{""ArrowUp,ArrowLeft"":3,""ArrowUp,ArrowRight"":36,""ArrowDown,ArrowLeft"":15,""ArrowDown,ArrowRight"":23}","true","ArrowDown,ArrowRight","","","","","","",""
"html-keyboard-response","83","549195","0.0-4.0-11.0-4.0-1.1","spark_pilot_norest","10589","6","23","Male","","","","","","","","null","<div style=""font-size:60px;"">+</div>","null","fixation","","","","","","","","","","","",""
"revaluation","84","553202","0.0-4.0-11.0-4.0-0.2","spark_pilot_norest","10589","6","23","Male","","false","","","","","","[534]","./assets/img/space/animals/rabbit.jpg","[""ArrowRight""]","practice block","space","23","{""ArrowUp,ArrowLeft"":3,""ArrowUp,ArrowRight"":36,""ArrowDown,ArrowLeft"":15,""ArrowDown,ArrowRight"":23}","true","ArrowDown,ArrowRight","","","","","","",""
"html-keyboard-response","85","553707","0.0-4.0-11.0-4.0-1.2","spark_pilot_norest","10589","6","23","Male","","","","","","","","null","<div style=""font-size:60px;"">+</div>","null","fixation","","","","","","","","","","","",""
"revaluation","86","557714","0.0-4.0-11.0-4.0-0.3","spark_pilot_norest","10589","6","23","Male","","false","","","","","","[789]","./assets/img/space/animals/cat.jpg","[""ArrowRight""]","practice block","space","36","{""ArrowUp,ArrowLeft"":3,""ArrowUp,ArrowRight"":36,""ArrowDown,ArrowLeft"":15,""ArrowDown,ArrowRight"":23}","true","ArrowUp,ArrowRight","","","","","","",""
"html-keyboard-response","87","558217","0.0-4.0-11.0-4.0-1.3","spark_pilot_norest","10589","6","23","Male","","","","","","","","null","<div style=""font-size:60px;"">+</div>","null","fixation","","","","","","","","","","","",""
"learning-instructions","88","566334","0.0-4.0-11.0-5.0-0.0","spark_pilot_norest","10589","6","23","Male","","","","","","","","null","<p> You have almost finished this part of the game! </p>
            <p> We are going to ask you to make a few more choices. </p>","","instructions","","","","","","","","","","","",""
"learning-instructions","89","582329","0.0-4.0-11.0-5.0-0.1","spark_pilot_norest","10589","6","23","Male","","","","","","","","null","<p> First, you need to decide whether to go up or down. When you see each picture, use the arrow keys to make your choice. </p>
            <p><b>You will not see which animal you found, but try to get to the one that will give you the most treasure.</b></p>","","instructions","","","","","","","","","","","",""
"html-keyboard-response","90","583334","0.0-4.0-11.0-6.0-0.0","spark_pilot_norest","10589","6","23","Male","","","","","","","","null","<div style=""font-size:100px;color:red;"">Starting in...</div>","null","","","","","","","","","","","","",""
"html-keyboard-response","91","584337","0.0-4.0-11.0-6.0-1.0","spark_pilot_norest","10589","6","23","Male","","","","","","","","null","<div style=""font-size:200px;color:red;"">3</div>","null","","","","","","","","","","","","",""
"html-keyboard-response","92","585341","0.0-4.0-11.0-6.0-2.0","spark_pilot_norest","10589","6","23","Male","","","","","","","","null","<div style=""font-size:200px;color:red;"">2</div>","null","","","","","","","","","","","","",""
"html-keyboard-response","93","586344","0.0-4.0-11.0-6.0-3.0","spark_pilot_norest","10589","6","23","Male","","","","","","","","null","<div style=""font-size:200px;color:red;"">1</div>","null","","","","","","","","","","","","",""
"revaluation","94","587371","0.0-4.0-11.0-7.0","spark_pilot_norest","10589","6","23","Male","","false","","","","","","[1019]","./assets/img/space/15.jpg","[""ArrowDown""]","practice block","space","0","{""ArrowUp,ArrowLeft"":3,""ArrowUp,ArrowRight"":36,""ArrowDown,ArrowLeft"":15,""ArrowDown,ArrowRight"":23}","false","ArrowDown","false","","","","","",""
"html-keyboard-response","95","587874","0.0-4.0-11.0-8.0","spark_pilot_norest","10589","6","23","Male","","","","","","","","null","<div style=""font-size:60px;"">+</div>","null","fixation","","","","","","","","","","","",""
"learning-instructions","96","601229","0.0-4.0-11.0-9.0-0.0","spark_pilot_norest","10589","6","23","Male","","","","","","","","null","<p> Now you will see the animals again and can search their chests for treasure. </p>
            <p> This time, you will not see how much treasure you earned, but you will earn more bonus money for making better choices. </p>","","instructions","","","","","","","","","","","",""
"html-keyboard-response","97","602232","0.0-4.0-11.0-10.0-0.0","spark_pilot_norest","10589","6","23","Male","","","","","","","","null","<div style=""font-size:100px;color:red;"">Starting in...</div>","null","","","","","","","","","","","","",""
"html-keyboard-response","98","603235","0.0-4.0-11.0-10.0-1.0","spark_pilot_norest","10589","6","23","Male","","","","","","","","null","<div style=""font-size:200px;color:red;"">3</div>","null","","","","","","","","","","","","",""
"html-keyboard-response","99","604239","0.0-4.0-11.0-10.0-2.0","spark_pilot_norest","10589","6","23","Male","","","","","","","","null","<div style=""font-size:200px;color:red;"">2</div>","null","","","","","","","","","","","","",""
"html-keyboard-response","100","605241","0.0-4.0-11.0-10.0-3.0","spark_pilot_norest","10589","6","23","Male","","","","","","","","null","<div style=""font-size:200px;color:red;"">1</div>","null","","","","","","","","","","","","",""
"revaluation","101","605615","0.0-4.0-11.0-11.0-0.0","spark_pilot_norest","10589","6","23","Male","","false","","","","","","[369]","./assets/img/space/animals/cat.jpg","[""ArrowRight""]","practice block","space","0","{""ArrowUp,ArrowLeft"":3,""ArrowUp,ArrowRight"":36,""ArrowDown,ArrowLeft"":15,""ArrowDown,ArrowRight"":23}","true","ArrowUp,ArrowRight","","","","","","",""
"html-keyboard-response","102","606118","0.0-4.0-11.0-11.0-1.0","spark_pilot_norest","10589","6","23","Male","","","","","","","","null","<div style=""font-size:60px;"">+</div>","null","fixation","","","","","","","","","","","",""
"revaluation","103","606528","0.0-4.0-11.0-11.0-0.1","spark_pilot_norest","10589","6","23","Male","","false","","","","","","[404]","./assets/img/space/animals/rabbit.jpg","[""ArrowRight""]","practice block","space","0","{""ArrowUp,ArrowLeft"":3,""ArrowUp,ArrowRight"":36,""ArrowDown,ArrowLeft"":15,""ArrowDown,ArrowRight"":23}","true","ArrowDown,ArrowRight","","","","","","",""
"html-keyboard-response","104","607031","0.0-4.0-11.0-11.0-1.1","spark_pilot_norest","10589","6","23","Male","","","","","","","","null","<div style=""font-size:60px;"">+</div>","null","fixation","","","","","","","","","","","",""
"learning-instructions","105","613886","0.0-4.0-12.0-0.0","spark_pilot_norest","10589","6","23","Male","","","","","","","","2284","<p> Before you start, we're going to ask you a few questions about how the game works. </p>","","instructions","","","","","","","","","","","",""
"comp-q","106","621494","0.0-4.0-13.0-0.0-0.0","spark_pilot_norest","10589","6","23","Male","","","","","","","","2037","<p> <b> True or False? </b> </p>
            <p> There can be 50 pieces of treasure in a given animal's chest. </p>","1","comp_question","","","","true","","","","","","","",""
"comp-q","107","629784","0.0-4.0-13.0-0.0-1.0","spark_pilot_norest","10589","6","23","Male","","","","","","","","1652","<p> <b> That's right! </b> The amount of treasure in each chest can range from 0 to 40 pieces. </p>","0","comp_answer","","","","","","","","","","","",""
"comp-q","108","638383","0.0-4.0-13.0-0.1-0.1","spark_pilot_norest","10589","6","23","Male","","","","","","","","1497","<p> <b> True or False? </b> </p><p> In this game, all animals have the same amount of treasure in their left and right chests. </p>","1","comp_question","","","","true","","","","","","","",""
"comp-q","109","647264","0.0-4.0-13.0-0.1-1.1","spark_pilot_norest","10589","6","23","Male","","","","","","","","3658.9999999998836","<p> <b> That's right! </b> Animals have different amounts of treasure in their treasure chests. </p>","0","comp_answer","","","","","","","","","","","",""
"comp-q","110","658461","0.0-4.0-13.0-0.2-0.2","spark_pilot_norest","10589","6","23","Male","","","","","","","","5367","<p> <b> True or False? </b> </p><p> The same animal will always be there if you go up in the same place. </p>","0","comp_question","","","","true","","","","","","","",""
"comp-q","111","667350","0.0-4.0-13.0-0.2-1.2","spark_pilot_norest","10589","6","23","Male","","","","","","","","2460","<p> <b> That's right! </b> One animal lives in the upper part and one lives in the lower part of every place. </p>","0","comp_answer","","","","","","","","","","","",""
"comp-q","112","674695","0.0-4.0-13.0-0.3-0.3","spark_pilot_norest","10589","6","23","Male","","","","","","","","1839","<p> <b> True or False? </b> </p><p> If you see a different picture, it means you are in a new place. </p>","0","comp_question","","","","false","","","","","","","",""
"comp-q","113","687603","0.0-4.0-13.0-0.3-1.3","spark_pilot_norest","10589","6","23","Male","","","","","","","","1833","<p> <b>Incorrect.</b> Lots of different images may show the same place. For example,  you may see three different images that all remind you that you are in outer space. </p>","0","comp_answer","","","","","","","","","","","",""
"comp-q","114","695983","0.0-4.0-13.0-0.4-0.4","spark_pilot_norest","10589","6","23","Male","","","","","","","","2878","<p> <b> True or False? </b> </p><p> If you see a different picture, it means you are in a new place. </p>","1","comp_question","","","","true","","","","","","","",""
"comp-q","115","715607","0.0-4.0-13.0-0.4-1.4","spark_pilot_norest","10589","6","23","Male","","","","","","","","8418","<p> <b> That's right! </b> Lots of different images may show the same place. For example,  you may see three different images that all remind you that you are in outer space. </p>","0","comp_answer","","","","","","","","","","","",""
"learning-instructions","116","727410","0.0-4.0-14.0-0.0","spark_pilot_norest","10589","6","23","Male","","","","","","","","1968","<p> Good job. Remember to do your best because the amount of treasure you earn will be converted into bonus money. </p>
            <p> It’s time to start the real game! </p>","","instructions","","","","","","","","","","","",""
"learning-instructions","117","731886","0.0-5.0-0.0-0.0","spark_pilot_norest","10589","6","23","Male","","","","","","","","1719","<p> This time you are searching for treasure in the <b>canyon</b>.</p>","","instructions","","","","","","","","","","","",""
"learning-instructions","118","749989","0.0-5.0-0.0-0.1","spark_pilot_norest","10589","6","23","Male","","","","","","","","832","<p><b>New</b> animals with <b>new</b> treasure chests live here. You need to explore to discover where the animal with the best treasure chest is.</p>
                    <p> Like before, once you figure out which animal has the chest with the most treasure, you should try to get to that animal and select that chest! </p>","","instructions","","","","","","","","","","","",""
"learning-instructions","119","766748","0.0-5.0-1.0-0.0","spark_pilot_norest","10589","6","23","Male","","","","","","","","2026.9999999998836","<p> Remember, when you see a picture of the place, use the up and down keys to <b>find an animal</b>.</p>
            <p> When you encounter an animal, you should use the left and right keys to <b>select a treasure chest</b>.</p>
            <p> Don't forget to look out for the robber! </p>","","instructions","","","","","","","","","","","",""
"revaluation","120","772757","0.0-5.0-2.0-0.0","spark_pilot_norest","10589","6","23","Male","","false","","","","","","[1492,711]","./assets/img/canyon/memory/35.jpg","[""ArrowDown"",""ArrowRight""]","value training","canyon","30","{""ArrowUp,ArrowLeft"":23,""ArrowUp,ArrowRight"":10,""ArrowDown,ArrowLeft"":8,""ArrowDown,ArrowRight"":30}","true","ArrowDown,ArrowRight","false","revaluation","1","0","","",""
"html-keyboard-response","121","773262","0.0-5.0-2.0-1.0","spark_pilot_norest","10589","6","23","Male","","","","","","","","null","<div style=""font-size:60px;"">+</div>","null","fixation","","","","","","","","","1","","",""
"revaluation","122","777270","0.0-5.0-2.0-0.1","spark_pilot_norest","10589","6","23","Male","","false","","","","","","[1049]","./assets/img/canyon/catch/4.jpg","[""spaceBar""]","value training","canyon","0","{""ArrowUp,ArrowLeft"":23,""ArrowUp,ArrowRight"":10,""ArrowDown,ArrowLeft"":8,""ArrowDown,ArrowRight"":30}","true","spaceBar","true","revaluation","1","2","","",""
"html-keyboard-response","123","777773","0.0-5.0-2.0-1.1","spark_pilot_norest","10589","6","23","Male","","","","","","","","null","<div style=""font-size:60px;"">+</div>","null","fixation","","","","","","","","","3","","",""
"revaluation","124","783782","0.0-5.0-2.0-0.2","spark_pilot_norest","10589","6","23","Male","","false","","","","","","[992,635]","./assets/img/canyon/memory/25.jpg","[""ArrowDown"",""ArrowLeft""]","value training","canyon","8","{""ArrowUp,ArrowLeft"":23,""ArrowUp,ArrowRight"":10,""ArrowDown,ArrowLeft"":8,""ArrowDown,ArrowRight"":30}","false","ArrowDown,ArrowLeft","false","revaluation","1","4","","",""
"html-keyboard-response","125","784286","0.0-5.0-2.0-1.2","spark_pilot_norest","10589","6","23","Male","","","","","","","","null","<div style=""font-size:60px;"">+</div>","null","fixation","","","","","","","","","5","","",""
"revaluation","126","790295","0.0-5.0-2.0-0.3","spark_pilot_norest","10589","6","23","Male","","false","","","","","","[1012,523]","./assets/img/canyon/memory/26.jpg","[""ArrowUp"",""ArrowRight""]","value training","canyon","10","{""ArrowUp,ArrowLeft"":23,""ArrowUp,ArrowRight"":10,""ArrowDown,ArrowLeft"":8,""ArrowDown,ArrowRight"":30}","false","ArrowUp,ArrowRight","false","revaluation","1","6","","",""
"html-keyboard-response","127","790799","0.0-5.0-2.0-1.3","spark_pilot_norest","10589","6","23","Male","","","","","","","","null","<div style=""font-size:60px;"">+</div>","null","fixation","","","","","","","","","7","","",""
"revaluation","128","796807","0.0-5.0-2.0-0.4","spark_pilot_norest","10589","6","23","Male","","false","","","","","","[801,519]","./assets/img/canyon/memory/34.jpg","[""ArrowUp"",""ArrowLeft""]","value training","canyon","23","{""ArrowUp,ArrowLeft"":23,""ArrowUp,ArrowRight"":10,""ArrowDown,ArrowLeft"":8,""ArrowDown,ArrowRight"":30}","false","ArrowUp,ArrowLeft","false","revaluation","1","8","","",""
"html-keyboard-response","129","797311","0.0-5.0-2.0-1.4","spark_pilot_norest","10589","6","23","Male","","","","","","","","null","<div style=""font-size:60px;"">+</div>","null","fixation","","","","","","","","","9","","",""
"revaluation","130","803320","0.0-5.0-2.0-0.5","spark_pilot_norest","10589","6","23","Male","","false","","","","","","[962,311.0000000001164]","./assets/img/canyon/memory/8.jpg","[""ArrowDown"",""ArrowRight""]","value training","canyon","30","{""ArrowUp,ArrowLeft"":23,""ArrowUp,ArrowRight"":10,""ArrowDown,ArrowLeft"":8,""ArrowDown,ArrowRight"":30}","true","ArrowDown,ArrowRight","false","revaluation","1","10","","",""
"html-keyboard-response","131","803823","0.0-5.0-2.0-1.5","spark_pilot_norest","10589","6","23","Male","","","","","","","","null","<div style=""font-size:60px;"">+</div>","null","fixation","","","","","","","","","11","","",""
"revaluation","132","809834","0.0-5.0-2.0-0.6","spark_pilot_norest","10589","6","23","Male","","false","","","","","","[1081,576]","./assets/img/canyon/memory/33.jpg","[""ArrowDown"",""ArrowRight""]","value training","canyon","30","{""ArrowUp,ArrowLeft"":23,""ArrowUp,ArrowRight"":10,""ArrowDown,ArrowLeft"":8,""ArrowDown,ArrowRight"":30}","true","ArrowDown,ArrowRight","false","revaluation","1","12","","",""
"html-keyboard-response","133","810338","0.0-5.0-2.0-1.6","spark_pilot_norest","10589","6","23","Male","","","","","","","","null","<div style=""font-size:60px;"">+</div>","null","fixation","","","","","","","","","13","","",""
"revaluation","134","816348","0.0-5.0-2.0-0.7","spark_pilot_norest","10589","6","23","Male","","false","","","","","","[757,386]","./assets/img/canyon/memory/40.jpg","[""ArrowDown"",""ArrowRight""]","value training","canyon","30","{""ArrowUp,ArrowLeft"":23,""ArrowUp,ArrowRight"":10,""ArrowDown,ArrowLeft"":8,""ArrowDown,ArrowRight"":30}","true","ArrowDown,ArrowRight","false","revaluation","1","14","","",""
"html-keyboard-response","135","816851","0.0-5.0-2.0-1.7","spark_pilot_norest","10589","6","23","Male","","","","","","","","null","<div style=""font-size:60px;"">+</div>","null","fixation","","","","","","","","","15","","",""
"revaluation","136","822859","0.0-5.0-2.0-0.8","spark_pilot_norest","10589","6","23","Male","","false","","","","","","[963.0000000001164,312]","./assets/img/canyon/memory/6.jpg","[""ArrowDown"",""ArrowRight""]","value training","canyon","30","{""ArrowUp,ArrowLeft"":23,""ArrowUp,ArrowRight"":10,""ArrowDown,ArrowLeft"":8,""ArrowDown,ArrowRight"":30}","true","ArrowDown,ArrowRight","false","revaluation","1","16","","",""
"html-keyboard-response","137","823362","0.0-5.0-2.0-1.8","spark_pilot_norest","10589","6","23","Male","","","","","","","","null","<div style=""font-size:60px;"">+</div>","null","fixation","","","","","","","","","17","","",""
"revaluation","138","829371","0.0-5.0-2.0-0.9","spark_pilot_norest","10589","6","23","Male","","false","","","","","","[1040,518]","./assets/img/canyon/memory/25.jpg","[""ArrowDown"",""ArrowRight""]","value training","canyon","30","{""ArrowUp,ArrowLeft"":23,""ArrowUp,ArrowRight"":10,""ArrowDown,ArrowLeft"":8,""ArrowDown,ArrowRight"":30}","true","ArrowDown,ArrowRight","false","revaluation","1","18","","",""
"html-keyboard-response","139","829875","0.0-5.0-2.0-1.9","spark_pilot_norest","10589","6","23","Male","","","","","","","","null","<div style=""font-size:60px;"">+</div>","null","fixation","","","","","","","","","19","","",""
"revaluation","140","835885","0.0-5.0-2.0-0.10","spark_pilot_norest","10589","6","23","Male","","false","","","","","","[750,357]","./assets/img/canyon/memory/12.jpg","[""ArrowDown"",""ArrowRight""]","value training","canyon","30","{""ArrowUp,ArrowLeft"":23,""ArrowUp,ArrowRight"":10,""ArrowDown,ArrowLeft"":8,""ArrowDown,ArrowRight"":30}","true","ArrowDown,ArrowRight","false","revaluation","1","20","","",""
"html-keyboard-response","141","836390","0.0-5.0-2.0-1.10","spark_pilot_norest","10589","6","23","Male","","","","","","","","null","<div style=""font-size:60px;"">+</div>","null","fixation","","","","","","","","","21","","",""
"revaluation","142","840400","0.0-5.0-2.0-0.11","spark_pilot_norest","10589","6","23","Male","","false","","","","","","[948]","./assets/img/canyon/catch/0.jpg","[""spaceBar""]","value training","canyon","0","{""ArrowUp,ArrowLeft"":23,""ArrowUp,ArrowRight"":10,""ArrowDown,ArrowLeft"":8,""ArrowDown,ArrowRight"":30}","true","spaceBar","true","revaluation","1","22","","",""
"html-keyboard-response","143","840904","0.0-5.0-2.0-1.11","spark_pilot_norest","10589","6","23","Male","","","","","","","","null","<div style=""font-size:60px;"">+</div>","null","fixation","","","","","","","","","23","","",""
"revaluation","144","846914","0.0-5.0-2.0-0.12","spark_pilot_norest","10589","6","23","Male","","false","","","","","","[760,643]","./assets/img/canyon/memory/29.jpg","[""ArrowDown"",""ArrowRight""]","value training","canyon","30","{""ArrowUp,ArrowLeft"":23,""ArrowUp,ArrowRight"":10,""ArrowDown,ArrowLeft"":8,""ArrowDown,ArrowRight"":30}","true","ArrowDown,ArrowRight","false","revaluation","1","24","","",""
"html-keyboard-response","145","847418","0.0-5.0-2.0-1.12","spark_pilot_norest","10589","6","23","Male","","","","","","","","null","<div style=""font-size:60px;"">+</div>","null","fixation","","","","","","","","","25","","",""
"revaluation","146","851427","0.0-5.0-2.0-0.13","spark_pilot_norest","10589","6","23","Male","","false","","","","","","[1621.0000000001164]","./assets/img/canyon/catch/1.jpg","[""spaceBar""]","value training","canyon","0","{""ArrowUp,ArrowLeft"":23,""ArrowUp,ArrowRight"":10,""ArrowDown,ArrowLeft"":8,""ArrowDown,ArrowRight"":30}","true","spaceBar","true","revaluation","1","26","","",""
"html-keyboard-response","147","851931","0.0-5.0-2.0-1.13","spark_pilot_norest","10589","6","23","Male","","","","","","","","null","<div style=""font-size:60px;"">+</div>","null","fixation","","","","","","","","","27","","",""
"revaluation","148","857940","0.0-5.0-2.0-0.14","spark_pilot_norest","10589","6","23","Male","","false","","","","","","[1333.9999999998836,579]","./assets/img/canyon/memory/39.jpg","[""ArrowDown"",""ArrowRight""]","value training","canyon","30","{""ArrowUp,ArrowLeft"":23,""ArrowUp,ArrowRight"":10,""ArrowDown,ArrowLeft"":8,""ArrowDown,ArrowRight"":30}","true","ArrowDown,ArrowRight","false","revaluation","1","28","","",""
"html-keyboard-response","149","858444","0.0-5.0-2.0-1.14","spark_pilot_norest","10589","6","23","Male","","","","","","","","null","<div style=""font-size:60px;"">+</div>","null","fixation","","","","","","","","","29","","",""
"revaluation","150","864453","0.0-5.0-2.0-0.15","spark_pilot_norest","10589","6","23","Male","","false","","","","","","[1020.9999999998836,560]","./assets/img/canyon/memory/15.jpg","[""ArrowDown"",""ArrowRight""]","value training","canyon","30","{""ArrowUp,ArrowLeft"":23,""ArrowUp,ArrowRight"":10,""ArrowDown,ArrowLeft"":8,""ArrowDown,ArrowRight"":30}","true","ArrowDown,ArrowRight","false","revaluation","1","30","","",""
"html-keyboard-response","151","864957","0.0-5.0-2.0-1.15","spark_pilot_norest","10589","6","23","Male","","","","","","","","null","<div style=""font-size:60px;"">+</div>","null","fixation","","","","","","","","","31","","",""
"revaluation","152","870968","0.0-5.0-2.0-0.16","spark_pilot_norest","10589","6","23","Male","","false","","","","","","[823,473]","./assets/img/canyon/memory/38.jpg","[""ArrowDown"",""ArrowRight""]","value training","canyon","30","{""ArrowUp,ArrowLeft"":23,""ArrowUp,ArrowRight"":10,""ArrowDown,ArrowLeft"":8,""ArrowDown,ArrowRight"":30}","true","ArrowDown,ArrowRight","false","revaluation","1","32","","",""
"html-keyboard-response","153","871472","0.0-5.0-2.0-1.16","spark_pilot_norest","10589","6","23","Male","","","","","","","","null","<div style=""font-size:60px;"">+</div>","null","fixation","","","","","","","","","33","","",""
"revaluation","154","875482","0.0-5.0-2.0-0.17","spark_pilot_norest","10589","6","23","Male","","false","","","","","","[627.9999999998836]","./assets/img/canyon/catch/3.jpg","[""spaceBar""]","value training","canyon","0","{""ArrowUp,ArrowLeft"":23,""ArrowUp,ArrowRight"":10,""ArrowDown,ArrowLeft"":8,""ArrowDown,ArrowRight"":30}","true","spaceBar","true","revaluation","1","34","","",""
"html-keyboard-response","155","875986","0.0-5.0-2.0-1.17","spark_pilot_norest","10589","6","23","Male","","","","","","","","null","<div style=""font-size:60px;"">+</div>","null","fixation","","","","","","","","","35","","",""
"revaluation","156","879995","0.0-5.0-2.0-0.18","spark_pilot_norest","10589","6","23","Male","","false","","","","","","[1438]","./assets/img/canyon/catch/2.jpg","[""spaceBar""]","value training","canyon","0","{""ArrowUp,ArrowLeft"":23,""ArrowUp,ArrowRight"":10,""ArrowDown,ArrowLeft"":8,""ArrowDown,ArrowRight"":30}","true","spaceBar","true","revaluation","1","36","","",""
"html-keyboard-response","157","880499","0.0-5.0-2.0-1.18","spark_pilot_norest","10589","6","23","Male","","","","","","","","null","<div style=""font-size:60px;"">+</div>","null","fixation","","","","","","","","","37","","",""
"revaluation","158","886508","0.0-5.0-2.0-0.19","spark_pilot_norest","10589","6","23","Male","","false","","","","","","[1635,432]","./assets/img/canyon/memory/39.jpg","[""ArrowDown"",""ArrowRight""]","value training","canyon","30","{""ArrowUp,ArrowLeft"":23,""ArrowUp,ArrowRight"":10,""ArrowDown,ArrowLeft"":8,""ArrowDown,ArrowRight"":30}","true","ArrowDown,ArrowRight","false","revaluation","1","38","","",""
"html-keyboard-response","159","887012","0.0-5.0-2.0-1.19","spark_pilot_norest","10589","6","23","Male","","","","","","","","null","<div style=""font-size:60px;"">+</div>","null","fixation","","","","","","","","","39","","",""
"revaluation","160","893022","0.0-5.0-2.0-0.20","spark_pilot_norest","10589","6","23","Male","","false","","","","","","[978,355]","./assets/img/canyon/memory/27.jpg","[""ArrowDown"",""ArrowRight""]","value training","canyon","30","{""ArrowUp,ArrowLeft"":23,""ArrowUp,ArrowRight"":10,""ArrowDown,ArrowLeft"":8,""ArrowDown,ArrowRight"":30}","true","ArrowDown,ArrowRight","false","revaluation","1","40","","",""
"html-keyboard-response","161","893525","0.0-5.0-2.0-1.20","spark_pilot_norest","10589","6","23","Male","","","","","","","","null","<div style=""font-size:60px;"">+</div>","null","fixation","","","","","","","","","41","","",""
"revaluation","162","899533","0.0-5.0-2.0-0.21","spark_pilot_norest","10589","6","23","Male","","false","","","","","","[1389,451]","./assets/img/canyon/memory/26.jpg","[""ArrowDown"",""ArrowRight""]","value training","canyon","30","{""ArrowUp,ArrowLeft"":23,""ArrowUp,ArrowRight"":10,""ArrowDown,ArrowLeft"":8,""ArrowDown,ArrowRight"":30}","true","ArrowDown,ArrowRight","false","revaluation","1","42","","",""
"html-keyboard-response","163","900036","0.0-5.0-2.0-1.21","spark_pilot_norest","10589","6","23","Male","","","","","","","","null","<div style=""font-size:60px;"">+</div>","null","fixation","","","","","","","","","43","","",""
"revaluation","164","906044","0.0-5.0-2.0-0.22","spark_pilot_norest","10589","6","23","Male","","false","","","","","","[1216,436]","./assets/img/canyon/memory/29.jpg","[""ArrowDown"",""ArrowRight""]","value training","canyon","30","{""ArrowUp,ArrowLeft"":23,""ArrowUp,ArrowRight"":10,""ArrowDown,ArrowLeft"":8,""ArrowDown,ArrowRight"":30}","true","ArrowDown,ArrowRight","false","revaluation","1","44","","",""
"html-keyboard-response","165","906549","0.0-5.0-2.0-1.22","spark_pilot_norest","10589","6","23","Male","","","","","","","","null","<div style=""font-size:60px;"">+</div>","null","fixation","","","","","","","","","45","","",""
"revaluation","166","912562","0.0-5.0-2.0-0.23","spark_pilot_norest","10589","6","23","Male","","false","","","","","","[1450,403]","./assets/img/canyon/memory/27.jpg","[""ArrowDown"",""ArrowRight""]","value training","canyon","30","{""ArrowUp,ArrowLeft"":23,""ArrowUp,ArrowRight"":10,""ArrowDown,ArrowLeft"":8,""ArrowDown,ArrowRight"":30}","true","ArrowDown,ArrowRight","false","revaluation","1","46","","",""
"html-keyboard-response","167","913065","0.0-5.0-2.0-1.23","spark_pilot_norest","10589","6","23","Male","","","","","","","","null","<div style=""font-size:60px;"">+</div>","null","fixation","","","","","","","","","47","","",""
"revaluation","168","919075","0.0-5.0-2.0-0.24","spark_pilot_norest","10589","6","23","Male","","false","","","","","","[1189.9999999998836,551]","./assets/img/canyon/memory/14.jpg","[""ArrowDown"",""ArrowRight""]","value training","canyon","30","{""ArrowUp,ArrowLeft"":23,""ArrowUp,ArrowRight"":10,""ArrowDown,ArrowLeft"":8,""ArrowDown,ArrowRight"":30}","true","ArrowDown,ArrowRight","false","revaluation","1","48","","",""
"html-keyboard-response","169","919579","0.0-5.0-2.0-1.24","spark_pilot_norest","10589","6","23","Male","","","","","","","","null","<div style=""font-size:60px;"">+</div>","null","fixation","","","","","","","","","49","","",""
"revaluation","170","925587","0.0-5.0-2.0-0.25","spark_pilot_norest","10589","6","23","Male","","false","","","","","","[1199.0000000001164,462.9999999998836]","./assets/img/canyon/memory/13.jpg","[""ArrowDown"",""ArrowRight""]","value training","canyon","30","{""ArrowUp,ArrowLeft"":23,""ArrowUp,ArrowRight"":10,""ArrowDown,ArrowLeft"":8,""ArrowDown,ArrowRight"":30}","true","ArrowDown,ArrowRight","false","revaluation","1","50","","",""
"html-keyboard-response","171","926091","0.0-5.0-2.0-1.25","spark_pilot_norest","10589","6","23","Male","","","","","","","","null","<div style=""font-size:60px;"">+</div>","null","fixation","","","","","","","","","51","","",""
"revaluation","172","930098","0.0-5.0-2.0-0.26","spark_pilot_norest","10589","6","23","Male","","false","","","","","","[1753.0000000001164]","./assets/img/canyon/catch/7.jpg","[""spaceBar""]","value training","canyon","0","{""ArrowUp,ArrowLeft"":23,""ArrowUp,ArrowRight"":10,""ArrowDown,ArrowLeft"":8,""ArrowDown,ArrowRight"":30}","true","spaceBar","true","revaluation","1","52","","",""
"html-keyboard-response","173","930602","0.0-5.0-2.0-1.26","spark_pilot_norest","10589","6","23","Male","","","","","","","","null","<div style=""font-size:60px;"">+</div>","null","fixation","","","","","","","","","53","","",""
"revaluation","174","936612","0.0-5.0-2.0-0.27","spark_pilot_norest","10589","6","23","Male","","false","","","","","","[1390,433]","./assets/img/canyon/memory/33.jpg","[""ArrowDown"",""ArrowRight""]","value training","canyon","30","{""ArrowUp,ArrowLeft"":23,""ArrowUp,ArrowRight"":10,""ArrowDown,ArrowLeft"":8,""ArrowDown,ArrowRight"":30}","true","ArrowDown,ArrowRight","false","revaluation","1","54","","",""
"html-keyboard-response","175","937116","0.0-5.0-2.0-1.27","spark_pilot_norest","10589","6","23","Male","","","","","","","","null","<div style=""font-size:60px;"">+</div>","null","fixation","","","","","","","","","55","","",""
"revaluation","176","943127","0.0-5.0-2.0-0.28","spark_pilot_norest","10589","6","23","Male","","false","","","","","","[693,325.9999999998836]","./assets/img/canyon/memory/13.jpg","[""ArrowDown"",""ArrowRight""]","value training","canyon","30","{""ArrowUp,ArrowLeft"":23,""ArrowUp,ArrowRight"":10,""ArrowDown,ArrowLeft"":8,""ArrowDown,ArrowRight"":30}","true","ArrowDown,ArrowRight","false","revaluation","1","56","","",""
"html-keyboard-response","177","943632","0.0-5.0-2.0-1.28","spark_pilot_norest","10589","6","23","Male","","","","","","","","null","<div style=""font-size:60px;"">+</div>","null","fixation","","","","","","","","","57","","",""
"revaluation","178","947640","0.0-5.0-2.0-0.29","spark_pilot_norest","10589","6","23","Male","","false","","","","","","[1205]","./assets/img/canyon/catch/5.jpg","[""spaceBar""]","value training","canyon","0","{""ArrowUp,ArrowLeft"":23,""ArrowUp,ArrowRight"":10,""ArrowDown,ArrowLeft"":8,""ArrowDown,ArrowRight"":30}","true","spaceBar","true","revaluation","1","58","","",""
"html-keyboard-response","179","948144","0.0-5.0-2.0-1.29","spark_pilot_norest","10589","6","23","Male","","","","","","","","null","<div style=""font-size:60px;"">+</div>","null","fixation","","","","","","","","","59","","",""
"revaluation","180","952153","0.0-5.0-2.0-0.30","spark_pilot_norest","10589","6","23","Male","","true","","","","","","[]","./assets/img/canyon/memory/12.jpg","[]","value training","canyon","-5","{""ArrowUp,ArrowLeft"":23,""ArrowUp,ArrowRight"":10,""ArrowDown,ArrowLeft"":8,""ArrowDown,ArrowRight"":30}","false","","false","revaluation","1","60","","",""
"html-keyboard-response","181","952656","0.0-5.0-2.0-1.30","spark_pilot_norest","10589","6","23","Male","","","","","","","","null","<div style=""font-size:60px;"">+</div>","null","fixation","","","","","","","","","61","","",""
"revaluation","182","958664","0.0-5.0-2.0-0.31","spark_pilot_norest","10589","6","23","Male","","false","","","","","","[1651.0000000001164,664.0000000001164]","./assets/img/canyon/memory/36.jpg","[""ArrowDown"",""ArrowRight""]","value training","canyon","30","{""ArrowUp,ArrowLeft"":23,""ArrowUp,ArrowRight"":10,""ArrowDown,ArrowLeft"":8,""ArrowDown,ArrowRight"":30}","true","ArrowDown,ArrowRight","false","revaluation","1","62","","",""
"html-keyboard-response","183","959167","0.0-5.0-2.0-1.31","spark_pilot_norest","10589","6","23","Male","","","","","","","","null","<div style=""font-size:60px;"">+</div>","null","fixation","","","","","","","","","63","","",""
"revaluation","184","965178","0.0-5.0-2.0-0.32","spark_pilot_norest","10589","6","23","Male","","false","","","","","","[674.9999999998836,310]","./assets/img/canyon/memory/35.jpg","[""ArrowDown"",""ArrowRight""]","value training","canyon","30","{""ArrowUp,ArrowLeft"":23,""ArrowUp,ArrowRight"":10,""ArrowDown,ArrowLeft"":8,""ArrowDown,ArrowRight"":30}","true","ArrowDown,ArrowRight","false","revaluation","1","64","","",""
"html-keyboard-response","185","965682","0.0-5.0-2.0-1.32","spark_pilot_norest","10589","6","23","Male","","","","","","","","null","<div style=""font-size:60px;"">+</div>","null","fixation","","","","","","","","","65","","",""
"revaluation","186","971692","0.0-5.0-2.0-0.33","spark_pilot_norest","10589","6","23","Male","","false","","","","","","[804,523]","./assets/img/canyon/memory/38.jpg","[""ArrowDown"",""ArrowRight""]","value training","canyon","30","{""ArrowUp,ArrowLeft"":23,""ArrowUp,ArrowRight"":10,""ArrowDown,ArrowLeft"":8,""ArrowDown,ArrowRight"":30}","true","ArrowDown,ArrowRight","false","revaluation","1","66","","",""
"html-keyboard-response","187","972196","0.0-5.0-2.0-1.33","spark_pilot_norest","10589","6","23","Male","","","","","","","","null","<div style=""font-size:60px;"">+</div>","null","fixation","","","","","","","","","67","","",""
"revaluation","188","978204","0.0-5.0-2.0-0.34","spark_pilot_norest","10589","6","23","Male","","false","","","","","","[1160.9999999998836,518.0000000001164]","./assets/img/canyon/memory/32.jpg","[""ArrowDown"",""ArrowRight""]","value training","canyon","30","{""ArrowUp,ArrowLeft"":23,""ArrowUp,ArrowRight"":10,""ArrowDown,ArrowLeft"":8,""ArrowDown,ArrowRight"":30}","true","ArrowDown,ArrowRight","false","revaluation","1","68","","",""
"html-keyboard-response","189","978708","0.0-5.0-2.0-1.34","spark_pilot_norest","10589","6","23","Male","","","","","","","","null","<div style=""font-size:60px;"">+</div>","null","fixation","","","","","","","","","69","","",""
"revaluation","190","984717","0.0-5.0-2.0-0.35","spark_pilot_norest","10589","6","23","Male","","false","","","","","","[686,916]","./assets/img/canyon/memory/34.jpg","[""ArrowDown"",""ArrowRight""]","value training","canyon","30","{""ArrowUp,ArrowLeft"":23,""ArrowUp,ArrowRight"":10,""ArrowDown,ArrowLeft"":8,""ArrowDown,ArrowRight"":30}","true","ArrowDown,ArrowRight","false","revaluation","1","70","","",""
"html-keyboard-response","191","985221","0.0-5.0-2.0-1.35","spark_pilot_norest","10589","6","23","Male","","","","","","","","null","<div style=""font-size:60px;"">+</div>","null","fixation","","","","","","","","","71","","",""
"revaluation","192","991230","0.0-5.0-2.0-0.36","spark_pilot_norest","10589","6","23","Male","","false","","","","","","[1433,449]","./assets/img/canyon/memory/41.jpg","[""ArrowDown"",""ArrowRight""]","value training","canyon","30","{""ArrowUp,ArrowLeft"":23,""ArrowUp,ArrowRight"":10,""ArrowDown,ArrowLeft"":8,""ArrowDown,ArrowRight"":30}","true","ArrowDown,ArrowRight","false","revaluation","1","72","","",""
"html-keyboard-response","193","991733","0.0-5.0-2.0-1.36","spark_pilot_norest","10589","6","23","Male","","","","","","","","null","<div style=""font-size:60px;"">+</div>","null","fixation","","","","","","","","","73","","",""
"revaluation","194","997743","0.0-5.0-2.0-0.37","spark_pilot_norest","10589","6","23","Male","","false","","","","","","[1207,413]","./assets/img/canyon/memory/15.jpg","[""ArrowDown"",""ArrowRight""]","value training","canyon","30","{""ArrowUp,ArrowLeft"":23,""ArrowUp,ArrowRight"":10,""ArrowDown,ArrowLeft"":8,""ArrowDown,ArrowRight"":30}","true","ArrowDown,ArrowRight","false","revaluation","1","74","","",""
"html-keyboard-response","195","998248","0.0-5.0-2.0-1.37","spark_pilot_norest","10589","6","23","Male","","","","","","","","null","<div style=""font-size:60px;"">+</div>","null","fixation","","","","","","","","","75","","",""
"revaluation","196","1004260","0.0-5.0-2.0-0.38","spark_pilot_norest","10589","6","23","Male","","false","","","","","","[616,363]","./assets/img/canyon/memory/24.jpg","[""ArrowDown"",""ArrowRight""]","value training","canyon","30","{""ArrowUp,ArrowLeft"":23,""ArrowUp,ArrowRight"":10,""ArrowDown,ArrowLeft"":8,""ArrowDown,ArrowRight"":30}","true","ArrowDown,ArrowRight","false","revaluation","1","76","","",""
"html-keyboard-response","197","1004765","0.0-5.0-2.0-1.38","spark_pilot_norest","10589","6","23","Male","","","","","","","","null","<div style=""font-size:60px;"">+</div>","null","fixation","","","","","","","","","77","","",""
"revaluation","198","1010775","0.0-5.0-2.0-0.39","spark_pilot_norest","10589","6","23","Male","","false","","","","","","[896,440.0000000001164]","./assets/img/canyon/memory/14.jpg","[""ArrowDown"",""ArrowRight""]","value training","canyon","30","{""ArrowUp,ArrowLeft"":23,""ArrowUp,ArrowRight"":10,""ArrowDown,ArrowLeft"":8,""ArrowDown,ArrowRight"":30}","true","ArrowDown,ArrowRight","false","revaluation","1","78","","",""
"html-keyboard-response","199","1011278","0.0-5.0-2.0-1.39","spark_pilot_norest","10589","6","23","Male","","","","","","","","null","<div style=""font-size:60px;"">+</div>","null","fixation","","","","","","","","","79","","",""
"revaluation","200","1017290","0.0-5.0-2.0-0.40","spark_pilot_norest","10589","6","23","Male","","false","","","","","","[1628.9999999998836,1397]","./assets/img/canyon/memory/24.jpg","[""ArrowUp"",""ArrowLeft""]","value training","canyon","23","{""ArrowUp,ArrowLeft"":23,""ArrowUp,ArrowRight"":10,""ArrowDown,ArrowLeft"":8,""ArrowDown,ArrowRight"":30}","false","ArrowUp,ArrowLeft","false","revaluation","1","80","","",""
"html-keyboard-response","201","1017794","0.0-5.0-2.0-1.40","spark_pilot_norest","10589","6","23","Male","","","","","","","","null","<div style=""font-size:60px;"">+</div>","null","fixation","","","","","","","","","81","","",""
"revaluation","202","1023804","0.0-5.0-2.0-0.41","spark_pilot_norest","10589","6","23","Male","","false","","","","","","[1006,682]","./assets/img/canyon/memory/32.jpg","[""ArrowDown"",""ArrowRight""]","value training","canyon","30","{""ArrowUp,ArrowLeft"":23,""ArrowUp,ArrowRight"":10,""ArrowDown,ArrowLeft"":8,""ArrowDown,ArrowRight"":30}","true","ArrowDown,ArrowRight","false","revaluation","1","82","","",""
"html-keyboard-response","203","1024307","0.0-5.0-2.0-1.41","spark_pilot_norest","10589","6","23","Male","","","","","","","","null","<div style=""font-size:60px;"">+</div>","null","fixation","","","","","","","","","83","","",""
"revaluation","204","1030317","0.0-5.0-2.0-0.42","spark_pilot_norest","10589","6","23","Male","","false","","","","","","[1156.0000000002328,467.9999999998836]","./assets/img/canyon/memory/6.jpg","[""ArrowDown"",""ArrowRight""]","value training","canyon","30","{""ArrowUp,ArrowLeft"":23,""ArrowUp,ArrowRight"":10,""ArrowDown,ArrowLeft"":8,""ArrowDown,ArrowRight"":30}","true","ArrowDown,ArrowRight","false","revaluation","1","84","","",""
"html-keyboard-response","205","1030820","0.0-5.0-2.0-1.42","spark_pilot_norest","10589","6","23","Male","","","","","","","","null","<div style=""font-size:60px;"">+</div>","null","fixation","","","","","","","","","85","","",""
"revaluation","206","1036830","0.0-5.0-2.0-0.43","spark_pilot_norest","10589","6","23","Male","","false","","","","","","[888.9999999998836,554.9999999997672]","./assets/img/canyon/memory/36.jpg","[""ArrowDown"",""ArrowRight""]","value training","canyon","30","{""ArrowUp,ArrowLeft"":23,""ArrowUp,ArrowRight"":10,""ArrowDown,ArrowLeft"":8,""ArrowDown,ArrowRight"":30}","true","ArrowDown,ArrowRight","false","revaluation","1","86","","",""
"html-keyboard-response","207","1037334","0.0-5.0-2.0-1.43","spark_pilot_norest","10589","6","23","Male","","","","","","","","null","<div style=""font-size:60px;"">+</div>","null","fixation","","","","","","","","","87","","",""
"revaluation","208","1043345","0.0-5.0-2.0-0.44","spark_pilot_norest","10589","6","23","Male","","false","","","","","","[978,503.00000000023283]","./assets/img/canyon/memory/41.jpg","[""ArrowDown"",""ArrowRight""]","value training","canyon","30","{""ArrowUp,ArrowLeft"":23,""ArrowUp,ArrowRight"":10,""ArrowDown,ArrowLeft"":8,""ArrowDown,ArrowRight"":30}","true","ArrowDown,ArrowRight","false","revaluation","1","88","","",""
"html-keyboard-response","209","1043849","0.0-5.0-2.0-1.44","spark_pilot_norest","10589","6","23","Male","","","","","","","","null","<div style=""font-size:60px;"">+</div>","null","fixation","","","","","","","","","89","","",""
"revaluation","210","1049859","0.0-5.0-2.0-0.45","spark_pilot_norest","10589","6","23","Male","","false","","","","","","[1000,345]","./assets/img/canyon/memory/37.jpg","[""ArrowDown"",""ArrowRight""]","value training","canyon","30","{""ArrowUp,ArrowLeft"":23,""ArrowUp,ArrowRight"":10,""ArrowDown,ArrowLeft"":8,""ArrowDown,ArrowRight"":30}","true","ArrowDown,ArrowRight","false","revaluation","1","90","","",""
"html-keyboard-response","211","1050361","0.0-5.0-2.0-1.45","spark_pilot_norest","10589","6","23","Male","","","","","","","","null","<div style=""font-size:60px;"">+</div>","null","fixation","","","","","","","","","91","","",""
"revaluation","212","1056371","0.0-5.0-2.0-0.46","spark_pilot_norest","10589","6","23","Male","","false","","","","","","[1242,567]","./assets/img/canyon/memory/40.jpg","[""ArrowDown"",""ArrowRight""]","value training","canyon","30","{""ArrowUp,ArrowLeft"":23,""ArrowUp,ArrowRight"":10,""ArrowDown,ArrowLeft"":8,""ArrowDown,ArrowRight"":30}","true","ArrowDown,ArrowRight","false","revaluation","1","92","","",""
"html-keyboard-response","213","1056873","0.0-5.0-2.0-1.46","spark_pilot_norest","10589","6","23","Male","","","","","","","","null","<div style=""font-size:60px;"">+</div>","null","fixation","","","","","","","","","93","","",""
"revaluation","214","1060880","0.0-5.0-2.0-0.47","spark_pilot_norest","10589","6","23","Male","","false","","","","","","[1141]","./assets/img/canyon/catch/6.jpg","[""spaceBar""]","value training","canyon","0","{""ArrowUp,ArrowLeft"":23,""ArrowUp,ArrowRight"":10,""ArrowDown,ArrowLeft"":8,""ArrowDown,ArrowRight"":30}","true","spaceBar","true","revaluation","1","94","","",""
"html-keyboard-response","215","1061383","0.0-5.0-2.0-1.47","spark_pilot_norest","10589","6","23","Male","","","","","","","","null","<div style=""font-size:60px;"">+</div>","null","fixation","","","","","","","","","95","","",""
"revaluation","216","1067393","0.0-5.0-2.0-0.48","spark_pilot_norest","10589","6","23","Male","","false","","","","","","[1283,711]","./assets/img/canyon/memory/8.jpg","[""ArrowUp"",""ArrowLeft""]","value training","canyon","23","{""ArrowUp,ArrowLeft"":23,""ArrowUp,ArrowRight"":10,""ArrowDown,ArrowLeft"":8,""ArrowDown,ArrowRight"":30}","false","ArrowUp,ArrowLeft","false","revaluation","1","96","","",""
"html-keyboard-response","217","1067896","0.0-5.0-2.0-1.48","spark_pilot_norest","10589","6","23","Male","","","","","","","","null","<div style=""font-size:60px;"">+</div>","null","fixation","","","","","","","","","97","","",""
"revaluation","218","1073904","0.0-5.0-2.0-0.49","spark_pilot_norest","10589","6","23","Male","","false","","","","","","[1748,460]","./assets/img/canyon/memory/37.jpg","[""ArrowDown"",""ArrowRight""]","value training","canyon","30","{""ArrowUp,ArrowLeft"":23,""ArrowUp,ArrowRight"":10,""ArrowDown,ArrowLeft"":8,""ArrowDown,ArrowRight"":30}","true","ArrowDown,ArrowRight","false","revaluation","1","98","","",""
"html-keyboard-response","219","1074408","0.0-5.0-2.0-1.49","spark_pilot_norest","10589","6","23","Male","","","","","","","","null","<div style=""font-size:60px;"">+</div>","null","fixation","","","","","","","","","99","","",""
"learning-instructions","220","1089937","0.0-5.0-3.0-0.0","spark_pilot_norest","10589","6","23","Male","","","","","","","","2640.999999999767","<p> Now, you will travel with a friend who will choose whether you go up or down first. </p>
            <p> On these turns, you will just see the animal that they found. You will still get to choose which chest to search for treasure.</p>","","instructions","","","","","","","","","","","",""
"revaluation","221","1093943","0.0-5.0-4.0-0.0","spark_pilot_norest","10589","6","23","Male","","false","","","","","","[1253.9999999997672]","./assets/img/canyon/animals/giraffe.jpg","[""ArrowRight""]","revaluation","canyon","7","{""ArrowUp,ArrowLeft"":27,""ArrowUp,ArrowRight"":15,""ArrowDown,ArrowLeft"":21,""ArrowDown,ArrowRight"":7}","false","ArrowDown,ArrowRight","","revaluation","1","0","","",""
"html-keyboard-response","222","1094447","0.0-5.0-4.0-1.0","spark_pilot_norest","10589","6","23","Male","","","","","","","","null","<div style=""font-size:60px;"">+</div>","null","fixation","","","","","","","","","1","","",""
"revaluation","223","1098455","0.0-5.0-4.0-0.1","spark_pilot_norest","10589","6","23","Male","","false","","","","","","[1687]","./assets/img/canyon/animals/lion.jpg","[""ArrowLeft""]","revaluation","canyon","27","{""ArrowUp,ArrowLeft"":27,""ArrowUp,ArrowRight"":15,""ArrowDown,ArrowLeft"":21,""ArrowDown,ArrowRight"":7}","true","ArrowUp,ArrowLeft","","revaluation","1","2","","",""
"html-keyboard-response","224","1098959","0.0-5.0-4.0-1.1","spark_pilot_norest","10589","6","23","Male","","","","","","","","null","<div style=""font-size:60px;"">+</div>","null","fixation","","","","","","","","","3","","",""
"revaluation","225","1102966","0.0-5.0-4.0-0.2","spark_pilot_norest","10589","6","23","Male","","false","","","","","","[1295]","./assets/img/canyon/animals/lion.jpg","[""ArrowLeft""]","revaluation","canyon","27","{""ArrowUp,ArrowLeft"":27,""ArrowUp,ArrowRight"":15,""ArrowDown,ArrowLeft"":21,""ArrowDown,ArrowRight"":7}","true","ArrowUp,ArrowLeft","","revaluation","1","4","","",""
"html-keyboard-response","226","1103469","0.0-5.0-4.0-1.2","spark_pilot_norest","10589","6","23","Male","","","","","","","","null","<div style=""font-size:60px;"">+</div>","null","fixation","","","","","","","","","5","","",""
"revaluation","227","1107477","0.0-5.0-4.0-0.3","spark_pilot_norest","10589","6","23","Male","","true","","","","","","[]","./assets/img/canyon/animals/lion.jpg","[]","revaluation","canyon","-5","{""ArrowUp,ArrowLeft"":27,""ArrowUp,ArrowRight"":15,""ArrowDown,ArrowLeft"":21,""ArrowDown,ArrowRight"":7}","false","ArrowUp","","revaluation","1","6","","",""
"html-keyboard-response","228","1107980","0.0-5.0-4.0-1.3","spark_pilot_norest","10589","6","23","Male","","","","","","","","null","<div style=""font-size:60px;"">+</div>","null","fixation","","","","","","","","","7","","",""
"revaluation","229","1111987","0.0-5.0-4.0-0.4","spark_pilot_norest","10589","6","23","Male","","false","","","","","","[675]","./assets/img/canyon/animals/giraffe.jpg","[""ArrowLeft""]","revaluation","canyon","21","{""ArrowUp,ArrowLeft"":27,""ArrowUp,ArrowRight"":15,""ArrowDown,ArrowLeft"":21,""ArrowDown,ArrowRight"":7}","true","ArrowDown,ArrowLeft","","revaluation","1","8","","",""
"html-keyboard-response","230","1112491","0.0-5.0-4.0-1.4","spark_pilot_norest","10589","6","23","Male","","","","","","","","null","<div style=""font-size:60px;"">+</div>","null","fixation","","","","","","","","","9","","",""
"revaluation","231","1116500","0.0-5.0-4.0-0.5","spark_pilot_norest","10589","6","23","Male","","false","","","","","","[1308]","./assets/img/canyon/animals/giraffe.jpg","[""ArrowLeft""]","revaluation","canyon","21","{""ArrowUp,ArrowLeft"":27,""ArrowUp,ArrowRight"":15,""ArrowDown,ArrowLeft"":21,""ArrowDown,ArrowRight"":7}","true","ArrowDown,ArrowLeft","","revaluation","1","10","","",""
"html-keyboard-response","232","1117004","0.0-5.0-4.0-1.5","spark_pilot_norest","10589","6","23","Male","","","","","","","","null","<div style=""font-size:60px;"">+</div>","null","fixation","","","","","","","","","11","","",""
"revaluation","233","1121013","0.0-5.0-4.0-0.6","spark_pilot_norest","10589","6","23","Male","","false","","","","","","[1004]","./assets/img/canyon/animals/lion.jpg","[""ArrowLeft""]","revaluation","canyon","27","{""ArrowUp,ArrowLeft"":27,""ArrowUp,ArrowRight"":15,""ArrowDown,ArrowLeft"":21,""ArrowDown,ArrowRight"":7}","true","ArrowUp,ArrowLeft","","revaluation","1","12","","",""
"html-keyboard-response","234","1121517","0.0-5.0-4.0-1.6","spark_pilot_norest","10589","6","23","Male","","","","","","","","null","<div style=""font-size:60px;"">+</div>","null","fixation","","","","","","","","","13","","",""
"revaluation","235","1125525","0.0-5.0-4.0-0.7","spark_pilot_norest","10589","6","23","Male","","false","","","","","","[1143]","./assets/img/canyon/animals/lion.jpg","[""ArrowRight""]","revaluation","canyon","15","{""ArrowUp,ArrowLeft"":27,""ArrowUp,ArrowRight"":15,""ArrowDown,ArrowLeft"":21,""ArrowDown,ArrowRight"":7}","false","ArrowUp,ArrowRight","","revaluation","1","14","","",""
"html-keyboard-response","236","1126028","0.0-5.0-4.0-1.7","spark_pilot_norest","10589","6","23","Male","","","","","","","","null","<div style=""font-size:60px;"">+</div>","null","fixation","","","","","","","","","15","","",""
"revaluation","237","1130035","0.0-5.0-4.0-0.8","spark_pilot_norest","10589","6","23","Male","","false","","","","","","[480]","./assets/img/canyon/animals/giraffe.jpg","[""ArrowLeft""]","revaluation","canyon","21","{""ArrowUp,ArrowLeft"":27,""ArrowUp,ArrowRight"":15,""ArrowDown,ArrowLeft"":21,""ArrowDown,ArrowRight"":7}","true","ArrowDown,ArrowLeft","","revaluation","1","16","","",""
"html-keyboard-response","238","1130538","0.0-5.0-4.0-1.8","spark_pilot_norest","10589","6","23","Male","","","","","","","","null","<div style=""font-size:60px;"">+</div>","null","fixation","","","","","","","","","17","","",""
"revaluation","239","1134545","0.0-5.0-4.0-0.9","spark_pilot_norest","10589","6","23","Male","","false","","","","","","[1016]","./assets/img/canyon/animals/lion.jpg","[""ArrowLeft""]","revaluation","canyon","27","{""ArrowUp,ArrowLeft"":27,""ArrowUp,ArrowRight"":15,""ArrowDown,ArrowLeft"":21,""ArrowDown,ArrowRight"":7}","true","ArrowUp,ArrowLeft","","revaluation","1","18","","",""
"html-keyboard-response","240","1135049","0.0-5.0-4.0-1.9","spark_pilot_norest","10589","6","23","Male","","","","","","","","null","<div style=""font-size:60px;"">+</div>","null","fixation","","","","","","","","","19","","",""
"revaluation","241","1139055","0.0-5.0-4.0-0.10","spark_pilot_norest","10589","6","23","Male","","false","","","","","","[495]","./assets/img/canyon/animals/lion.jpg","[""ArrowLeft""]","revaluation","canyon","27","{""ArrowUp,ArrowLeft"":27,""ArrowUp,ArrowRight"":15,""ArrowDown,ArrowLeft"":21,""ArrowDown,ArrowRight"":7}","true","ArrowUp,ArrowLeft","","revaluation","1","20","","",""
"html-keyboard-response","242","1139558","0.0-5.0-4.0-1.10","spark_pilot_norest","10589","6","23","Male","","","","","","","","null","<div style=""font-size:60px;"">+</div>","null","fixation","","","","","","","","","21","","",""
"revaluation","243","1143567","0.0-5.0-4.0-0.11","spark_pilot_norest","10589","6","23","Male","","false","","","","","","[774]","./assets/img/canyon/animals/giraffe.jpg","[""ArrowLeft""]","revaluation","canyon","21","{""ArrowUp,ArrowLeft"":27,""ArrowUp,ArrowRight"":15,""ArrowDown,ArrowLeft"":21,""ArrowDown,ArrowRight"":7}","true","ArrowDown,ArrowLeft","","revaluation","1","22","","",""
"html-keyboard-response","244","1144071","0.0-5.0-4.0-1.11","spark_pilot_norest","10589","6","23","Male","","","","","","","","null","<div style=""font-size:60px;"">+</div>","null","fixation","","","","","","","","","23","","",""
"revaluation","245","1148080","0.0-5.0-4.0-0.12","spark_pilot_norest","10589","6","23","Male","","false","","","","","","[623]","./assets/img/canyon/animals/giraffe.jpg","[""ArrowLeft""]","revaluation","canyon","21","{""ArrowUp,ArrowLeft"":27,""ArrowUp,ArrowRight"":15,""ArrowDown,ArrowLeft"":21,""ArrowDown,ArrowRight"":7}","true","ArrowDown,ArrowLeft","","revaluation","1","24","","",""
"html-keyboard-response","246","1148586","0.0-5.0-4.0-1.12","spark_pilot_norest","10589","6","23","Male","","","","","","","","null","<div style=""font-size:60px;"">+</div>","null","fixation","","","","","","","","","25","","",""
"revaluation","247","1152592","0.0-5.0-4.0-0.13","spark_pilot_norest","10589","6","23","Male","","false","","","","","","[551]","./assets/img/canyon/animals/lion.jpg","[""ArrowLeft""]","revaluation","canyon","27","{""ArrowUp,ArrowLeft"":27,""ArrowUp,ArrowRight"":15,""ArrowDown,ArrowLeft"":21,""ArrowDown,ArrowRight"":7}","true","ArrowUp,ArrowLeft","","revaluation","1","26","","",""
"html-keyboard-response","248","1153095","0.0-5.0-4.0-1.13","spark_pilot_norest","10589","6","23","Male","","","","","","","","null","<div style=""font-size:60px;"">+</div>","null","fixation","","","","","","","","","27","","",""
"revaluation","249","1157103","0.0-5.0-4.0-0.14","spark_pilot_norest","10589","6","23","Male","","false","","","","","","[427]","./assets/img/canyon/animals/lion.jpg","[""ArrowLeft""]","revaluation","canyon","27","{""ArrowUp,ArrowLeft"":27,""ArrowUp,ArrowRight"":15,""ArrowDown,ArrowLeft"":21,""ArrowDown,ArrowRight"":7}","true","ArrowUp,ArrowLeft","","revaluation","1","28","","",""
"html-keyboard-response","250","1157606","0.0-5.0-4.0-1.14","spark_pilot_norest","10589","6","23","Male","","","","","","","","null","<div style=""font-size:60px;"">+</div>","null","fixation","","","","","","","","","29","","",""
"revaluation","251","1161613","0.0-5.0-4.0-0.15","spark_pilot_norest","10589","6","23","Male","","false","","","","","","[514]","./assets/img/canyon/animals/giraffe.jpg","[""ArrowLeft""]","revaluation","canyon","21","{""ArrowUp,ArrowLeft"":27,""ArrowUp,ArrowRight"":15,""ArrowDown,ArrowLeft"":21,""ArrowDown,ArrowRight"":7}","true","ArrowDown,ArrowLeft","","revaluation","1","30","","",""
"html-keyboard-response","252","1162117","0.0-5.0-4.0-1.15","spark_pilot_norest","10589","6","23","Male","","","","","","","","null","<div style=""font-size:60px;"">+</div>","null","fixation","","","","","","","","","31","","",""
"revaluation","253","1166124","0.0-5.0-4.0-0.16","spark_pilot_norest","10589","6","23","Male","","false","","","","","","[483]","./assets/img/canyon/animals/giraffe.jpg","[""ArrowLeft""]","revaluation","canyon","21","{""ArrowUp,ArrowLeft"":27,""ArrowUp,ArrowRight"":15,""ArrowDown,ArrowLeft"":21,""ArrowDown,ArrowRight"":7}","true","ArrowDown,ArrowLeft","","revaluation","1","32","","",""
"html-keyboard-response","254","1166627","0.0-5.0-4.0-1.16","spark_pilot_norest","10589","6","23","Male","","","","","","","","null","<div style=""font-size:60px;"">+</div>","null","fixation","","","","","","","","","33","","",""
"revaluation","255","1170636","0.0-5.0-4.0-0.17","spark_pilot_norest","10589","6","23","Male","","false","","","","","","[407]","./assets/img/canyon/animals/giraffe.jpg","[""ArrowLeft""]","revaluation","canyon","21","{""ArrowUp,ArrowLeft"":27,""ArrowUp,ArrowRight"":15,""ArrowDown,ArrowLeft"":21,""ArrowDown,ArrowRight"":7}","true","ArrowDown,ArrowLeft","","revaluation","1","34","","",""
"html-keyboard-response","256","1171140","0.0-5.0-4.0-1.17","spark_pilot_norest","10589","6","23","Male","","","","","","","","null","<div style=""font-size:60px;"">+</div>","null","fixation","","","","","","","","","35","","",""
"learning-instructions","257","1179248","0.0-5.0-5.0-0.0","spark_pilot_norest","10589","6","23","Male","","","","","","","","null","<p> You have almost finished this part of the game! </p>
            <p> We are going to ask you to make a few more choices. </p>","","instructions","","","","","","","","","","","",""
"learning-instructions","258","1195225","0.0-5.0-5.0-0.1","spark_pilot_norest","10589","6","23","Male","","","","","","","","null","<p> First, you need to decide whether to go up or down. When you see each picture, use the arrow keys to make your choice. </p>
            <p><b>You will not see which animal you found, but try to get to the one that will give you the most treasure.</b></p>","","instructions","","","","","","","","","","","",""
"html-keyboard-response","259","1196229","0.0-5.0-6.0-0.0","spark_pilot_norest","10589","6","23","Male","","","","","","","","null","<div style=""font-size:100px;color:red;"">Starting in...</div>","null","","","","","","","","","","","","",""
"html-keyboard-response","260","1197232","0.0-5.0-6.0-1.0","spark_pilot_norest","10589","6","23","Male","","","","","","","","null","<div style=""font-size:200px;color:red;"">3</div>","null","","","","","","","","","","","","",""
"html-keyboard-response","261","1198235","0.0-5.0-6.0-2.0","spark_pilot_norest","10589","6","23","Male","","","","","","","","null","<div style=""font-size:200px;color:red;"">2</div>","null","","","","","","","","","","","","",""
"html-keyboard-response","262","1199238","0.0-5.0-6.0-3.0","spark_pilot_norest","10589","6","23","Male","","","","","","","","null","<div style=""font-size:200px;color:red;"">1</div>","null","","","","","","","","","","","","",""
"revaluation","263","1199812","0.0-5.0-7.0-0.0","spark_pilot_norest","10589","6","23","Male","","false","","","","","","[566]","./assets/img/canyon/test/3.jpg","[""ArrowDown""]","first stage test","canyon","0","{""ArrowUp,ArrowLeft"":27,""ArrowUp,ArrowRight"":15,""ArrowDown,ArrowLeft"":21,""ArrowDown,ArrowRight"":7}","false","ArrowDown","false","revaluation","1","","","",""
"html-keyboard-response","264","1200315","0.0-5.0-7.0-1.0","spark_pilot_norest","10589","6","23","Male","","","","","","","","null","<div style=""font-size:60px;"">+</div>","null","fixation","","","","","","","","","","","",""
"revaluation","265","1202233","0.0-5.0-7.0-0.1","spark_pilot_norest","10589","6","23","Male","","false","","","","","","[1910]","./assets/img/canyon/test/1.jpg","[""ArrowDown""]","first stage test","canyon","0","{""ArrowUp,ArrowLeft"":27,""ArrowUp,ArrowRight"":15,""ArrowDown,ArrowLeft"":21,""ArrowDown,ArrowRight"":7}","false","ArrowDown","false","revaluation","1","","","",""
"html-keyboard-response","266","1202737","0.0-5.0-7.0-1.1","spark_pilot_norest","10589","6","23","Male","","","","","","","","null","<div style=""font-size:60px;"">+</div>","null","fixation","","","","","","","","","","","",""
"revaluation","267","1203589","0.0-5.0-7.0-0.2","spark_pilot_norest","10589","6","23","Male","","false","","","","","","[846]","./assets/img/canyon/test/0.jpg","[""ArrowUp""]","first stage test","canyon","0","{""ArrowUp,ArrowLeft"":27,""ArrowUp,ArrowRight"":15,""ArrowDown,ArrowLeft"":21,""ArrowDown,ArrowRight"":7}","true","ArrowUp","false","revaluation","1","","","",""
"html-keyboard-response","268","1204093","0.0-5.0-7.0-1.2","spark_pilot_norest","10589","6","23","Male","","","","","","","","null","<div style=""font-size:60px;"">+</div>","null","fixation","","","","","","","","","","","",""
"revaluation","269","1204876","0.0-5.0-7.0-0.3","spark_pilot_norest","10589","6","23","Male","","false","","","","","","[778]","./assets/img/canyon/test/2.jpg","[""ArrowDown""]","first stage test","canyon","0","{""ArrowUp,ArrowLeft"":27,""ArrowUp,ArrowRight"":15,""ArrowDown,ArrowLeft"":21,""ArrowDown,ArrowRight"":7}","false","ArrowDown","false","revaluation","1","","","",""
"html-keyboard-response","270","1205380","0.0-5.0-7.0-1.3","spark_pilot_norest","10589","6","23","Male","","","","","","","","null","<div style=""font-size:60px;"">+</div>","null","fixation","","","","","","","","","","","",""
"learning-instructions","271","1218724","0.0-5.0-8.0-0.0","spark_pilot_norest","10589","6","23","Male","","","","","","","","null","<p> Now you will see the animals again and can search their chests for treasure. </p>
            <p> This time, you will not see how much treasure you earned, but you will earn more bonus money for making better choices. </p>","","instructions","","","","","","","","","","","",""
"html-keyboard-response","272","1219727","0.0-5.0-9.0-0.0","spark_pilot_norest","10589","6","23","Male","","","","","","","","null","<div style=""font-size:100px;color:red;"">Starting in...</div>","null","","","","","","","","","","","","",""
"html-keyboard-response","273","1220731","0.0-5.0-9.0-1.0","spark_pilot_norest","10589","6","23","Male","","","","","","","","null","<div style=""font-size:200px;color:red;"">3</div>","null","","","","","","","","","","","","",""
"html-keyboard-response","274","1221735","0.0-5.0-9.0-2.0","spark_pilot_norest","10589","6","23","Male","","","","","","","","null","<div style=""font-size:200px;color:red;"">2</div>","null","","","","","","","","","","","","",""
"html-keyboard-response","275","1222739","0.0-5.0-9.0-3.0","spark_pilot_norest","10589","6","23","Male","","","","","","","","null","<div style=""font-size:200px;color:red;"">1</div>","null","","","","","","","","","","","","",""
"revaluation","276","1225474","0.0-5.0-10.0-0.0","spark_pilot_norest","10589","6","23","Male","","false","","","","","","[2725]","./assets/img/canyon/animals/lion.jpg","[""ArrowRight""]","second stage test","canyon","0","{""ArrowUp,ArrowLeft"":27,""ArrowUp,ArrowRight"":15,""ArrowDown,ArrowLeft"":21,""ArrowDown,ArrowRight"":7}","false","ArrowUp,ArrowRight","","revaluation","1","","","",""
"html-keyboard-response","277","1225976","0.0-5.0-10.0-1.0","spark_pilot_norest","10589","6","23","Male","","","","","","","","null","<div style=""font-size:60px;"">+</div>","null","fixation","","","","","","","","","","","",""
"revaluation","278","1226415","0.0-5.0-10.0-0.1","spark_pilot_norest","10589","6","23","Male","","false","","","","","","[432]","./assets/img/canyon/animals/lion.jpg","[""ArrowRight""]","second stage test","canyon","0","{""ArrowUp,ArrowLeft"":27,""ArrowUp,ArrowRight"":15,""ArrowDown,ArrowLeft"":21,""ArrowDown,ArrowRight"":7}","false","ArrowUp,ArrowRight","","revaluation","1","","","",""
"html-keyboard-response","279","1226918","0.0-5.0-10.0-1.1","spark_pilot_norest","10589","6","23","Male","","","","","","","","null","<div style=""font-size:60px;"">+</div>","null","fixation","","","","","","","","","","","",""
"revaluation","280","1227513","0.0-5.0-10.0-0.2","spark_pilot_norest","10589","6","23","Male","","false","","","","","","[589]","./assets/img/canyon/animals/lion.jpg","[""ArrowLeft""]","second stage test","canyon","0","{""ArrowUp,ArrowLeft"":27,""ArrowUp,ArrowRight"":15,""ArrowDown,ArrowLeft"":21,""ArrowDown,ArrowRight"":7}","true","ArrowUp,ArrowLeft","","revaluation","1","","","",""
"html-keyboard-response","281","1228016","0.0-5.0-10.0-1.2","spark_pilot_norest","10589","6","23","Male","","","","","","","","null","<div style=""font-size:60px;"">+</div>","null","fixation","","","","","","","","","","","",""
"revaluation","282","1228495","0.0-5.0-10.0-0.3","spark_pilot_norest","10589","6","23","Male","","false","","","","","","[473]","./assets/img/canyon/animals/lion.jpg","[""ArrowLeft""]","second stage test","canyon","0","{""ArrowUp,ArrowLeft"":27,""ArrowUp,ArrowRight"":15,""ArrowDown,ArrowLeft"":21,""ArrowDown,ArrowRight"":7}","true","ArrowUp,ArrowLeft","","revaluation","1","","","",""
"html-keyboard-response","283","1228998","0.0-5.0-10.0-1.3","spark_pilot_norest","10589","6","23","Male","","","","","","","","null","<div style=""font-size:60px;"">+</div>","null","fixation","","","","","","","","","","","",""
"revaluation","284","1229742","0.0-5.0-10.0-0.4","spark_pilot_norest","10589","6","23","Male","","false","","","","","","[738]","./assets/img/canyon/animals/giraffe.jpg","[""ArrowLeft""]","second stage test","canyon","0","{""ArrowUp,ArrowLeft"":27,""ArrowUp,ArrowRight"":15,""ArrowDown,ArrowLeft"":21,""ArrowDown,ArrowRight"":7}","true","ArrowDown,ArrowLeft","","revaluation","1","","","",""
"html-keyboard-response","285","1230245","0.0-5.0-10.0-1.4","spark_pilot_norest","10589","6","23","Male","","","","","","","","null","<div style=""font-size:60px;"">+</div>","null","fixation","","","","","","","","","","","",""
"revaluation","286","1231031","0.0-5.0-10.0-0.5","spark_pilot_norest","10589","6","23","Male","","false","","","","","","[780]","./assets/img/canyon/animals/giraffe.jpg","[""ArrowLeft""]","second stage test","canyon","0","{""ArrowUp,ArrowLeft"":27,""ArrowUp,ArrowRight"":15,""ArrowDown,ArrowLeft"":21,""ArrowDown,ArrowRight"":7}","true","ArrowDown,ArrowLeft","","revaluation","1","","","",""
"html-keyboard-response","287","1231533","0.0-5.0-10.0-1.5","spark_pilot_norest","10589","6","23","Male","","","","","","","","null","<div style=""font-size:60px;"">+</div>","null","fixation","","","","","","","","","","","",""
"revaluation","288","1232132","0.0-5.0-10.0-0.6","spark_pilot_norest","10589","6","23","Male","","false","","","","","","[594]","./assets/img/canyon/animals/giraffe.jpg","[""ArrowLeft""]","second stage test","canyon","0","{""ArrowUp,ArrowLeft"":27,""ArrowUp,ArrowRight"":15,""ArrowDown,ArrowLeft"":21,""ArrowDown,ArrowRight"":7}","true","ArrowDown,ArrowLeft","","revaluation","1","","","",""
"html-keyboard-response","289","1232636","0.0-5.0-10.0-1.6","spark_pilot_norest","10589","6","23","Male","","","","","","","","null","<div style=""font-size:60px;"">+</div>","null","fixation","","","","","","","","","","","",""
"revaluation","290","1233133","0.0-5.0-10.0-0.7","spark_pilot_norest","10589","6","23","Male","","false","","","","","","[493.00000000023283]","./assets/img/canyon/animals/giraffe.jpg","[""ArrowLeft""]","second stage test","canyon","0","{""ArrowUp,ArrowLeft"":27,""ArrowUp,ArrowRight"":15,""ArrowDown,ArrowLeft"":21,""ArrowDown,ArrowRight"":7}","true","ArrowDown,ArrowLeft","","revaluation","1","","","",""
"html-keyboard-response","291","1233637","0.0-5.0-10.0-1.7","spark_pilot_norest","10589","6","23","Male","","","","","","","","null","<div style=""font-size:60px;"">+</div>","null","fixation","","","","","","","","","","","",""
"learning-instructions","292","1238017","0.0-5.0-0.1-0.2","spark_pilot_norest","10589","6","23","Male","","","","","","","","1681","<p> This time you are searching for treasure in the <b>ocean</b>.</p>","","instructions","","","","","","","","","","","",""
"learning-instructions","293","1259959","0.0-5.0-0.1-0.3","spark_pilot_norest","10589","6","23","Male","","","","","","","","4685","<p><b>New</b> animals with <b>new</b> treasure chests live here. You need to explore to discover where the animal with the best treasure chest is.</p>
                    <p> Like before, once you figure out which animal has the chest with the most treasure, you should try to get to that animal and select that chest! </p>","","instructions","","","","","","","","","","","",""
"learning-instructions","294","1300241","0.0-5.0-1.1-0.1","spark_pilot_norest","10589","6","23","Male","","","","","","","","25547","<p> Remember, when you see a picture of the place, use the up and down keys to <b>find an animal</b>.</p>
            <p> When you encounter an animal, you should use the left and right keys to <b>select a treasure chest</b>.</p>
            <p> Don't forget to look out for the robber! </p>","","instructions","","","","","","","","","","","",""
"revaluation","295","1304249","0.0-5.0-2.1-0.50","spark_pilot_norest","10589","6","23","Male","","false","","","","","","[1490]","./assets/img/ocean/catch/7.jpg","[""spaceBar""]","value training","ocean","0","{""ArrowUp,ArrowLeft"":26,""ArrowUp,ArrowRight"":10,""ArrowDown,ArrowLeft"":5,""ArrowDown,ArrowRight"":17}","true","spaceBar","true","original","2","0","","",""
"html-keyboard-response","296","1304754","0.0-5.0-2.1-1.50","spark_pilot_norest","10589","6","23","Male","","","","","","","","null","<div style=""font-size:60px;"">+</div>","null","fixation","","","","","","","","","1","","",""
"revaluation","297","1310763","0.0-5.0-2.1-0.51","spark_pilot_norest","10589","6","23","Male","","false","","","","","","[1200.9999999997672,640]","./assets/img/ocean/memory/32.jpg","[""ArrowDown"",""ArrowLeft""]","value training","ocean","5","{""ArrowUp,ArrowLeft"":26,""ArrowUp,ArrowRight"":10,""ArrowDown,ArrowLeft"":5,""ArrowDown,ArrowRight"":17}","false","ArrowDown,ArrowLeft","false","original","2","2","","",""
"html-keyboard-response","298","1311267","0.0-5.0-2.1-1.51","spark_pilot_norest","10589","6","23","Male","","","","","","","","null","<div style=""font-size:60px;"">+</div>","null","fixation","","","","","","","","","3","","",""
"revaluation","299","1315274","0.0-5.0-2.1-0.52","spark_pilot_norest","10589","6","23","Male","","false","","","","","","[597]","./assets/img/ocean/catch/4.jpg","[""ArrowDown""]","value training","ocean","-10","{""ArrowUp,ArrowLeft"":26,""ArrowUp,ArrowRight"":10,""ArrowDown,ArrowLeft"":5,""ArrowDown,ArrowRight"":17}","false","ArrowDown","true","original","2","4","","",""
"html-keyboard-response","300","1315777","0.0-5.0-2.1-1.52","spark_pilot_norest","10589","6","23","Male","","","","","","","","null","<div style=""font-size:60px;"">+</div>","null","fixation","","","","","","","","","5","","",""
"revaluation","301","1321786","0.0-5.0-2.1-0.53","spark_pilot_norest","10589","6","23","Male","","false","","","","","","[705,729]","./assets/img/ocean/memory/34.jpg","[""ArrowDown"",""ArrowRight""]","value training","ocean","17","{""ArrowUp,ArrowLeft"":26,""ArrowUp,ArrowRight"":10,""ArrowDown,ArrowLeft"":5,""ArrowDown,ArrowRight"":17}","false","ArrowDown,ArrowRight","false","original","2","6","","",""
"html-keyboard-response","302","1322290","0.0-5.0-2.1-1.53","spark_pilot_norest","10589","6","23","Male","","","","","","","","null","<div style=""font-size:60px;"">+</div>","null","fixation","","","","","","","","","7","","",""
"revaluation","303","1328300","0.0-5.0-2.1-0.54","spark_pilot_norest","10589","6","23","Male","","false","","","","","","[1628.0000000002328,862]","./assets/img/ocean/memory/14.jpg","[""ArrowUp"",""ArrowLeft""]","value training","ocean","26","{""ArrowUp,ArrowLeft"":26,""ArrowUp,ArrowRight"":10,""ArrowDown,ArrowLeft"":5,""ArrowDown,ArrowRight"":17}","true","ArrowUp,ArrowLeft","false","original","2","8","","",""
"html-keyboard-response","304","1328804","0.0-5.0-2.1-1.54","spark_pilot_norest","10589","6","23","Male","","","","","","","","null","<div style=""font-size:60px;"">+</div>","null","fixation","","","","","","","","","9","","",""
"revaluation","305","1332811","0.0-5.0-2.1-0.55","spark_pilot_norest","10589","6","23","Male","","false","","","","","","[902]","./assets/img/ocean/catch/3.jpg","[""spaceBar""]","value training","ocean","0","{""ArrowUp,ArrowLeft"":26,""ArrowUp,ArrowRight"":10,""ArrowDown,ArrowLeft"":5,""ArrowDown,ArrowRight"":17}","true","spaceBar","true","original","2","10","","",""
"html-keyboard-response","306","1333315","0.0-5.0-2.1-1.55","spark_pilot_norest","10589","6","23","Male","","","","","","","","null","<div style=""font-size:60px;"">+</div>","null","fixation","","","","","","","","","11","","",""
"revaluation","307","1339323","0.0-5.0-2.1-0.56","spark_pilot_norest","10589","6","23","Male","","false","","","","","","[803,747]","./assets/img/ocean/memory/13.jpg","[""ArrowUp"",""ArrowRight""]","value training","ocean","10","{""ArrowUp,ArrowLeft"":26,""ArrowUp,ArrowRight"":10,""ArrowDown,ArrowLeft"":5,""ArrowDown,ArrowRight"":17}","false","ArrowUp,ArrowRight","false","original","2","12","","",""
"html-keyboard-response","308","1339826","0.0-5.0-2.1-1.56","spark_pilot_norest","10589","6","23","Male","","","","","","","","null","<div style=""font-size:60px;"">+</div>","null","fixation","","","","","","","","","13","","",""
"revaluation","309","1345835","0.0-5.0-2.1-0.57","spark_pilot_norest","10589","6","23","Male","","false","","","","","","[1290,473]","./assets/img/ocean/memory/14.jpg","[""ArrowUp"",""ArrowLeft""]","value training","ocean","26","{""ArrowUp,ArrowLeft"":26,""ArrowUp,ArrowRight"":10,""ArrowDown,ArrowLeft"":5,""ArrowDown,ArrowRight"":17}","true","ArrowUp,ArrowLeft","false","original","2","14","","",""
"html-keyboard-response","310","1346339","0.0-5.0-2.1-1.57","spark_pilot_norest","10589","6","23","Male","","","","","","","","null","<div style=""font-size:60px;"">+</div>","null","fixation","","","","","","","","","15","","",""
"revaluation","311","1352348","0.0-5.0-2.1-0.58","spark_pilot_norest","10589","6","23","Male","","false","","","","","","[1329,502.00000000023283]","./assets/img/ocean/memory/27.jpg","[""ArrowUp"",""ArrowLeft""]","value training","ocean","26","{""ArrowUp,ArrowLeft"":26,""ArrowUp,ArrowRight"":10,""ArrowDown,ArrowLeft"":5,""ArrowDown,ArrowRight"":17}","true","ArrowUp,ArrowLeft","false","original","2","16","","",""
"html-keyboard-response","312","1352851","0.0-5.0-2.1-1.58","spark_pilot_norest","10589","6","23","Male","","","","","","","","null","<div style=""font-size:60px;"">+</div>","null","fixation","","","","","","","","","17","","",""
"revaluation","313","1358860","0.0-5.0-2.1-0.59","spark_pilot_norest","10589","6","23","Male","","false","","","","","","[1222,612]","./assets/img/ocean/memory/26.jpg","[""ArrowUp"",""ArrowLeft""]","value training","ocean","26","{""ArrowUp,ArrowLeft"":26,""ArrowUp,ArrowRight"":10,""ArrowDown,ArrowLeft"":5,""ArrowDown,ArrowRight"":17}","true","ArrowUp,ArrowLeft","false","original","2","18","","",""
"html-keyboard-response","314","1359365","0.0-5.0-2.1-1.59","spark_pilot_norest","10589","6","23","Male","","","","","","","","null","<div style=""font-size:60px;"">+</div>","null","fixation","","","","","","","","","19","","",""
"revaluation","315","1363376","0.0-5.0-2.1-0.60","spark_pilot_norest","10589","6","23","Male","","true","","","","","","[]","./assets/img/ocean/memory/34.jpg","[]","value training","ocean","-5","{""ArrowUp,ArrowLeft"":26,""ArrowUp,ArrowRight"":10,""ArrowDown,ArrowLeft"":5,""ArrowDown,ArrowRight"":17}","false","","false","original","2","20","","",""
