"trial_type","trial_index","time_elapsed","internal_node_id","task_version","subject_id","assigned_condition","age","gender","success","timeout","failed_images","failed_audio","failed_video","browser_interaction","rt","stimulus","response","task_part","environment","score","rewardMap","correct","fullState","isCatch","condition","order","trial_num","key_press","ground_truth","bonus"
"pavlovia","0","1428","0.0-0.0","spark_pilot_norest","14425","1","18","Male","","","","","","","","","","","","","","","","","","","","","",""
"preload","1","12972","0.0-1.0","spark_pilot_norest","14425","1","18","Male","true","false","[]","[]","[]","[{""event"":""fullscreenenter"",""trial"":2,""time"":16079}]","","","","","","","","","","","","","","","",""
"fullscreen","2","17077","0.0-2.0","spark_pilot_norest","14425","1","18","Male","true","","","","","","","","","","","","","","","","","","","","",""
"audio-button-response","3","18200","0.0-3.0-0.0-0.0","spark_pilot_norest","14425","1","18","Male","","","","","","","1091","./assets/audio/audiotest/turtle.mp3","2","audio_test","","","","","","","","","","","",""
"learning-instructions","4","26983","0.0-3.0-1.0-0.0","spark_pilot_norest","14425","1","18","Male","","","","","","","1819","<p> Welcome! Please remember to stay in fullscreen mode and don't click away from the experiment. </p>","","instructions","","","","","","","","","","","",""
"learning-instructions","5","36662","0.0-3.0-1.0-0.1","spark_pilot_norest","14425","1","18","Male","","","","","","","1297.9000000953674","<p> Today you will be playing a game to earn treasure. </p>
            <p> At the end of the experiment, you will earn a bonus based on how much treasure you find. </p>
            <img src='./assets/img/instructions/treasure.jpg' class='instructions-image'>","","instructions","","","","","","","","","","","",""
"learning-instructions","6","45630","0.0-3.0-1.0-0.2","spark_pilot_norest","14425","1","18","Male","","","","","","","715.4000000953674","<p> Animals have hidden treasure in treasure chests. </p>
            <p> You need to first find an animal and then choose which of their treasure chests to search. </p>
            <img src='./assets/img/space/animals/cat.jpg' class='instructions-image'>","","instructions","","","","","","","","","","","",""
"learning-instructions","7","59547","0.0-3.0-1.0-0.3","spark_pilot_norest","14425","1","18","Male","","","","","","","784.2999999523163","<p> In each round, you will search for treasure in a different place. In the real game, there will be two rounds. </p>
            <p> You will begin with a separate, practice round where you will search for treasure in outer space. </p>
            <img src='./assets/img/space/0.jpg' class='instructions-image'>","","instructions","","","","","","","","","","","",""
"learning-instructions","8","71466","0.0-3.0-1.0-0.4","spark_pilot_norest","14425","1","18","Male","","","","","","","523.0999999046326","<p> On every turn, you will see a picture of the place that you are in, but the specific image may be different each time. </p>
            <p> For example, both of these images mean you are in outer space. </p>
            <img src='./assets/img/instructions/outerspace.jpg' class='instructions-image'>","","instructions","","","","","","","","","","","",""
"learning-instructions","9","80028","0.0-3.0-1.0-0.5","spark_pilot_norest","14425","1","18","Male","","","","","","","755.0999999046326","<p> You need to decide which direction to travel in. </p>
            <p> You can choose between going <b>up or down</b> by using the arrow keys. </p>
            <img src='./assets/img/instructions/updown.jpg' class='instructions-image'>","","instructions","","","","","","","","","","","",""
"learning-instructions","10","89230","0.0-3.0-1.0-0.6","spark_pilot_norest","14425","1","18","Male","","","","","","","406.60000002384186","<p> You will have <b>2 seconds</b> to make your choice. </p>
            <p> If you do not make a choice within 2 seconds, you will not find an animal or earn treasure. </p>
            <img src='./assets/img/instructions/2seconds.jpg' class='instructions-image'>","","instructions","","","","","","","","","","","",""
"learning-instructions","11","96664","0.0-3.0-1.0-0.7","spark_pilot_norest","14425","1","18","Male","","","","","","","420.7000000476837","<p> Let’s try practicing that now! </p>
            <p> When you see a picture of the place you are in, press the <b>up</b> key to travel up. </p>
            <img src='./assets/img/instructions/pressUp.jpg' class='instructions-image'>","","instructions","","","","","","","","","","","",""
"revaluation","12","100684","0.0-3.0-2.0-0.0","spark_pilot_norest","14425","1","18","Male","","false","","","","","[896.2999999523163]","./assets/img/space/0.jpg","[""ArrowUp""]","first stage practice","space","0","null","null","ArrowUp","false","","","","","",""
"html-keyboard-response","13","101198","0.0-3.0-2.0-1.0","spark_pilot_norest","14425","1","18","Male","","","","","","","null","<div style=""font-size:60px;"">+</div>","null","fixation","","","","","","","","","","","",""
"revaluation","14","105226","0.0-3.0-2.0-0.1","spark_pilot_norest","14425","1","18","Male","","false","","","","","[816.1999999284744]","./assets/img/space/1.jpg","[""ArrowUp""]","first stage practice","space","0","null","null","ArrowUp","false","","","","","",""
"html-keyboard-response","15","105727","0.0-3.0-2.0-1.1","spark_pilot_norest","14425","1","18","Male","","","","","","","null","<div style=""font-size:60px;"">+</div>","null","fixation","","","","","","","","","","","",""
"revaluation","16","109752","0.0-3.0-2.0-0.2","spark_pilot_norest","14425","1","18","Male","","false","","","","","[282.09999990463257]","./assets/img/space/2.jpg","[""ArrowUp""]","first stage practice","space","0","null","null","ArrowUp","false","","","","","",""
"html-keyboard-response","17","110253","0.0-3.0-2.0-1.2","spark_pilot_norest","14425","1","18","Male","","","","","","","null","<div style=""font-size:60px;"">+</div>","null","fixation","","","","","","","","","","","",""
"learning-instructions","18","116899","0.0-3.0-3.0-0.0","spark_pilot_norest","14425","1","18","Male","","","","","","","1966","<p> Great job! Now try pressing the <b>down</b> key to travel down. </p>
            <img src='./assets/img/instructions/pressDown.jpg' class='instructions-image'>","","instructions","","","","","","","","","","","",""
"revaluation","19","120916","0.0-3.0-4.0-0.0","spark_pilot_norest","14425","1","18","Male","","false","","","","","[687.1000000238419]","./assets/img/space/3.jpg","[""ArrowDown""]","first stage practice","space","0","null","null","ArrowDown","false","","","","","",""
"html-keyboard-response","20","121430","0.0-3.0-4.0-1.0","spark_pilot_norest","14425","1","18","Male","","","","","","","null","<div style=""font-size:60px;"">+</div>","null","fixation","","","","","","","","","","","",""
"revaluation","21","125447","0.0-3.0-4.0-0.1","spark_pilot_norest","14425","1","18","Male","","false","","","","","[40.200000047683716]","./assets/img/space/4.jpg","[""ArrowDown""]","first stage practice","space","0","null","null","ArrowDown","false","","","","","",""
"html-keyboard-response","22","125954","0.0-3.0-4.0-1.1","spark_pilot_norest","14425","1","18","Male","","","","","","","null","<div style=""font-size:60px;"">+</div>","null","fixation","","","","","","","","","","","",""
"revaluation","23","129980","0.0-3.0-4.0-0.2","spark_pilot_norest","14425","1","18","Male","","false","","","","","[371.5]","./assets/img/space/5.jpg","[""ArrowDown""]","first stage practice","space","0","null","null","ArrowDown","false","","","","","",""
"html-keyboard-response","24","130483","0.0-3.0-4.0-1.2","spark_pilot_norest","14425","1","18","Male","","","","","","","null","<div style=""font-size:60px;"">+</div>","null","fixation","","","","","","","","","","","",""
"learning-instructions","25","141038","0.0-3.0-5.0-0.0","spark_pilot_norest","14425","1","18","Male","","","","","","","724.3000000715256","<p> The animals don’t move, so the animal in the upper part of a place will stay in the upper part of a place, and the animal in the lower part of a place will stay in the lower part of a place. </p>","","instructions","","","","","","","","","","","",""
"learning-instructions","26","150819","0.0-3.0-5.0-0.1","spark_pilot_norest","14425","1","18","Male","","","","","","","666.8999999761581","<p> Each animal has two treasure chests for you to choose from. </p>
            <p> The amount of treasure in each chest can range from <b> 0 to 40 pieces.</b></p>","","instructions","","","","","","","","","","","",""
"learning-instructions","27","163450","0.0-3.0-5.0-0.2","spark_pilot_norest","14425","1","18","Male","","","","","","","1466.3999999761581","<p> You should decide which chest to search for treasure by using the <b>left</b> and <b>right</b> arrow keys. </p>
            <p><b> Pay attention to which animal is on the screen, as the animals have different treasure chests. </b></p>
            <img src='./assets/img/instructions/leftright.jpg' class='instructions-image'>","","instructions","","","","","","","","","","","",""
"learning-instructions","28","170147","0.0-3.0-5.0-0.3","spark_pilot_norest","14425","1","18","Male","","","","","","","354.5","<p> Let’s try practicing that now. </p>
            <p> When you see an animal, choose which chest to search for treasure. </p>
            <img src='./assets/img/instructions/chooseChest.jpg' class='instructions-image'>","","instructions","","","","","","","","","","","",""
"revaluation","29","174170","0.0-3.0-6.0-0.0","spark_pilot_norest","14425","1","18","Male","","false","","","","","[794.8999999761581]","./assets/img/space/animals/rabbit.jpg","[""ArrowRight""]","second stage practice","space","23","{""ArrowUp,ArrowLeft"":3,""ArrowUp,ArrowRight"":36,""ArrowDown,ArrowLeft"":15,""ArrowDown,ArrowRight"":23}","true","ArrowDown,ArrowRight","","","","","","",""
"html-keyboard-response","30","174683","0.0-3.0-6.0-1.0","spark_pilot_norest","14425","1","18","Male","","","","","","","null","<div style=""font-size:60px;"">+</div>","null","fixation","","","","","","","","","","","",""
"revaluation","31","178710","0.0-3.0-6.0-0.1","spark_pilot_norest","14425","1","18","Male","","false","","","","","[722.5]","./assets/img/space/animals/cat.jpg","[""ArrowRight""]","second stage practice","space","36","{""ArrowUp,ArrowLeft"":3,""ArrowUp,ArrowRight"":36,""ArrowDown,ArrowLeft"":15,""ArrowDown,ArrowRight"":23}","true","ArrowUp,ArrowRight","","","","","","",""
"html-keyboard-response","32","179224","0.0-3.0-6.0-1.1","spark_pilot_norest","14425","1","18","Male","","","","","","","null","<div style=""font-size:60px;"">+</div>","null","fixation","","","","","","","","","","","",""
"revaluation","33","183246","0.0-3.0-6.0-0.2","spark_pilot_norest","14425","1","18","Male","","false","","","","","[465.1999999284744]","./assets/img/space/animals/rabbit.jpg","[""ArrowLeft""]","second stage practice","space","15","{""ArrowUp,ArrowLeft"":3,""ArrowUp,ArrowRight"":36,""ArrowDown,ArrowLeft"":15,""ArrowDown,ArrowRight"":23}","false","ArrowDown,ArrowLeft","","","","","","",""
"html-keyboard-response","34","183763","0.0-3.0-6.0-1.2","spark_pilot_norest","14425","1","18","Male","","","","","","","null","<div style=""font-size:60px;"">+</div>","null","fixation","","","","","","","","","","","",""
"revaluation","35","187793","0.0-3.0-6.0-0.3","spark_pilot_norest","14425","1","18","Male","","false","","","","","[395.2000000476837]","./assets/img/space/animals/cat.jpg","[""ArrowLeft""]","second stage practice","space","3","{""ArrowUp,ArrowLeft"":3,""ArrowUp,ArrowRight"":36,""ArrowDown,ArrowLeft"":15,""ArrowDown,ArrowRight"":23}","false","ArrowUp,ArrowLeft","","","","","","",""
"html-keyboard-response","36","188307","0.0-3.0-6.0-1.3","spark_pilot_norest","14425","1","18","Male","","","","","","","null","<div style=""font-size:60px;"">+</div>","null","fixation","","","","","","","","","","","",""
"learning-instructions","37","205542","0.0-3.0-7.0-0.0","spark_pilot_norest","14425","1","18","Male","","","","","","","439.1999999284744","<p> Great job. Now let’s try putting it together. </p>
            <p> On each turn, you will first see a picture to remind you of the place you are in, and you need to choose whether to go up or down. </p>
            <p> Then you will see an animal and choose which of its chests to search for treasure. </p>","","instructions","","","","","","","","","","","",""
"learning-instructions","38","214253","0.0-3.0-7.0-0.1","spark_pilot_norest","14425","1","18","Male","","","","","","","470.39999997615814","<p> When you choose whether to go up or down, try to go to the animal with the chest with the most treasure. </p>
            <p> Try practicing that now! </p>","","instructions","","","","","","","","","","","",""
"revaluation","39","220275","0.0-3.0-8.0-0.0","spark_pilot_norest","14425","1","18","Male","","false","","","","","[710.2000000476837,312.5]","./assets/img/space/6.jpg","[""ArrowUp"",""ArrowRight""]","full practice","space","36","{""ArrowUp,ArrowLeft"":3,""ArrowUp,ArrowRight"":36,""ArrowDown,ArrowLeft"":15,""ArrowDown,ArrowRight"":23}","true","ArrowUp,ArrowRight","false","","","","","",""
"html-keyboard-response","40","220790","0.0-3.0-8.0-1.0","spark_pilot_norest","14425","1","18","Male","","","","","","","null","<div style=""font-size:60px;"">+</div>","null","fixation","","","","","","","","","","","",""
"revaluation","41","226823","0.0-3.0-8.0-0.1","spark_pilot_norest","14425","1","18","Male","","false","","","","","[237.10000002384186,564.1000000238419]","./assets/img/space/7.jpg","[""ArrowDown"",""ArrowRight""]","full practice","space","23","{""ArrowUp,ArrowLeft"":3,""ArrowUp,ArrowRight"":36,""ArrowDown,ArrowLeft"":15,""ArrowDown,ArrowRight"":23}","false","ArrowDown,ArrowRight","false","","","","","",""
"html-keyboard-response","42","227337","0.0-3.0-8.0-1.1","spark_pilot_norest","14425","1","18","Male","","","","","","","null","<div style=""font-size:60px;"">+</div>","null","fixation","","","","","","","","","","","",""
"revaluation","43","233366","0.0-3.0-8.0-0.2","spark_pilot_norest","14425","1","18","Male","","false","","","","","[845.8999999761581,311.3000000715256]","./assets/img/space/8.jpg","[""ArrowUp"",""ArrowRight""]","full practice","space","36","{""ArrowUp,ArrowLeft"":3,""ArrowUp,ArrowRight"":36,""ArrowDown,ArrowLeft"":15,""ArrowDown,ArrowRight"":23}","true","ArrowUp,ArrowRight","false","","","","","",""
"html-keyboard-response","44","233869","0.0-3.0-8.0-1.2","spark_pilot_norest","14425","1","18","Male","","","","","","","null","<div style=""font-size:60px;"">+</div>","null","fixation","","","","","","","","","","","",""
"revaluation","45","239904","0.0-3.0-8.0-0.3","spark_pilot_norest","14425","1","18","Male","","false","","","","","[285.59999990463257,382.7999999523163]","./assets/img/space/9.jpg","[""ArrowUp"",""ArrowRight""]","full practice","space","36","{""ArrowUp,ArrowLeft"":3,""ArrowUp,ArrowRight"":36,""ArrowDown,ArrowLeft"":15,""ArrowDown,ArrowRight"":23}","true","ArrowUp,ArrowRight","false","","","","","",""
"html-keyboard-response","46","240407","0.0-3.0-8.0-1.3","spark_pilot_norest","14425","1","18","Male","","","","","","","null","<div style=""font-size:60px;"">+</div>","null","fixation","","","","","","","","","","","",""
"revaluation","47","246419","0.0-3.0-8.0-0.4","spark_pilot_norest","14425","1","18","Male","","false","","","","","[247.20000004768372,298]","./assets/img/space/10.jpg","[""ArrowUp"",""ArrowRight""]","full practice","space","36","{""ArrowUp,ArrowLeft"":3,""ArrowUp,ArrowRight"":36,""ArrowDown,ArrowLeft"":15,""ArrowDown,ArrowRight"":23}","true","ArrowUp,ArrowRight","false","","","","","",""
"html-keyboard-response","48","246921","0.0-3.0-8.0-1.4","spark_pilot_norest","14425","1","18","Male","","","","","","","null","<div style=""font-size:60px;"">+</div>","null","fixation","","","","","","","","","","","",""
"learning-instructions","49","258564","0.0-3.0-9.0-0.0","spark_pilot_norest","14425","1","18","Male","","","","","","","1349.8999999761581","<p> One last thing: sometimes, you will see a robber. The robber can be anywhere in the picture. </p>
            <p> If you do not stop them, you will lose treasure. </p>
            <img src='./assets/img/instructions/robber.jpg' class='instructions-image'>","","instructions","","","","","","","","","","","",""
"learning-instructions","50","266113","0.0-3.0-9.0-0.1","spark_pilot_norest","14425","1","18","Male","","","","","","","400","<p> If you see the robber, you should <b>press the space bar</b> rather than using the arrow keys. </p>
            <p> Try practicing that now! </p>","","instructions","","","","","","","","","","","",""
"revaluation","51","270139","0.0-3.0-10.0-0.0","spark_pilot_norest","14425","1","18","Male","","false","","","","","[528]","./assets/img/space/catch/0.jpg","[""spaceBar""]","catch practice","space","0","{""ArrowUp,ArrowLeft"":3,""ArrowUp,ArrowRight"":36,""ArrowDown,ArrowLeft"":15,""ArrowDown,ArrowRight"":23}","true","spaceBar","true","","","","","",""
"html-keyboard-response","52","270653","0.0-3.0-10.0-1.0","spark_pilot_norest","14425","1","18","Male","","","","","","","null","<div style=""font-size:60px;"">+</div>","null","fixation","","","","","","","","","","","",""
"revaluation","53","274682","0.0-3.0-10.0-0.1","spark_pilot_norest","14425","1","18","Male","","false","","","","","[409.09999990463257]","./assets/img/space/catch/1.jpg","[""spaceBar""]","catch practice","space","0","{""ArrowUp,ArrowLeft"":3,""ArrowUp,ArrowRight"":36,""ArrowDown,ArrowLeft"":15,""ArrowDown,ArrowRight"":23}","true","spaceBar","true","","","","","",""
"html-keyboard-response","54","275195","0.0-3.0-10.0-1.1","spark_pilot_norest","14425","1","18","Male","","","","","","","null","<div style=""font-size:60px;"">+</div>","null","fixation","","","","","","","","","","","",""
"revaluation","55","279205","0.0-3.0-10.0-0.2","spark_pilot_norest","14425","1","18","Male","","false","","","","","[482.39999997615814]","./assets/img/space/catch/2.jpg","[""spaceBar""]","catch practice","space","0","{""ArrowUp,ArrowLeft"":3,""ArrowUp,ArrowRight"":36,""ArrowDown,ArrowLeft"":15,""ArrowDown,ArrowRight"":23}","true","spaceBar","true","","","","","",""
"html-keyboard-response","56","279721","0.0-3.0-10.0-1.2","spark_pilot_norest","14425","1","18","Male","","","","","","","null","<div style=""font-size:60px;"">+</div>","null","fixation","","","","","","","","","","","",""
"learning-instructions","57","286045","0.0-3.0-11.0-0.0-0.0","spark_pilot_norest","14425","1","18","Male","","","","","","","1091.7000000476837","<p> Now, you will practice a shortened version of the game to get a sense of how it all fits together. </p>","","instructions","","","","","","","","","","","",""
"learning-instructions","58","289599","0.0-3.0-11.0-0.0-0.1","spark_pilot_norest","14425","1","18","Male","","","","","","","385.7999999523163","<p>This time you are searching for treasure in outer space.</p>","","instructions","","","","","","","","","","","",""
"learning-instructions","59","304737","0.0-3.0-11.0-1.0-0.0","spark_pilot_norest","14425","1","18","Male","","","","","","","393.89999997615814","<p> Remember, when you see a picture of the place, use the up and down keys to <b>find an animal</b>.</p>
            <p> When you encounter an animal, you should use the left and right keys to <b>select a treasure chest</b>.</p>
            <p> Don't forget to look out for the robber! </p>","","instructions","","","","","","","","","","","",""
"revaluation","60","310772","0.0-3.0-11.0-2.0-0.0","spark_pilot_norest","14425","1","18","Male","","false","","","","","[1028.1000000238419,432.3000000715256]","./assets/img/space/11.jpg","[""ArrowUp"",""ArrowRight""]","practice block","space","36","{""ArrowUp,ArrowLeft"":3,""ArrowUp,ArrowRight"":36,""ArrowDown,ArrowLeft"":15,""ArrowDown,ArrowRight"":23}","true","ArrowUp,ArrowRight","false","","","","","",""
"html-keyboard-response","61","311286","0.0-3.0-11.0-2.0-1.0","spark_pilot_norest","14425","1","18","Male","","","","","","","null","<div style=""font-size:60px;"">+</div>","null","fixation","","","","","","","","","","","",""
"revaluation","62","317334","0.0-3.0-11.0-2.0-0.1","spark_pilot_norest","14425","1","18","Male","","false","","","","","[742.2999999523163,259.3000000715256]","./assets/img/space/12.jpg","[""ArrowDown"",""ArrowLeft""]","practice block","space","15","{""ArrowUp,ArrowLeft"":3,""ArrowUp,ArrowRight"":36,""ArrowDown,ArrowLeft"":15,""ArrowDown,ArrowRight"":23}","false","ArrowDown,ArrowLeft","false","","","","","",""
"html-keyboard-response","63","317848","0.0-3.0-11.0-2.0-1.1","spark_pilot_norest","14425","1","18","Male","","","","","","","null","<div style=""font-size:60px;"">+</div>","null","fixation","","","","","","","","","","","",""
"revaluation","64","323892","0.0-3.0-11.0-2.0-0.2","spark_pilot_norest","14425","1","18","Male","","false","","","","","[594.1999999284744,321]","./assets/img/space/13.jpg","[""ArrowUp"",""ArrowRight""]","practice block","space","36","{""ArrowUp,ArrowLeft"":3,""ArrowUp,ArrowRight"":36,""ArrowDown,ArrowLeft"":15,""ArrowDown,ArrowRight"":23}","true","ArrowUp,ArrowRight","false","","","","","",""
"html-keyboard-response","65","324394","0.0-3.0-11.0-2.0-1.2","spark_pilot_norest","14425","1","18","Male","","","","","","","null","<div style=""font-size:60px;"">+</div>","null","fixation","","","","","","","","","","","",""
"revaluation","66","330429","0.0-3.0-11.0-2.0-0.3","spark_pilot_norest","14425","1","18","Male","","false","","","","","[985.8999999761581,313.10000002384186]","./assets/img/space/14.jpg","[""ArrowUp"",""ArrowRight""]","practice block","space","36","{""ArrowUp,ArrowLeft"":3,""ArrowUp,ArrowRight"":36,""ArrowDown,ArrowLeft"":15,""ArrowDown,ArrowRight"":23}","true","ArrowUp,ArrowRight","false","","","","","",""
"html-keyboard-response","67","330931","0.0-3.0-11.0-2.0-1.3","spark_pilot_norest","14425","1","18","Male","","","","","","","null","<div style=""font-size:60px;"">+</div>","null","fixation","","","","","","","","","","","",""
"revaluation","68","336948","0.0-3.0-11.0-2.0-0.4","spark_pilot_norest","14425","1","18","Male","","false","","","","","[679.5999999046326,283.40000009536743]","./assets/img/space/11.jpg","[""ArrowUp"",""ArrowRight""]","practice block","space","36","{""ArrowUp,ArrowLeft"":3,""ArrowUp,ArrowRight"":36,""ArrowDown,ArrowLeft"":15,""ArrowDown,ArrowRight"":23}","true","ArrowUp,ArrowRight","false","","","","","",""
"html-keyboard-response","69","337449","0.0-3.0-11.0-2.0-1.4","spark_pilot_norest","14425","1","18","Male","","","","","","","null","<div style=""font-size:60px;"">+</div>","null","fixation","","","","","","","","","","","",""
"revaluation","70","343454","0.0-3.0-11.0-2.0-0.5","spark_pilot_norest","14425","1","18","Male","","false","","","","","[1002.3000000715256,345.2000000476837]","./assets/img/space/12.jpg","[""ArrowUp"",""ArrowRight""]","practice block","space","36","{""ArrowUp,ArrowLeft"":3,""ArrowUp,ArrowRight"":36,""ArrowDown,ArrowLeft"":15,""ArrowDown,ArrowRight"":23}","true","ArrowUp,ArrowRight","false","","","","","",""
"html-keyboard-response","71","343955","0.0-3.0-11.0-2.0-1.5","spark_pilot_norest","14425","1","18","Male","","","","","","","null","<div style=""font-size:60px;"">+</div>","null","fixation","","","","","","","","","","","",""
"revaluation","72","349960","0.0-3.0-11.0-2.0-0.6","spark_pilot_norest","14425","1","18","Male","","false","","","","","[697.5,294.2999999523163]","./assets/img/space/13.jpg","[""ArrowUp"",""ArrowRight""]","practice block","space","36","{""ArrowUp,ArrowLeft"":3,""ArrowUp,ArrowRight"":36,""ArrowDown,ArrowLeft"":15,""ArrowDown,ArrowRight"":23}","true","ArrowUp,ArrowRight","false","","","","","",""
"html-keyboard-response","73","350461","0.0-3.0-11.0-2.0-1.6","spark_pilot_norest","14425","1","18","Male","","","","","","","null","<div style=""font-size:60px;"">+</div>","null","fixation","","","","","","","","","","","",""
"revaluation","74","356463","0.0-3.0-11.0-2.0-0.7","spark_pilot_norest","14425","1","18","Male","","false","","","","","[820.1000000238419,281.59999990463257]","./assets/img/space/14.jpg","[""ArrowUp"",""ArrowRight""]","practice block","space","36","{""ArrowUp,ArrowLeft"":3,""ArrowUp,ArrowRight"":36,""ArrowDown,ArrowLeft"":15,""ArrowDown,ArrowRight"":23}","true","ArrowUp,ArrowRight","false","","","","","",""
"html-keyboard-response","75","356965","0.0-3.0-11.0-2.0-1.7","spark_pilot_norest","14425","1","18","Male","","","","","","","null","<div style=""font-size:60px;"">+</div>","null","fixation","","","","","","","","","","","",""
"revaluation","76","360967","0.0-3.0-11.0-2.0-0.8","spark_pilot_norest","14425","1","18","Male","","false","","","","","[702.7999999523163]","./assets/img/space/catch/3.jpg","[""spaceBar""]","practice block","space","0","{""ArrowUp,ArrowLeft"":3,""ArrowUp,ArrowRight"":36,""ArrowDown,ArrowLeft"":15,""ArrowDown,ArrowRight"":23}","true","spaceBar","true","","","","","",""
"html-keyboard-response","77","361467","0.0-3.0-11.0-2.0-1.8","spark_pilot_norest","14425","1","18","Male","","","","","","","null","<div style=""font-size:60px;"">+</div>","null","fixation","","","","","","","","","","","",""
"learning-instructions","78","378178","0.0-3.0-11.0-3.0-0.0","spark_pilot_norest","14425","1","18","Male","","","","","","","3788.5","<p> Now, you will travel with a friend who will choose whether you go up or down first. </p>
            <p> On these turns, you will just see the animal that they found. You will still get to choose which chest to search for treasure.</p>","","instructions","","","","","","","","","","","",""
"revaluation","79","382188","0.0-3.0-11.0-4.0-0.0","spark_pilot_norest","14425","1","18","Male","","false","","","","","[849]","./assets/img/space/animals/rabbit.jpg","[""ArrowRight""]","practice block","space","23","{""ArrowUp,ArrowLeft"":3,""ArrowUp,ArrowRight"":36,""ArrowDown,ArrowLeft"":15,""ArrowDown,ArrowRight"":23}","true","ArrowDown,ArrowRight","","","","","","",""
"html-keyboard-response","80","382704","0.0-3.0-11.0-4.0-1.0","spark_pilot_norest","14425","1","18","Male","","","","","","","null","<div style=""font-size:60px;"">+</div>","null","fixation","","","","","","","","","","","",""
"revaluation","81","386733","0.0-3.0-11.0-4.0-0.1","spark_pilot_norest","14425","1","18","Male","","false","","","","","[361]","./assets/img/space/animals/cat.jpg","[""ArrowRight""]","practice block","space","36","{""ArrowUp,ArrowLeft"":3,""ArrowUp,ArrowRight"":36,""ArrowDown,ArrowLeft"":15,""ArrowDown,ArrowRight"":23}","true","ArrowUp,ArrowRight","","","","","","",""
"html-keyboard-response","82","387236","0.0-3.0-11.0-4.0-1.1","spark_pilot_norest","14425","1","18","Male","","","","","","","null","<div style=""font-size:60px;"">+</div>","null","fixation","","","","","","","","","","","",""
"revaluation","83","391256","0.0-3.0-11.0-4.0-0.2","spark_pilot_norest","14425","1","18","Male","","false","","","","","[364.1999999284744]","./assets/img/space/animals/rabbit.jpg","[""ArrowRight""]","practice block","space","23","{""ArrowUp,ArrowLeft"":3,""ArrowUp,ArrowRight"":36,""ArrowDown,ArrowLeft"":15,""ArrowDown,ArrowRight"":23}","true","ArrowDown,ArrowRight","","","","","","",""
"html-keyboard-response","84","391769","0.0-3.0-11.0-4.0-1.2","spark_pilot_norest","14425","1","18","Male","","","","","","","null","<div style=""font-size:60px;"">+</div>","null","fixation","","","","","","","","","","","",""
"revaluation","85","395791","0.0-3.0-11.0-4.0-0.3","spark_pilot_norest","14425","1","18","Male","","false","","","","","[143.69999992847443]","./assets/img/space/animals/cat.jpg","[""ArrowRight""]","practice block","space","36","{""ArrowUp,ArrowLeft"":3,""ArrowUp,ArrowRight"":36,""ArrowDown,ArrowLeft"":15,""ArrowDown,ArrowRight"":23}","true","ArrowUp,ArrowRight","","","","","","",""
"html-keyboard-response","86","396304","0.0-3.0-11.0-4.0-1.3","spark_pilot_norest","14425","1","18","Male","","","","","","","null","<div style=""font-size:60px;"">+</div>","null","fixation","","","","","","","","","","","",""
"learning-instructions","87","404426","0.0-3.0-11.0-5.0-0.0","spark_pilot_norest","14425","1","18","Male","","","","","","","null","<p> You have almost finished this part of the game! </p>
            <p> We are going to ask you to make a few more choices. </p>","","instructions","","","","","","","","","","","",""
"learning-instructions","88","420419","0.0-3.0-11.0-5.0-0.1","spark_pilot_norest","14425","1","18","Male","","","","","","","null","<p> First, you need to decide whether to go up or down. When you see each picture, use the arrow keys to make your choice. </p>
            <p><b>You will not see which animal you found, but try to get to the one that will give you the most treasure.</b></p>","","instructions","","","","","","","","","","","",""
"html-keyboard-response","89","421423","0.0-3.0-11.0-6.0-0.0","spark_pilot_norest","14425","1","18","Male","","","","","","","null","<div style=""font-size:100px;color:red;"">Starting in...</div>","null","","","","","","","","","","","","",""
"html-keyboard-response","90","422435","0.0-3.0-11.0-6.0-1.0","spark_pilot_norest","14425","1","18","Male","","","","","","","null","<div style=""font-size:200px;color:red;"">3</div>","null","","","","","","","","","","","","",""
"html-keyboard-response","91","423448","0.0-3.0-11.0-6.0-2.0","spark_pilot_norest","14425","1","18","Male","","","","","","","null","<div style=""font-size:200px;color:red;"">2</div>","null","","","","","","","","","","","","",""
"html-keyboard-response","92","424462","0.0-3.0-11.0-6.0-3.0","spark_pilot_norest","14425","1","18","Male","","","","","","","null","<div style=""font-size:200px;color:red;"">1</div>","null","","","","","","","","","","","","",""
"revaluation","93","424948","0.0-3.0-11.0-7.0","spark_pilot_norest","14425","1","18","Male","","false","","","","","[484.60000002384186]","./assets/img/space/15.jpg","[""ArrowUp""]","practice block","space","0","{""ArrowUp,ArrowLeft"":3,""ArrowUp,ArrowRight"":36,""ArrowDown,ArrowLeft"":15,""ArrowDown,ArrowRight"":23}","true","ArrowUp","false","","","","","",""
"html-keyboard-response","94","425450","0.0-3.0-11.0-8.0","spark_pilot_norest","14425","1","18","Male","","","","","","","null","<div style=""font-size:60px;"">+</div>","null","fixation","","","","","","","","","","","",""
"learning-instructions","95","438817","0.0-3.0-11.0-9.0-0.0","spark_pilot_norest","14425","1","18","Male","","","","","","","null","<p> Now you will see the animals again and can search their chests for treasure. </p>
            <p> This time, you will not see how much treasure you earned, but you will earn more bonus money for making better choices. </p>","","instructions","","","","","","","","","","","",""
"html-keyboard-response","96","439828","0.0-3.0-11.0-10.0-0.0","spark_pilot_norest","14425","1","18","Male","","","","","","","null","<div style=""font-size:100px;color:red;"">Starting in...</div>","null","","","","","","","","","","","","",""
"html-keyboard-response","97","440829","0.0-3.0-11.0-10.0-1.0","spark_pilot_norest","14425","1","18","Male","","","","","","","null","<div style=""font-size:200px;color:red;"">3</div>","null","","","","","","","","","","","","",""
"html-keyboard-response","98","441844","0.0-3.0-11.0-10.0-2.0","spark_pilot_norest","14425","1","18","Male","","","","","","","null","<div style=""font-size:200px;color:red;"">2</div>","null","","","","","","","","","","","","",""
"html-keyboard-response","99","442856","0.0-3.0-11.0-10.0-3.0","spark_pilot_norest","14425","1","18","Male","","","","","","","null","<div style=""font-size:200px;color:red;"">1</div>","null","","","","","","","","","","","","",""
"revaluation","100","443501","0.0-3.0-11.0-11.0-0.0","spark_pilot_norest","14425","1","18","Male","","false","","","","","[643.2000000476837]","./assets/img/space/animals/cat.jpg","[""ArrowRight""]","practice block","space","0","{""ArrowUp,ArrowLeft"":3,""ArrowUp,ArrowRight"":36,""ArrowDown,ArrowLeft"":15,""ArrowDown,ArrowRight"":23}","true","ArrowUp,ArrowRight","","","","","","",""
"html-keyboard-response","101","444010","0.0-3.0-11.0-11.0-1.0","spark_pilot_norest","14425","1","18","Male","","","","","","","null","<div style=""font-size:60px;"">+</div>","null","fixation","","","","","","","","","","","",""
"revaluation","102","444706","0.0-3.0-11.0-11.0-0.1","spark_pilot_norest","14425","1","18","Male","","false","","","","","[694.8000000715256]","./assets/img/space/animals/rabbit.jpg","[""ArrowRight""]","practice block","space","0","{""ArrowUp,ArrowLeft"":3,""ArrowUp,ArrowRight"":36,""ArrowDown,ArrowLeft"":15,""ArrowDown,ArrowRight"":23}","true","ArrowDown,ArrowRight","","","","","","",""
"html-keyboard-response","103","445212","0.0-3.0-11.0-11.0-1.1","spark_pilot_norest","14425","1","18","Male","","","","","","","null","<div style=""font-size:60px;"">+</div>","null","fixation","","","","","","","","","","","",""
"learning-instructions","104","450397","0.0-3.0-12.0-0.0","spark_pilot_norest","14425","1","18","Male","","","","","","","617.3999999761581","<p> Before you start, we're going to ask you a few questions about how the game works. </p>","","instructions","","","","","","","","","","","",""
"comp-q","105","456857","0.0-3.0-13.0-0.0-0.0","spark_pilot_norest","14425","1","18","Male","","","","","","","896.5","<p> <b> True or False? </b> </p>
            <p> There can be 50 pieces of treasure in a given animal's chest. </p>","1","comp_question","","","","true","","","","","","","",""
"comp-q","106","464309","0.0-3.0-13.0-0.0-1.0","spark_pilot_norest","14425","1","18","Male","","","","","","","810.0999999046326","<p> <b> That's right! </b> The amount of treasure in each chest can range from 0 to 40 pieces. </p>","0","comp_answer","","","","","","","","","","","",""
"comp-q","107","477851","0.0-3.0-13.0-0.1-0.1","spark_pilot_norest","14425","1","18","Male","","","","","","","6442.100000023842","<p> <b> True or False? </b> </p><p> In this game, all animals have the same amount of treasure in their left and right chests. </p>","1","comp_question","","","","true","","","","","","","",""
"comp-q","108","483575","0.0-3.0-13.0-0.1-1.1","spark_pilot_norest","14425","1","18","Male","","","","","","","506.39999997615814","<p> <b> That's right! </b> Animals have different amounts of treasure in their treasure chests. </p>","0","comp_answer","","","","","","","","","","","",""
"comp-q","109","490061","0.0-3.0-13.0-0.2-0.2","spark_pilot_norest","14425","1","18","Male","","","","","","","652.3000000715256","<p> <b> True or False? </b> </p><p> The same animal will always be there if you go up in the same place. </p>","0","comp_question","","","","true","","","","","","","",""
"comp-q","110","498155","0.0-3.0-13.0-0.2-1.2","spark_pilot_norest","14425","1","18","Male","","","","","","","1656.2000000476837","<p> <b> That's right! </b> One animal lives in the upper part and one lives in the lower part of every place. </p>","0","comp_answer","","","","","","","","","","","",""
"comp-q","111","504214","0.0-3.0-13.0-0.3-0.3","spark_pilot_norest","14425","1","18","Male","","","","","","","555.1999999284744","<p> <b> True or False? </b> </p><p> If you see a different picture, it means you are in a new place. </p>","1","comp_question","","","","true","","","","","","","",""
"comp-q","112","515991","0.0-3.0-13.0-0.3-1.3","spark_pilot_norest","14425","1","18","Male","","","","","","","572.4000000953674","<p> <b> That's right! </b> Lots of different images may show the same place. For example,  you may see three different images that all remind you that you are in outer space. </p>","0","comp_answer","","","","","","","","","","","",""
"learning-instructions","113","527304","0.0-3.0-14.0-0.0","spark_pilot_norest","14425","1","18","Male","","","","","","","1485.3999999761581","<p> Good job. Remember to do your best because the amount of treasure you earn will be converted into bonus money. </p>
            <p> It’s time to start the real game! </p>","","instructions","","","","","","","","","","","",""
"learning-instructions","114","531135","0.0-4.0-0.0-0.0","spark_pilot_norest","14425","1","18","Male","","","","","","","1126.6000000238419","<p> This time you are searching for treasure in the <b>ocean</b>.</p>","","instructions","","","","","","","","","","","",""
"learning-instructions","115","549431","0.0-4.0-0.0-0.1","spark_pilot_norest","14425","1","18","Male","","","","","","","1022.3999999761581","<p><b>New</b> animals with <b>new</b> treasure chests live here. You need to explore to discover where the animal with the best treasure chest is.</p>
                    <p> Like before, once you figure out which animal has the chest with the most treasure, you should try to get to that animal and select that chest! </p>","","instructions","","","","","","","","","","","",""
"learning-instructions","116","564523","0.0-4.0-1.0-0.0","spark_pilot_norest","14425","1","18","Male","","","","","","","354.2000000476837","<p> Remember, when you see a picture of the place, use the up and down keys to <b>find an animal</b>.</p>
            <p> When you encounter an animal, you should use the left and right keys to <b>select a treasure chest</b>.</p>
            <p> Don't forget to look out for the robber! </p>","","instructions","","","","","","","","","","","",""
"revaluation","117","570546","0.0-4.0-2.0-0.0","spark_pilot_norest","14425","1","18","Male","","false","","","","","[1079.3999999761581,420]","./assets/img/ocean/memory/7.jpg","[""ArrowUp"",""ArrowRight""]","value training","ocean","10","{""ArrowUp,ArrowLeft"":26,""ArrowUp,ArrowRight"":10,""ArrowDown,ArrowLeft"":5,""ArrowDown,ArrowRight"":17}","false","ArrowUp,ArrowRight","false","original","1","0","","",""
"html-keyboard-response","118","571058","0.0-4.0-2.0-1.0","spark_pilot_norest","14425","1","18","Male","","","","","","","null","<div style=""font-size:60px;"">+</div>","null","fixation","","","","","","","","","1","","",""
"revaluation","119","577090","0.0-4.0-2.0-0.1","spark_pilot_norest","14425","1","18","Male","","false","","","","","[464.6999999284744,271.10000002384186]","./assets/img/ocean/memory/39.jpg","[""ArrowUp"",""ArrowLeft""]","value training","ocean","26","{""ArrowUp,ArrowLeft"":26,""ArrowUp,ArrowRight"":10,""ArrowDown,ArrowLeft"":5,""ArrowDown,ArrowRight"":17}","true","ArrowUp,ArrowLeft","false","original","1","2","","",""
"html-keyboard-response","120","577593","0.0-4.0-2.0-1.1","spark_pilot_norest","14425","1","18","Male","","","","","","","null","<div style=""font-size:60px;"">+</div>","null","fixation","","","","","","","","","3","","",""
"revaluation","121","583632","0.0-4.0-2.0-0.2","spark_pilot_norest","14425","1","18","Male","","false","","","","","[493.89999997615814,304.90000009536743]","./assets/img/ocean/memory/3.jpg","[""ArrowDown"",""ArrowRight""]","value training","ocean","17","{""ArrowUp,ArrowLeft"":26,""ArrowUp,ArrowRight"":10,""ArrowDown,ArrowLeft"":5,""ArrowDown,ArrowRight"":17}","false","ArrowDown,ArrowRight","false","original","1","4","","",""
"html-keyboard-response","122","584148","0.0-4.0-2.0-1.2","spark_pilot_norest","14425","1","18","Male","","","","","","","null","<div style=""font-size:60px;"">+</div>","null","fixation","","","","","","","","","5","","",""
"revaluation","123","590186","0.0-4.0-2.0-0.3","spark_pilot_norest","14425","1","18","Male","","false","","","","","[537.7000000476837,256.09999990463257]","./assets/img/ocean/memory/5.jpg","[""ArrowDown"",""ArrowLeft""]","value training","ocean","5","{""ArrowUp,ArrowLeft"":26,""ArrowUp,ArrowRight"":10,""ArrowDown,ArrowLeft"":5,""ArrowDown,ArrowRight"":17}","false","ArrowDown,ArrowLeft","false","original","1","6","","",""
"html-keyboard-response","124","590688","0.0-4.0-2.0-1.3","spark_pilot_norest","14425","1","18","Male","","","","","","","null","<div style=""font-size:60px;"">+</div>","null","fixation","","","","","","","","","7","","",""
"revaluation","125","596702","0.0-4.0-2.0-0.4","spark_pilot_norest","14425","1","18","Male","","false","","","","","[512.8000000715256,273.6999999284744]","./assets/img/ocean/memory/0.jpg","[""ArrowUp"",""ArrowLeft""]","value training","ocean","26","{""ArrowUp,ArrowLeft"":26,""ArrowUp,ArrowRight"":10,""ArrowDown,ArrowLeft"":5,""ArrowDown,ArrowRight"":17}","true","ArrowUp,ArrowLeft","false","original","1","8","","",""
"html-keyboard-response","126","597203","0.0-4.0-2.0-1.4","spark_pilot_norest","14425","1","18","Male","","","","","","","null","<div style=""font-size:60px;"">+</div>","null","fixation","","","","","","","","","9","","",""
"revaluation","127","603207","0.0-4.0-2.0-0.5","spark_pilot_norest","14425","1","18","Male","","false","","","","","[582.0999999046326,322.2000000476837]","./assets/img/ocean/memory/7.jpg","[""ArrowUp"",""ArrowLeft""]","value training","ocean","26","{""ArrowUp,ArrowLeft"":26,""ArrowUp,ArrowRight"":10,""ArrowDown,ArrowLeft"":5,""ArrowDown,ArrowRight"":17}","true","ArrowUp,ArrowLeft","false","original","1","10","","",""
"html-keyboard-response","128","603708","0.0-4.0-2.0-1.5","spark_pilot_norest","14425","1","18","Male","","","","","","","null","<div style=""font-size:60px;"">+</div>","null","fixation","","","","","","","","","11","","",""
"revaluation","129","607711","0.0-4.0-2.0-0.6","spark_pilot_norest","14425","1","18","Male","","false","","","","","[639.8999999761581]","./assets/img/ocean/catch/3.jpg","[""spaceBar""]","value training","ocean","0","{""ArrowUp,ArrowLeft"":26,""ArrowUp,ArrowRight"":10,""ArrowDown,ArrowLeft"":5,""ArrowDown,ArrowRight"":17}","true","spaceBar","true","original","1","12","","",""
"html-keyboard-response","130","608213","0.0-4.0-2.0-1.6","spark_pilot_norest","14425","1","18","Male","","","","","","","null","<div style=""font-size:60px;"">+</div>","null","fixation","","","","","","","","","13","","",""
"revaluation","131","614217","0.0-4.0-2.0-0.7","spark_pilot_norest","14425","1","18","Male","","false","","","","","[206.5,26.399999976158142]","./assets/img/ocean/memory/2.jpg","[""ArrowUp"",""ArrowLeft""]","value training","ocean","26","{""ArrowUp,ArrowLeft"":26,""ArrowUp,ArrowRight"":10,""ArrowDown,ArrowLeft"":5,""ArrowDown,ArrowRight"":17}","true","ArrowUp,ArrowLeft","false","original","1","14","","",""
"html-keyboard-response","132","614719","0.0-4.0-2.0-1.7","spark_pilot_norest","14425","1","18","Male","","","","","","","null","<div style=""font-size:60px;"">+</div>","null","fixation","","","","","","","","","15","","",""
"revaluation","133","620725","0.0-4.0-2.0-0.8","spark_pilot_norest","14425","1","18","Male","","false","","","","","[333.1999999284744,230]","./assets/img/ocean/memory/17.jpg","[""ArrowUp"",""ArrowLeft""]","value training","ocean","26","{""ArrowUp,ArrowLeft"":26,""ArrowUp,ArrowRight"":10,""ArrowDown,ArrowLeft"":5,""ArrowDown,ArrowRight"":17}","true","ArrowUp,ArrowLeft","false","original","1","16","","",""
"html-keyboard-response","134","621237","0.0-4.0-2.0-1.8","spark_pilot_norest","14425","1","18","Male","","","","","","","null","<div style=""font-size:60px;"">+</div>","null","fixation","","","","","","","","","17","","",""
"revaluation","135","627245","0.0-4.0-2.0-0.9","spark_pilot_norest","14425","1","18","Male","","false","","","","","[474.6999999284744,210.29999995231628]","./assets/img/ocean/memory/18.jpg","[""ArrowUp"",""ArrowLeft""]","value training","ocean","26","{""ArrowUp,ArrowLeft"":26,""ArrowUp,ArrowRight"":10,""ArrowDown,ArrowLeft"":5,""ArrowDown,ArrowRight"":17}","true","ArrowUp,ArrowLeft","false","original","1","18","","",""
"html-keyboard-response","136","627746","0.0-4.0-2.0-1.9","spark_pilot_norest","14425","1","18","Male","","","","","","","null","<div style=""font-size:60px;"">+</div>","null","fixation","","","","","","","","","19","","",""
"revaluation","137","633751","0.0-4.0-2.0-0.10","spark_pilot_norest","14425","1","18","Male","","false","","","","","[415.2999999523163,229.59999990463257]","./assets/img/ocean/memory/17.jpg","[""ArrowUp"",""ArrowLeft""]","value training","ocean","26","{""ArrowUp,ArrowLeft"":26,""ArrowUp,ArrowRight"":10,""ArrowDown,ArrowLeft"":5,""ArrowDown,ArrowRight"":17}","true","ArrowUp,ArrowLeft","false","original","1","20","","",""
"html-keyboard-response","138","634253","0.0-4.0-2.0-1.10","spark_pilot_norest","14425","1","18","Male","","","","","","","null","<div style=""font-size:60px;"">+</div>","null","fixation","","","","","","","","","21","","",""
"revaluation","139","640258","0.0-4.0-2.0-0.11","spark_pilot_norest","14425","1","18","Male","","false","","","","","[449.40000009536743,622.2999999523163]","./assets/img/ocean/memory/6.jpg","[""ArrowUp"",""ArrowLeft""]","value training","ocean","26","{""ArrowUp,ArrowLeft"":26,""ArrowUp,ArrowRight"":10,""ArrowDown,ArrowLeft"":5,""ArrowDown,ArrowRight"":17}","true","ArrowUp,ArrowLeft","false","original","1","22","","",""
"html-keyboard-response","140","640759","0.0-4.0-2.0-1.11","spark_pilot_norest","14425","1","18","Male","","","","","","","null","<div style=""font-size:60px;"">+</div>","null","fixation","","","","","","","","","23","","",""
"revaluation","141","646763","0.0-4.0-2.0-0.12","spark_pilot_norest","14425","1","18","Male","","false","","","","","[346.60000002384186,245.60000002384186]","./assets/img/ocean/memory/16.jpg","[""ArrowUp"",""ArrowLeft""]","value training","ocean","26","{""ArrowUp,ArrowLeft"":26,""ArrowUp,ArrowRight"":10,""ArrowDown,ArrowLeft"":5,""ArrowDown,ArrowRight"":17}","true","ArrowUp,ArrowLeft","false","original","1","24","","",""
"html-keyboard-response","142","647264","0.0-4.0-2.0-1.12","spark_pilot_norest","14425","1","18","Male","","","","","","","null","<div style=""font-size:60px;"">+</div>","null","fixation","","","","","","","","","25","","",""
"revaluation","143","653268","0.0-4.0-2.0-0.13","spark_pilot_norest","14425","1","18","Male","","false","","","","","[488.2999999523163,302.7999999523163]","./assets/img/ocean/memory/6.jpg","[""ArrowUp"",""ArrowLeft""]","value training","ocean","26","{""ArrowUp,ArrowLeft"":26,""ArrowUp,ArrowRight"":10,""ArrowDown,ArrowLeft"":5,""ArrowDown,ArrowRight"":17}","true","ArrowUp,ArrowLeft","false","original","1","26","","",""
"html-keyboard-response","144","653770","0.0-4.0-2.0-1.13","spark_pilot_norest","14425","1","18","Male","","","","","","","null","<div style=""font-size:60px;"">+</div>","null","fixation","","","","","","","","","27","","",""
"revaluation","145","657772","0.0-4.0-2.0-0.14","spark_pilot_norest","14425","1","18","Male","","false","","","","","[651.6999999284744]","./assets/img/ocean/catch/6.jpg","[""spaceBar""]","value training","ocean","0","{""ArrowUp,ArrowLeft"":26,""ArrowUp,ArrowRight"":10,""ArrowDown,ArrowLeft"":5,""ArrowDown,ArrowRight"":17}","true","spaceBar","true","original","1","28","","",""
"html-keyboard-response","146","658275","0.0-4.0-2.0-1.14","spark_pilot_norest","14425","1","18","Male","","","","","","","null","<div style=""font-size:60px;"">+</div>","null","fixation","","","","","","","","","29","","",""
"revaluation","147","664280","0.0-4.0-2.0-0.15","spark_pilot_norest","14425","1","18","Male","","false","","","","","[286.2999999523163,234]","./assets/img/ocean/memory/41.jpg","[""ArrowUp"",""ArrowLeft""]","value training","ocean","26","{""ArrowUp,ArrowLeft"":26,""ArrowUp,ArrowRight"":10,""ArrowDown,ArrowLeft"":5,""ArrowDown,ArrowRight"":17}","true","ArrowUp,ArrowLeft","false","original","1","30","","",""
"html-keyboard-response","148","664782","0.0-4.0-2.0-1.15","spark_pilot_norest","14425","1","18","Male","","","","","","","null","<div style=""font-size:60px;"">+</div>","null","fixation","","","","","","","","","31","","",""
"revaluation","149","670786","0.0-4.0-2.0-0.16","spark_pilot_norest","14425","1","18","Male","","false","","","","","[347.89999997615814,245.89999997615814]","./assets/img/ocean/memory/16.jpg","[""ArrowUp"",""ArrowLeft""]","value training","ocean","26","{""ArrowUp,ArrowLeft"":26,""ArrowUp,ArrowRight"":10,""ArrowDown,ArrowLeft"":5,""ArrowDown,ArrowRight"":17}","true","ArrowUp,ArrowLeft","false","original","1","32","","",""
"html-keyboard-response","150","671287","0.0-4.0-2.0-1.16","spark_pilot_norest","14425","1","18","Male","","","","","","","null","<div style=""font-size:60px;"">+</div>","null","fixation","","","","","","","","","33","","",""
"revaluation","151","675290","0.0-4.0-2.0-0.17","spark_pilot_norest","14425","1","18","Male","","false","","","","","[585.7000000476837]","./assets/img/ocean/catch/7.jpg","[""spaceBar""]","value training","ocean","0","{""ArrowUp,ArrowLeft"":26,""ArrowUp,ArrowRight"":10,""ArrowDown,ArrowLeft"":5,""ArrowDown,ArrowRight"":17}","true","spaceBar","true","original","1","34","","",""
"html-keyboard-response","152","675791","0.0-4.0-2.0-1.17","spark_pilot_norest","14425","1","18","Male","","","","","","","null","<div style=""font-size:60px;"">+</div>","null","fixation","","","","","","","","","35","","",""
"revaluation","153","679795","0.0-4.0-2.0-0.18","spark_pilot_norest","14425","1","18","Male","","false","","","","","[301.10000002384186]","./assets/img/ocean/catch/0.jpg","[""ArrowUp""]","value training","ocean","-10","{""ArrowUp,ArrowLeft"":26,""ArrowUp,ArrowRight"":10,""ArrowDown,ArrowLeft"":5,""ArrowDown,ArrowRight"":17}","false","ArrowUp","true","original","1","36","","",""
"html-keyboard-response","154","680296","0.0-4.0-2.0-1.18","spark_pilot_norest","14425","1","18","Male","","","","","","","null","<div style=""font-size:60px;"">+</div>","null","fixation","","","","","","","","","37","","",""
"revaluation","155","684299","0.0-4.0-2.0-0.19","spark_pilot_norest","14425","1","18","Male","","false","","","","","[568.1999999284744]","./assets/img/ocean/catch/4.jpg","[""spaceBar""]","value training","ocean","0","{""ArrowUp,ArrowLeft"":26,""ArrowUp,ArrowRight"":10,""ArrowDown,ArrowLeft"":5,""ArrowDown,ArrowRight"":17}","true","spaceBar","true","original","1","38","","",""
"html-keyboard-response","156","684800","0.0-4.0-2.0-1.19","spark_pilot_norest","14425","1","18","Male","","","","","","","null","<div style=""font-size:60px;"">+</div>","null","fixation","","","","","","","","","39","","",""
"revaluation","157","690805","0.0-4.0-2.0-0.20","spark_pilot_norest","14425","1","18","Male","","false","","","","","[774.5,298.1999999284744]","./assets/img/ocean/memory/3.jpg","[""ArrowUp"",""ArrowLeft""]","value training","ocean","26","{""ArrowUp,ArrowLeft"":26,""ArrowUp,ArrowRight"":10,""ArrowDown,ArrowLeft"":5,""ArrowDown,ArrowRight"":17}","true","ArrowUp,ArrowLeft","false","original","1","40","","",""
"html-keyboard-response","158","691306","0.0-4.0-2.0-1.20","spark_pilot_norest","14425","1","18","Male","","","","","","","null","<div style=""font-size:60px;"">+</div>","null","fixation","","","","","","","","","41","","",""
"revaluation","159","697311","0.0-4.0-2.0-0.21","spark_pilot_norest","14425","1","18","Male","","false","","","","","[606.7999999523163,89.70000004768372]","./assets/img/ocean/memory/36.jpg","[""ArrowUp"",""ArrowLeft""]","value training","ocean","26","{""ArrowUp,ArrowLeft"":26,""ArrowUp,ArrowRight"":10,""ArrowDown,ArrowLeft"":5,""ArrowDown,ArrowRight"":17}","true","ArrowUp,ArrowLeft","false","original","1","42","","",""
"html-keyboard-response","160","697812","0.0-4.0-2.0-1.21","spark_pilot_norest","14425","1","18","Male","","","","","","","null","<div style=""font-size:60px;"">+</div>","null","fixation","","","","","","","","","43","","",""
"revaluation","161","701815","0.0-4.0-2.0-0.22","spark_pilot_norest","14425","1","18","Male","","false","","","","","[514.7000000476837]","./assets/img/ocean/catch/1.jpg","[""spaceBar""]","value training","ocean","0","{""ArrowUp,ArrowLeft"":26,""ArrowUp,ArrowRight"":10,""ArrowDown,ArrowLeft"":5,""ArrowDown,ArrowRight"":17}","true","spaceBar","true","original","1","44","","",""
"html-keyboard-response","162","702317","0.0-4.0-2.0-1.22","spark_pilot_norest","14425","1","18","Male","","","","","","","null","<div style=""font-size:60px;"">+</div>","null","fixation","","","","","","","","","45","","",""
"revaluation","163","706321","0.0-4.0-2.0-0.23","spark_pilot_norest","14425","1","18","Male","","false","","","","","[537.1000000238419]","./assets/img/ocean/catch/2.jpg","[""spaceBar""]","value training","ocean","0","{""ArrowUp,ArrowLeft"":26,""ArrowUp,ArrowRight"":10,""ArrowDown,ArrowLeft"":5,""ArrowDown,ArrowRight"":17}","true","spaceBar","true","original","1","46","","",""
"html-keyboard-response","164","706823","0.0-4.0-2.0-1.23","spark_pilot_norest","14425","1","18","Male","","","","","","","null","<div style=""font-size:60px;"">+</div>","null","fixation","","","","","","","","","47","","",""
"revaluation","165","712827","0.0-4.0-2.0-0.24","spark_pilot_norest","14425","1","18","Male","","false","","","","","[485.3000000715256,10.5]","./assets/img/ocean/memory/5.jpg","[""ArrowUp"",""ArrowLeft""]","value training","ocean","26","{""ArrowUp,ArrowLeft"":26,""ArrowUp,ArrowRight"":10,""ArrowDown,ArrowLeft"":5,""ArrowDown,ArrowRight"":17}","true","ArrowUp,ArrowLeft","false","original","1","48","","",""
"html-keyboard-response","166","713328","0.0-4.0-2.0-1.24","spark_pilot_norest","14425","1","18","Male","","","","","","","null","<div style=""font-size:60px;"">+</div>","null","fixation","","","","","","","","","49","","",""
"revaluation","167","719334","0.0-4.0-2.0-0.25","spark_pilot_norest","14425","1","18","Male","","false","","","","","[473.10000002384186,213.39999997615814]","./assets/img/ocean/memory/18.jpg","[""ArrowUp"",""ArrowLeft""]","value training","ocean","26","{""ArrowUp,ArrowLeft"":26,""ArrowUp,ArrowRight"":10,""ArrowDown,ArrowLeft"":5,""ArrowDown,ArrowRight"":17}","true","ArrowUp,ArrowLeft","false","original","1","50","","",""
"html-keyboard-response","168","719835","0.0-4.0-2.0-1.25","spark_pilot_norest","14425","1","18","Male","","","","","","","null","<div style=""font-size:60px;"">+</div>","null","fixation","","","","","","","","","51","","",""
"revaluation","169","725839","0.0-4.0-2.0-0.26","spark_pilot_norest","14425","1","18","Male","","false","","","","","[444.2999999523163,85.19999992847443]","./assets/img/ocean/memory/23.jpg","[""ArrowUp"",""ArrowLeft""]","value training","ocean","26","{""ArrowUp,ArrowLeft"":26,""ArrowUp,ArrowRight"":10,""ArrowDown,ArrowLeft"":5,""ArrowDown,ArrowRight"":17}","true","ArrowUp,ArrowLeft","false","original","1","52","","",""
"html-keyboard-response","170","726340","0.0-4.0-2.0-1.26","spark_pilot_norest","14425","1","18","Male","","","","","","","null","<div style=""font-size:60px;"">+</div>","null","fixation","","","","","","","","","53","","",""
"revaluation","171","732344","0.0-4.0-2.0-0.27","spark_pilot_norest","14425","1","18","Male","","false","","","","","[483.7000000476837,114.79999995231628]","./assets/img/ocean/memory/30.jpg","[""ArrowUp"",""ArrowLeft""]","value training","ocean","26","{""ArrowUp,ArrowLeft"":26,""ArrowUp,ArrowRight"":10,""ArrowDown,ArrowLeft"":5,""ArrowDown,ArrowRight"":17}","true","ArrowUp,ArrowLeft","false","original","1","54","","",""
"html-keyboard-response","172","732845","0.0-4.0-2.0-1.27","spark_pilot_norest","14425","1","18","Male","","","","","","","null","<div style=""font-size:60px;"">+</div>","null","fixation","","","","","","","","","55","","",""
"revaluation","173","738855","0.0-4.0-2.0-0.28","spark_pilot_norest","14425","1","18","Male","","false","","","","","[433.3000000715256,23.299999952316284]","./assets/img/ocean/memory/13.jpg","[""ArrowUp"",""ArrowLeft""]","value training","ocean","26","{""ArrowUp,ArrowLeft"":26,""ArrowUp,ArrowRight"":10,""ArrowDown,ArrowLeft"":5,""ArrowDown,ArrowRight"":17}","true","ArrowUp,ArrowLeft","false","original","1","56","","",""
"html-keyboard-response","174","739356","0.0-4.0-2.0-1.28","spark_pilot_norest","14425","1","18","Male","","","","","","","null","<div style=""font-size:60px;"">+</div>","null","fixation","","","","","","","","","57","","",""
"revaluation","175","745360","0.0-4.0-2.0-0.29","spark_pilot_norest","14425","1","18","Male","","false","","","","","[549.3999999761581,235.89999997615814]","./assets/img/ocean/memory/32.jpg","[""ArrowUp"",""ArrowLeft""]","value training","ocean","26","{""ArrowUp,ArrowLeft"":26,""ArrowUp,ArrowRight"":10,""ArrowDown,ArrowLeft"":5,""ArrowDown,ArrowRight"":17}","true","ArrowUp,ArrowLeft","false","original","1","58","","",""
"html-keyboard-response","176","745861","0.0-4.0-2.0-1.29","spark_pilot_norest","14425","1","18","Male","","","","","","","null","<div style=""font-size:60px;"">+</div>","null","fixation","","","","","","","","","59","","",""
"revaluation","177","751865","0.0-4.0-2.0-0.30","spark_pilot_norest","14425","1","18","Male","","false","","","","","[541,221.09999990463257]","./assets/img/ocean/memory/28.jpg","[""ArrowUp"",""ArrowLeft""]","value training","ocean","26","{""ArrowUp,ArrowLeft"":26,""ArrowUp,ArrowRight"":10,""ArrowDown,ArrowLeft"":5,""ArrowDown,ArrowRight"":17}","true","ArrowUp,ArrowLeft","false","original","1","60","","",""
"html-keyboard-response","178","752367","0.0-4.0-2.0-1.30","spark_pilot_norest","14425","1","18","Male","","","","","","","null","<div style=""font-size:60px;"">+</div>","null","fixation","","","","","","","","","61","","",""
"revaluation","179","758372","0.0-4.0-2.0-0.31","spark_pilot_norest","14425","1","18","Male","","false","","","","","[464.8000000715256,228.5]","./assets/img/ocean/memory/28.jpg","[""ArrowUp"",""ArrowLeft""]","value training","ocean","26","{""ArrowUp,ArrowLeft"":26,""ArrowUp,ArrowRight"":10,""ArrowDown,ArrowLeft"":5,""ArrowDown,ArrowRight"":17}","true","ArrowUp,ArrowLeft","false","original","1","62","","",""
"html-keyboard-response","180","758874","0.0-4.0-2.0-1.31","spark_pilot_norest","14425","1","18","Male","","","","","","","null","<div style=""font-size:60px;"">+</div>","null","fixation","","","","","","","","","63","","",""
"revaluation","181","764878","0.0-4.0-2.0-0.32","spark_pilot_norest","14425","1","18","Male","","false","","","","","[628.5999999046326,342.89999997615814]","./assets/img/ocean/memory/29.jpg","[""ArrowUp"",""ArrowLeft""]","value training","ocean","26","{""ArrowUp,ArrowLeft"":26,""ArrowUp,ArrowRight"":10,""ArrowDown,ArrowLeft"":5,""ArrowDown,ArrowRight"":17}","true","ArrowUp,ArrowLeft","false","original","1","64","","",""
"html-keyboard-response","182","765380","0.0-4.0-2.0-1.32","spark_pilot_norest","14425","1","18","Male","","","","","","","null","<div style=""font-size:60px;"">+</div>","null","fixation","","","","","","","","","65","","",""
"revaluation","183","771384","0.0-4.0-2.0-0.33","spark_pilot_norest","14425","1","18","Male","","false","","","","","[462,253.70000004768372]","./assets/img/ocean/memory/36.jpg","[""ArrowUp"",""ArrowLeft""]","value training","ocean","26","{""ArrowUp,ArrowLeft"":26,""ArrowUp,ArrowRight"":10,""ArrowDown,ArrowLeft"":5,""ArrowDown,ArrowRight"":17}","true","ArrowUp,ArrowLeft","false","original","1","66","","",""
"html-keyboard-response","184","771886","0.0-4.0-2.0-1.33","spark_pilot_norest","14425","1","18","Male","","","","","","","null","<div style=""font-size:60px;"">+</div>","null","fixation","","","","","","","","","67","","",""
"revaluation","185","777889","0.0-4.0-2.0-0.34","spark_pilot_norest","14425","1","18","Male","","false","","","","","[534.8000000715256,279.3000000715256]","./assets/img/ocean/memory/8.jpg","[""ArrowUp"",""ArrowLeft""]","value training","ocean","26","{""ArrowUp,ArrowLeft"":26,""ArrowUp,ArrowRight"":10,""ArrowDown,ArrowLeft"":5,""ArrowDown,ArrowRight"":17}","true","ArrowUp,ArrowLeft","false","original","1","68","","",""
"html-keyboard-response","186","778392","0.0-4.0-2.0-1.34","spark_pilot_norest","14425","1","18","Male","","","","","","","null","<div style=""font-size:60px;"">+</div>","null","fixation","","","","","","","","","69","","",""
"revaluation","187","784396","0.0-4.0-2.0-0.35","spark_pilot_norest","14425","1","18","Male","","false","","","","","[505.10000002384186,244.10000002384186]","./assets/img/ocean/memory/41.jpg","[""ArrowUp"",""ArrowLeft""]","value training","ocean","26","{""ArrowUp,ArrowLeft"":26,""ArrowUp,ArrowRight"":10,""ArrowDown,ArrowLeft"":5,""ArrowDown,ArrowRight"":17}","true","ArrowUp,ArrowLeft","false","original","1","70","","",""
"html-keyboard-response","188","784898","0.0-4.0-2.0-1.35","spark_pilot_norest","14425","1","18","Male","","","","","","","null","<div style=""font-size:60px;"">+</div>","null","fixation","","","","","","","","","71","","",""
"revaluation","189","790903","0.0-4.0-2.0-0.36","spark_pilot_norest","14425","1","18","Male","","false","","","","","[494.5,223.69999992847443]","./assets/img/ocean/memory/39.jpg","[""ArrowUp"",""ArrowLeft""]","value training","ocean","26","{""ArrowUp,ArrowLeft"":26,""ArrowUp,ArrowRight"":10,""ArrowDown,ArrowLeft"":5,""ArrowDown,ArrowRight"":17}","true","ArrowUp,ArrowLeft","false","original","1","72","","",""
"html-keyboard-response","190","791404","0.0-4.0-2.0-1.36","spark_pilot_norest","14425","1","18","Male","","","","","","","null","<div style=""font-size:60px;"">+</div>","null","fixation","","","","","","","","","73","","",""
"revaluation","191","797410","0.0-4.0-2.0-0.37","spark_pilot_norest","14425","1","18","Male","","false","","","","","[549.7000000476837,182.19999992847443]","./assets/img/ocean/memory/11.jpg","[""ArrowUp"",""ArrowLeft""]","value training","ocean","26","{""ArrowUp,ArrowLeft"":26,""ArrowUp,ArrowRight"":10,""ArrowDown,ArrowLeft"":5,""ArrowDown,ArrowRight"":17}","true","ArrowUp,ArrowLeft","false","original","1","74","","",""
"html-keyboard-response","192","797911","0.0-4.0-2.0-1.37","spark_pilot_norest","14425","1","18","Male","","","","","","","null","<div style=""font-size:60px;"">+</div>","null","fixation","","","","","","","","","75","","",""
"revaluation","193","803917","0.0-4.0-2.0-0.38","spark_pilot_norest","14425","1","18","Male","","false","","","","","[410.59999990463257,217.5]","./assets/img/ocean/memory/2.jpg","[""ArrowUp"",""ArrowLeft""]","value training","ocean","26","{""ArrowUp,ArrowLeft"":26,""ArrowUp,ArrowRight"":10,""ArrowDown,ArrowLeft"":5,""ArrowDown,ArrowRight"":17}","true","ArrowUp,ArrowLeft","false","original","1","76","","",""
"html-keyboard-response","194","804418","0.0-4.0-2.0-1.38","spark_pilot_norest","14425","1","18","Male","","","","","","","null","<div style=""font-size:60px;"">+</div>","null","fixation","","","","","","","","","77","","",""
"revaluation","195","808420","0.0-4.0-2.0-0.39","spark_pilot_norest","14425","1","18","Male","","false","","","","","[615.5999999046326]","./assets/img/ocean/catch/5.jpg","[""spaceBar""]","value training","ocean","0","{""ArrowUp,ArrowLeft"":26,""ArrowUp,ArrowRight"":10,""ArrowDown,ArrowLeft"":5,""ArrowDown,ArrowRight"":17}","true","spaceBar","true","original","1","78","","",""
"html-keyboard-response","196","808926","0.0-4.0-2.0-1.39","spark_pilot_norest","14425","1","18","Male","","","","","","","null","<div style=""font-size:60px;"">+</div>","null","fixation","","","","","","","","","79","","",""
"revaluation","197","814932","0.0-4.0-2.0-0.40","spark_pilot_norest","14425","1","18","Male","","false","","","","","[422.89999997615814,211]","./assets/img/ocean/memory/25.jpg","[""ArrowUp"",""ArrowLeft""]","value training","ocean","26","{""ArrowUp,ArrowLeft"":26,""ArrowUp,ArrowRight"":10,""ArrowDown,ArrowLeft"":5,""ArrowDown,ArrowRight"":17}","true","ArrowUp,ArrowLeft","false","original","1","80","","",""
"html-keyboard-response","198","815433","0.0-4.0-2.0-1.40","spark_pilot_norest","14425","1","18","Male","","","","","","","null","<div style=""font-size:60px;"">+</div>","null","fixation","","","","","","","","","81","","",""
"revaluation","199","821439","0.0-4.0-2.0-0.41","spark_pilot_norest","14425","1","18","Male","","false","","","","","[457.7000000476837,259.40000009536743]","./assets/img/ocean/memory/11.jpg","[""ArrowUp"",""ArrowLeft""]","value training","ocean","26","{""ArrowUp,ArrowLeft"":26,""ArrowUp,ArrowRight"":10,""ArrowDown,ArrowLeft"":5,""ArrowDown,ArrowRight"":17}","true","ArrowUp,ArrowLeft","false","original","1","82","","",""
"html-keyboard-response","200","821940","0.0-4.0-2.0-1.41","spark_pilot_norest","14425","1","18","Male","","","","","","","null","<div style=""font-size:60px;"">+</div>","null","fixation","","","","","","","","","83","","",""
"revaluation","201","827943","0.0-4.0-2.0-0.42","spark_pilot_norest","14425","1","18","Male","","false","","","","","[445.10000002384186,257.5]","./assets/img/ocean/memory/30.jpg","[""ArrowUp"",""ArrowLeft""]","value training","ocean","26","{""ArrowUp,ArrowLeft"":26,""ArrowUp,ArrowRight"":10,""ArrowDown,ArrowLeft"":5,""ArrowDown,ArrowRight"":17}","true","ArrowUp,ArrowLeft","false","original","1","84","","",""
"html-keyboard-response","202","828444","0.0-4.0-2.0-1.42","spark_pilot_norest","14425","1","18","Male","","","","","","","null","<div style=""font-size:60px;"">+</div>","null","fixation","","","","","","","","","85","","",""
"revaluation","203","834449","0.0-4.0-2.0-0.43","spark_pilot_norest","14425","1","18","Male","","false","","","","","[542.3999999761581,350.3000000715256]","./assets/img/ocean/memory/32.jpg","[""ArrowUp"",""ArrowLeft""]","value training","ocean","26","{""ArrowUp,ArrowLeft"":26,""ArrowUp,ArrowRight"":10,""ArrowDown,ArrowLeft"":5,""ArrowDown,ArrowRight"":17}","true","ArrowUp,ArrowLeft","false","original","1","86","","",""
"html-keyboard-response","204","834951","0.0-4.0-2.0-1.43","spark_pilot_norest","14425","1","18","Male","","","","","","","null","<div style=""font-size:60px;"">+</div>","null","fixation","","","","","","","","","87","","",""
"revaluation","205","840955","0.0-4.0-2.0-0.44","spark_pilot_norest","14425","1","18","Male","","false","","","","","[494,232.60000002384186]","./assets/img/ocean/memory/29.jpg","[""ArrowUp"",""ArrowLeft""]","value training","ocean","26","{""ArrowUp,ArrowLeft"":26,""ArrowUp,ArrowRight"":10,""ArrowDown,ArrowLeft"":5,""ArrowDown,ArrowRight"":17}","true","ArrowUp,ArrowLeft","false","original","1","88","","",""
"html-keyboard-response","206","841456","0.0-4.0-2.0-1.44","spark_pilot_norest","14425","1","18","Male","","","","","","","null","<div style=""font-size:60px;"">+</div>","null","fixation","","","","","","","","","89","","",""
"revaluation","207","847459","0.0-4.0-2.0-0.45","spark_pilot_norest","14425","1","18","Male","","false","","","","","[434.5,217.80000007152557]","./assets/img/ocean/memory/23.jpg","[""ArrowUp"",""ArrowLeft""]","value training","ocean","26","{""ArrowUp,ArrowLeft"":26,""ArrowUp,ArrowRight"":10,""ArrowDown,ArrowLeft"":5,""ArrowDown,ArrowRight"":17}","true","ArrowUp,ArrowLeft","false","original","1","90","","",""
"html-keyboard-response","208","847976","0.0-4.0-2.0-1.45","spark_pilot_norest","14425","1","18","Male","","","","","","","null","<div style=""font-size:60px;"">+</div>","null","fixation","","","","","","","","","91","","",""
"revaluation","209","853986","0.0-4.0-2.0-0.46","spark_pilot_norest","14425","1","18","Male","","false","","","","","[384.3000000715256,200.69999992847443]","./assets/img/ocean/memory/0.jpg","[""ArrowUp"",""ArrowLeft""]","value training","ocean","26","{""ArrowUp,ArrowLeft"":26,""ArrowUp,ArrowRight"":10,""ArrowDown,ArrowLeft"":5,""ArrowDown,ArrowRight"":17}","true","ArrowUp,ArrowLeft","false","original","1","92","","",""
"html-keyboard-response","210","854487","0.0-4.0-2.0-1.46","spark_pilot_norest","14425","1","18","Male","","","","","","","null","<div style=""font-size:60px;"">+</div>","null","fixation","","","","","","","","","93","","",""
"revaluation","211","860490","0.0-4.0-2.0-0.47","spark_pilot_norest","14425","1","18","Male","","false","","","","","[504.7999999523163,309.59999990463257]","./assets/img/ocean/memory/8.jpg","[""ArrowUp"",""ArrowLeft""]","value training","ocean","26","{""ArrowUp,ArrowLeft"":26,""ArrowUp,ArrowRight"":10,""ArrowDown,ArrowLeft"":5,""ArrowDown,ArrowRight"":17}","true","ArrowUp,ArrowLeft","false","original","1","94","","",""
"html-keyboard-response","212","860992","0.0-4.0-2.0-1.47","spark_pilot_norest","14425","1","18","Male","","","","","","","null","<div style=""font-size:60px;"">+</div>","null","fixation","","","","","","","","","95","","",""
"revaluation","213","866997","0.0-4.0-2.0-0.48","spark_pilot_norest","14425","1","18","Male","","false","","","","","[484,285.60000002384186]","./assets/img/ocean/memory/25.jpg","[""ArrowUp"",""ArrowLeft""]","value training","ocean","26","{""ArrowUp,ArrowLeft"":26,""ArrowUp,ArrowRight"":10,""ArrowDown,ArrowLeft"":5,""ArrowDown,ArrowRight"":17}","true","ArrowUp,ArrowLeft","false","original","1","96","","",""
"html-keyboard-response","214","867498","0.0-4.0-2.0-1.48","spark_pilot_norest","14425","1","18","Male","","","","","","","null","<div style=""font-size:60px;"">+</div>","null","fixation","","","","","","","","","97","","",""
"revaluation","215","873502","0.0-4.0-2.0-0.49","spark_pilot_norest","14425","1","18","Male","","false","","","","","[585.2999999523163,237.80000007152557]","./assets/img/ocean/memory/13.jpg","[""ArrowUp"",""ArrowLeft""]","value training","ocean","26","{""ArrowUp,ArrowLeft"":26,""ArrowUp,ArrowRight"":10,""ArrowDown,ArrowLeft"":5,""ArrowDown,ArrowRight"":17}","true","ArrowUp,ArrowLeft","false","original","1","98","","",""
"html-keyboard-response","216","874003","0.0-4.0-2.0-1.49","spark_pilot_norest","14425","1","18","Male","","","","","","","null","<div style=""font-size:60px;"">+</div>","null","fixation","","","","","","","","","99","","",""
"learning-instructions","217","917011","0.0-4.0-3.0-0.0","spark_pilot_norest","14425","1","18","Male","","","","","","","30094.700000047684","<p> Now, you will travel with a friend who will choose whether you go up or down first. </p>
            <p> On these turns, you will just see the animal that they found. You will still get to choose which chest to search for treasure.</p>","","instructions","","","","","","","","","","","",""
"revaluation","218","921013","0.0-4.0-4.0-0.0","spark_pilot_norest","14425","1","18","Male","","false","","","","","[937]","./assets/img/ocean/animals/seahorse.jpg","[""ArrowRight""]","revaluation","ocean","10","{""ArrowUp,ArrowLeft"":26,""ArrowUp,ArrowRight"":10,""ArrowDown,ArrowLeft"":5,""ArrowDown,ArrowRight"":17}","false","ArrowUp,ArrowRight","","original","1","0","","",""
"html-keyboard-response","219","921518","0.0-4.0-4.0-1.0","spark_pilot_norest","14425","1","18","Male","","","","","","","null","<div style=""font-size:60px;"">+</div>","null","fixation","","","","","","","","","1","","",""
"revaluation","220","925521","0.0-4.0-4.0-0.1","spark_pilot_norest","14425","1","18","Male","","false","","","","","[455.89999997615814]","./assets/img/ocean/animals/octopus.jpg","[""ArrowRight""]","revaluation","ocean","17","{""ArrowUp,ArrowLeft"":26,""ArrowUp,ArrowRight"":10,""ArrowDown,ArrowLeft"":5,""ArrowDown,ArrowRight"":17}","true","ArrowDown,ArrowRight","","original","1","2","","",""
"html-keyboard-response","221","926024","0.0-4.0-4.0-1.1","spark_pilot_norest","14425","1","18","Male","","","","","","","null","<div style=""font-size:60px;"">+</div>","null","fixation","","","","","","","","","3","","",""
"revaluation","222","930026","0.0-4.0-4.0-0.2","spark_pilot_norest","14425","1","18","Male","","false","","","","","[547.9000000953674]","./assets/img/ocean/animals/octopus.jpg","[""ArrowRight""]","revaluation","ocean","17","{""ArrowUp,ArrowLeft"":26,""ArrowUp,ArrowRight"":10,""ArrowDown,ArrowLeft"":5,""ArrowDown,ArrowRight"":17}","true","ArrowDown,ArrowRight","","original","1","4","","",""
"html-keyboard-response","223","930527","0.0-4.0-4.0-1.2","spark_pilot_norest","14425","1","18","Male","","","","","","","null","<div style=""font-size:60px;"">+</div>","null","fixation","","","","","","","","","5","","",""
"revaluation","224","934531","0.0-4.0-4.0-0.3","spark_pilot_norest","14425","1","18","Male","","false","","","","","[371.60000002384186]","./assets/img/ocean/animals/seahorse.jpg","[""ArrowLeft""]","revaluation","ocean","26","{""ArrowUp,ArrowLeft"":26,""ArrowUp,ArrowRight"":10,""ArrowDown,ArrowLeft"":5,""ArrowDown,ArrowRight"":17}","true","ArrowUp,ArrowLeft","","original","1","6","","",""
"html-keyboard-response","225","935033","0.0-4.0-4.0-1.3","spark_pilot_norest","14425","1","18","Male","","","","","","","null","<div style=""font-size:60px;"">+</div>","null","fixation","","","","","","","","","7","","",""
"revaluation","226","939037","0.0-4.0-4.0-0.4","spark_pilot_norest","14425","1","18","Male","","false","","","","","[386.6999999284744]","./assets/img/ocean/animals/octopus.jpg","[""ArrowRight""]","revaluation","ocean","17","{""ArrowUp,ArrowLeft"":26,""ArrowUp,ArrowRight"":10,""ArrowDown,ArrowLeft"":5,""ArrowDown,ArrowRight"":17}","true","ArrowDown,ArrowRight","","original","1","8","","",""
"html-keyboard-response","227","939538","0.0-4.0-4.0-1.4","spark_pilot_norest","14425","1","18","Male","","","","","","","null","<div style=""font-size:60px;"">+</div>","null","fixation","","","","","","","","","9","","",""
"revaluation","228","943542","0.0-4.0-4.0-0.5","spark_pilot_norest","14425","1","18","Male","","false","","","","","[471]","./assets/img/ocean/animals/seahorse.jpg","[""ArrowLeft""]","revaluation","ocean","26","{""ArrowUp,ArrowLeft"":26,""ArrowUp,ArrowRight"":10,""ArrowDown,ArrowLeft"":5,""ArrowDown,ArrowRight"":17}","true","ArrowUp,ArrowLeft","","original","1","10","","",""
"html-keyboard-response","229","944044","0.0-4.0-4.0-1.5","spark_pilot_norest","14425","1","18","Male","","","","","","","null","<div style=""font-size:60px;"">+</div>","null","fixation","","","","","","","","","11","","",""
"revaluation","230","948047","0.0-4.0-4.0-0.6","spark_pilot_norest","14425","1","18","Male","","false","","","","","[299.5]","./assets/img/ocean/animals/octopus.jpg","[""ArrowRight""]","revaluation","ocean","17","{""ArrowUp,ArrowLeft"":26,""ArrowUp,ArrowRight"":10,""ArrowDown,ArrowLeft"":5,""ArrowDown,ArrowRight"":17}","true","ArrowDown,ArrowRight","","original","1","12","","",""
"html-keyboard-response","231","948548","0.0-4.0-4.0-1.6","spark_pilot_norest","14425","1","18","Male","","","","","","","null","<div style=""font-size:60px;"">+</div>","null","fixation","","","","","","","","","13","","",""
"revaluation","232","952552","0.0-4.0-4.0-0.7","spark_pilot_norest","14425","1","18","Male","","false","","","","","[423.5]","./assets/img/ocean/animals/seahorse.jpg","[""ArrowLeft""]","revaluation","ocean","26","{""ArrowUp,ArrowLeft"":26,""ArrowUp,ArrowRight"":10,""ArrowDown,ArrowLeft"":5,""ArrowDown,ArrowRight"":17}","true","ArrowUp,ArrowLeft","","original","1","14","","",""
"html-keyboard-response","233","953053","0.0-4.0-4.0-1.7","spark_pilot_norest","14425","1","18","Male","","","","","","","null","<div style=""font-size:60px;"">+</div>","null","fixation","","","","","","","","","15","","",""
"revaluation","234","957056","0.0-4.0-4.0-0.8","spark_pilot_norest","14425","1","18","Male","","false","","","","","[507.5]","./assets/img/ocean/animals/seahorse.jpg","[""ArrowLeft""]","revaluation","ocean","26","{""ArrowUp,ArrowLeft"":26,""ArrowUp,ArrowRight"":10,""ArrowDown,ArrowLeft"":5,""ArrowDown,ArrowRight"":17}","true","ArrowUp,ArrowLeft","","original","1","16","","",""
"html-keyboard-response","235","957557","0.0-4.0-4.0-1.8","spark_pilot_norest","14425","1","18","Male","","","","","","","null","<div style=""font-size:60px;"">+</div>","null","fixation","","","","","","","","","17","","",""
"revaluation","236","961562","0.0-4.0-4.0-0.9","spark_pilot_norest","14425","1","18","Male","","false","","","","","[324.7000000476837]","./assets/img/ocean/animals/octopus.jpg","[""ArrowRight""]","revaluation","ocean","17","{""ArrowUp,ArrowLeft"":26,""ArrowUp,ArrowRight"":10,""ArrowDown,ArrowLeft"":5,""ArrowDown,ArrowRight"":17}","true","ArrowDown,ArrowRight","","original","1","18","","",""
"html-keyboard-response","237","962063","0.0-4.0-4.0-1.9","spark_pilot_norest","14425","1","18","Male","","","","","","","null","<div style=""font-size:60px;"">+</div>","null","fixation","","","","","","","","","19","","",""
"revaluation","238","966066","0.0-4.0-4.0-0.10","spark_pilot_norest","14425","1","18","Male","","false","","","","","[450.2999999523163]","./assets/img/ocean/animals/octopus.jpg","[""ArrowRight""]","revaluation","ocean","17","{""ArrowUp,ArrowLeft"":26,""ArrowUp,ArrowRight"":10,""ArrowDown,ArrowLeft"":5,""ArrowDown,ArrowRight"":17}","true","ArrowDown,ArrowRight","","original","1","20","","",""
"html-keyboard-response","239","966579","0.0-4.0-4.0-1.10","spark_pilot_norest","14425","1","18","Male","","","","","","","null","<div style=""font-size:60px;"">+</div>","null","fixation","","","","","","","","","21","","",""
"revaluation","240","970581","0.0-4.0-4.0-0.11","spark_pilot_norest","14425","1","18","Male","","false","","","","","[337.3000000715256]","./assets/img/ocean/animals/seahorse.jpg","[""ArrowLeft""]","revaluation","ocean","26","{""ArrowUp,ArrowLeft"":26,""ArrowUp,ArrowRight"":10,""ArrowDown,ArrowLeft"":5,""ArrowDown,ArrowRight"":17}","true","ArrowUp,ArrowLeft","","original","1","22","","",""
"html-keyboard-response","241","971083","0.0-4.0-4.0-1.11","spark_pilot_norest","14425","1","18","Male","","","","","","","null","<div style=""font-size:60px;"">+</div>","null","fixation","","","","","","","","","23","","",""
"revaluation","242","975085","0.0-4.0-4.0-0.12","spark_pilot_norest","14425","1","18","Male","","false","","","","","[366]","./assets/img/ocean/animals/seahorse.jpg","[""ArrowLeft""]","revaluation","ocean","26","{""ArrowUp,ArrowLeft"":26,""ArrowUp,ArrowRight"":10,""ArrowDown,ArrowLeft"":5,""ArrowDown,ArrowRight"":17}","true","ArrowUp,ArrowLeft","","original","1","24","","",""
"html-keyboard-response","243","975586","0.0-4.0-4.0-1.12","spark_pilot_norest","14425","1","18","Male","","","","","","","null","<div style=""font-size:60px;"">+</div>","null","fixation","","","","","","","","","25","","",""
"revaluation","244","979588","0.0-4.0-4.0-0.13","spark_pilot_norest","14425","1","18","Male","","false","","","","","[413.2999999523163]","./assets/img/ocean/animals/seahorse.jpg","[""ArrowLeft""]","revaluation","ocean","26","{""ArrowUp,ArrowLeft"":26,""ArrowUp,ArrowRight"":10,""ArrowDown,ArrowLeft"":5,""ArrowDown,ArrowRight"":17}","true","ArrowUp,ArrowLeft","","original","1","26","","",""
"html-keyboard-response","245","980089","0.0-4.0-4.0-1.13","spark_pilot_norest","14425","1","18","Male","","","","","","","null","<div style=""font-size:60px;"">+</div>","null","fixation","","","","","","","","","27","","",""
"revaluation","246","984094","0.0-4.0-4.0-0.14","spark_pilot_norest","14425","1","18","Male","","false","","","","","[441.59999990463257]","./assets/img/ocean/animals/octopus.jpg","[""ArrowRight""]","revaluation","ocean","17","{""ArrowUp,ArrowLeft"":26,""ArrowUp,ArrowRight"":10,""ArrowDown,ArrowLeft"":5,""ArrowDown,ArrowRight"":17}","true","ArrowDown,ArrowRight","","original","1","28","","",""
"html-keyboard-response","247","984595","0.0-4.0-4.0-1.14","spark_pilot_norest","14425","1","18","Male","","","","","","","null","<div style=""font-size:60px;"">+</div>","null","fixation","","","","","","","","","29","","",""
"revaluation","248","988612","0.0-4.0-4.0-0.15","spark_pilot_norest","14425","1","18","Male","","false","","","","","[385.39999997615814]","./assets/img/ocean/animals/octopus.jpg","[""ArrowRight""]","revaluation","ocean","17","{""ArrowUp,ArrowLeft"":26,""ArrowUp,ArrowRight"":10,""ArrowDown,ArrowLeft"":5,""ArrowDown,ArrowRight"":17}","true","ArrowDown,ArrowRight","","original","1","30","","",""
"html-keyboard-response","249","989113","0.0-4.0-4.0-1.15","spark_pilot_norest","14425","1","18","Male","","","","","","","null","<div style=""font-size:60px;"">+</div>","null","fixation","","","","","","","","","31","","",""
"revaluation","250","993118","0.0-4.0-4.0-0.16","spark_pilot_norest","14425","1","18","Male","","false","","","","","[526.1000000238419]","./assets/img/ocean/animals/octopus.jpg","[""ArrowLeft""]","revaluation","ocean","5","{""ArrowUp,ArrowLeft"":26,""ArrowUp,ArrowRight"":10,""ArrowDown,ArrowLeft"":5,""ArrowDown,ArrowRight"":17}","false","ArrowDown,ArrowLeft","","original","1","32","","",""
"html-keyboard-response","251","993619","0.0-4.0-4.0-1.16","spark_pilot_norest","14425","1","18","Male","","","","","","","null","<div style=""font-size:60px;"">+</div>","null","fixation","","","","","","","","","33","","",""
"revaluation","252","997629","0.0-4.0-4.0-0.17","spark_pilot_norest","14425","1","18","Male","","false","","","","","[484.10000002384186]","./assets/img/ocean/animals/seahorse.jpg","[""ArrowLeft""]","revaluation","ocean","26","{""ArrowUp,ArrowLeft"":26,""ArrowUp,ArrowRight"":10,""ArrowDown,ArrowLeft"":5,""ArrowDown,ArrowRight"":17}","true","ArrowUp,ArrowLeft","","original","1","34","","",""
"html-keyboard-response","253","998129","0.0-4.0-4.0-1.17","spark_pilot_norest","14425","1","18","Male","","","","","","","null","<div style=""font-size:60px;"">+</div>","null","fixation","","","","","","","","","35","","",""
"learning-instructions","254","1006276","0.0-4.0-5.0-0.0","spark_pilot_norest","14425","1","18","Male","","","","","","","null","<p> You have almost finished this part of the game! </p>
            <p> We are going to ask you to make a few more choices. </p>","","instructions","","","","","","","","","","","",""
"learning-instructions","255","1022255","0.0-4.0-5.0-0.1","spark_pilot_norest","14425","1","18","Male","","","","","","","null","<p> First, you need to decide whether to go up or down. When you see each picture, use the arrow keys to make your choice. </p>
            <p><b>You will not see which animal you found, but try to get to the one that will give you the most treasure.</b></p>","","instructions","","","","","","","","","","","",""
"html-keyboard-response","256","1023257","0.0-4.0-6.0-0.0","spark_pilot_norest","14425","1","18","Male","","","","","","","null","<div style=""font-size:100px;color:red;"">Starting in...</div>","null","","","","","","","","","","","","",""
"html-keyboard-response","257","1024267","0.0-4.0-6.0-1.0","spark_pilot_norest","14425","1","18","Male","","","","","","","null","<div style=""font-size:200px;color:red;"">3</div>","null","","","","","","","","","","","","",""
"html-keyboard-response","258","1025282","0.0-4.0-6.0-2.0","spark_pilot_norest","14425","1","18","Male","","","","","","","null","<div style=""font-size:200px;color:red;"">2</div>","null","","","","","","","","","","","","",""
"html-keyboard-response","259","1026294","0.0-4.0-6.0-3.0","spark_pilot_norest","14425","1","18","Male","","","","","","","null","<div style=""font-size:200px;color:red;"">1</div>","null","","","","","","","","","","","","",""
"revaluation","260","1026747","0.0-4.0-7.0-0.0","spark_pilot_norest","14425","1","18","Male","","false","","","","","[451.7000000476837]","./assets/img/ocean/test/0.jpg","[""ArrowUp""]","first stage test","ocean","0","{""ArrowUp,ArrowLeft"":26,""ArrowUp,ArrowRight"":10,""ArrowDown,ArrowLeft"":5,""ArrowDown,ArrowRight"":17}","true","ArrowUp","false","original","1","","","",""
"html-keyboard-response","261","1027258","0.0-4.0-7.0-1.0","spark_pilot_norest","14425","1","18","Male","","","","","","","null","<div style=""font-size:60px;"">+</div>","null","fixation","","","","","","","","","","","",""
"revaluation","262","1028023","0.0-4.0-7.0-0.1","spark_pilot_norest","14425","1","18","Male","","false","","","","","[763.1999999284744]","./assets/img/ocean/test/2.jpg","[""ArrowDown""]","first stage test","ocean","0","{""ArrowUp,ArrowLeft"":26,""ArrowUp,ArrowRight"":10,""ArrowDown,ArrowLeft"":5,""ArrowDown,ArrowRight"":17}","false","ArrowDown","false","original","1","","","",""
"html-keyboard-response","263","1028525","0.0-4.0-7.0-1.1","spark_pilot_norest","14425","1","18","Male","","","","","","","null","<div style=""font-size:60px;"">+</div>","null","fixation","","","","","","","","","","","",""
"revaluation","264","1029654","0.0-4.0-7.0-0.2","spark_pilot_norest","14425","1","18","Male","","false","","","","","[1128.8000000715256]","./assets/img/ocean/test/1.jpg","[""ArrowUp""]","first stage test","ocean","0","{""ArrowUp,ArrowLeft"":26,""ArrowUp,ArrowRight"":10,""ArrowDown,ArrowLeft"":5,""ArrowDown,ArrowRight"":17}","true","ArrowUp","false","original","1","","","",""
"html-keyboard-response","265","1030157","0.0-4.0-7.0-1.2","spark_pilot_norest","14425","1","18","Male","","","","","","","null","<div style=""font-size:60px;"">+</div>","null","fixation","","","","","","","","","","","",""
"revaluation","266","1030846","0.0-4.0-7.0-0.3","spark_pilot_norest","14425","1","18","Male","","false","","","","","[688.3000000715256]","./assets/img/ocean/test/3.jpg","[""ArrowUp""]","first stage test","ocean","0","{""ArrowUp,ArrowLeft"":26,""ArrowUp,ArrowRight"":10,""ArrowDown,ArrowLeft"":5,""ArrowDown,ArrowRight"":17}","true","ArrowUp","false","original","1","","","",""
"html-keyboard-response","267","1031359","0.0-4.0-7.0-1.3","spark_pilot_norest","14425","1","18","Male","","","","","","","null","<div style=""font-size:60px;"">+</div>","null","fixation","","","","","","","","","","","",""
"learning-instructions","268","1044711","0.0-4.0-8.0-0.0","spark_pilot_norest","14425","1","18","Male","","","","","","","null","<p> Now you will see the animals again and can search their chests for treasure. </p>
            <p> This time, you will not see how much treasure you earned, but you will earn more bonus money for making better choices. </p>","","instructions","","","","","","","","","","","",""
"html-keyboard-response","269","1045725","0.0-4.0-9.0-0.0","spark_pilot_norest","14425","1","18","Male","","","","","","","null","<div style=""font-size:100px;color:red;"">Starting in...</div>","null","","","","","","","","","","","","",""
"html-keyboard-response","270","1046739","0.0-4.0-9.0-1.0","spark_pilot_norest","14425","1","18","Male","","","","","","","null","<div style=""font-size:200px;color:red;"">3</div>","null","","","","","","","","","","","","",""
"html-keyboard-response","271","1047752","0.0-4.0-9.0-2.0","spark_pilot_norest","14425","1","18","Male","","","","","","","null","<div style=""font-size:200px;color:red;"">2</div>","null","","","","","","","","","","","","",""
"html-keyboard-response","272","1048765","0.0-4.0-9.0-3.0","spark_pilot_norest","14425","1","18","Male","","","","","","","null","<div style=""font-size:200px;color:red;"">1</div>","null","","","","","","","","","","","","",""
"revaluation","273","1049262","0.0-4.0-10.0-0.0","spark_pilot_norest","14425","1","18","Male","","false","","","","","[496.5]","./assets/img/ocean/animals/seahorse.jpg","[""ArrowLeft""]","second stage test","ocean","0","{""ArrowUp,ArrowLeft"":26,""ArrowUp,ArrowRight"":10,""ArrowDown,ArrowLeft"":5,""ArrowDown,ArrowRight"":17}","true","ArrowUp,ArrowLeft","","original","1","","","",""
"html-keyboard-response","274","1049767","0.0-4.0-10.0-1.0","spark_pilot_norest","14425","1","18","Male","","","","","","","null","<div style=""font-size:60px;"">+</div>","null","fixation","","","","","","","","","","","",""
"revaluation","275","1050167","0.0-4.0-10.0-0.1","spark_pilot_norest","14425","1","18","Male","","false","","","","","[398.3000000715256]","./assets/img/ocean/animals/seahorse.jpg","[""ArrowLeft""]","second stage test","ocean","0","{""ArrowUp,ArrowLeft"":26,""ArrowUp,ArrowRight"":10,""ArrowDown,ArrowLeft"":5,""ArrowDown,ArrowRight"":17}","true","ArrowUp,ArrowLeft","","original","1","","","",""
"html-keyboard-response","276","1050678","0.0-4.0-10.0-1.1","spark_pilot_norest","14425","1","18","Male","","","","","","","null","<div style=""font-size:60px;"">+</div>","null","fixation","","","","","","","","","","","",""
"revaluation","277","1051071","0.0-4.0-10.0-0.2","spark_pilot_norest","14425","1","18","Male","","false","","","","","[391.3000000715256]","./assets/img/ocean/animals/seahorse.jpg","[""ArrowLeft""]","second stage test","ocean","0","{""ArrowUp,ArrowLeft"":26,""ArrowUp,ArrowRight"":10,""ArrowDown,ArrowLeft"":5,""ArrowDown,ArrowRight"":17}","true","ArrowUp,ArrowLeft","","original","1","","","",""
"html-keyboard-response","278","1051576","0.0-4.0-10.0-1.2","spark_pilot_norest","14425","1","18","Male","","","","","","","null","<div style=""font-size:60px;"">+</div>","null","fixation","","","","","","","","","","","",""
"revaluation","279","1051916","0.0-4.0-10.0-0.3","spark_pilot_norest","14425","1","18","Male","","false","","","","","[338.6999999284744]","./assets/img/ocean/animals/seahorse.jpg","[""ArrowLeft""]","second stage test","ocean","0","{""ArrowUp,ArrowLeft"":26,""ArrowUp,ArrowRight"":10,""ArrowDown,ArrowLeft"":5,""ArrowDown,ArrowRight"":17}","true","ArrowUp,ArrowLeft","","original","1","","","",""
"html-keyboard-response","280","1052421","0.0-4.0-10.0-1.3","spark_pilot_norest","14425","1","18","Male","","","","","","","null","<div style=""font-size:60px;"">+</div>","null","fixation","","","","","","","","","","","",""
"revaluation","281","1052837","0.0-4.0-10.0-0.4","spark_pilot_norest","14425","1","18","Male","","false","","","","","[415.1999999284744]","./assets/img/ocean/animals/octopus.jpg","[""ArrowRight""]","second stage test","ocean","0","{""ArrowUp,ArrowLeft"":26,""ArrowUp,ArrowRight"":10,""ArrowDown,ArrowLeft"":5,""ArrowDown,ArrowRight"":17}","true","ArrowDown,ArrowRight","","original","1","","","",""
"html-keyboard-response","282","1053341","0.0-4.0-10.0-1.4","spark_pilot_norest","14425","1","18","Male","","","","","","","null","<div style=""font-size:60px;"">+</div>","null","fixation","","","","","","","","","","","",""
"revaluation","283","1053740","0.0-4.0-10.0-0.5","spark_pilot_norest","14425","1","18","Male","","false","","","","","[398]","./assets/img/ocean/animals/octopus.jpg","[""ArrowRight""]","second stage test","ocean","0","{""ArrowUp,ArrowLeft"":26,""ArrowUp,ArrowRight"":10,""ArrowDown,ArrowLeft"":5,""ArrowDown,ArrowRight"":17}","true","ArrowDown,ArrowRight","","original","1","","","",""
"html-keyboard-response","284","1054243","0.0-4.0-10.0-1.5","spark_pilot_norest","14425","1","18","Male","","","","","","","null","<div style=""font-size:60px;"">+</div>","null","fixation","","","","","","","","","","","",""
"revaluation","285","1054611","0.0-4.0-10.0-0.6","spark_pilot_norest","14425","1","18","Male","","false","","","","","[366.6999999284744]","./assets/img/ocean/animals/octopus.jpg","[""ArrowRight""]","second stage test","ocean","0","{""ArrowUp,ArrowLeft"":26,""ArrowUp,ArrowRight"":10,""ArrowDown,ArrowLeft"":5,""ArrowDown,ArrowRight"":17}","true","ArrowDown,ArrowRight","","original","1","","","",""
"html-keyboard-response","286","1055118","0.0-4.0-10.0-1.6","spark_pilot_norest","14425","1","18","Male","","","","","","","null","<div style=""font-size:60px;"">+</div>","null","fixation","","","","","","","","","","","",""
"revaluation","287","1055459","0.0-4.0-10.0-0.7","spark_pilot_norest","14425","1","18","Male","","false","","","","","[340.2999999523163]","./assets/img/ocean/animals/octopus.jpg","[""ArrowRight""]","second stage test","ocean","0","{""ArrowUp,ArrowLeft"":26,""ArrowUp,ArrowRight"":10,""ArrowDown,ArrowLeft"":5,""ArrowDown,ArrowRight"":17}","true","ArrowDown,ArrowRight","","original","1","","","",""
"html-keyboard-response","288","1055964","0.0-4.0-10.0-1.7","spark_pilot_norest","14425","1","18","Male","","","","","","","null","<div style=""font-size:60px;"">+</div>","null","fixation","","","","","","","","","","","",""
"learning-instructions","289","1061125","0.0-4.0-0.1-0.2","spark_pilot_norest","14425","1","18","Male","","","","","","","2395.899999976158","<p> This time you are searching for treasure in the <b>canyon</b>.</p>","","instructions","","","","","","","","","","","",""
"learning-instructions","290","1078830","0.0-4.0-0.1-0.3","spark_pilot_norest","14425","1","18","Male","","","","","","","461.2000000476837","<p><b>New</b> animals with <b>new</b> treasure chests live here. You need to explore to discover where the animal with the best treasure chest is.</p>
                    <p> Like before, once you figure out which animal has the chest with the most treasure, you should try to get to that animal and select that chest! </p>","","instructions","","","","","","","","","","","",""
"learning-instructions","291","1093999","0.0-4.0-1.1-0.1","spark_pilot_norest","14425","1","18","Male","","","","","","","439.6999999284744","<p> Remember, when you see a picture of the place, use the up and down keys to <b>find an animal</b>.</p>
            <p> When you encounter an animal, you should use the left and right keys to <b>select a treasure chest</b>.</p>
            <p> Don't forget to look out for the robber! </p>","","instructions","","","","","","","","","","","",""
"revaluation","292","1100036","0.0-4.0-2.1-0.50","spark_pilot_norest","14425","1","18","Male","","false","","","","","[1039.7999999523163,400.39999997615814]","./assets/img/canyon/memory/41.jpg","[""ArrowDown"",""ArrowRight""]","value training","canyon","30","{""ArrowUp,ArrowLeft"":23,""ArrowUp,ArrowRight"":10,""ArrowDown,ArrowLeft"":8,""ArrowDown,ArrowRight"":30}","true","ArrowDown,ArrowRight","false","revaluation","2","0","","",""
"html-keyboard-response","293","1100550","0.0-4.0-2.1-1.50","spark_pilot_norest","14425","1","18","Male","","","","","","","null","<div style=""font-size:60px;"">+</div>","null","fixation","","","","","","","","","1","","",""
"revaluation","294","1106579","0.0-4.0-2.1-0.51","spark_pilot_norest","14425","1","18","Male","","false","","","","","[335.8000000715256,291.7999999523163]","./assets/img/canyon/memory/36.jpg","[""ArrowUp"",""ArrowLeft""]","value training","canyon","23","{""ArrowUp,ArrowLeft"":23,""ArrowUp,ArrowRight"":10,""ArrowDown,ArrowLeft"":8,""ArrowDown,ArrowRight"":30}","false","ArrowUp,ArrowLeft","false","revaluation","2","2","","",""
"html-keyboard-response","295","1107094","0.0-4.0-2.1-1.51","spark_pilot_norest","14425","1","18","Male","","","","","","","null","<div style=""font-size:60px;"">+</div>","null","fixation","","","","","","","","","3","","",""
"revaluation","296","1113126","0.0-4.0-2.1-0.52","spark_pilot_norest","14425","1","18","Male","","false","","","","","[793.2000000476837,264.5]","./assets/img/canyon/memory/2.jpg","[""ArrowUp"",""ArrowRight""]","value training","canyon","10","{""ArrowUp,ArrowLeft"":23,""ArrowUp,ArrowRight"":10,""ArrowDown,ArrowLeft"":8,""ArrowDown,ArrowRight"":30}","false","ArrowUp,ArrowRight","false","revaluation","2","4","","",""
"html-keyboard-response","297","1113641","0.0-4.0-2.1-1.52","spark_pilot_norest","14425","1","18","Male","","","","","","","null","<div style=""font-size:60px;"">+</div>","null","fixation","","","","","","","","","5","","",""
"revaluation","298","1119668","0.0-4.0-2.1-0.53","spark_pilot_norest","14425","1","18","Male","","false","","","","","[295.40000009536743,294.7000000476837]","./assets/img/canyon/memory/0.jpg","[""ArrowDown"",""ArrowLeft""]","value training","canyon","8","{""ArrowUp,ArrowLeft"":23,""ArrowUp,ArrowRight"":10,""ArrowDown,ArrowLeft"":8,""ArrowDown,ArrowRight"":30}","false","ArrowDown,ArrowLeft","false","revaluation","2","6","","",""
"html-keyboard-response","299","1120170","0.0-4.0-2.1-1.53","spark_pilot_norest","14425","1","18","Male","","","","","","","null","<div style=""font-size:60px;"">+</div>","null","fixation","","","","","","","","","7","","",""
"revaluation","300","1126181","0.0-4.0-2.1-0.54","spark_pilot_norest","14425","1","18","Male","","false","","","","","[323.60000002384186,167.70000004768372]","./assets/img/canyon/memory/11.jpg","[""ArrowDown"",""ArrowRight""]","value training","canyon","30","{""ArrowUp,ArrowLeft"":23,""ArrowUp,ArrowRight"":10,""ArrowDown,ArrowLeft"":8,""ArrowDown,ArrowRight"":30}","true","ArrowDown,ArrowRight","false","revaluation","2","8","","",""
"html-keyboard-response","301","1126683","0.0-4.0-2.1-1.54","spark_pilot_norest","14425","1","18","Male","","","","","","","null","<div style=""font-size:60px;"">+</div>","null","fixation","","","","","","","","","9","","",""
"revaluation","302","1132687","0.0-4.0-2.1-0.55","spark_pilot_norest","14425","1","18","Male","","false","","","","","[320.10000002384186,187]","./assets/img/canyon/memory/41.jpg","[""ArrowDown"",""ArrowRight""]","value training","canyon","30","{""ArrowUp,ArrowLeft"":23,""ArrowUp,ArrowRight"":10,""ArrowDown,ArrowLeft"":8,""ArrowDown,ArrowRight"":30}","true","ArrowDown,ArrowRight","false","revaluation","2","10","","",""
"html-keyboard-response","303","1133188","0.0-4.0-2.1-1.55","spark_pilot_norest","14425","1","18","Male","","","","","","","null","<div style=""font-size:60px;"">+</div>","null","fixation","","","","","","","","","11","","",""
"revaluation","304","1139196","0.0-4.0-2.1-0.56","spark_pilot_norest","14425","1","18","Male","","false","","","","","[410.39999997615814,396.60000002384186]","./assets/img/canyon/memory/3.jpg","[""ArrowDown"",""ArrowRight""]","value training","canyon","30","{""ArrowUp,ArrowLeft"":23,""ArrowUp,ArrowRight"":10,""ArrowDown,ArrowLeft"":8,""ArrowDown,ArrowRight"":30}","true","ArrowDown,ArrowRight","false","revaluation","2","12","","",""
"html-keyboard-response","305","1139698","0.0-4.0-2.1-1.56","spark_pilot_norest","14425","1","18","Male","","","","","","","null","<div style=""font-size:60px;"">+</div>","null","fixation","","","","","","","","","13","","",""
"revaluation","306","1145708","0.0-4.0-2.1-0.57","spark_pilot_norest","14425","1","18","Male","","false","","","","","[463,334.2000000476837]","./assets/img/canyon/memory/0.jpg","[""ArrowDown"",""ArrowRight""]","value training","canyon","30","{""ArrowUp,ArrowLeft"":23,""ArrowUp,ArrowRight"":10,""ArrowDown,ArrowLeft"":8,""ArrowDown,ArrowRight"":30}","true","ArrowDown,ArrowRight","false","revaluation","2","14","","",""
"html-keyboard-response","307","1146209","0.0-4.0-2.1-1.57","spark_pilot_norest","14425","1","18","Male","","","","","","","null","<div style=""font-size:60px;"">+</div>","null","fixation","","","","","","","","","15","","",""
"revaluation","308","1150211","0.0-4.0-2.1-0.58","spark_pilot_norest","14425","1","18","Male","","false","","","","","[568.6000000238419]","./assets/img/canyon/catch/7.jpg","[""spaceBar""]","value training","canyon","0","{""ArrowUp,ArrowLeft"":23,""ArrowUp,ArrowRight"":10,""ArrowDown,ArrowLeft"":8,""ArrowDown,ArrowRight"":30}","true","spaceBar","true","revaluation","2","16","","",""
"html-keyboard-response","309","1150712","0.0-4.0-2.1-1.58","spark_pilot_norest","14425","1","18","Male","","","","","","","null","<div style=""font-size:60px;"">+</div>","null","fixation","","","","","","","","","17","","",""
"revaluation","310","1156716","0.0-4.0-2.1-0.59","spark_pilot_norest","14425","1","18","Male","","false","","","","","[609.3000000715256,280.90000009536743]","./assets/img/canyon/memory/17.jpg","[""ArrowDown"",""ArrowRight""]","value training","canyon","30","{""ArrowUp,ArrowLeft"":23,""ArrowUp,ArrowRight"":10,""ArrowDown,ArrowLeft"":8,""ArrowDown,ArrowRight"":30}","true","ArrowDown,ArrowRight","false","revaluation","2","18","","",""
"html-keyboard-response","311","1157218","0.0-4.0-2.1-1.59","spark_pilot_norest","14425","1","18","Male","","","","","","","null","<div style=""font-size:60px;"">+</div>","null","fixation","","","","","","","","","19","","",""
"revaluation","312","1163223","0.0-4.0-2.1-0.60","spark_pilot_norest","14425","1","18","Male","","false","","","","","[541.8000000715256,334.10000002384186]","./assets/img/canyon/memory/5.jpg","[""ArrowDown"",""ArrowRight""]","value training","canyon","30","{""ArrowUp,ArrowLeft"":23,""ArrowUp,ArrowRight"":10,""ArrowDown,ArrowLeft"":8,""ArrowDown,ArrowRight"":30}","true","ArrowDown,ArrowRight","false","revaluation","2","20","","",""
