"trial_type","trial_index","time_elapsed","internal_node_id","task_version","subject_id","assigned_condition","age","gender","browser_interaction","success","timeout","failed_images","failed_audio","failed_video","rt","stimulus","response","task_part","environment","score","rewardMap","correct","fullState","isCatch","condition","order","trial_num","key_press","ground_truth","bonus"
"pavlovia","0","2125","0.0-0.0","spark_pilot_norest","8706","8","20","Female","[{""event"":""blur"",""trial"":1,""time"":7619},{""event"":""focus"",""trial"":1,""time"":10860},{""event"":""blur"",""trial"":1,""time"":12126},{""event"":""focus"",""trial"":1,""time"":19899},{""event"":""blur"",""trial"":1,""time"":23983},{""event"":""focus"",""trial"":1,""time"":29679},{""event"":""blur"",""trial"":1,""time"":30941},{""event"":""focus"",""trial"":1,""time"":42237},{""event"":""blur"",""trial"":1,""time"":43431},{""event"":""focus"",""trial"":2,""time"":91347},{""event"":""fullscreenenter"",""trial"":2,""time"":92105}]","","","","","","","","","","","","","","","","","","","","",""
"preload","1","78510","0.0-1.0","spark_pilot_norest","8706","8","20","Female","[{""event"":""blur"",""trial"":1,""time"":7619},{""event"":""focus"",""trial"":1,""time"":10860},{""event"":""blur"",""trial"":1,""time"":12126},{""event"":""focus"",""trial"":1,""time"":19899},{""event"":""blur"",""trial"":1,""time"":23983},{""event"":""focus"",""trial"":1,""time"":29679},{""event"":""blur"",""trial"":1,""time"":30941},{""event"":""focus"",""trial"":1,""time"":42237},{""event"":""blur"",""trial"":1,""time"":43431},{""event"":""focus"",""trial"":2,""time"":91347},{""event"":""fullscreenenter"",""trial"":2,""time"":92105}]","true","false","[]","[]","[]","","","","","","","","","","","","","","","",""
"fullscreen","2","93075","0.0-2.0","spark_pilot_norest","8706","8","20","Female","","true","","","","","","","","","","","","","","","","","","","",""
"audio-button-response","3","96821","0.0-3.0-0.0-0.0","spark_pilot_norest","8706","8","20","Female","","","","","","","3680","./assets/audio/audiotest/turtle.mp3","1","audio_test","","","","","","","","","","","",""
"audio-button-response","4","99451","0.0-3.0-0.1-0.1","spark_pilot_norest","8706","8","20","Female","","","","","","","1621","./assets/audio/audiotest/turtle.mp3","2","audio_test","","","","","","","","","","","",""
"learning-instructions","5","108224","0.0-3.0-1.0-0.0","spark_pilot_norest","8706","8","20","Female","","","","","","","1768.4000000059605","<p> Welcome! Please remember to stay in fullscreen mode and don't click away from the experiment. </p>","","instructions","","","","","","","","","","","",""
"learning-instructions","6","118012","0.0-3.0-1.0-0.1","spark_pilot_norest","8706","8","20","Female","","","","","","","1347.2000000029802","<p> Today you will be playing a game to earn treasure. </p>
            <p> At the end of the experiment, you will earn a bonus based on how much treasure you find. </p>
            <img src='./assets/img/instructions/treasure.jpg' class='instructions-image'>","","instructions","","","","","","","","","","","",""
"learning-instructions","7","126933","0.0-3.0-1.0-0.2","spark_pilot_norest","8706","8","20","Female","","","","","","","632.2000000029802","<p> Animals have hidden treasure in treasure chests. </p>
            <p> You need to first find an animal and then choose which of their treasure chests to search. </p>
            <img src='./assets/img/space/animals/cat.jpg' class='instructions-image'>","","instructions","","","","","","","","","","","",""
"learning-instructions","8","140595","0.0-3.0-1.0-0.3","spark_pilot_norest","8706","8","20","Female","","","","","","","478","<p> In each round, you will search for treasure in a different place. In the real game, there will be two rounds. </p>
            <p> You will begin with a separate, practice round where you will search for treasure in outer space. </p>
            <img src='./assets/img/space/0.jpg' class='instructions-image'>","","instructions","","","","","","","","","","","",""
"learning-instructions","9","152406","0.0-3.0-1.0-0.4","spark_pilot_norest","8706","8","20","Female","","","","","","","384.59999999403954","<p> On every turn, you will see a picture of the place that you are in, but the specific image may be different each time. </p>
            <p> For example, both of these images mean you are in outer space. </p>
            <img src='./assets/img/instructions/outerspace.jpg' class='instructions-image'>","","instructions","","","","","","","","","","","",""
"learning-instructions","10","161086","0.0-3.0-1.0-0.5","spark_pilot_norest","8706","8","20","Female","","","","","","","824.7999999970198","<p> You need to decide which direction to travel in. </p>
            <p> You can choose between going <b>up or down</b> by using the arrow keys. </p>
            <img src='./assets/img/instructions/updown.jpg' class='instructions-image'>","","instructions","","","","","","","","","","","",""
"learning-instructions","11","170372","0.0-3.0-1.0-0.6","spark_pilot_norest","8706","8","20","Female","","","","","","","448.40000000596046","<p> You will have <b>2 seconds</b> to make your choice. </p>
            <p> If you do not make a choice within 2 seconds, you will not find an animal or earn treasure. </p>
            <img src='./assets/img/instructions/2seconds.jpg' class='instructions-image'>","","instructions","","","","","","","","","","","",""
"learning-instructions","12","178016","0.0-3.0-1.0-0.7","spark_pilot_norest","8706","8","20","Female","","","","","","","583.1999999880791","<p> Let’s try practicing that now! </p>
            <p> When you see a picture of the place you are in, press the <b>up</b> key to travel up. </p>
            <img src='./assets/img/instructions/pressUp.jpg' class='instructions-image'>","","instructions","","","","","","","","","","","",""
"revaluation","13","182054","0.0-3.0-2.0-0.0","spark_pilot_norest","8706","8","20","Female","","","false","","","","[1469]","./assets/img/space/0.jpg","[""ArrowUp""]","first stage practice","space","0","null","null","ArrowUp","false","","","","","",""
"html-keyboard-response","14","182564","0.0-3.0-2.0-1.0","spark_pilot_norest","8706","8","20","Female","","","","","","","null","<div style=""font-size:60px;"">+</div>","null","fixation","","","","","","","","","","","",""
"revaluation","15","186588","0.0-3.0-2.0-0.1","spark_pilot_norest","8706","8","20","Female","","","false","","","","[802.7999999970198]","./assets/img/space/1.jpg","[""ArrowUp""]","first stage practice","space","0","null","null","ArrowUp","false","","","","","",""
"html-keyboard-response","16","187094","0.0-3.0-2.0-1.1","spark_pilot_norest","8706","8","20","Female","","","","","","","null","<div style=""font-size:60px;"">+</div>","null","fixation","","","","","","","","","","","",""
"revaluation","17","191110","0.0-3.0-2.0-0.2","spark_pilot_norest","8706","8","20","Female","","","false","","","","[1979.4000000059605]","./assets/img/space/2.jpg","[""ArrowUp""]","first stage practice","space","0","null","null","ArrowUp","false","","","","","",""
"html-keyboard-response","18","191621","0.0-3.0-2.0-1.2","spark_pilot_norest","8706","8","20","Female","","","","","","","null","<div style=""font-size:60px;"">+</div>","null","fixation","","","","","","","","","","","",""
"learning-instructions","19","197598","0.0-3.0-3.0-0.0","spark_pilot_norest","8706","8","20","Female","","","","","","","1261.199999988079","<p> Great job! Now try pressing the <b>down</b> key to travel down. </p>
            <img src='./assets/img/instructions/pressDown.jpg' class='instructions-image'>","","instructions","","","","","","","","","","","",""
"revaluation","20","201618","0.0-3.0-4.0-0.0","spark_pilot_norest","8706","8","20","Female","","","false","","","","[879.2000000029802]","./assets/img/space/3.jpg","[""ArrowDown""]","first stage practice","space","0","null","null","ArrowDown","false","","","","","",""
"html-keyboard-response","21","202122","0.0-3.0-4.0-1.0","spark_pilot_norest","8706","8","20","Female","","","","","","","null","<div style=""font-size:60px;"">+</div>","null","fixation","","","","","","","","","","","",""
"revaluation","22","206139","0.0-3.0-4.0-0.1","spark_pilot_norest","8706","8","20","Female","","","false","","","","[501.19999998807907]","./assets/img/space/4.jpg","[""ArrowDown""]","first stage practice","space","0","null","null","ArrowDown","false","","","","","",""
"html-keyboard-response","23","206642","0.0-3.0-4.0-1.1","spark_pilot_norest","8706","8","20","Female","","","","","","","null","<div style=""font-size:60px;"">+</div>","null","fixation","","","","","","","","","","","",""
"revaluation","24","210663","0.0-3.0-4.0-0.2","spark_pilot_norest","8706","8","20","Female","","","false","","","","[356]","./assets/img/space/5.jpg","[""ArrowDown""]","first stage practice","space","0","null","null","ArrowDown","false","","","","","",""
"html-keyboard-response","25","211174","0.0-3.0-4.0-1.2","spark_pilot_norest","8706","8","20","Female","","","","","","","null","<div style=""font-size:60px;"">+</div>","null","fixation","","","","","","","","","","","",""
"learning-instructions","26","222361","0.0-3.0-5.0-0.0","spark_pilot_norest","8706","8","20","Female","","","","","","","1305.8999999910593","<p> The animals don’t move, so the animal in the upper part of a place will stay in the upper part of a place, and the animal in the lower part of a place will stay in the lower part of a place. </p>","","instructions","","","","","","","","","","","",""
"learning-instructions","27","232082","0.0-3.0-5.0-0.1","spark_pilot_norest","8706","8","20","Female","","","","","","","557.8999999910593","<p> Each animal has two treasure chests for you to choose from. </p>
            <p> The amount of treasure in each chest can range from <b> 0 to 40 pieces.</b></p>","","instructions","","","","","","","","","","","",""
"learning-instructions","28","245359","0.0-3.0-5.0-0.2","spark_pilot_norest","8706","8","20","Female","","","","","","","2059.2999999970198","<p> You should decide which chest to search for treasure by using the <b>left</b> and <b>right</b> arrow keys. </p>
            <p><b> Pay attention to which animal is on the screen, as the animals have different treasure chests. </b></p>
            <img src='./assets/img/instructions/leftright.jpg' class='instructions-image'>","","instructions","","","","","","","","","","","",""
"learning-instructions","29","252868","0.0-3.0-5.0-0.3","spark_pilot_norest","8706","8","20","Female","","","","","","","1121.8999999910593","<p> Let’s try practicing that now. </p>
            <p> When you see an animal, choose which chest to search for treasure. </p>
            <img src='./assets/img/instructions/chooseChest.jpg' class='instructions-image'>","","instructions","","","","","","","","","","","",""
"revaluation","30","256889","0.0-3.0-6.0-0.0","spark_pilot_norest","8706","8","20","Female","","","false","","","","[792.5999999940395]","./assets/img/space/animals/rabbit.jpg","[""ArrowRight""]","second stage practice","space","23","{""ArrowUp,ArrowLeft"":3,""ArrowUp,ArrowRight"":36,""ArrowDown,ArrowLeft"":15,""ArrowDown,ArrowRight"":23}","true","ArrowDown,ArrowRight","","","","","","",""
"html-keyboard-response","31","257392","0.0-3.0-6.0-1.0","spark_pilot_norest","8706","8","20","Female","","","","","","","null","<div style=""font-size:60px;"">+</div>","null","fixation","","","","","","","","","","","",""
"revaluation","32","261409","0.0-3.0-6.0-0.1","spark_pilot_norest","8706","8","20","Female","","","false","","","","[99.29999999701977]","./assets/img/space/animals/rabbit.jpg","[""ArrowRight""]","second stage practice","space","23","{""ArrowUp,ArrowLeft"":3,""ArrowUp,ArrowRight"":36,""ArrowDown,ArrowLeft"":15,""ArrowDown,ArrowRight"":23}","true","ArrowDown,ArrowRight","","","","","","",""
"html-keyboard-response","33","261920","0.0-3.0-6.0-1.1","spark_pilot_norest","8706","8","20","Female","","","","","","","null","<div style=""font-size:60px;"">+</div>","null","fixation","","","","","","","","","","","",""
"revaluation","34","265935","0.0-3.0-6.0-0.2","spark_pilot_norest","8706","8","20","Female","","","false","","","","[306]","./assets/img/space/animals/cat.jpg","[""ArrowLeft""]","second stage practice","space","3","{""ArrowUp,ArrowLeft"":3,""ArrowUp,ArrowRight"":36,""ArrowDown,ArrowLeft"":15,""ArrowDown,ArrowRight"":23}","false","ArrowUp,ArrowLeft","","","","","","",""
"html-keyboard-response","35","266443","0.0-3.0-6.0-1.2","spark_pilot_norest","8706","8","20","Female","","","","","","","null","<div style=""font-size:60px;"">+</div>","null","fixation","","","","","","","","","","","",""
"revaluation","36","270464","0.0-3.0-6.0-0.3","spark_pilot_norest","8706","8","20","Female","","","false","","","","[224.20000000298023]","./assets/img/space/animals/cat.jpg","[""ArrowRight""]","second stage practice","space","36","{""ArrowUp,ArrowLeft"":3,""ArrowUp,ArrowRight"":36,""ArrowDown,ArrowLeft"":15,""ArrowDown,ArrowRight"":23}","true","ArrowUp,ArrowRight","","","","","","",""
"html-keyboard-response","37","270970","0.0-3.0-6.0-1.3","spark_pilot_norest","8706","8","20","Female","","","","","","","null","<div style=""font-size:60px;"">+</div>","null","fixation","","","","","","","","","","","",""
"learning-instructions","38","288808","0.0-3.0-7.0-0.0","spark_pilot_norest","8706","8","20","Female","","","","","","","984.4000000059605","<p> Great job. Now let’s try putting it together. </p>
            <p> On each turn, you will first see a picture to remind you of the place you are in, and you need to choose whether to go up or down. </p>
            <p> Then you will see an animal and choose which of its chests to search for treasure. </p>","","instructions","","","","","","","","","","","",""
"learning-instructions","39","299436","0.0-3.0-7.0-0.1","spark_pilot_norest","8706","8","20","Female","","","","","","","2337.7999999970198","<p> When you choose whether to go up or down, try to go to the animal with the chest with the most treasure. </p>
            <p> Try practicing that now! </p>","","instructions","","","","","","","","","","","",""
"revaluation","40","305461","0.0-3.0-8.0-0.0","spark_pilot_norest","8706","8","20","Female","","","false","","","","[1314.9000000059605,603.2000000029802]","./assets/img/space/6.jpg","[""ArrowUp"",""ArrowRight""]","full practice","space","36","{""ArrowUp,ArrowLeft"":3,""ArrowUp,ArrowRight"":36,""ArrowDown,ArrowLeft"":15,""ArrowDown,ArrowRight"":23}","true","ArrowUp,ArrowRight","false","","","","","",""
"html-keyboard-response","41","305967","0.0-3.0-8.0-1.0","spark_pilot_norest","8706","8","20","Female","","","","","","","null","<div style=""font-size:60px;"">+</div>","null","fixation","","","","","","","","","","","",""
"revaluation","42","311991","0.0-3.0-8.0-0.1","spark_pilot_norest","8706","8","20","Female","","","false","","","","[787,983.7000000029802]","./assets/img/space/7.jpg","[""ArrowDown"",""ArrowLeft""]","full practice","space","15","{""ArrowUp,ArrowLeft"":3,""ArrowUp,ArrowRight"":36,""ArrowDown,ArrowLeft"":15,""ArrowDown,ArrowRight"":23}","false","ArrowDown,ArrowLeft","false","","","","","",""
"html-keyboard-response","43","312501","0.0-3.0-8.0-1.1","spark_pilot_norest","8706","8","20","Female","","","","","","","null","<div style=""font-size:60px;"">+</div>","null","fixation","","","","","","","","","","","",""
"revaluation","44","318524","0.0-3.0-8.0-0.2","spark_pilot_norest","8706","8","20","Female","","","false","","","","[341.59999999403954,493.29999999701977]","./assets/img/space/8.jpg","[""ArrowUp"",""ArrowRight""]","full practice","space","36","{""ArrowUp,ArrowLeft"":3,""ArrowUp,ArrowRight"":36,""ArrowDown,ArrowLeft"":15,""ArrowDown,ArrowRight"":23}","true","ArrowUp,ArrowRight","false","","","","","",""
"html-keyboard-response","45","319028","0.0-3.0-8.0-1.2","spark_pilot_norest","8706","8","20","Female","","","","","","","null","<div style=""font-size:60px;"">+</div>","null","fixation","","","","","","","","","","","",""
"revaluation","46","325052","0.0-3.0-8.0-0.3","spark_pilot_norest","8706","8","20","Female","","","false","","","","[610.5999999940395,968.0999999940395]","./assets/img/space/9.jpg","[""ArrowUp"",""ArrowLeft""]","full practice","space","3","{""ArrowUp,ArrowLeft"":3,""ArrowUp,ArrowRight"":36,""ArrowDown,ArrowLeft"":15,""ArrowDown,ArrowRight"":23}","false","ArrowUp,ArrowLeft","false","","","","","",""
"html-keyboard-response","47","325555","0.0-3.0-8.0-1.3","spark_pilot_norest","8706","8","20","Female","","","","","","","null","<div style=""font-size:60px;"">+</div>","null","fixation","","","","","","","","","","","",""
"revaluation","48","331582","0.0-3.0-8.0-0.4","spark_pilot_norest","8706","8","20","Female","","","false","","","","[294.79999999701977,398.30000001192093]","./assets/img/space/10.jpg","[""ArrowDown"",""ArrowRight""]","full practice","space","23","{""ArrowUp,ArrowLeft"":3,""ArrowUp,ArrowRight"":36,""ArrowDown,ArrowLeft"":15,""ArrowDown,ArrowRight"":23}","false","ArrowDown,ArrowRight","false","","","","","",""
"html-keyboard-response","49","332093","0.0-3.0-8.0-1.4","spark_pilot_norest","8706","8","20","Female","","","","","","","null","<div style=""font-size:60px;"">+</div>","null","fixation","","","","","","","","","","","",""
"learning-instructions","50","343996","0.0-3.0-9.0-0.0","spark_pilot_norest","8706","8","20","Female","","","","","","","1532.2999999970198","<p> One last thing: sometimes, you will see a robber. The robber can be anywhere in the picture. </p>
            <p> If you do not stop them, you will lose treasure. </p>
            <img src='./assets/img/instructions/robber.jpg' class='instructions-image'>","","instructions","","","","","","","","","","","",""
"learning-instructions","51","352245","0.0-3.0-9.0-0.1","spark_pilot_norest","8706","8","20","Female","","","","","","","1057","<p> If you see the robber, you should <b>press the space bar</b> rather than using the arrow keys. </p>
            <p> Try practicing that now! </p>","","instructions","","","","","","","","","","","",""
"revaluation","52","356267","0.0-3.0-10.0-0.0","spark_pilot_norest","8706","8","20","Female","","","false","","","","[875.7000000029802]","./assets/img/space/catch/0.jpg","[""spaceBar""]","catch practice","space","0","{""ArrowUp,ArrowLeft"":3,""ArrowUp,ArrowRight"":36,""ArrowDown,ArrowLeft"":15,""ArrowDown,ArrowRight"":23}","true","spaceBar","true","","","","","",""
"html-keyboard-response","53","356771","0.0-3.0-10.0-1.0","spark_pilot_norest","8706","8","20","Female","","","","","","","null","<div style=""font-size:60px;"">+</div>","null","fixation","","","","","","","","","","","",""
"revaluation","54","360787","0.0-3.0-10.0-0.1","spark_pilot_norest","8706","8","20","Female","","","false","","","","[618.2000000029802]","./assets/img/space/catch/1.jpg","[""spaceBar""]","catch practice","space","0","{""ArrowUp,ArrowLeft"":3,""ArrowUp,ArrowRight"":36,""ArrowDown,ArrowLeft"":15,""ArrowDown,ArrowRight"":23}","true","spaceBar","true","","","","","",""
"html-keyboard-response","55","361299","0.0-3.0-10.0-1.1","spark_pilot_norest","8706","8","20","Female","","","","","","","null","<div style=""font-size:60px;"">+</div>","null","fixation","","","","","","","","","","","",""
"revaluation","56","365314","0.0-3.0-10.0-0.2","spark_pilot_norest","8706","8","20","Female","","","false","","","","[431.5]","./assets/img/space/catch/2.jpg","[""spaceBar""]","catch practice","space","0","{""ArrowUp,ArrowLeft"":3,""ArrowUp,ArrowRight"":36,""ArrowDown,ArrowLeft"":15,""ArrowDown,ArrowRight"":23}","true","spaceBar","true","","","","","",""
"html-keyboard-response","57","365821","0.0-3.0-10.0-1.2","spark_pilot_norest","8706","8","20","Female","","","","","","","null","<div style=""font-size:60px;"">+</div>","null","fixation","","","","","","","","","","","",""
"learning-instructions","58","373405","0.0-3.0-11.0-0.0-0.0","spark_pilot_norest","8706","8","20","Female","","","","","","","2303.699999988079","<p> Now, you will practice a shortened version of the game to get a sense of how it all fits together. </p>","","instructions","","","","","","","","","","","",""
"learning-instructions","59","377399","0.0-3.0-11.0-0.0-0.1","spark_pilot_norest","8706","8","20","Female","","","","","","","789.3999999910593","<p>This time you are searching for treasure in outer space.</p>","","instructions","","","","","","","","","","","",""
"learning-instructions","60","392794","0.0-3.0-11.0-1.0-0.0","spark_pilot_norest","8706","8","20","Female","","","","","","","610.7999999970198","<p> Remember, when you see a picture of the place, use the up and down keys to <b>find an animal</b>.</p>
            <p> When you encounter an animal, you should use the left and right keys to <b>select a treasure chest</b>.</p>
            <p> Don't forget to look out for the robber! </p>","","instructions","","","","","","","","","","","",""
"revaluation","61","398821","0.0-3.0-11.0-2.0-0.0","spark_pilot_norest","8706","8","20","Female","","","false","","","","[1238.2000000029802,605.7000000029802]","./assets/img/space/11.jpg","[""ArrowUp"",""ArrowRight""]","practice block","space","36","{""ArrowUp,ArrowLeft"":3,""ArrowUp,ArrowRight"":36,""ArrowDown,ArrowLeft"":15,""ArrowDown,ArrowRight"":23}","true","ArrowUp,ArrowRight","false","","","","","",""
"html-keyboard-response","62","399328","0.0-3.0-11.0-2.0-1.0","spark_pilot_norest","8706","8","20","Female","","","","","","","null","<div style=""font-size:60px;"">+</div>","null","fixation","","","","","","","","","","","",""
"revaluation","63","405352","0.0-3.0-11.0-2.0-0.1","spark_pilot_norest","8706","8","20","Female","","","false","","","","[916.5999999940395,364.09999999403954]","./assets/img/space/12.jpg","[""ArrowDown"",""ArrowLeft""]","practice block","space","15","{""ArrowUp,ArrowLeft"":3,""ArrowUp,ArrowRight"":36,""ArrowDown,ArrowLeft"":15,""ArrowDown,ArrowRight"":23}","false","ArrowDown,ArrowLeft","false","","","","","",""
"html-keyboard-response","64","405859","0.0-3.0-11.0-2.0-1.1","spark_pilot_norest","8706","8","20","Female","","","","","","","null","<div style=""font-size:60px;"">+</div>","null","fixation","","","","","","","","","","","",""
"revaluation","65","411887","0.0-3.0-11.0-2.0-0.2","spark_pilot_norest","8706","8","20","Female","","","false","","","","[856.1999999880791,326]","./assets/img/space/13.jpg","[""ArrowUp"",""ArrowRight""]","practice block","space","36","{""ArrowUp,ArrowLeft"":3,""ArrowUp,ArrowRight"":36,""ArrowDown,ArrowLeft"":15,""ArrowDown,ArrowRight"":23}","true","ArrowUp,ArrowRight","false","","","","","",""
"html-keyboard-response","66","412393","0.0-3.0-11.0-2.0-1.2","spark_pilot_norest","8706","8","20","Female","","","","","","","null","<div style=""font-size:60px;"">+</div>","null","fixation","","","","","","","","","","","",""
"revaluation","67","418423","0.0-3.0-11.0-2.0-0.3","spark_pilot_norest","8706","8","20","Female","","","false","","","","[475.30000001192093,347.59999999403954]","./assets/img/space/14.jpg","[""ArrowDown"",""ArrowRight""]","practice block","space","23","{""ArrowUp,ArrowLeft"":3,""ArrowUp,ArrowRight"":36,""ArrowDown,ArrowLeft"":15,""ArrowDown,ArrowRight"":23}","false","ArrowDown,ArrowRight","false","","","","","",""
"html-keyboard-response","68","418927","0.0-3.0-11.0-2.0-1.3","spark_pilot_norest","8706","8","20","Female","","","","","","","null","<div style=""font-size:60px;"">+</div>","null","fixation","","","","","","","","","","","",""
"revaluation","69","424951","0.0-3.0-11.0-2.0-0.4","spark_pilot_norest","8706","8","20","Female","","","false","","","","[1421.8999999910593,526.4000000059605]","./assets/img/space/11.jpg","[""ArrowUp"",""ArrowRight""]","practice block","space","36","{""ArrowUp,ArrowLeft"":3,""ArrowUp,ArrowRight"":36,""ArrowDown,ArrowLeft"":15,""ArrowDown,ArrowRight"":23}","true","ArrowUp,ArrowRight","false","","","","","",""
"html-keyboard-response","70","425457","0.0-3.0-11.0-2.0-1.4","spark_pilot_norest","8706","8","20","Female","","","","","","","null","<div style=""font-size:60px;"">+</div>","null","fixation","","","","","","","","","","","",""
"revaluation","71","431489","0.0-3.0-11.0-2.0-0.5","spark_pilot_norest","8706","8","20","Female","","","false","","","","[1318.2999999970198,428.3999999910593]","./assets/img/space/12.jpg","[""ArrowDown"",""ArrowRight""]","practice block","space","23","{""ArrowUp,ArrowLeft"":3,""ArrowUp,ArrowRight"":36,""ArrowDown,ArrowLeft"":15,""ArrowDown,ArrowRight"":23}","false","ArrowDown,ArrowRight","false","","","","","",""
"html-keyboard-response","72","432001","0.0-3.0-11.0-2.0-1.5","spark_pilot_norest","8706","8","20","Female","","","","","","","null","<div style=""font-size:60px;"">+</div>","null","fixation","","","","","","","","","","","",""
"revaluation","73","438033","0.0-3.0-11.0-2.0-0.6","spark_pilot_norest","8706","8","20","Female","","","false","","","","[1008.0999999940395,455.20000000298023]","./assets/img/space/13.jpg","[""ArrowDown"",""ArrowRight""]","practice block","space","23","{""ArrowUp,ArrowLeft"":3,""ArrowUp,ArrowRight"":36,""ArrowDown,ArrowLeft"":15,""ArrowDown,ArrowRight"":23}","false","ArrowDown,ArrowRight","false","","","","","",""
"html-keyboard-response","74","438544","0.0-3.0-11.0-2.0-1.6","spark_pilot_norest","8706","8","20","Female","","","","","","","null","<div style=""font-size:60px;"">+</div>","null","fixation","","","","","","","","","","","",""
"revaluation","75","444577","0.0-3.0-11.0-2.0-0.7","spark_pilot_norest","8706","8","20","Female","","","false","","","","[554.5999999940395,415.90000000596046]","./assets/img/space/14.jpg","[""ArrowUp"",""ArrowRight""]","practice block","space","36","{""ArrowUp,ArrowLeft"":3,""ArrowUp,ArrowRight"":36,""ArrowDown,ArrowLeft"":15,""ArrowDown,ArrowRight"":23}","true","ArrowUp,ArrowRight","false","","","","","",""
"html-keyboard-response","76","445088","0.0-3.0-11.0-2.0-1.7","spark_pilot_norest","8706","8","20","Female","","","","","","","null","<div style=""font-size:60px;"">+</div>","null","fixation","","","","","","","","","","","",""
"revaluation","77","449110","0.0-3.0-11.0-2.0-0.8","spark_pilot_norest","8706","8","20","Female","","","false","","","","[521.9000000059605]","./assets/img/space/catch/3.jpg","[""spaceBar""]","practice block","space","0","{""ArrowUp,ArrowLeft"":3,""ArrowUp,ArrowRight"":36,""ArrowDown,ArrowLeft"":15,""ArrowDown,ArrowRight"":23}","true","spaceBar","true","","","","","",""
"html-keyboard-response","78","449616","0.0-3.0-11.0-2.0-1.8","spark_pilot_norest","8706","8","20","Female","","","","","","","null","<div style=""font-size:60px;"">+</div>","null","fixation","","","","","","","","","","","",""
"learning-instructions","79","463736","0.0-3.0-11.0-3.0-0.0","spark_pilot_norest","8706","8","20","Female","","","","","","","1124.9000000059605","<p> Now, you will travel with a friend who will choose whether you go up or down first. </p>
            <p> On these turns, you will just see the animal that they found. You will still get to choose which chest to search for treasure.</p>","","instructions","","","","","","","","","","","",""
"revaluation","80","467756","0.0-3.0-11.0-4.0-0.0","spark_pilot_norest","8706","8","20","Female","","","false","","","","[809.7000000029802]","./assets/img/space/animals/cat.jpg","[""ArrowRight""]","practice block","space","36","{""ArrowUp,ArrowLeft"":3,""ArrowUp,ArrowRight"":36,""ArrowDown,ArrowLeft"":15,""ArrowDown,ArrowRight"":23}","true","ArrowUp,ArrowRight","","","","","","",""
"html-keyboard-response","81","468260","0.0-3.0-11.0-4.0-1.0","spark_pilot_norest","8706","8","20","Female","","","","","","","null","<div style=""font-size:60px;"">+</div>","null","fixation","","","","","","","","","","","",""
"revaluation","82","472276","0.0-3.0-11.0-4.0-0.1","spark_pilot_norest","8706","8","20","Female","","","false","","","","[469.20000000298023]","./assets/img/space/animals/rabbit.jpg","[""ArrowRight""]","practice block","space","23","{""ArrowUp,ArrowLeft"":3,""ArrowUp,ArrowRight"":36,""ArrowDown,ArrowLeft"":15,""ArrowDown,ArrowRight"":23}","true","ArrowDown,ArrowRight","","","","","","",""
"html-keyboard-response","83","472783","0.0-3.0-11.0-4.0-1.1","spark_pilot_norest","8706","8","20","Female","","","","","","","null","<div style=""font-size:60px;"">+</div>","null","fixation","","","","","","","","","","","",""
"revaluation","84","476804","0.0-3.0-11.0-4.0-0.2","spark_pilot_norest","8706","8","20","Female","","","false","","","","[514.1000000089407]","./assets/img/space/animals/rabbit.jpg","[""ArrowRight""]","practice block","space","23","{""ArrowUp,ArrowLeft"":3,""ArrowUp,ArrowRight"":36,""ArrowDown,ArrowLeft"":15,""ArrowDown,ArrowRight"":23}","true","ArrowDown,ArrowRight","","","","","","",""
"html-keyboard-response","85","477311","0.0-3.0-11.0-4.0-1.2","spark_pilot_norest","8706","8","20","Female","","","","","","","null","<div style=""font-size:60px;"">+</div>","null","fixation","","","","","","","","","","","",""
"revaluation","86","481335","0.0-3.0-11.0-4.0-0.3","spark_pilot_norest","8706","8","20","Female","","","false","","","","[458.8999999910593]","./assets/img/space/animals/cat.jpg","[""ArrowRight""]","practice block","space","36","{""ArrowUp,ArrowLeft"":3,""ArrowUp,ArrowRight"":36,""ArrowDown,ArrowLeft"":15,""ArrowDown,ArrowRight"":23}","true","ArrowUp,ArrowRight","","","","","","",""
"html-keyboard-response","87","481846","0.0-3.0-11.0-4.0-1.3","spark_pilot_norest","8706","8","20","Female","","","","","","","null","<div style=""font-size:60px;"">+</div>","null","fixation","","","","","","","","","","","",""
"learning-instructions","88","489994","0.0-3.0-11.0-5.0-0.0","spark_pilot_norest","8706","8","20","Female","","","","","","","null","<p> You have almost finished this part of the game! </p>
            <p> We are going to ask you to make a few more choices. </p>","","instructions","","","","","","","","","","","",""
"learning-instructions","89","506045","0.0-3.0-11.0-5.0-0.1","spark_pilot_norest","8706","8","20","Female","","","","","","","null","<p> First, you need to decide whether to go up or down. When you see each picture, use the arrow keys to make your choice. </p>
            <p><b>You will not see which animal you found, but try to get to the one that will give you the most treasure.</b></p>","","instructions","","","","","","","","","","","",""
"html-keyboard-response","90","507049","0.0-3.0-11.0-6.0-0.0","spark_pilot_norest","8706","8","20","Female","","","","","","","null","<div style=""font-size:100px;color:red;"">Starting in...</div>","null","","","","","","","","","","","","",""
"html-keyboard-response","91","508058","0.0-3.0-11.0-6.0-1.0","spark_pilot_norest","8706","8","20","Female","","","","","","","null","<div style=""font-size:200px;color:red;"">3</div>","null","","","","","","","","","","","","",""
"html-keyboard-response","92","509069","0.0-3.0-11.0-6.0-2.0","spark_pilot_norest","8706","8","20","Female","","","","","","","null","<div style=""font-size:200px;color:red;"">2</div>","null","","","","","","","","","","","","",""
"html-keyboard-response","93","510073","0.0-3.0-11.0-6.0-3.0","spark_pilot_norest","8706","8","20","Female","","","","","","","null","<div style=""font-size:200px;color:red;"">1</div>","null","","","","","","","","","","","","",""
"revaluation","94","511093","0.0-3.0-11.0-7.0","spark_pilot_norest","8706","8","20","Female","","","false","","","","[1014.9000000059605]","./assets/img/space/15.jpg","[""ArrowUp""]","practice block","space","0","{""ArrowUp,ArrowLeft"":3,""ArrowUp,ArrowRight"":36,""ArrowDown,ArrowLeft"":15,""ArrowDown,ArrowRight"":23}","true","ArrowUp","false","","","","","",""
"html-keyboard-response","95","511602","0.0-3.0-11.0-8.0","spark_pilot_norest","8706","8","20","Female","","","","","","","null","<div style=""font-size:60px;"">+</div>","null","fixation","","","","","","","","","","","",""
"learning-instructions","96","525016","0.0-3.0-11.0-9.0-0.0","spark_pilot_norest","8706","8","20","Female","","","","","","","null","<p> Now you will see the animals again and can search their chests for treasure. </p>
            <p> This time, you will not see how much treasure you earned, but you will earn more bonus money for making better choices. </p>","","instructions","","","","","","","","","","","",""
"html-keyboard-response","97","526025","0.0-3.0-11.0-10.0-0.0","spark_pilot_norest","8706","8","20","Female","","","","","","","null","<div style=""font-size:100px;color:red;"">Starting in...</div>","null","","","","","","","","","","","","",""
"html-keyboard-response","98","527032","0.0-3.0-11.0-10.0-1.0","spark_pilot_norest","8706","8","20","Female","","","","","","","null","<div style=""font-size:200px;color:red;"">3</div>","null","","","","","","","","","","","","",""
"html-keyboard-response","99","528041","0.0-3.0-11.0-10.0-2.0","spark_pilot_norest","8706","8","20","Female","","","","","","","null","<div style=""font-size:200px;color:red;"">2</div>","null","","","","","","","","","","","","",""
"html-keyboard-response","100","529048","0.0-3.0-11.0-10.0-3.0","spark_pilot_norest","8706","8","20","Female","","","","","","","null","<div style=""font-size:200px;color:red;"">1</div>","null","","","","","","","","","","","","",""
"revaluation","101","529767","0.0-3.0-11.0-11.0-0.0","spark_pilot_norest","8706","8","20","Female","","","false","","","","[714.2000000029802]","./assets/img/space/animals/cat.jpg","[""ArrowRight""]","practice block","space","0","{""ArrowUp,ArrowLeft"":3,""ArrowUp,ArrowRight"":36,""ArrowDown,ArrowLeft"":15,""ArrowDown,ArrowRight"":23}","true","ArrowUp,ArrowRight","","","","","","",""
"html-keyboard-response","102","530272","0.0-3.0-11.0-11.0-1.0","spark_pilot_norest","8706","8","20","Female","","","","","","","null","<div style=""font-size:60px;"">+</div>","null","fixation","","","","","","","","","","","",""
"revaluation","103","531188","0.0-3.0-11.0-11.0-0.1","spark_pilot_norest","8706","8","20","Female","","","false","","","","[910.8999999910593]","./assets/img/space/animals/rabbit.jpg","[""ArrowRight""]","practice block","space","0","{""ArrowUp,ArrowLeft"":3,""ArrowUp,ArrowRight"":36,""ArrowDown,ArrowLeft"":15,""ArrowDown,ArrowRight"":23}","true","ArrowDown,ArrowRight","","","","","","",""
"html-keyboard-response","104","531696","0.0-3.0-11.0-11.0-1.1","spark_pilot_norest","8706","8","20","Female","","","","","","","null","<div style=""font-size:60px;"">+</div>","null","fixation","","","","","","","","","","","",""
"learning-instructions","105","537644","0.0-3.0-12.0-0.0","spark_pilot_norest","8706","8","20","Female","","","","","","","1349.5","<p> Before you start, we're going to ask you a few questions about how the game works. </p>","","instructions","","","","","","","","","","","",""
"comp-q","106","544430","0.0-3.0-13.0-0.0-0.0","spark_pilot_norest","8706","8","20","Female","","","","","","","1169.5","<p> <b> True or False? </b> </p>
            <p> There can be 50 pieces of treasure in a given animal's chest. </p>","1","comp_question","","","","true","","","","","","","",""
"comp-q","107","552227","0.0-3.0-13.0-0.0-1.0","spark_pilot_norest","8706","8","20","Female","","","","","","","1117.7999999970198","<p> <b> That's right! </b> The amount of treasure in each chest can range from 0 to 40 pieces. </p>","0","comp_answer","","","","","","","","","","","",""
"comp-q","108","560389","0.0-3.0-13.0-0.1-0.1","spark_pilot_norest","8706","8","20","Female","","","","","","","1013.6999999880791","<p> <b> True or False? </b> </p><p> In this game, all animals have the same amount of treasure in their left and right chests. </p>","1","comp_question","","","","true","","","","","","","",""
"comp-q","109","566521","0.0-3.0-13.0-0.1-1.1","spark_pilot_norest","8706","8","20","Female","","","","","","","878.9000000059605","<p> <b> That's right! </b> Animals have different amounts of treasure in their treasure chests. </p>","0","comp_answer","","","","","","","","","","","",""
"comp-q","110","575740","0.0-3.0-13.0-0.2-0.2","spark_pilot_norest","8706","8","20","Female","","","","","","","3350.9000000059605","<p> <b> True or False? </b> </p><p> The same animal will always be there if you go up in the same place. </p>","0","comp_question","","","","true","","","","","","","",""
"comp-q","111","582981","0.0-3.0-13.0-0.2-1.2","spark_pilot_norest","8706","8","20","Female","","","","","","","704.4000000059605","<p> <b> That's right! </b> One animal lives in the upper part and one lives in the lower part of every place. </p>","0","comp_answer","","","","","","","","","","","",""
"comp-q","112","588991","0.0-3.0-13.0-0.3-0.3","spark_pilot_norest","8706","8","20","Female","","","","","","","465.59999999403954","<p> <b> True or False? </b> </p><p> If you see a different picture, it means you are in a new place. </p>","1","comp_question","","","","true","","","","","","","",""
"comp-q","113","601092","0.0-3.0-13.0-0.3-1.3","spark_pilot_norest","8706","8","20","Female","","","","","","","839.5999999940395","<p> <b> That's right! </b> Lots of different images may show the same place. For example,  you may see three different images that all remind you that you are in outer space. </p>","0","comp_answer","","","","","","","","","","","",""
"learning-instructions","114","612229","0.0-3.0-14.0-0.0","spark_pilot_norest","8706","8","20","Female","","","","","","","1257.7999999970198","<p> Good job. Remember to do your best because the amount of treasure you earn will be converted into bonus money. </p>
            <p> It’s time to start the real game! </p>","","instructions","","","","","","","","","","","",""
"learning-instructions","115","615505","0.0-4.0-0.0-0.0","spark_pilot_norest","8706","8","20","Female","","","","","","","491.09999999403954","<p> This time you are searching for treasure in the <b>canyon</b>.</p>","","instructions","","","","","","","","","","","",""
"learning-instructions","116","633756","0.0-4.0-0.0-0.1","spark_pilot_norest","8706","8","20","Female","","","","","","","919.6000000089407","<p><b>New</b> animals with <b>new</b> treasure chests live here. You need to explore to discover where the animal with the best treasure chest is.</p>
                    <p> Like before, once you figure out which animal has the chest with the most treasure, you should try to get to that animal and select that chest! </p>","","instructions","","","","","","","","","","","",""
"learning-instructions","117","649334","0.0-4.0-1.0-0.0","spark_pilot_norest","8706","8","20","Female","","","","","","","845.2999999970198","<p> Remember, when you see a picture of the place, use the up and down keys to <b>find an animal</b>.</p>
            <p> When you encounter an animal, you should use the left and right keys to <b>select a treasure chest</b>.</p>
            <p> Don't forget to look out for the robber! </p>","","instructions","","","","","","","","","","","",""
"revaluation","118","655362","0.0-4.0-2.0-0.0","spark_pilot_norest","8706","8","20","Female","","","false","","","","[1362.6000000089407,735.8999999910593]","./assets/img/canyon/memory/11.jpg","[""ArrowUp"",""ArrowRight""]","value training","canyon","10","{""ArrowUp,ArrowLeft"":26,""ArrowUp,ArrowRight"":10,""ArrowDown,ArrowLeft"":5,""ArrowDown,ArrowRight"":17}","false","ArrowUp,ArrowRight","false","revaluation","1","0","","",""
"html-keyboard-response","119","655873","0.0-4.0-2.0-1.0","spark_pilot_norest","8706","8","20","Female","","","","","","","null","<div style=""font-size:60px;"">+</div>","null","fixation","","","","","","","","","1","","",""
"revaluation","120","661900","0.0-4.0-2.0-0.1","spark_pilot_norest","8706","8","20","Female","","","false","","","","[798.1999999880791,656.5999999940395]","./assets/img/canyon/memory/26.jpg","[""ArrowDown"",""ArrowLeft""]","value training","canyon","5","{""ArrowUp,ArrowLeft"":26,""ArrowUp,ArrowRight"":10,""ArrowDown,ArrowLeft"":5,""ArrowDown,ArrowRight"":17}","false","ArrowDown,ArrowLeft","false","revaluation","1","2","","",""
"html-keyboard-response","121","662409","0.0-4.0-2.0-1.1","spark_pilot_norest","8706","8","20","Female","","","","","","","null","<div style=""font-size:60px;"">+</div>","null","fixation","","","","","","","","","3","","",""
"revaluation","122","668433","0.0-4.0-2.0-0.2","spark_pilot_norest","8706","8","20","Female","","","false","","","","[1621.2000000029802,800.8999999910593]","./assets/img/canyon/memory/25.jpg","[""ArrowUp"",""ArrowRight""]","value training","canyon","10","{""ArrowUp,ArrowLeft"":26,""ArrowUp,ArrowRight"":10,""ArrowDown,ArrowLeft"":5,""ArrowDown,ArrowRight"":17}","false","ArrowUp,ArrowRight","false","revaluation","1","4","","",""
"html-keyboard-response","123","668939","0.0-4.0-2.0-1.2","spark_pilot_norest","8706","8","20","Female","","","","","","","null","<div style=""font-size:60px;"">+</div>","null","fixation","","","","","","","","","5","","",""
"revaluation","124","672960","0.0-4.0-2.0-0.3","spark_pilot_norest","8706","8","20","Female","","","false","","","","[695.7000000029802]","./assets/img/canyon/catch/0.jpg","[""spaceBar""]","value training","canyon","0","{""ArrowUp,ArrowLeft"":26,""ArrowUp,ArrowRight"":10,""ArrowDown,ArrowLeft"":5,""ArrowDown,ArrowRight"":17}","true","spaceBar","true","revaluation","1","6","","",""
"html-keyboard-response","125","673464","0.0-4.0-2.0-1.3","spark_pilot_norest","8706","8","20","Female","","","","","","","null","<div style=""font-size:60px;"">+</div>","null","fixation","","","","","","","","","7","","",""
"revaluation","126","679490","0.0-4.0-2.0-0.4","spark_pilot_norest","8706","8","20","Female","","","false","","","","[788.3999999910593,594.2999999970198]","./assets/img/canyon/memory/18.jpg","[""ArrowDown"",""ArrowLeft""]","value training","canyon","5","{""ArrowUp,ArrowLeft"":26,""ArrowUp,ArrowRight"":10,""ArrowDown,ArrowLeft"":5,""ArrowDown,ArrowRight"":17}","false","ArrowDown,ArrowLeft","false","revaluation","1","8","","",""
"html-keyboard-response","127","680001","0.0-4.0-2.0-1.4","spark_pilot_norest","8706","8","20","Female","","","","","","","null","<div style=""font-size:60px;"">+</div>","null","fixation","","","","","","","","","9","","",""
"revaluation","128","686033","0.0-4.0-2.0-0.5","spark_pilot_norest","8706","8","20","Female","","","false","","","","[378,832.3000000119209]","./assets/img/canyon/memory/9.jpg","[""ArrowUp"",""ArrowLeft""]","value training","canyon","26","{""ArrowUp,ArrowLeft"":26,""ArrowUp,ArrowRight"":10,""ArrowDown,ArrowLeft"":5,""ArrowDown,ArrowRight"":17}","true","ArrowUp,ArrowLeft","false","revaluation","1","10","","",""
"html-keyboard-response","129","686545","0.0-4.0-2.0-1.5","spark_pilot_norest","8706","8","20","Female","","","","","","","null","<div style=""font-size:60px;"">+</div>","null","fixation","","","","","","","","","11","","",""
"revaluation","130","692571","0.0-4.0-2.0-0.6","spark_pilot_norest","8706","8","20","Female","","","false","","","","[484.6000000089407,1025.5999999940395]","./assets/img/canyon/memory/12.jpg","[""ArrowDown"",""ArrowLeft""]","value training","canyon","5","{""ArrowUp,ArrowLeft"":26,""ArrowUp,ArrowRight"":10,""ArrowDown,ArrowLeft"":5,""ArrowDown,ArrowRight"":17}","false","ArrowDown,ArrowLeft","false","revaluation","1","12","","",""
"html-keyboard-response","131","693083","0.0-4.0-2.0-1.6","spark_pilot_norest","8706","8","20","Female","","","","","","","null","<div style=""font-size:60px;"">+</div>","null","fixation","","","","","","","","","13","","",""
"revaluation","132","699115","0.0-4.0-2.0-0.7","spark_pilot_norest","8706","8","20","Female","","","false","","","","[436.79999999701977,1018.0999999940395]","./assets/img/canyon/memory/7.jpg","[""ArrowUp"",""ArrowLeft""]","value training","canyon","26","{""ArrowUp,ArrowLeft"":26,""ArrowUp,ArrowRight"":10,""ArrowDown,ArrowLeft"":5,""ArrowDown,ArrowRight"":17}","true","ArrowUp,ArrowLeft","false","revaluation","1","14","","",""
"html-keyboard-response","133","699626","0.0-4.0-2.0-1.7","spark_pilot_norest","8706","8","20","Female","","","","","","","null","<div style=""font-size:60px;"">+</div>","null","fixation","","","","","","","","","15","","",""
"revaluation","134","705658","0.0-4.0-2.0-0.8","spark_pilot_norest","8706","8","20","Female","","","false","","","","[688.6999999880791,730.5999999940395]","./assets/img/canyon/memory/25.jpg","[""ArrowDown"",""ArrowRight""]","value training","canyon","17","{""ArrowUp,ArrowLeft"":26,""ArrowUp,ArrowRight"":10,""ArrowDown,ArrowLeft"":5,""ArrowDown,ArrowRight"":17}","false","ArrowDown,ArrowRight","false","revaluation","1","16","","",""
"html-keyboard-response","135","706170","0.0-4.0-2.0-1.8","spark_pilot_norest","8706","8","20","Female","","","","","","","null","<div style=""font-size:60px;"">+</div>","null","fixation","","","","","","","","","17","","",""
"revaluation","136","712199","0.0-4.0-2.0-0.9","spark_pilot_norest","8706","8","20","Female","","","false","","","","[418.20000000298023,1185.2000000029802]","./assets/img/canyon/memory/18.jpg","[""ArrowUp"",""ArrowLeft""]","value training","canyon","26","{""ArrowUp,ArrowLeft"":26,""ArrowUp,ArrowRight"":10,""ArrowDown,ArrowLeft"":5,""ArrowDown,ArrowRight"":17}","true","ArrowUp,ArrowLeft","false","revaluation","1","18","","",""
"html-keyboard-response","137","712703","0.0-4.0-2.0-1.9","spark_pilot_norest","8706","8","20","Female","","","","","","","null","<div style=""font-size:60px;"">+</div>","null","fixation","","","","","","","","","19","","",""
"revaluation","138","718726","0.0-4.0-2.0-0.10","spark_pilot_norest","8706","8","20","Female","","","false","","","","[591.9000000059605,1175.8999999910593]","./assets/img/canyon/memory/0.jpg","[""ArrowDown"",""ArrowRight""]","value training","canyon","17","{""ArrowUp,ArrowLeft"":26,""ArrowUp,ArrowRight"":10,""ArrowDown,ArrowLeft"":5,""ArrowDown,ArrowRight"":17}","false","ArrowDown,ArrowRight","false","revaluation","1","20","","",""
"html-keyboard-response","139","719230","0.0-4.0-2.0-1.10","spark_pilot_norest","8706","8","20","Female","","","","","","","null","<div style=""font-size:60px;"">+</div>","null","fixation","","","","","","","","","21","","",""
"revaluation","140","725258","0.0-4.0-2.0-0.11","spark_pilot_norest","8706","8","20","Female","","","false","","","","[1898.3999999910593,935.7000000029802]","./assets/img/canyon/memory/23.jpg","[""ArrowDown"",""ArrowRight""]","value training","canyon","17","{""ArrowUp,ArrowLeft"":26,""ArrowUp,ArrowRight"":10,""ArrowDown,ArrowLeft"":5,""ArrowDown,ArrowRight"":17}","false","ArrowDown,ArrowRight","false","revaluation","1","22","","",""
"html-keyboard-response","141","725769","0.0-4.0-2.0-1.11","spark_pilot_norest","8706","8","20","Female","","","","","","","null","<div style=""font-size:60px;"">+</div>","null","fixation","","","","","","","","","23","","",""
"revaluation","142","729791","0.0-4.0-2.0-0.12","spark_pilot_norest","8706","8","20","Female","","","false","","","","[720]","./assets/img/canyon/catch/3.jpg","[""spaceBar""]","value training","canyon","0","{""ArrowUp,ArrowLeft"":26,""ArrowUp,ArrowRight"":10,""ArrowDown,ArrowLeft"":5,""ArrowDown,ArrowRight"":17}","true","spaceBar","true","revaluation","1","24","","",""
"html-keyboard-response","143","730302","0.0-4.0-2.0-1.12","spark_pilot_norest","8706","8","20","Female","","","","","","","null","<div style=""font-size:60px;"">+</div>","null","fixation","","","","","","","","","25","","",""
"revaluation","144","736329","0.0-4.0-2.0-0.13","spark_pilot_norest","8706","8","20","Female","","","false","","","","[734.7000000029802,912.6000000089407]","./assets/img/canyon/memory/12.jpg","[""ArrowUp"",""ArrowLeft""]","value training","canyon","26","{""ArrowUp,ArrowLeft"":26,""ArrowUp,ArrowRight"":10,""ArrowDown,ArrowLeft"":5,""ArrowDown,ArrowRight"":17}","true","ArrowUp,ArrowLeft","false","revaluation","1","26","","",""
"html-keyboard-response","145","736840","0.0-4.0-2.0-1.13","spark_pilot_norest","8706","8","20","Female","","","","","","","null","<div style=""font-size:60px;"">+</div>","null","fixation","","","","","","","","","27","","",""
"revaluation","146","742873","0.0-4.0-2.0-0.14","spark_pilot_norest","8706","8","20","Female","","","false","","","","[787.0999999940395,472.8999999910593]","./assets/img/canyon/memory/28.jpg","[""ArrowUp"",""ArrowLeft""]","value training","canyon","26","{""ArrowUp,ArrowLeft"":26,""ArrowUp,ArrowRight"":10,""ArrowDown,ArrowLeft"":5,""ArrowDown,ArrowRight"":17}","true","ArrowUp,ArrowLeft","false","revaluation","1","28","","",""
"html-keyboard-response","147","743384","0.0-4.0-2.0-1.14","spark_pilot_norest","8706","8","20","Female","","","","","","","null","<div style=""font-size:60px;"">+</div>","null","fixation","","","","","","","","","29","","",""
"revaluation","148","749415","0.0-4.0-2.0-0.15","spark_pilot_norest","8706","8","20","Female","","","false","","","","[999.3999999910593,320]","./assets/img/canyon/memory/32.jpg","[""ArrowUp"",""ArrowLeft""]","value training","canyon","26","{""ArrowUp,ArrowLeft"":26,""ArrowUp,ArrowRight"":10,""ArrowDown,ArrowLeft"":5,""ArrowDown,ArrowRight"":17}","true","ArrowUp,ArrowLeft","false","revaluation","1","30","","",""
"html-keyboard-response","149","749928","0.0-4.0-2.0-1.15","spark_pilot_norest","8706","8","20","Female","","","","","","","null","<div style=""font-size:60px;"">+</div>","null","fixation","","","","","","","","","31","","",""
"revaluation","150","755960","0.0-4.0-2.0-0.16","spark_pilot_norest","8706","8","20","Female","","","false","","","","[980.3999999910593,321.29999999701977]","./assets/img/canyon/memory/36.jpg","[""ArrowUp"",""ArrowLeft""]","value training","canyon","26","{""ArrowUp,ArrowLeft"":26,""ArrowUp,ArrowRight"":10,""ArrowDown,ArrowLeft"":5,""ArrowDown,ArrowRight"":17}","true","ArrowUp,ArrowLeft","false","revaluation","1","32","","",""
"html-keyboard-response","151","756471","0.0-4.0-2.0-1.16","spark_pilot_norest","8706","8","20","Female","","","","","","","null","<div style=""font-size:60px;"">+</div>","null","fixation","","","","","","","","","33","","",""
"revaluation","152","762504","0.0-4.0-2.0-0.17","spark_pilot_norest","8706","8","20","Female","","","false","","","","[770.9000000059605,366.3999999910593]","./assets/img/canyon/memory/23.jpg","[""ArrowUp"",""ArrowLeft""]","value training","canyon","26","{""ArrowUp,ArrowLeft"":26,""ArrowUp,ArrowRight"":10,""ArrowDown,ArrowLeft"":5,""ArrowDown,ArrowRight"":17}","true","ArrowUp,ArrowLeft","false","revaluation","1","34","","",""
"html-keyboard-response","153","763015","0.0-4.0-2.0-1.17","spark_pilot_norest","8706","8","20","Female","","","","","","","null","<div style=""font-size:60px;"">+</div>","null","fixation","","","","","","","","","35","","",""
"revaluation","154","769047","0.0-4.0-2.0-0.18","spark_pilot_norest","8706","8","20","Female","","","false","","","","[741.1000000089407,373.40000000596046]","./assets/img/canyon/memory/16.jpg","[""ArrowUp"",""ArrowLeft""]","value training","canyon","26","{""ArrowUp,ArrowLeft"":26,""ArrowUp,ArrowRight"":10,""ArrowDown,ArrowLeft"":5,""ArrowDown,ArrowRight"":17}","true","ArrowUp,ArrowLeft","false","revaluation","1","36","","",""
"html-keyboard-response","155","769559","0.0-4.0-2.0-1.18","spark_pilot_norest","8706","8","20","Female","","","","","","","null","<div style=""font-size:60px;"">+</div>","null","fixation","","","","","","","","","37","","",""
"revaluation","156","773580","0.0-4.0-2.0-0.19","spark_pilot_norest","8706","8","20","Female","","","false","","","","[403.19999998807907]","./assets/img/canyon/catch/1.jpg","[""ArrowUp""]","value training","canyon","-10","{""ArrowUp,ArrowLeft"":26,""ArrowUp,ArrowRight"":10,""ArrowDown,ArrowLeft"":5,""ArrowDown,ArrowRight"":17}","false","ArrowUp","true","revaluation","1","38","","",""
"html-keyboard-response","157","774092","0.0-4.0-2.0-1.19","spark_pilot_norest","8706","8","20","Female","","","","","","","null","<div style=""font-size:60px;"">+</div>","null","fixation","","","","","","","","","39","","",""
"revaluation","158","780118","0.0-4.0-2.0-0.20","spark_pilot_norest","8706","8","20","Female","","","false","","","","[1137.7999999970198,716.7000000029802]","./assets/img/canyon/memory/31.jpg","[""ArrowUp"",""ArrowLeft""]","value training","canyon","26","{""ArrowUp,ArrowLeft"":26,""ArrowUp,ArrowRight"":10,""ArrowDown,ArrowLeft"":5,""ArrowDown,ArrowRight"":17}","true","ArrowUp,ArrowLeft","false","revaluation","1","40","","",""
"html-keyboard-response","159","780630","0.0-4.0-2.0-1.20","spark_pilot_norest","8706","8","20","Female","","","","","","","null","<div style=""font-size:60px;"">+</div>","null","fixation","","","","","","","","","41","","",""
"revaluation","160","786662","0.0-4.0-2.0-0.21","spark_pilot_norest","8706","8","20","Female","","","false","","","","[763.0999999940395,520.5]","./assets/img/canyon/memory/28.jpg","[""ArrowUp"",""ArrowLeft""]","value training","canyon","26","{""ArrowUp,ArrowLeft"":26,""ArrowUp,ArrowRight"":10,""ArrowDown,ArrowLeft"":5,""ArrowDown,ArrowRight"":17}","true","ArrowUp,ArrowLeft","false","revaluation","1","42","","",""
"html-keyboard-response","161","787174","0.0-4.0-2.0-1.21","spark_pilot_norest","8706","8","20","Female","","","","","","","null","<div style=""font-size:60px;"">+</div>","null","fixation","","","","","","","","","43","","",""
"revaluation","162","793206","0.0-4.0-2.0-0.22","spark_pilot_norest","8706","8","20","Female","","","false","","","","[836.3999999910593,371.3999999910593]","./assets/img/canyon/memory/3.jpg","[""ArrowUp"",""ArrowLeft""]","value training","canyon","26","{""ArrowUp,ArrowLeft"":26,""ArrowUp,ArrowRight"":10,""ArrowDown,ArrowLeft"":5,""ArrowDown,ArrowRight"":17}","true","ArrowUp,ArrowLeft","false","revaluation","1","44","","",""
"html-keyboard-response","163","793717","0.0-4.0-2.0-1.22","spark_pilot_norest","8706","8","20","Female","","","","","","","null","<div style=""font-size:60px;"">+</div>","null","fixation","","","","","","","","","45","","",""
"revaluation","164","797739","0.0-4.0-2.0-0.23","spark_pilot_norest","8706","8","20","Female","","","false","","","","[835.9000000059605]","./assets/img/canyon/catch/2.jpg","[""spaceBar""]","value training","canyon","0","{""ArrowUp,ArrowLeft"":26,""ArrowUp,ArrowRight"":10,""ArrowDown,ArrowLeft"":5,""ArrowDown,ArrowRight"":17}","true","spaceBar","true","revaluation","1","46","","",""
"html-keyboard-response","165","798250","0.0-4.0-2.0-1.23","spark_pilot_norest","8706","8","20","Female","","","","","","","null","<div style=""font-size:60px;"">+</div>","null","fixation","","","","","","","","","47","","",""
"revaluation","166","804277","0.0-4.0-2.0-0.24","spark_pilot_norest","8706","8","20","Female","","","false","","","","[966,513.6000000089407]","./assets/img/canyon/memory/31.jpg","[""ArrowUp"",""ArrowLeft""]","value training","canyon","26","{""ArrowUp,ArrowLeft"":26,""ArrowUp,ArrowRight"":10,""ArrowDown,ArrowLeft"":5,""ArrowDown,ArrowRight"":17}","true","ArrowUp,ArrowLeft","false","revaluation","1","48","","",""
"html-keyboard-response","167","804789","0.0-4.0-2.0-1.24","spark_pilot_norest","8706","8","20","Female","","","","","","","null","<div style=""font-size:60px;"">+</div>","null","fixation","","","","","","","","","49","","",""
"revaluation","168","810821","0.0-4.0-2.0-0.25","spark_pilot_norest","8706","8","20","Female","","","false","","","","[691.3999999910593,655.1999999880791]","./assets/img/canyon/memory/32.jpg","[""ArrowDown"",""ArrowLeft""]","value training","canyon","5","{""ArrowUp,ArrowLeft"":26,""ArrowUp,ArrowRight"":10,""ArrowDown,ArrowLeft"":5,""ArrowDown,ArrowRight"":17}","false","ArrowDown,ArrowLeft","false","revaluation","1","50","","",""
"html-keyboard-response","169","811332","0.0-4.0-2.0-1.25","spark_pilot_norest","8706","8","20","Female","","","","","","","null","<div style=""font-size:60px;"">+</div>","null","fixation","","","","","","","","","51","","",""
"revaluation","170","817364","0.0-4.0-2.0-0.26","spark_pilot_norest","8706","8","20","Female","","","false","","","","[274.40000000596046,957.5]","./assets/img/canyon/memory/19.jpg","[""ArrowUp"",""ArrowRight""]","value training","canyon","10","{""ArrowUp,ArrowLeft"":26,""ArrowUp,ArrowRight"":10,""ArrowDown,ArrowLeft"":5,""ArrowDown,ArrowRight"":17}","false","ArrowUp,ArrowRight","false","revaluation","1","52","","",""
"html-keyboard-response","171","817876","0.0-4.0-2.0-1.26","spark_pilot_norest","8706","8","20","Female","","","","","","","null","<div style=""font-size:60px;"">+</div>","null","fixation","","","","","","","","","53","","",""
"revaluation","172","823908","0.0-4.0-2.0-0.27","spark_pilot_norest","8706","8","20","Female","","","false","","","","[120.79999999701977,424.59999999403954]","./assets/img/canyon/memory/15.jpg","[""ArrowUp"",""ArrowLeft""]","value training","canyon","26","{""ArrowUp,ArrowLeft"":26,""ArrowUp,ArrowRight"":10,""ArrowDown,ArrowLeft"":5,""ArrowDown,ArrowRight"":17}","true","ArrowUp,ArrowLeft","false","revaluation","1","54","","",""
"html-keyboard-response","173","824420","0.0-4.0-2.0-1.27","spark_pilot_norest","8706","8","20","Female","","","","","","","null","<div style=""font-size:60px;"">+</div>","null","fixation","","","","","","","","","55","","",""
"revaluation","174","830451","0.0-4.0-2.0-0.28","spark_pilot_norest","8706","8","20","Female","","","false","","","","[274.5,428.09999999403954]","./assets/img/canyon/memory/19.jpg","[""ArrowUp"",""ArrowLeft""]","value training","canyon","26","{""ArrowUp,ArrowLeft"":26,""ArrowUp,ArrowRight"":10,""ArrowDown,ArrowLeft"":5,""ArrowDown,ArrowRight"":17}","true","ArrowUp,ArrowLeft","false","revaluation","1","56","","",""
"html-keyboard-response","175","830963","0.0-4.0-2.0-1.28","spark_pilot_norest","8706","8","20","Female","","","","","","","null","<div style=""font-size:60px;"">+</div>","null","fixation","","","","","","","","","57","","",""
"revaluation","176","836996","0.0-4.0-2.0-0.29","spark_pilot_norest","8706","8","20","Female","","","false","","","","[1860.7999999970198,1033.7000000029802]","./assets/img/canyon/memory/40.jpg","[""ArrowUp"",""ArrowLeft""]","value training","canyon","26","{""ArrowUp,ArrowLeft"":26,""ArrowUp,ArrowRight"":10,""ArrowDown,ArrowLeft"":5,""ArrowDown,ArrowRight"":17}","true","ArrowUp,ArrowLeft","false","revaluation","1","58","","",""
"html-keyboard-response","177","837505","0.0-4.0-2.0-1.29","spark_pilot_norest","8706","8","20","Female","","","","","","","null","<div style=""font-size:60px;"">+</div>","null","fixation","","","","","","","","","59","","",""
"revaluation","178","843538","0.0-4.0-2.0-0.30","spark_pilot_norest","8706","8","20","Female","","","false","","","","[1059.0999999940395,480.1000000089407]","./assets/img/canyon/memory/5.jpg","[""ArrowUp"",""ArrowLeft""]","value training","canyon","26","{""ArrowUp,ArrowLeft"":26,""ArrowUp,ArrowRight"":10,""ArrowDown,ArrowLeft"":5,""ArrowDown,ArrowRight"":17}","true","ArrowUp,ArrowLeft","false","revaluation","1","60","","",""
"html-keyboard-response","179","844051","0.0-4.0-2.0-1.30","spark_pilot_norest","8706","8","20","Female","","","","","","","null","<div style=""font-size:60px;"">+</div>","null","fixation","","","","","","","","","61","","",""
"revaluation","180","850078","0.0-4.0-2.0-0.31","spark_pilot_norest","8706","8","20","Female","","","false","","","","[957.1999999880791,426.5]","./assets/img/canyon/memory/26.jpg","[""ArrowUp"",""ArrowLeft""]","value training","canyon","26","{""ArrowUp,ArrowLeft"":26,""ArrowUp,ArrowRight"":10,""ArrowDown,ArrowLeft"":5,""ArrowDown,ArrowRight"":17}","true","ArrowUp,ArrowLeft","false","revaluation","1","62","","",""
"html-keyboard-response","181","850583","0.0-4.0-2.0-1.31","spark_pilot_norest","8706","8","20","Female","","","","","","","null","<div style=""font-size:60px;"">+</div>","null","fixation","","","","","","","","","63","","",""
"revaluation","182","856605","0.0-4.0-2.0-0.32","spark_pilot_norest","8706","8","20","Female","","","false","","","","[983.2999999970198,438.1000000089407]","./assets/img/canyon/memory/7.jpg","[""ArrowUp"",""ArrowLeft""]","value training","canyon","26","{""ArrowUp,ArrowLeft"":26,""ArrowUp,ArrowRight"":10,""ArrowDown,ArrowLeft"":5,""ArrowDown,ArrowRight"":17}","true","ArrowUp,ArrowLeft","false","revaluation","1","64","","",""
"html-keyboard-response","183","857110","0.0-4.0-2.0-1.32","spark_pilot_norest","8706","8","20","Female","","","","","","","null","<div style=""font-size:60px;"">+</div>","null","fixation","","","","","","","","","65","","",""
"revaluation","184","863133","0.0-4.0-2.0-0.33","spark_pilot_norest","8706","8","20","Female","","","false","","","","[1058.9000000059605,568.4000000059605]","./assets/img/canyon/memory/30.jpg","[""ArrowUp"",""ArrowLeft""]","value training","canyon","26","{""ArrowUp,ArrowLeft"":26,""ArrowUp,ArrowRight"":10,""ArrowDown,ArrowLeft"":5,""ArrowDown,ArrowRight"":17}","true","ArrowUp,ArrowLeft","false","revaluation","1","66","","",""
"html-keyboard-response","185","863638","0.0-4.0-2.0-1.33","spark_pilot_norest","8706","8","20","Female","","","","","","","null","<div style=""font-size:60px;"">+</div>","null","fixation","","","","","","","","","67","","",""
"revaluation","186","869666","0.0-4.0-2.0-0.34","spark_pilot_norest","8706","8","20","Female","","","false","","","","[1044.0999999940395,474.5]","./assets/img/canyon/memory/15.jpg","[""ArrowUp"",""ArrowLeft""]","value training","canyon","26","{""ArrowUp,ArrowLeft"":26,""ArrowUp,ArrowRight"":10,""ArrowDown,ArrowLeft"":5,""ArrowDown,ArrowRight"":17}","true","ArrowUp,ArrowLeft","false","revaluation","1","68","","",""
"html-keyboard-response","187","870177","0.0-4.0-2.0-1.34","spark_pilot_norest","8706","8","20","Female","","","","","","","null","<div style=""font-size:60px;"">+</div>","null","fixation","","","","","","","","","69","","",""
"revaluation","188","876209","0.0-4.0-2.0-0.35","spark_pilot_norest","8706","8","20","Female","","","false","","","","[1221.2999999970198,496.79999999701977]","./assets/img/canyon/memory/9.jpg","[""ArrowUp"",""ArrowLeft""]","value training","canyon","26","{""ArrowUp,ArrowLeft"":26,""ArrowUp,ArrowRight"":10,""ArrowDown,ArrowLeft"":5,""ArrowDown,ArrowRight"":17}","true","ArrowUp,ArrowLeft","false","revaluation","1","70","","",""
"html-keyboard-response","189","876721","0.0-4.0-2.0-1.35","spark_pilot_norest","8706","8","20","Female","","","","","","","null","<div style=""font-size:60px;"">+</div>","null","fixation","","","","","","","","","71","","",""
"revaluation","190","880742","0.0-4.0-2.0-0.36","spark_pilot_norest","8706","8","20","Female","","","false","","","","[1139.2999999970198]","./assets/img/canyon/catch/4.jpg","[""spaceBar""]","value training","canyon","0","{""ArrowUp,ArrowLeft"":26,""ArrowUp,ArrowRight"":10,""ArrowDown,ArrowLeft"":5,""ArrowDown,ArrowRight"":17}","true","spaceBar","true","revaluation","1","72","","",""
"html-keyboard-response","191","881254","0.0-4.0-2.0-1.36","spark_pilot_norest","8706","8","20","Female","","","","","","","null","<div style=""font-size:60px;"">+</div>","null","fixation","","","","","","","","","73","","",""
"revaluation","192","887280","0.0-4.0-2.0-0.37","spark_pilot_norest","8706","8","20","Female","","","false","","","","[674.2999999970198,447.09999999403954]","./assets/img/canyon/memory/36.jpg","[""ArrowUp"",""ArrowLeft""]","value training","canyon","26","{""ArrowUp,ArrowLeft"":26,""ArrowUp,ArrowRight"":10,""ArrowDown,ArrowLeft"":5,""ArrowDown,ArrowRight"":17}","true","ArrowUp,ArrowLeft","false","revaluation","1","74","","",""
"html-keyboard-response","193","887788","0.0-4.0-2.0-1.37","spark_pilot_norest","8706","8","20","Female","","","","","","","null","<div style=""font-size:60px;"">+</div>","null","fixation","","","","","","","","","75","","",""
"revaluation","194","893813","0.0-4.0-2.0-0.38","spark_pilot_norest","8706","8","20","Female","","","false","","","","[805.7999999970198,451.09999999403954]","./assets/img/canyon/memory/11.jpg","[""ArrowUp"",""ArrowLeft""]","value training","canyon","26","{""ArrowUp,ArrowLeft"":26,""ArrowUp,ArrowRight"":10,""ArrowDown,ArrowLeft"":5,""ArrowDown,ArrowRight"":17}","true","ArrowUp,ArrowLeft","false","revaluation","1","76","","",""
"html-keyboard-response","195","894315","0.0-4.0-2.0-1.38","spark_pilot_norest","8706","8","20","Female","","","","","","","null","<div style=""font-size:60px;"">+</div>","null","fixation","","","","","","","","","77","","",""
"revaluation","196","898335","0.0-4.0-2.0-0.39","spark_pilot_norest","8706","8","20","Female","","","false","","","","[943.7999999970198]","./assets/img/canyon/catch/5.jpg","[""spaceBar""]","value training","canyon","0","{""ArrowUp,ArrowLeft"":26,""ArrowUp,ArrowRight"":10,""ArrowDown,ArrowLeft"":5,""ArrowDown,ArrowRight"":17}","true","spaceBar","true","revaluation","1","78","","",""
"html-keyboard-response","197","898847","0.0-4.0-2.0-1.39","spark_pilot_norest","8706","8","20","Female","","","","","","","null","<div style=""font-size:60px;"">+</div>","null","fixation","","","","","","","","","79","","",""
"revaluation","198","904879","0.0-4.0-2.0-0.40","spark_pilot_norest","8706","8","20","Female","","","false","","","","[681.1000000089407,1346.2999999970198]","./assets/img/canyon/memory/3.jpg","[""ArrowUp"",""ArrowLeft""]","value training","canyon","26","{""ArrowUp,ArrowLeft"":26,""ArrowUp,ArrowRight"":10,""ArrowDown,ArrowLeft"":5,""ArrowDown,ArrowRight"":17}","true","ArrowUp,ArrowLeft","false","revaluation","1","80","","",""
"html-keyboard-response","199","905391","0.0-4.0-2.0-1.40","spark_pilot_norest","8706","8","20","Female","","","","","","","null","<div style=""font-size:60px;"">+</div>","null","fixation","","","","","","","","","81","","",""
"revaluation","200","911423","0.0-4.0-2.0-0.41","spark_pilot_norest","8706","8","20","Female","","","false","","","","[1070.2999999970198,301.5]","./assets/img/canyon/memory/30.jpg","[""ArrowUp"",""ArrowLeft""]","value training","canyon","26","{""ArrowUp,ArrowLeft"":26,""ArrowUp,ArrowRight"":10,""ArrowDown,ArrowLeft"":5,""ArrowDown,ArrowRight"":17}","true","ArrowUp,ArrowLeft","false","revaluation","1","82","","",""
"html-keyboard-response","201","911930","0.0-4.0-2.0-1.41","spark_pilot_norest","8706","8","20","Female","","","","","","","null","<div style=""font-size:60px;"">+</div>","null","fixation","","","","","","","","","83","","",""
"revaluation","202","917956","0.0-4.0-2.0-0.42","spark_pilot_norest","8706","8","20","Female","","","false","","","","[323.80000001192093,445.3999999910593]","./assets/img/canyon/memory/17.jpg","[""ArrowUp"",""ArrowLeft""]","value training","canyon","26","{""ArrowUp,ArrowLeft"":26,""ArrowUp,ArrowRight"":10,""ArrowDown,ArrowLeft"":5,""ArrowDown,ArrowRight"":17}","true","ArrowUp,ArrowLeft","false","revaluation","1","84","","",""
"html-keyboard-response","203","918466","0.0-4.0-2.0-1.42","spark_pilot_norest","8706","8","20","Female","","","","","","","null","<div style=""font-size:60px;"">+</div>","null","fixation","","","","","","","","","85","","",""
"revaluation","204","924495","0.0-4.0-2.0-0.43","spark_pilot_norest","8706","8","20","Female","","","false","","","","[593.7999999970198,377.29999999701977]","./assets/img/canyon/memory/5.jpg","[""ArrowUp"",""ArrowLeft""]","value training","canyon","26","{""ArrowUp,ArrowLeft"":26,""ArrowUp,ArrowRight"":10,""ArrowDown,ArrowLeft"":5,""ArrowDown,ArrowRight"":17}","true","ArrowUp,ArrowLeft","false","revaluation","1","86","","",""
"html-keyboard-response","205","925005","0.0-4.0-2.0-1.43","spark_pilot_norest","8706","8","20","Female","","","","","","","null","<div style=""font-size:60px;"">+</div>","null","fixation","","","","","","","","","87","","",""
"revaluation","206","931027","0.0-4.0-2.0-0.44","spark_pilot_norest","8706","8","20","Female","","","false","","","","[580.9000000059605,283.19999998807907]","./assets/img/canyon/memory/0.jpg","[""ArrowUp"",""ArrowLeft""]","value training","canyon","26","{""ArrowUp,ArrowLeft"":26,""ArrowUp,ArrowRight"":10,""ArrowDown,ArrowLeft"":5,""ArrowDown,ArrowRight"":17}","true","ArrowUp,ArrowLeft","false","revaluation","1","88","","",""
"html-keyboard-response","207","931539","0.0-4.0-2.0-1.44","spark_pilot_norest","8706","8","20","Female","","","","","","","null","<div style=""font-size:60px;"">+</div>","null","fixation","","","","","","","","","89","","",""
"revaluation","208","935555","0.0-4.0-2.0-0.45","spark_pilot_norest","8706","8","20","Female","","","false","","","","[366.6000000089407]","./assets/img/canyon/catch/6.jpg","[""ArrowUp""]","value training","canyon","-10","{""ArrowUp,ArrowLeft"":26,""ArrowUp,ArrowRight"":10,""ArrowDown,ArrowLeft"":5,""ArrowDown,ArrowRight"":17}","false","ArrowUp","true","revaluation","1","90","","",""
"html-keyboard-response","209","936067","0.0-4.0-2.0-1.45","spark_pilot_norest","8706","8","20","Female","","","","","","","null","<div style=""font-size:60px;"">+</div>","null","fixation","","","","","","","","","91","","",""
"revaluation","210","942099","0.0-4.0-2.0-0.46","spark_pilot_norest","8706","8","20","Female","","","false","","","","[931.5999999940395,840.5999999940395]","./assets/img/canyon/memory/17.jpg","[""ArrowUp"",""ArrowLeft""]","value training","canyon","26","{""ArrowUp,ArrowLeft"":26,""ArrowUp,ArrowRight"":10,""ArrowDown,ArrowLeft"":5,""ArrowDown,ArrowRight"":17}","true","ArrowUp,ArrowLeft","false","revaluation","1","92","","",""
"html-keyboard-response","211","942610","0.0-4.0-2.0-1.46","spark_pilot_norest","8706","8","20","Female","","","","","","","null","<div style=""font-size:60px;"">+</div>","null","fixation","","","","","","","","","93","","",""
"revaluation","212","946637","0.0-4.0-2.0-0.47","spark_pilot_norest","8706","8","20","Female","","","true","","","","[]","./assets/img/canyon/memory/16.jpg","[]","value training","canyon","-5","{""ArrowUp,ArrowLeft"":26,""ArrowUp,ArrowRight"":10,""ArrowDown,ArrowLeft"":5,""ArrowDown,ArrowRight"":17}","false","","false","revaluation","1","94","","",""
"html-keyboard-response","213","947148","0.0-4.0-2.0-1.47","spark_pilot_norest","8706","8","20","Female","","","","","","","null","<div style=""font-size:60px;"">+</div>","null","fixation","","","","","","","","","95","","",""
"revaluation","214","951169","0.0-4.0-2.0-0.48","spark_pilot_norest","8706","8","20","Female","","","false","","","","[1161.5]","./assets/img/canyon/catch/7.jpg","[""spaceBar""]","value training","canyon","0","{""ArrowUp,ArrowLeft"":26,""ArrowUp,ArrowRight"":10,""ArrowDown,ArrowLeft"":5,""ArrowDown,ArrowRight"":17}","true","spaceBar","true","revaluation","1","96","","",""
"html-keyboard-response","215","951676","0.0-4.0-2.0-1.48","spark_pilot_norest","8706","8","20","Female","","","","","","","null","<div style=""font-size:60px;"">+</div>","null","fixation","","","","","","","","","97","","",""
"revaluation","216","957709","0.0-4.0-2.0-0.49","spark_pilot_norest","8706","8","20","Female","","","false","","","","[634.0999999940395,848.7000000029802]","./assets/img/canyon/memory/40.jpg","[""ArrowUp"",""ArrowLeft""]","value training","canyon","26","{""ArrowUp,ArrowLeft"":26,""ArrowUp,ArrowRight"":10,""ArrowDown,ArrowLeft"":5,""ArrowDown,ArrowRight"":17}","true","ArrowUp,ArrowLeft","false","revaluation","1","98","","",""
"html-keyboard-response","217","958220","0.0-4.0-2.0-1.49","spark_pilot_norest","8706","8","20","Female","","","","","","","null","<div style=""font-size:60px;"">+</div>","null","fixation","","","","","","","","","99","","",""
"learning-instructions","218","973803","0.0-4.0-3.0-0.0","spark_pilot_norest","8706","8","20","Female","","","","","","","2609.800000011921","<p> Now, you will travel with a friend who will choose whether you go up or down first. </p>
            <p> On these turns, you will just see the animal that they found. You will still get to choose which chest to search for treasure.</p>","","instructions","","","","","","","","","","","",""
"revaluation","219","977823","0.0-4.0-4.0-0.0","spark_pilot_norest","8706","8","20","Female","","","false","","","","[923.2000000029802]","./assets/img/canyon/animals/giraffe.jpg","[""ArrowLeft""]","revaluation","canyon","2","{""ArrowUp,ArrowLeft"":2,""ArrowUp,ArrowRight"":11,""ArrowDown,ArrowLeft"":8,""ArrowDown,ArrowRight"":27}","false","ArrowUp,ArrowLeft","","revaluation","1","0","","",""
"html-keyboard-response","220","978334","0.0-4.0-4.0-1.0","spark_pilot_norest","8706","8","20","Female","","","","","","","null","<div style=""font-size:60px;"">+</div>","null","fixation","","","","","","","","","1","","",""
"revaluation","221","982351","0.0-4.0-4.0-0.1","spark_pilot_norest","8706","8","20","Female","","","false","","","","[845.2000000029802]","./assets/img/canyon/animals/lion.jpg","[""ArrowLeft""]","revaluation","canyon","8","{""ArrowUp,ArrowLeft"":2,""ArrowUp,ArrowRight"":11,""ArrowDown,ArrowLeft"":8,""ArrowDown,ArrowRight"":27}","false","ArrowDown,ArrowLeft","","revaluation","1","2","","",""
"html-keyboard-response","222","982856","0.0-4.0-4.0-1.1","spark_pilot_norest","8706","8","20","Female","","","","","","","null","<div style=""font-size:60px;"">+</div>","null","fixation","","","","","","","","","3","","",""
"revaluation","223","986872","0.0-4.0-4.0-0.2","spark_pilot_norest","8706","8","20","Female","","","false","","","","[763.6000000089407]","./assets/img/canyon/animals/lion.jpg","[""ArrowRight""]","revaluation","canyon","27","{""ArrowUp,ArrowLeft"":2,""ArrowUp,ArrowRight"":11,""ArrowDown,ArrowLeft"":8,""ArrowDown,ArrowRight"":27}","true","ArrowDown,ArrowRight","","revaluation","1","4","","",""
"html-keyboard-response","224","987382","0.0-4.0-4.0-1.2","spark_pilot_norest","8706","8","20","Female","","","","","","","null","<div style=""font-size:60px;"">+</div>","null","fixation","","","","","","","","","5","","",""
"revaluation","225","991398","0.0-4.0-4.0-0.3","spark_pilot_norest","8706","8","20","Female","","","false","","","","[749]","./assets/img/canyon/animals/lion.jpg","[""ArrowRight""]","revaluation","canyon","27","{""ArrowUp,ArrowLeft"":2,""ArrowUp,ArrowRight"":11,""ArrowDown,ArrowLeft"":8,""ArrowDown,ArrowRight"":27}","true","ArrowDown,ArrowRight","","revaluation","1","6","","",""
"html-keyboard-response","226","991902","0.0-4.0-4.0-1.3","spark_pilot_norest","8706","8","20","Female","","","","","","","null","<div style=""font-size:60px;"">+</div>","null","fixation","","","","","","","","","7","","",""
"revaluation","227","995922","0.0-4.0-4.0-0.4","spark_pilot_norest","8706","8","20","Female","","","false","","","","[686.2999999970198]","./assets/img/canyon/animals/lion.jpg","[""ArrowRight""]","revaluation","canyon","27","{""ArrowUp,ArrowLeft"":2,""ArrowUp,ArrowRight"":11,""ArrowDown,ArrowLeft"":8,""ArrowDown,ArrowRight"":27}","true","ArrowDown,ArrowRight","","revaluation","1","8","","",""
"html-keyboard-response","228","996430","0.0-4.0-4.0-1.4","spark_pilot_norest","8706","8","20","Female","","","","","","","null","<div style=""font-size:60px;"">+</div>","null","fixation","","","","","","","","","9","","",""
"revaluation","229","1000445","0.0-4.0-4.0-0.5","spark_pilot_norest","8706","8","20","Female","","","false","","","","[456]","./assets/img/canyon/animals/lion.jpg","[""ArrowRight""]","revaluation","canyon","27","{""ArrowUp,ArrowLeft"":2,""ArrowUp,ArrowRight"":11,""ArrowDown,ArrowLeft"":8,""ArrowDown,ArrowRight"":27}","true","ArrowDown,ArrowRight","","revaluation","1","10","","",""
"html-keyboard-response","230","1000951","0.0-4.0-4.0-1.5","spark_pilot_norest","8706","8","20","Female","","","","","","","null","<div style=""font-size:60px;"">+</div>","null","fixation","","","","","","","","","11","","",""
"revaluation","231","1004965","0.0-4.0-4.0-0.6","spark_pilot_norest","8706","8","20","Female","","","false","","","","[394.59999999403954]","./assets/img/canyon/animals/lion.jpg","[""ArrowRight""]","revaluation","canyon","27","{""ArrowUp,ArrowLeft"":2,""ArrowUp,ArrowRight"":11,""ArrowDown,ArrowLeft"":8,""ArrowDown,ArrowRight"":27}","true","ArrowDown,ArrowRight","","revaluation","1","12","","",""
"html-keyboard-response","232","1005471","0.0-4.0-4.0-1.6","spark_pilot_norest","8706","8","20","Female","","","","","","","null","<div style=""font-size:60px;"">+</div>","null","fixation","","","","","","","","","13","","",""
"revaluation","233","1009493","0.0-4.0-4.0-0.7","spark_pilot_norest","8706","8","20","Female","","","false","","","","[474.5]","./assets/img/canyon/animals/lion.jpg","[""ArrowRight""]","revaluation","canyon","27","{""ArrowUp,ArrowLeft"":2,""ArrowUp,ArrowRight"":11,""ArrowDown,ArrowLeft"":8,""ArrowDown,ArrowRight"":27}","true","ArrowDown,ArrowRight","","revaluation","1","14","","",""
"html-keyboard-response","234","1009999","0.0-4.0-4.0-1.7","spark_pilot_norest","8706","8","20","Female","","","","","","","null","<div style=""font-size:60px;"">+</div>","null","fixation","","","","","","","","","15","","",""
"revaluation","235","1014021","0.0-4.0-4.0-0.8","spark_pilot_norest","8706","8","20","Female","","","false","","","","[234.6000000089407]","./assets/img/canyon/animals/giraffe.jpg","[""ArrowRight""]","revaluation","canyon","11","{""ArrowUp,ArrowLeft"":2,""ArrowUp,ArrowRight"":11,""ArrowDown,ArrowLeft"":8,""ArrowDown,ArrowRight"":27}","true","ArrowUp,ArrowRight","","revaluation","1","16","","",""
"html-keyboard-response","236","1014527","0.0-4.0-4.0-1.8","spark_pilot_norest","8706","8","20","Female","","","","","","","null","<div style=""font-size:60px;"">+</div>","null","fixation","","","","","","","","","17","","",""
"revaluation","237","1018548","0.0-4.0-4.0-0.9","spark_pilot_norest","8706","8","20","Female","","","false","","","","[358.70000000298023]","./assets/img/canyon/animals/lion.jpg","[""ArrowRight""]","revaluation","canyon","27","{""ArrowUp,ArrowLeft"":2,""ArrowUp,ArrowRight"":11,""ArrowDown,ArrowLeft"":8,""ArrowDown,ArrowRight"":27}","true","ArrowDown,ArrowRight","","revaluation","1","18","","",""
"html-keyboard-response","238","1019054","0.0-4.0-4.0-1.9","spark_pilot_norest","8706","8","20","Female","","","","","","","null","<div style=""font-size:60px;"">+</div>","null","fixation","","","","","","","","","19","","",""
"revaluation","239","1023076","0.0-4.0-4.0-0.10","spark_pilot_norest","8706","8","20","Female","","","false","","","","[603.7000000029802]","./assets/img/canyon/animals/giraffe.jpg","[""ArrowRight""]","revaluation","canyon","11","{""ArrowUp,ArrowLeft"":2,""ArrowUp,ArrowRight"":11,""ArrowDown,ArrowLeft"":8,""ArrowDown,ArrowRight"":27}","true","ArrowUp,ArrowRight","","revaluation","1","20","","",""
"html-keyboard-response","240","1023582","0.0-4.0-4.0-1.10","spark_pilot_norest","8706","8","20","Female","","","","","","","null","<div style=""font-size:60px;"">+</div>","null","fixation","","","","","","","","","21","","",""
"revaluation","241","1027604","0.0-4.0-4.0-0.11","spark_pilot_norest","8706","8","20","Female","","","false","","","","[341.5]","./assets/img/canyon/animals/giraffe.jpg","[""ArrowRight""]","revaluation","canyon","11","{""ArrowUp,ArrowLeft"":2,""ArrowUp,ArrowRight"":11,""ArrowDown,ArrowLeft"":8,""ArrowDown,ArrowRight"":27}","true","ArrowUp,ArrowRight","","revaluation","1","22","","",""
"html-keyboard-response","242","1028110","0.0-4.0-4.0-1.11","spark_pilot_norest","8706","8","20","Female","","","","","","","null","<div style=""font-size:60px;"">+</div>","null","fixation","","","","","","","","","23","","",""
"revaluation","243","1032132","0.0-4.0-4.0-0.12","spark_pilot_norest","8706","8","20","Female","","","false","","","","[760.2999999970198]","./assets/img/canyon/animals/giraffe.jpg","[""ArrowLeft""]","revaluation","canyon","2","{""ArrowUp,ArrowLeft"":2,""ArrowUp,ArrowRight"":11,""ArrowDown,ArrowLeft"":8,""ArrowDown,ArrowRight"":27}","false","ArrowUp,ArrowLeft","","revaluation","1","24","","",""
"html-keyboard-response","244","1032638","0.0-4.0-4.0-1.12","spark_pilot_norest","8706","8","20","Female","","","","","","","null","<div style=""font-size:60px;"">+</div>","null","fixation","","","","","","","","","25","","",""
"revaluation","245","1036654","0.0-4.0-4.0-0.13","spark_pilot_norest","8706","8","20","Female","","","false","","","","[433.20000000298023]","./assets/img/canyon/animals/giraffe.jpg","[""ArrowRight""]","revaluation","canyon","11","{""ArrowUp,ArrowLeft"":2,""ArrowUp,ArrowRight"":11,""ArrowDown,ArrowLeft"":8,""ArrowDown,ArrowRight"":27}","true","ArrowUp,ArrowRight","","revaluation","1","26","","",""
"html-keyboard-response","246","1037165","0.0-4.0-4.0-1.13","spark_pilot_norest","8706","8","20","Female","","","","","","","null","<div style=""font-size:60px;"">+</div>","null","fixation","","","","","","","","","27","","",""
"revaluation","247","1041187","0.0-4.0-4.0-0.14","spark_pilot_norest","8706","8","20","Female","","","false","","","","[309.6000000089407]","./assets/img/canyon/animals/giraffe.jpg","[""ArrowRight""]","revaluation","canyon","11","{""ArrowUp,ArrowLeft"":2,""ArrowUp,ArrowRight"":11,""ArrowDown,ArrowLeft"":8,""ArrowDown,ArrowRight"":27}","true","ArrowUp,ArrowRight","","revaluation","1","28","","",""
"html-keyboard-response","248","1041693","0.0-4.0-4.0-1.14","spark_pilot_norest","8706","8","20","Female","","","","","","","null","<div style=""font-size:60px;"">+</div>","null","fixation","","","","","","","","","29","","",""
"revaluation","249","1045709","0.0-4.0-4.0-0.15","spark_pilot_norest","8706","8","20","Female","","","false","","","","[370.40000000596046]","./assets/img/canyon/animals/giraffe.jpg","[""ArrowRight""]","revaluation","canyon","11","{""ArrowUp,ArrowLeft"":2,""ArrowUp,ArrowRight"":11,""ArrowDown,ArrowLeft"":8,""ArrowDown,ArrowRight"":27}","true","ArrowUp,ArrowRight","","revaluation","1","30","","",""
"html-keyboard-response","250","1046221","0.0-4.0-4.0-1.15","spark_pilot_norest","8706","8","20","Female","","","","","","","null","<div style=""font-size:60px;"">+</div>","null","fixation","","","","","","","","","31","","",""
"revaluation","251","1050243","0.0-4.0-4.0-0.16","spark_pilot_norest","8706","8","20","Female","","","false","","","","[157.8999999910593]","./assets/img/canyon/animals/giraffe.jpg","[""ArrowRight""]","revaluation","canyon","11","{""ArrowUp,ArrowLeft"":2,""ArrowUp,ArrowRight"":11,""ArrowDown,ArrowLeft"":8,""ArrowDown,ArrowRight"":27}","true","ArrowUp,ArrowRight","","revaluation","1","32","","",""
"html-keyboard-response","252","1050748","0.0-4.0-4.0-1.16","spark_pilot_norest","8706","8","20","Female","","","","","","","null","<div style=""font-size:60px;"">+</div>","null","fixation","","","","","","","","","33","","",""
"revaluation","253","1054765","0.0-4.0-4.0-0.17","spark_pilot_norest","8706","8","20","Female","","","false","","","","[294.5]","./assets/img/canyon/animals/lion.jpg","[""ArrowRight""]","revaluation","canyon","27","{""ArrowUp,ArrowLeft"":2,""ArrowUp,ArrowRight"":11,""ArrowDown,ArrowLeft"":8,""ArrowDown,ArrowRight"":27}","true","ArrowDown,ArrowRight","","revaluation","1","34","","",""
"html-keyboard-response","254","1055276","0.0-4.0-4.0-1.17","spark_pilot_norest","8706","8","20","Female","","","","","","","null","<div style=""font-size:60px;"">+</div>","null","fixation","","","","","","","","","35","","",""
"learning-instructions","255","1063428","0.0-4.0-5.0-0.0","spark_pilot_norest","8706","8","20","Female","","","","","","","null","<p> You have almost finished this part of the game! </p>
            <p> We are going to ask you to make a few more choices. </p>","","instructions","","","","","","","","","","","",""
"learning-instructions","256","1079411","0.0-4.0-5.0-0.1","spark_pilot_norest","8706","8","20","Female","","","","","","","null","<p> First, you need to decide whether to go up or down. When you see each picture, use the arrow keys to make your choice. </p>
            <p><b>You will not see which animal you found, but try to get to the one that will give you the most treasure.</b></p>","","instructions","","","","","","","","","","","",""
"html-keyboard-response","257","1080421","0.0-4.0-6.0-0.0","spark_pilot_norest","8706","8","20","Female","","","","","","","null","<div style=""font-size:100px;color:red;"">Starting in...</div>","null","","","","","","","","","","","","",""
"html-keyboard-response","258","1081432","0.0-4.0-6.0-1.0","spark_pilot_norest","8706","8","20","Female","","","","","","","null","<div style=""font-size:200px;color:red;"">3</div>","null","","","","","","","","","","","","",""
"html-keyboard-response","259","1082445","0.0-4.0-6.0-2.0","spark_pilot_norest","8706","8","20","Female","","","","","","","null","<div style=""font-size:200px;color:red;"">2</div>","null","","","","","","","","","","","","",""
"html-keyboard-response","260","1083448","0.0-4.0-6.0-3.0","spark_pilot_norest","8706","8","20","Female","","","","","","","null","<div style=""font-size:200px;color:red;"">1</div>","null","","","","","","","","","","","","",""
"revaluation","261","1084845","0.0-4.0-7.0-0.0","spark_pilot_norest","8706","8","20","Female","","","false","","","","[1385.3999999910593]","./assets/img/canyon/test/0.jpg","[""ArrowUp""]","first stage test","canyon","0","{""ArrowUp,ArrowLeft"":2,""ArrowUp,ArrowRight"":11,""ArrowDown,ArrowLeft"":8,""ArrowDown,ArrowRight"":27}","false","ArrowUp","false","revaluation","1","","","",""
"html-keyboard-response","262","1085346","0.0-4.0-7.0-1.0","spark_pilot_norest","8706","8","20","Female","","","","","","","null","<div style=""font-size:60px;"">+</div>","null","fixation","","","","","","","","","","","",""
"revaluation","263","1086733","0.0-4.0-7.0-0.1","spark_pilot_norest","8706","8","20","Female","","","false","","","","[1381.7999999970198]","./assets/img/canyon/test/1.jpg","[""ArrowUp""]","first stage test","canyon","0","{""ArrowUp,ArrowLeft"":2,""ArrowUp,ArrowRight"":11,""ArrowDown,ArrowLeft"":8,""ArrowDown,ArrowRight"":27}","false","ArrowUp","false","revaluation","1","","","",""
"html-keyboard-response","264","1087240","0.0-4.0-7.0-1.1","spark_pilot_norest","8706","8","20","Female","","","","","","","null","<div style=""font-size:60px;"">+</div>","null","fixation","","","","","","","","","","","",""
"revaluation","265","1088536","0.0-4.0-7.0-0.2","spark_pilot_norest","8706","8","20","Female","","","false","","","","[1289.2000000029802]","./assets/img/canyon/test/3.jpg","[""ArrowUp""]","first stage test","canyon","0","{""ArrowUp,ArrowLeft"":2,""ArrowUp,ArrowRight"":11,""ArrowDown,ArrowLeft"":8,""ArrowDown,ArrowRight"":27}","false","ArrowUp","false","revaluation","1","","","",""
"html-keyboard-response","266","1089041","0.0-4.0-7.0-1.2","spark_pilot_norest","8706","8","20","Female","","","","","","","null","<div style=""font-size:60px;"">+</div>","null","fixation","","","","","","","","","","","",""
"revaluation","267","1089651","0.0-4.0-7.0-0.3","spark_pilot_norest","8706","8","20","Female","","","false","","","","[604.0999999940395]","./assets/img/canyon/test/2.jpg","[""ArrowUp""]","first stage test","canyon","0","{""ArrowUp,ArrowLeft"":2,""ArrowUp,ArrowRight"":11,""ArrowDown,ArrowLeft"":8,""ArrowDown,ArrowRight"":27}","false","ArrowUp","false","revaluation","1","","","",""
"html-keyboard-response","268","1090152","0.0-4.0-7.0-1.3","spark_pilot_norest","8706","8","20","Female","","","","","","","null","<div style=""font-size:60px;"">+</div>","null","fixation","","","","","","","","","","","",""
"learning-instructions","269","1103505","0.0-4.0-8.0-0.0","spark_pilot_norest","8706","8","20","Female","","","","","","","null","<p> Now you will see the animals again and can search their chests for treasure. </p>
            <p> This time, you will not see how much treasure you earned, but you will earn more bonus money for making better choices. </p>","","instructions","","","","","","","","","","","",""
"html-keyboard-response","270","1104513","0.0-4.0-9.0-0.0","spark_pilot_norest","8706","8","20","Female","","","","","","","null","<div style=""font-size:100px;color:red;"">Starting in...</div>","null","","","","","","","","","","","","",""
"html-keyboard-response","271","1105521","0.0-4.0-9.0-1.0","spark_pilot_norest","8706","8","20","Female","","","","","","","null","<div style=""font-size:200px;color:red;"">3</div>","null","","","","","","","","","","","","",""
"html-keyboard-response","272","1106529","0.0-4.0-9.0-2.0","spark_pilot_norest","8706","8","20","Female","","","","","","","null","<div style=""font-size:200px;color:red;"">2</div>","null","","","","","","","","","","","","",""
"html-keyboard-response","273","1107537","0.0-4.0-9.0-3.0","spark_pilot_norest","8706","8","20","Female","","","","","","","null","<div style=""font-size:200px;color:red;"">1</div>","null","","","","","","","","","","","","",""
"revaluation","274","1108015","0.0-4.0-10.0-0.0","spark_pilot_norest","8706","8","20","Female","","","false","","","","[473.29999999701977]","./assets/img/canyon/animals/giraffe.jpg","[""ArrowRight""]","second stage test","canyon","0","{""ArrowUp,ArrowLeft"":2,""ArrowUp,ArrowRight"":11,""ArrowDown,ArrowLeft"":8,""ArrowDown,ArrowRight"":27}","true","ArrowUp,ArrowRight","","revaluation","1","","","",""
"html-keyboard-response","275","1108519","0.0-4.0-10.0-1.0","spark_pilot_norest","8706","8","20","Female","","","","","","","null","<div style=""font-size:60px;"">+</div>","null","fixation","","","","","","","","","","","",""
"revaluation","276","1109703","0.0-4.0-10.0-0.1","spark_pilot_norest","8706","8","20","Female","","","false","","","","[1178.5]","./assets/img/canyon/animals/giraffe.jpg","[""ArrowRight""]","second stage test","canyon","0","{""ArrowUp,ArrowLeft"":2,""ArrowUp,ArrowRight"":11,""ArrowDown,ArrowLeft"":8,""ArrowDown,ArrowRight"":27}","true","ArrowUp,ArrowRight","","revaluation","1","","","",""
"html-keyboard-response","277","1110207","0.0-4.0-10.0-1.1","spark_pilot_norest","8706","8","20","Female","","","","","","","null","<div style=""font-size:60px;"">+</div>","null","fixation","","","","","","","","","","","",""
"revaluation","278","1111557","0.0-4.0-10.0-0.2","spark_pilot_norest","8706","8","20","Female","","","false","","","","[1341.9000000059605]","./assets/img/canyon/animals/giraffe.jpg","[""ArrowLeft""]","second stage test","canyon","0","{""ArrowUp,ArrowLeft"":2,""ArrowUp,ArrowRight"":11,""ArrowDown,ArrowLeft"":8,""ArrowDown,ArrowRight"":27}","false","ArrowUp,ArrowLeft","","revaluation","1","","","",""
"html-keyboard-response","279","1112064","0.0-4.0-10.0-1.2","spark_pilot_norest","8706","8","20","Female","","","","","","","null","<div style=""font-size:60px;"">+</div>","null","fixation","","","","","","","","","","","",""
"revaluation","280","1112716","0.0-4.0-10.0-0.3","spark_pilot_norest","8706","8","20","Female","","","false","","","","[646.3999999910593]","./assets/img/canyon/animals/giraffe.jpg","[""ArrowRight""]","second stage test","canyon","0","{""ArrowUp,ArrowLeft"":2,""ArrowUp,ArrowRight"":11,""ArrowDown,ArrowLeft"":8,""ArrowDown,ArrowRight"":27}","true","ArrowUp,ArrowRight","","revaluation","1","","","",""
"html-keyboard-response","281","1113222","0.0-4.0-10.0-1.3","spark_pilot_norest","8706","8","20","Female","","","","","","","null","<div style=""font-size:60px;"">+</div>","null","fixation","","","","","","","","","","","",""
"revaluation","282","1114133","0.0-4.0-10.0-0.4","spark_pilot_norest","8706","8","20","Female","","","false","","","","[904.6999999880791]","./assets/img/canyon/animals/lion.jpg","[""ArrowLeft""]","second stage test","canyon","0","{""ArrowUp,ArrowLeft"":2,""ArrowUp,ArrowRight"":11,""ArrowDown,ArrowLeft"":8,""ArrowDown,ArrowRight"":27}","false","ArrowDown,ArrowLeft","","revaluation","1","","","",""
"html-keyboard-response","283","1114639","0.0-4.0-10.0-1.4","spark_pilot_norest","8706","8","20","Female","","","","","","","null","<div style=""font-size:60px;"">+</div>","null","fixation","","","","","","","","","","","",""
"revaluation","284","1115203","0.0-4.0-10.0-0.5","spark_pilot_norest","8706","8","20","Female","","","false","","","","[558.5]","./assets/img/canyon/animals/lion.jpg","[""ArrowRight""]","second stage test","canyon","0","{""ArrowUp,ArrowLeft"":2,""ArrowUp,ArrowRight"":11,""ArrowDown,ArrowLeft"":8,""ArrowDown,ArrowRight"":27}","true","ArrowDown,ArrowRight","","revaluation","1","","","",""
"html-keyboard-response","285","1115710","0.0-4.0-10.0-1.5","spark_pilot_norest","8706","8","20","Female","","","","","","","null","<div style=""font-size:60px;"">+</div>","null","fixation","","","","","","","","","","","",""
"revaluation","286","1115972","0.0-4.0-10.0-0.6","spark_pilot_norest","8706","8","20","Female","","","false","","","","[256.6000000089407]","./assets/img/canyon/animals/lion.jpg","[""ArrowRight""]","second stage test","canyon","0","{""ArrowUp,ArrowLeft"":2,""ArrowUp,ArrowRight"":11,""ArrowDown,ArrowLeft"":8,""ArrowDown,ArrowRight"":27}","true","ArrowDown,ArrowRight","","revaluation","1","","","",""
"html-keyboard-response","287","1116480","0.0-4.0-10.0-1.6","spark_pilot_norest","8706","8","20","Female","","","","","","","null","<div style=""font-size:60px;"">+</div>","null","fixation","","","","","","","","","","","",""
"revaluation","288","1116782","0.0-4.0-10.0-0.7","spark_pilot_norest","8706","8","20","Female","","","false","","","","[296.5]","./assets/img/canyon/animals/lion.jpg","[""ArrowRight""]","second stage test","canyon","0","{""ArrowUp,ArrowLeft"":2,""ArrowUp,ArrowRight"":11,""ArrowDown,ArrowLeft"":8,""ArrowDown,ArrowRight"":27}","true","ArrowDown,ArrowRight","","revaluation","1","","","",""
"html-keyboard-response","289","1117291","0.0-4.0-10.0-1.7","spark_pilot_norest","8706","8","20","Female","","","","","","","null","<div style=""font-size:60px;"">+</div>","null","fixation","","","","","","","","","","","",""
"learning-instructions","290","1121643","0.0-4.0-0.1-0.2","spark_pilot_norest","8706","8","20","Female","","","","","","","1599.2999999970198","<p> This time you are searching for treasure in the <b>ocean</b>.</p>","","instructions","","","","","","","","","","","",""
"learning-instructions","291","1140587","0.0-4.0-0.1-0.3","spark_pilot_norest","8706","8","20","Female","","","","","","","1691.9000000059605","<p><b>New</b> animals with <b>new</b> treasure chests live here. You need to explore to discover where the animal with the best treasure chest is.</p>
                    <p> Like before, once you figure out which animal has the chest with the most treasure, you should try to get to that animal and select that chest! </p>","","instructions","","","","","","","","","","","",""
"learning-instructions","292","1156624","0.0-4.0-1.1-0.1","spark_pilot_norest","8706","8","20","Female","","","","","","","1308.8999999910593","<p> Remember, when you see a picture of the place, use the up and down keys to <b>find an animal</b>.</p>
            <p> When you encounter an animal, you should use the left and right keys to <b>select a treasure chest</b>.</p>
            <p> Don't forget to look out for the robber! </p>","","instructions","","","","","","","","","","","",""
"revaluation","293","1162657","0.0-4.0-2.1-0.50","spark_pilot_norest","8706","8","20","Female","","","false","","","","[1279,765.7999999970198]","./assets/img/ocean/memory/30.jpg","[""ArrowDown"",""ArrowRight""]","value training","ocean","30","{""ArrowUp,ArrowLeft"":23,""ArrowUp,ArrowRight"":10,""ArrowDown,ArrowLeft"":8,""ArrowDown,ArrowRight"":30}","true","ArrowDown,ArrowRight","false","original","2","0","","",""
"html-keyboard-response","294","1163168","0.0-4.0-2.1-1.50","spark_pilot_norest","8706","8","20","Female","","","","","","","null","<div style=""font-size:60px;"">+</div>","null","fixation","","","","","","","","","1","","",""
"revaluation","295","1167189","0.0-4.0-2.1-0.51","spark_pilot_norest","8706","8","20","Female","","","false","","","","[961.7999999970198]","./assets/img/ocean/catch/3.jpg","[""spaceBar""]","value training","ocean","0","{""ArrowUp,ArrowLeft"":23,""ArrowUp,ArrowRight"":10,""ArrowDown,ArrowLeft"":8,""ArrowDown,ArrowRight"":30}","true","spaceBar","true","original","2","2","","",""
"html-keyboard-response","296","1167696","0.0-4.0-2.1-1.51","spark_pilot_norest","8706","8","20","Female","","","","","","","null","<div style=""font-size:60px;"">+</div>","null","fixation","","","","","","","","","3","","",""
"revaluation","297","1171704","0.0-4.0-2.1-0.52","spark_pilot_norest","8706","8","20","Female","","","false","","","","[344]","./assets/img/ocean/catch/2.jpg","[""ArrowUp""]","value training","ocean","-10","{""ArrowUp,ArrowLeft"":23,""ArrowUp,ArrowRight"":10,""ArrowDown,ArrowLeft"":8,""ArrowDown,ArrowRight"":30}","false","ArrowUp","true","original","2","4","","",""
"html-keyboard-response","298","1172212","0.0-4.0-2.1-1.52","spark_pilot_norest","8706","8","20","Female","","","","","","","null","<div style=""font-size:60px;"">+</div>","null","fixation","","","","","","","","","5","","",""
"revaluation","299","1178235","0.0-4.0-2.1-0.53","spark_pilot_norest","8706","8","20","Female","","","false","","","","[1104.7999999970198,577.3000000119209]","./assets/img/ocean/memory/28.jpg","[""ArrowDown"",""ArrowLeft""]","value training","ocean","8","{""ArrowUp,ArrowLeft"":23,""ArrowUp,ArrowRight"":10,""ArrowDown,ArrowLeft"":8,""ArrowDown,ArrowRight"":30}","false","ArrowDown,ArrowLeft","false","original","2","6","","",""
"html-keyboard-response","300","1178741","0.0-4.0-2.1-1.53","spark_pilot_norest","8706","8","20","Female","","","","","","","null","<div style=""font-size:60px;"">+</div>","null","fixation","","","","","","","","","7","","",""
"revaluation","301","1184767","0.0-4.0-2.1-0.54","spark_pilot_norest","8706","8","20","Female","","","false","","","","[543.6999999880791,709.4000000059605]","./assets/img/ocean/memory/16.jpg","[""ArrowUp"",""ArrowRight""]","value training","ocean","10","{""ArrowUp,ArrowLeft"":23,""ArrowUp,ArrowRight"":10,""ArrowDown,ArrowLeft"":8,""ArrowDown,ArrowRight"":30}","false","ArrowUp,ArrowRight","false","original","2","8","","",""
"html-keyboard-response","302","1185279","0.0-4.0-2.1-1.54","spark_pilot_norest","8706","8","20","Female","","","","","","","null","<div style=""font-size:60px;"">+</div>","null","fixation","","","","","","","","","9","","",""
"revaluation","303","1191308","0.0-4.0-2.1-0.55","spark_pilot_norest","8706","8","20","Female","","","false","","","","[333.79999999701977,1210.5]","./assets/img/ocean/memory/31.jpg","[""ArrowDown"",""ArrowRight""]","value training","ocean","30","{""ArrowUp,ArrowLeft"":23,""ArrowUp,ArrowRight"":10,""ArrowDown,ArrowLeft"":8,""ArrowDown,ArrowRight"":30}","true","ArrowDown,ArrowRight","false","original","2","10","","",""
"html-keyboard-response","304","1191814","0.0-4.0-2.1-1.55","spark_pilot_norest","8706","8","20","Female","","","","","","","null","<div style=""font-size:60px;"">+</div>","null","fixation","","","","","","","","","11","","",""
"revaluation","305","1197846","0.0-4.0-2.1-0.56","spark_pilot_norest","8706","8","20","Female","","","false","","","","[590.0999999940395,884.7999999970198]","./assets/img/ocean/memory/19.jpg","[""ArrowUp"",""ArrowLeft""]","value training","ocean","23","{""ArrowUp,ArrowLeft"":23,""ArrowUp,ArrowRight"":10,""ArrowDown,ArrowLeft"":8,""ArrowDown,ArrowRight"":30}","false","ArrowUp,ArrowLeft","false","original","2","12","","",""
"html-keyboard-response","306","1198357","0.0-4.0-2.1-1.56","spark_pilot_norest","8706","8","20","Female","","","","","","","null","<div style=""font-size:60px;"">+</div>","null","fixation","","","","","","","","","13","","",""
"revaluation","307","1202379","0.0-4.0-2.1-0.57","spark_pilot_norest","8706","8","20","Female","","","false","","","","[939.9000000059605]","./assets/img/ocean/catch/6.jpg","[""spaceBar""]","value training","ocean","0","{""ArrowUp,ArrowLeft"":23,""ArrowUp,ArrowRight"":10,""ArrowDown,ArrowLeft"":8,""ArrowDown,ArrowRight"":30}","true","spaceBar","true","original","2","14","","",""
"html-keyboard-response","308","1202885","0.0-4.0-2.1-1.57","spark_pilot_norest","8706","8","20","Female","","","","","","","null","<div style=""font-size:60px;"">+</div>","null","fixation","","","","","","","","","15","","",""
