"trial_type","trial_index","time_elapsed","internal_node_id","task_version","subject_id","assigned_condition","age","gender","success","timeout","failed_images","failed_audio","failed_video","browser_interaction","rt","stimulus","response","task_part","environment","score","rewardMap","correct","fullState","isCatch","condition","order","trial_num","key_press","ground_truth","bonus"
"pavlovia","0","1321","0.0-0.0","spark_pilot_norest","11193","2","7","Female","","","","","","","","","","","","","","","","","","","","","",""
"preload","1","35534","0.0-1.0","spark_pilot_norest","11193","2","7","Female","true","false","[]","[]","[]","[{""event"":""fullscreenenter"",""trial"":2,""time"":457019}]","","","","","","","","","","","","","","","",""
"fullscreen","2","457998","0.0-2.0","spark_pilot_norest","11193","2","7","Female","true","","","","","","","","","","","","","","","","","","","","",""
"audio-button-response","3","475739","0.0-3.0-0.0-0.0","spark_pilot_norest","11193","2","7","Female","","","","","","","17248","./assets/audio/audiotest/turtle.mp3","2","audio_test","","","","","","","","","","","",""
"learning-instructions","4","488909","0.0-3.0-1.0-0.0","spark_pilot_norest","11193","2","7","Female","","","","","","","6134.100000023842","<p> Welcome! Please remember to stay in fullscreen mode and don't click away from the experiment. </p>","","instructions","","","","","","","","","","","",""
"learning-instructions","5","498416","0.0-3.0-1.0-0.1","spark_pilot_norest","11193","2","7","Female","","","","","","","1075.8000000715256","<p> Today you will be playing a game to earn treasure. </p>
            <p> At the end of the experiment, you will earn a bonus based on how much treasure you find. </p>
            <img src='./assets/img/instructions/treasure.jpg' class='instructions-image'>","","instructions","","","","","","","","","","","",""
"learning-instructions","6","509286","0.0-3.0-1.0-0.2","spark_pilot_norest","11193","2","7","Female","","","","","","","2582.6999999284744","<p> Animals have hidden treasure in treasure chests. </p>
            <p> You need to first find an animal and then choose which of their treasure chests to search. </p>
            <img src='./assets/img/space/animals/cat.jpg' class='instructions-image'>","","instructions","","","","","","","","","","","",""
"learning-instructions","7","527387","0.0-3.0-1.0-0.3","spark_pilot_norest","11193","2","7","Female","","","","","","","4916.400000095367","<p> In each round, you will search for treasure in a different place. In the real game, there will be two rounds. </p>
            <p> You will begin with a separate, practice round where you will search for treasure in outer space. </p>
            <img src='./assets/img/space/0.jpg' class='instructions-image'>","","instructions","","","","","","","","","","","",""
"learning-instructions","8","540216","0.0-3.0-1.0-0.4","spark_pilot_norest","11193","2","7","Female","","","","","","","1392.7999999523163","<p> On every turn, you will see a picture of the place that you are in, but the specific image may be different each time. </p>
            <p> For example, both of these images mean you are in outer space. </p>
            <img src='./assets/img/instructions/outerspace.jpg' class='instructions-image'>","","instructions","","","","","","","","","","","",""
"learning-instructions","9","549569","0.0-3.0-1.0-0.5","spark_pilot_norest","11193","2","7","Female","","","","","","","1487.8999999761581","<p> You need to decide which direction to travel in. </p>
            <p> You can choose between going <b>up or down</b> by using the arrow keys. </p>
            <img src='./assets/img/instructions/updown.jpg' class='instructions-image'>","","instructions","","","","","","","","","","","",""
"learning-instructions","10","564529","0.0-3.0-1.0-0.6","spark_pilot_norest","11193","2","7","Female","","","","","","","6112.100000023842","<p> You will have <b>2 seconds</b> to make your choice. </p>
            <p> If you do not make a choice within 2 seconds, you will not find an animal or earn treasure. </p>
            <img src='./assets/img/instructions/2seconds.jpg' class='instructions-image'>","","instructions","","","","","","","","","","","",""
"learning-instructions","11","572376","0.0-3.0-1.0-0.7","spark_pilot_norest","11193","2","7","Female","","","","","","","774.8999999761581","<p> Let’s try practicing that now! </p>
            <p> When you see a picture of the place you are in, press the <b>up</b> key to travel up. </p>
            <img src='./assets/img/instructions/pressUp.jpg' class='instructions-image'>","","instructions","","","","","","","","","","","",""
"revaluation","12","576450","0.0-3.0-2.0-0.0","spark_pilot_norest","11193","2","7","Female","","false","","","","","[1685.2000000476837]","./assets/img/space/0.jpg","[""ArrowUp""]","first stage practice","space","0","null","null","ArrowUp","false","","","","","",""
"html-keyboard-response","13","576960","0.0-3.0-2.0-1.0","spark_pilot_norest","11193","2","7","Female","","","","","","","null","<div style=""font-size:60px;"">+</div>","null","fixation","","","","","","","","","","","",""
"revaluation","14","580981","0.0-3.0-2.0-0.1","spark_pilot_norest","11193","2","7","Female","","false","","","","","[1677.3000000715256]","./assets/img/space/1.jpg","[""ArrowUp""]","first stage practice","space","0","null","null","ArrowUp","false","","","","","",""
"html-keyboard-response","15","581493","0.0-3.0-2.0-1.1","spark_pilot_norest","11193","2","7","Female","","","","","","","null","<div style=""font-size:60px;"">+</div>","null","fixation","","","","","","","","","","","",""
"revaluation","16","585525","0.0-3.0-2.0-0.2","spark_pilot_norest","11193","2","7","Female","","false","","","","","[1183.7999999523163]","./assets/img/space/2.jpg","[""ArrowUp""]","first stage practice","space","0","null","null","ArrowUp","false","","","","","",""
"html-keyboard-response","17","586037","0.0-3.0-2.0-1.2","spark_pilot_norest","11193","2","7","Female","","","","","","","null","<div style=""font-size:60px;"">+</div>","null","fixation","","","","","","","","","","","",""
"learning-instructions","18","593290","0.0-3.0-3.0-0.0","spark_pilot_norest","11193","2","7","Female","","","","","","","2521.399999976158","<p> Great job! Now try pressing the <b>down</b> key to travel down. </p>
            <img src='./assets/img/instructions/pressDown.jpg' class='instructions-image'>","","instructions","","","","","","","","","","","",""
"revaluation","19","597332","0.0-3.0-4.0-0.0","spark_pilot_norest","11193","2","7","Female","","false","","","","","[406]","./assets/img/space/3.jpg","[""ArrowDown""]","first stage practice","space","0","null","null","ArrowDown","false","","","","","",""
"html-keyboard-response","20","597845","0.0-3.0-4.0-1.0","spark_pilot_norest","11193","2","7","Female","","","","","","","null","<div style=""font-size:60px;"">+</div>","null","fixation","","","","","","","","","","","",""
"revaluation","21","601882","0.0-3.0-4.0-0.1","spark_pilot_norest","11193","2","7","Female","","false","","","","","[544.5]","./assets/img/space/4.jpg","[""ArrowDown""]","first stage practice","space","0","null","null","ArrowDown","false","","","","","",""
"html-keyboard-response","22","602394","0.0-3.0-4.0-1.1","spark_pilot_norest","11193","2","7","Female","","","","","","","null","<div style=""font-size:60px;"">+</div>","null","fixation","","","","","","","","","","","",""
"revaluation","23","606421","0.0-3.0-4.0-0.2","spark_pilot_norest","11193","2","7","Female","","false","","","","","[275.10000002384186]","./assets/img/space/5.jpg","[""ArrowDown""]","first stage practice","space","0","null","null","ArrowDown","false","","","","","",""
"html-keyboard-response","24","606938","0.0-3.0-4.0-1.2","spark_pilot_norest","11193","2","7","Female","","","","","","","null","<div style=""font-size:60px;"">+</div>","null","fixation","","","","","","","","","","","",""
"learning-instructions","25","618256","0.0-3.0-5.0-0.0","spark_pilot_norest","11193","2","7","Female","","","","","","","1438.1000000238419","<p> The animals don’t move, so the animal in the upper part of a place will stay in the upper part of a place, and the animal in the lower part of a place will stay in the lower part of a place. </p>","","instructions","","","","","","","","","","","",""
"learning-instructions","26","628604","0.0-3.0-5.0-0.1","spark_pilot_norest","11193","2","7","Female","","","","","","","1185.1000000238419","<p> Each animal has two treasure chests for you to choose from. </p>
            <p> The amount of treasure in each chest can range from <b> 0 to 40 pieces.</b></p>","","instructions","","","","","","","","","","","",""
"learning-instructions","27","641104","0.0-3.0-5.0-0.2","spark_pilot_norest","11193","2","7","Female","","","","","","","1289.2999999523163","<p> You should decide which chest to search for treasure by using the <b>left</b> and <b>right</b> arrow keys. </p>
            <p><b> Pay attention to which animal is on the screen, as the animals have different treasure chests. </b></p>
            <img src='./assets/img/instructions/leftright.jpg' class='instructions-image'>","","instructions","","","","","","","","","","","",""
"learning-instructions","28","648644","0.0-3.0-5.0-0.3","spark_pilot_norest","11193","2","7","Female","","","","","","","1139.5","<p> Let’s try practicing that now. </p>
            <p> When you see an animal, choose which chest to search for treasure. </p>
            <img src='./assets/img/instructions/chooseChest.jpg' class='instructions-image'>","","instructions","","","","","","","","","","","",""
"revaluation","29","652667","0.0-3.0-6.0-0.0","spark_pilot_norest","11193","2","7","Female","","false","","","","","[1432.3999999761581]","./assets/img/space/animals/rabbit.jpg","[""ArrowRight""]","second stage practice","space","23","{""ArrowUp,ArrowLeft"":3,""ArrowUp,ArrowRight"":36,""ArrowDown,ArrowLeft"":15,""ArrowDown,ArrowRight"":23}","true","ArrowDown,ArrowRight","","","","","","",""
"html-keyboard-response","30","653183","0.0-3.0-6.0-1.0","spark_pilot_norest","11193","2","7","Female","","","","","","","null","<div style=""font-size:60px;"">+</div>","null","fixation","","","","","","","","","","","",""
"revaluation","31","657210","0.0-3.0-6.0-0.1","spark_pilot_norest","11193","2","7","Female","","false","","","","","[1300.5]","./assets/img/space/animals/cat.jpg","[""ArrowLeft""]","second stage practice","space","3","{""ArrowUp,ArrowLeft"":3,""ArrowUp,ArrowRight"":36,""ArrowDown,ArrowLeft"":15,""ArrowDown,ArrowRight"":23}","false","ArrowUp,ArrowLeft","","","","","","",""
"html-keyboard-response","32","657726","0.0-3.0-6.0-1.1","spark_pilot_norest","11193","2","7","Female","","","","","","","null","<div style=""font-size:60px;"">+</div>","null","fixation","","","","","","","","","","","",""
"revaluation","33","661757","0.0-3.0-6.0-0.2","spark_pilot_norest","11193","2","7","Female","","false","","","","","[406.89999997615814]","./assets/img/space/animals/cat.jpg","[""ArrowRight""]","second stage practice","space","36","{""ArrowUp,ArrowLeft"":3,""ArrowUp,ArrowRight"":36,""ArrowDown,ArrowLeft"":15,""ArrowDown,ArrowRight"":23}","true","ArrowUp,ArrowRight","","","","","","",""
"html-keyboard-response","34","662267","0.0-3.0-6.0-1.2","spark_pilot_norest","11193","2","7","Female","","","","","","","null","<div style=""font-size:60px;"">+</div>","null","fixation","","","","","","","","","","","",""
"revaluation","35","666303","0.0-3.0-6.0-0.3","spark_pilot_norest","11193","2","7","Female","","false","","","","","[440.89999997615814]","./assets/img/space/animals/rabbit.jpg","[""ArrowRight""]","second stage practice","space","23","{""ArrowUp,ArrowLeft"":3,""ArrowUp,ArrowRight"":36,""ArrowDown,ArrowLeft"":15,""ArrowDown,ArrowRight"":23}","true","ArrowDown,ArrowRight","","","","","","",""
"html-keyboard-response","36","666816","0.0-3.0-6.0-1.3","spark_pilot_norest","11193","2","7","Female","","","","","","","null","<div style=""font-size:60px;"">+</div>","null","fixation","","","","","","","","","","","",""
"learning-instructions","37","684956","0.0-3.0-7.0-0.0","spark_pilot_norest","11193","2","7","Female","","","","","","","1291.6999999284744","<p> Great job. Now let’s try putting it together. </p>
            <p> On each turn, you will first see a picture to remind you of the place you are in, and you need to choose whether to go up or down. </p>
            <p> Then you will see an animal and choose which of its chests to search for treasure. </p>","","instructions","","","","","","","","","","","",""
"learning-instructions","38","694138","0.0-3.0-7.0-0.1","spark_pilot_norest","11193","2","7","Female","","","","","","","884","<p> When you choose whether to go up or down, try to go to the animal with the chest with the most treasure. </p>
            <p> Try practicing that now! </p>","","instructions","","","","","","","","","","","",""
"revaluation","39","700197","0.0-3.0-8.0-0.0","spark_pilot_norest","11193","2","7","Female","","false","","","","","[1019.7000000476837,625.4000000953674]","./assets/img/space/6.jpg","[""ArrowUp"",""ArrowLeft""]","full practice","space","3","{""ArrowUp,ArrowLeft"":3,""ArrowUp,ArrowRight"":36,""ArrowDown,ArrowLeft"":15,""ArrowDown,ArrowRight"":23}","false","ArrowUp,ArrowLeft","false","","","","","",""
"html-keyboard-response","40","700702","0.0-3.0-8.0-1.0","spark_pilot_norest","11193","2","7","Female","","","","","","","null","<div style=""font-size:60px;"">+</div>","null","fixation","","","","","","","","","","","",""
"revaluation","41","706743","0.0-3.0-8.0-0.1","spark_pilot_norest","11193","2","7","Female","","false","","","","","[728.1000000238419,640.4000000953674]","./assets/img/space/7.jpg","[""ArrowDown"",""ArrowRight""]","full practice","space","23","{""ArrowUp,ArrowLeft"":3,""ArrowUp,ArrowRight"":36,""ArrowDown,ArrowLeft"":15,""ArrowDown,ArrowRight"":23}","false","ArrowDown,ArrowRight","false","","","","","",""
"html-keyboard-response","42","707247","0.0-3.0-8.0-1.1","spark_pilot_norest","11193","2","7","Female","","","","","","","null","<div style=""font-size:60px;"">+</div>","null","fixation","","","","","","","","","","","",""
"revaluation","43","713275","0.0-3.0-8.0-0.2","spark_pilot_norest","11193","2","7","Female","","false","","","","","[845.0999999046326,787.5]","./assets/img/space/8.jpg","[""ArrowUp"",""ArrowRight""]","full practice","space","36","{""ArrowUp,ArrowLeft"":3,""ArrowUp,ArrowRight"":36,""ArrowDown,ArrowLeft"":15,""ArrowDown,ArrowRight"":23}","true","ArrowUp,ArrowRight","false","","","","","",""
"html-keyboard-response","44","713779","0.0-3.0-8.0-1.2","spark_pilot_norest","11193","2","7","Female","","","","","","","null","<div style=""font-size:60px;"">+</div>","null","fixation","","","","","","","","","","","",""
"revaluation","45","719829","0.0-3.0-8.0-0.3","spark_pilot_norest","11193","2","7","Female","","false","","","","","[1297.7999999523163,525.5]","./assets/img/space/9.jpg","[""ArrowUp"",""ArrowLeft""]","full practice","space","3","{""ArrowUp,ArrowLeft"":3,""ArrowUp,ArrowRight"":36,""ArrowDown,ArrowLeft"":15,""ArrowDown,ArrowRight"":23}","false","ArrowUp,ArrowLeft","false","","","","","",""
"html-keyboard-response","46","720335","0.0-3.0-8.0-1.3","spark_pilot_norest","11193","2","7","Female","","","","","","","null","<div style=""font-size:60px;"">+</div>","null","fixation","","","","","","","","","","","",""
"revaluation","47","726359","0.0-3.0-8.0-0.4","spark_pilot_norest","11193","2","7","Female","","false","","","","","[437.2000000476837,339.6999999284744]","./assets/img/space/10.jpg","[""ArrowUp"",""ArrowLeft""]","full practice","space","3","{""ArrowUp,ArrowLeft"":3,""ArrowUp,ArrowRight"":36,""ArrowDown,ArrowLeft"":15,""ArrowDown,ArrowRight"":23}","false","ArrowUp,ArrowLeft","false","","","","","",""
"html-keyboard-response","48","726865","0.0-3.0-8.0-1.4","spark_pilot_norest","11193","2","7","Female","","","","","","","null","<div style=""font-size:60px;"">+</div>","null","fixation","","","","","","","","","","","",""
"learning-instructions","49","739461","0.0-3.0-9.0-0.0","spark_pilot_norest","11193","2","7","Female","","","","","","","2276.2999999523163","<p> One last thing: sometimes, you will see a robber. The robber can be anywhere in the picture. </p>
            <p> If you do not stop them, you will lose treasure. </p>
            <img src='./assets/img/instructions/robber.jpg' class='instructions-image'>","","instructions","","","","","","","","","","","",""
"learning-instructions","50","747679","0.0-3.0-9.0-0.1","spark_pilot_norest","11193","2","7","Female","","","","","","","1018.0999999046326","<p> If you see the robber, you should <b>press the space bar</b> rather than using the arrow keys. </p>
            <p> Try practicing that now! </p>","","instructions","","","","","","","","","","","",""
"revaluation","51","751697","0.0-3.0-10.0-0.0","spark_pilot_norest","11193","2","7","Female","","false","","","","","[910.3000000715256]","./assets/img/space/catch/0.jpg","[""spaceBar""]","catch practice","space","0","{""ArrowUp,ArrowLeft"":3,""ArrowUp,ArrowRight"":36,""ArrowDown,ArrowLeft"":15,""ArrowDown,ArrowRight"":23}","true","spaceBar","true","","","","","",""
"html-keyboard-response","52","752206","0.0-3.0-10.0-1.0","spark_pilot_norest","11193","2","7","Female","","","","","","","null","<div style=""font-size:60px;"">+</div>","null","fixation","","","","","","","","","","","",""
"revaluation","53","756226","0.0-3.0-10.0-0.1","spark_pilot_norest","11193","2","7","Female","","false","","","","","[609]","./assets/img/space/catch/1.jpg","[""spaceBar""]","catch practice","space","0","{""ArrowUp,ArrowLeft"":3,""ArrowUp,ArrowRight"":36,""ArrowDown,ArrowLeft"":15,""ArrowDown,ArrowRight"":23}","true","spaceBar","true","","","","","",""
"html-keyboard-response","54","756732","0.0-3.0-10.0-1.1","spark_pilot_norest","11193","2","7","Female","","","","","","","null","<div style=""font-size:60px;"">+</div>","null","fixation","","","","","","","","","","","",""
"revaluation","55","760760","0.0-3.0-10.0-0.2","spark_pilot_norest","11193","2","7","Female","","false","","","","","[468.5]","./assets/img/space/catch/2.jpg","[""spaceBar""]","catch practice","space","0","{""ArrowUp,ArrowLeft"":3,""ArrowUp,ArrowRight"":36,""ArrowDown,ArrowLeft"":15,""ArrowDown,ArrowRight"":23}","true","spaceBar","true","","","","","",""
"html-keyboard-response","56","761277","0.0-3.0-10.0-1.2","spark_pilot_norest","11193","2","7","Female","","","","","","","null","<div style=""font-size:60px;"">+</div>","null","fixation","","","","","","","","","","","",""
"learning-instructions","57","767812","0.0-3.0-11.0-0.0-0.0","spark_pilot_norest","11193","2","7","Female","","","","","","","1222.5","<p> Now, you will practice a shortened version of the game to get a sense of how it all fits together. </p>","","instructions","","","","","","","","","","","",""
"learning-instructions","58","772109","0.0-3.0-11.0-0.0-0.1","spark_pilot_norest","11193","2","7","Female","","","","","","","1082.2999999523163","<p>This time you are searching for treasure in outer space.</p>","","instructions","","","","","","","","","","","",""
"learning-instructions","59","787690","0.0-3.0-11.0-1.0-0.0","spark_pilot_norest","11193","2","7","Female","","","","","","","780.7000000476837","<p> Remember, when you see a picture of the place, use the up and down keys to <b>find an animal</b>.</p>
            <p> When you encounter an animal, you should use the left and right keys to <b>select a treasure chest</b>.</p>
            <p> Don't forget to look out for the robber! </p>","","instructions","","","","","","","","","","","",""
"revaluation","60","793729","0.0-3.0-11.0-2.0-0.0","spark_pilot_norest","11193","2","7","Female","","false","","","","","[970,595.4000000953674]","./assets/img/space/11.jpg","[""ArrowUp"",""ArrowRight""]","practice block","space","36","{""ArrowUp,ArrowLeft"":3,""ArrowUp,ArrowRight"":36,""ArrowDown,ArrowLeft"":15,""ArrowDown,ArrowRight"":23}","true","ArrowUp,ArrowRight","false","","","","","",""
"html-keyboard-response","61","794242","0.0-3.0-11.0-2.0-1.0","spark_pilot_norest","11193","2","7","Female","","","","","","","null","<div style=""font-size:60px;"">+</div>","null","fixation","","","","","","","","","","","",""
"revaluation","62","800271","0.0-3.0-11.0-2.0-0.1","spark_pilot_norest","11193","2","7","Female","","false","","","","","[1060.3999999761581,450.3000000715256]","./assets/img/space/12.jpg","[""ArrowUp"",""ArrowRight""]","practice block","space","36","{""ArrowUp,ArrowLeft"":3,""ArrowUp,ArrowRight"":36,""ArrowDown,ArrowLeft"":15,""ArrowDown,ArrowRight"":23}","true","ArrowUp,ArrowRight","false","","","","","",""
"html-keyboard-response","63","800775","0.0-3.0-11.0-2.0-1.1","spark_pilot_norest","11193","2","7","Female","","","","","","","null","<div style=""font-size:60px;"">+</div>","null","fixation","","","","","","","","","","","",""
"revaluation","64","806807","0.0-3.0-11.0-2.0-0.2","spark_pilot_norest","11193","2","7","Female","","false","","","","","[927.7999999523163,495.2000000476837]","./assets/img/space/13.jpg","[""ArrowDown"",""ArrowRight""]","practice block","space","23","{""ArrowUp,ArrowLeft"":3,""ArrowUp,ArrowRight"":36,""ArrowDown,ArrowLeft"":15,""ArrowDown,ArrowRight"":23}","false","ArrowDown,ArrowRight","false","","","","","",""
"html-keyboard-response","65","807324","0.0-3.0-11.0-2.0-1.2","spark_pilot_norest","11193","2","7","Female","","","","","","","null","<div style=""font-size:60px;"">+</div>","null","fixation","","","","","","","","","","","",""
"revaluation","66","813351","0.0-3.0-11.0-2.0-0.3","spark_pilot_norest","11193","2","7","Female","","false","","","","","[1183.6000000238419,355.59999990463257]","./assets/img/space/14.jpg","[""ArrowUp"",""ArrowRight""]","practice block","space","36","{""ArrowUp,ArrowLeft"":3,""ArrowUp,ArrowRight"":36,""ArrowDown,ArrowLeft"":15,""ArrowDown,ArrowRight"":23}","true","ArrowUp,ArrowRight","false","","","","","",""
"html-keyboard-response","67","813856","0.0-3.0-11.0-2.0-1.3","spark_pilot_norest","11193","2","7","Female","","","","","","","null","<div style=""font-size:60px;"">+</div>","null","fixation","","","","","","","","","","","",""
"revaluation","68","819881","0.0-3.0-11.0-2.0-0.4","spark_pilot_norest","11193","2","7","Female","","false","","","","","[811,447.5]","./assets/img/space/11.jpg","[""ArrowUp"",""ArrowRight""]","practice block","space","36","{""ArrowUp,ArrowLeft"":3,""ArrowUp,ArrowRight"":36,""ArrowDown,ArrowLeft"":15,""ArrowDown,ArrowRight"":23}","true","ArrowUp,ArrowRight","false","","","","","",""
"html-keyboard-response","69","820392","0.0-3.0-11.0-2.0-1.4","spark_pilot_norest","11193","2","7","Female","","","","","","","null","<div style=""font-size:60px;"">+</div>","null","fixation","","","","","","","","","","","",""
"revaluation","70","826412","0.0-3.0-11.0-2.0-0.5","spark_pilot_norest","11193","2","7","Female","","false","","","","","[1135.6999999284744,356.59999990463257]","./assets/img/space/12.jpg","[""ArrowUp"",""ArrowRight""]","practice block","space","36","{""ArrowUp,ArrowLeft"":3,""ArrowUp,ArrowRight"":36,""ArrowDown,ArrowLeft"":15,""ArrowDown,ArrowRight"":23}","true","ArrowUp,ArrowRight","false","","","","","",""
"html-keyboard-response","71","826924","0.0-3.0-11.0-2.0-1.5","spark_pilot_norest","11193","2","7","Female","","","","","","","null","<div style=""font-size:60px;"">+</div>","null","fixation","","","","","","","","","","","",""
"revaluation","72","832956","0.0-3.0-11.0-2.0-0.6","spark_pilot_norest","11193","2","7","Female","","false","","","","","[830,468.2000000476837]","./assets/img/space/13.jpg","[""ArrowUp"",""ArrowRight""]","practice block","space","36","{""ArrowUp,ArrowLeft"":3,""ArrowUp,ArrowRight"":36,""ArrowDown,ArrowLeft"":15,""ArrowDown,ArrowRight"":23}","true","ArrowUp,ArrowRight","false","","","","","",""
"html-keyboard-response","73","833459","0.0-3.0-11.0-2.0-1.6","spark_pilot_norest","11193","2","7","Female","","","","","","","null","<div style=""font-size:60px;"">+</div>","null","fixation","","","","","","","","","","","",""
"revaluation","74","839482","0.0-3.0-11.0-2.0-0.7","spark_pilot_norest","11193","2","7","Female","","false","","","","","[1043.8999999761581,504.39999997615814]","./assets/img/space/14.jpg","[""ArrowUp"",""ArrowRight""]","practice block","space","36","{""ArrowUp,ArrowLeft"":3,""ArrowUp,ArrowRight"":36,""ArrowDown,ArrowLeft"":15,""ArrowDown,ArrowRight"":23}","true","ArrowUp,ArrowRight","false","","","","","",""
"html-keyboard-response","75","839993","0.0-3.0-11.0-2.0-1.7","spark_pilot_norest","11193","2","7","Female","","","","","","","null","<div style=""font-size:60px;"">+</div>","null","fixation","","","","","","","","","","","",""
"revaluation","76","844029","0.0-3.0-11.0-2.0-0.8","spark_pilot_norest","11193","2","7","Female","","false","","","","","[293.7999999523163]","./assets/img/space/catch/3.jpg","[""ArrowUp""]","practice block","space","-10","{""ArrowUp,ArrowLeft"":3,""ArrowUp,ArrowRight"":36,""ArrowDown,ArrowLeft"":15,""ArrowDown,ArrowRight"":23}","false","ArrowUp","true","","","","","",""
"html-keyboard-response","77","844536","0.0-3.0-11.0-2.0-1.8","spark_pilot_norest","11193","2","7","Female","","","","","","","null","<div style=""font-size:60px;"">+</div>","null","fixation","","","","","","","","","","","",""
"learning-instructions","78","860081","0.0-3.0-11.0-3.0-0.0","spark_pilot_norest","11193","2","7","Female","","","","","","","2163.5","<p> Now, you will travel with a friend who will choose whether you go up or down first. </p>
            <p> On these turns, you will just see the animal that they found. You will still get to choose which chest to search for treasure.</p>","","instructions","","","","","","","","","","","",""
"revaluation","79","864092","0.0-3.0-11.0-4.0-0.0","spark_pilot_norest","11193","2","7","Female","","false","","","","","[1433.3999999761581]","./assets/img/space/animals/cat.jpg","[""ArrowRight""]","practice block","space","36","{""ArrowUp,ArrowLeft"":3,""ArrowUp,ArrowRight"":36,""ArrowDown,ArrowLeft"":15,""ArrowDown,ArrowRight"":23}","true","ArrowUp,ArrowRight","","","","","","",""
"html-keyboard-response","80","864604","0.0-3.0-11.0-4.0-1.0","spark_pilot_norest","11193","2","7","Female","","","","","","","null","<div style=""font-size:60px;"">+</div>","null","fixation","","","","","","","","","","","",""
"revaluation","81","868641","0.0-3.0-11.0-4.0-0.1","spark_pilot_norest","11193","2","7","Female","","false","","","","","[783.7000000476837]","./assets/img/space/animals/rabbit.jpg","[""ArrowRight""]","practice block","space","23","{""ArrowUp,ArrowLeft"":3,""ArrowUp,ArrowRight"":36,""ArrowDown,ArrowLeft"":15,""ArrowDown,ArrowRight"":23}","true","ArrowDown,ArrowRight","","","","","","",""
"html-keyboard-response","82","869153","0.0-3.0-11.0-4.0-1.1","spark_pilot_norest","11193","2","7","Female","","","","","","","null","<div style=""font-size:60px;"">+</div>","null","fixation","","","","","","","","","","","",""
"revaluation","83","873191","0.0-3.0-11.0-4.0-0.2","spark_pilot_norest","11193","2","7","Female","","false","","","","","[615.3999999761581]","./assets/img/space/animals/rabbit.jpg","[""ArrowRight""]","practice block","space","23","{""ArrowUp,ArrowLeft"":3,""ArrowUp,ArrowRight"":36,""ArrowDown,ArrowLeft"":15,""ArrowDown,ArrowRight"":23}","true","ArrowDown,ArrowRight","","","","","","",""
"html-keyboard-response","84","873696","0.0-3.0-11.0-4.0-1.2","spark_pilot_norest","11193","2","7","Female","","","","","","","null","<div style=""font-size:60px;"">+</div>","null","fixation","","","","","","","","","","","",""
"revaluation","85","877707","0.0-3.0-11.0-4.0-0.3","spark_pilot_norest","11193","2","7","Female","","false","","","","","[421.10000002384186]","./assets/img/space/animals/cat.jpg","[""ArrowRight""]","practice block","space","36","{""ArrowUp,ArrowLeft"":3,""ArrowUp,ArrowRight"":36,""ArrowDown,ArrowLeft"":15,""ArrowDown,ArrowRight"":23}","true","ArrowUp,ArrowRight","","","","","","",""
"html-keyboard-response","86","878220","0.0-3.0-11.0-4.0-1.3","spark_pilot_norest","11193","2","7","Female","","","","","","","null","<div style=""font-size:60px;"">+</div>","null","fixation","","","","","","","","","","","",""
"learning-instructions","87","886380","0.0-3.0-11.0-5.0-0.0","spark_pilot_norest","11193","2","7","Female","","","","","","","null","<p> You have almost finished this part of the game! </p>
            <p> We are going to ask you to make a few more choices. </p>","","instructions","","","","","","","","","","","",""
"learning-instructions","88","902443","0.0-3.0-11.0-5.0-0.1","spark_pilot_norest","11193","2","7","Female","","","","","","","null","<p> First, you need to decide whether to go up or down. When you see each picture, use the arrow keys to make your choice. </p>
            <p><b>You will not see which animal you found, but try to get to the one that will give you the most treasure.</b></p>","","instructions","","","","","","","","","","","",""
"html-keyboard-response","89","903460","0.0-3.0-11.0-6.0-0.0","spark_pilot_norest","11193","2","7","Female","","","","","","","null","<div style=""font-size:100px;color:red;"">Starting in...</div>","null","","","","","","","","","","","","",""
"html-keyboard-response","90","904470","0.0-3.0-11.0-6.0-1.0","spark_pilot_norest","11193","2","7","Female","","","","","","","null","<div style=""font-size:200px;color:red;"">3</div>","null","","","","","","","","","","","","",""
"html-keyboard-response","91","905479","0.0-3.0-11.0-6.0-2.0","spark_pilot_norest","11193","2","7","Female","","","","","","","null","<div style=""font-size:200px;color:red;"">2</div>","null","","","","","","","","","","","","",""
"html-keyboard-response","92","906492","0.0-3.0-11.0-6.0-3.0","spark_pilot_norest","11193","2","7","Female","","","","","","","null","<div style=""font-size:200px;color:red;"">1</div>","null","","","","","","","","","","","","",""
"revaluation","93","907127","0.0-3.0-11.0-7.0","spark_pilot_norest","11193","2","7","Female","","false","","","","","[626.8999999761581]","./assets/img/space/15.jpg","[""ArrowUp""]","practice block","space","0","{""ArrowUp,ArrowLeft"":3,""ArrowUp,ArrowRight"":36,""ArrowDown,ArrowLeft"":15,""ArrowDown,ArrowRight"":23}","true","ArrowUp","false","","","","","",""
"html-keyboard-response","94","907641","0.0-3.0-11.0-8.0","spark_pilot_norest","11193","2","7","Female","","","","","","","null","<div style=""font-size:60px;"">+</div>","null","fixation","","","","","","","","","","","",""
"learning-instructions","95","921084","0.0-3.0-11.0-9.0-0.0","spark_pilot_norest","11193","2","7","Female","","","","","","","null","<p> Now you will see the animals again and can search their chests for treasure. </p>
            <p> This time, you will not see how much treasure you earned, but you will earn more bonus money for making better choices. </p>","","instructions","","","","","","","","","","","",""
"html-keyboard-response","96","922091","0.0-3.0-11.0-10.0-0.0","spark_pilot_norest","11193","2","7","Female","","","","","","","null","<div style=""font-size:100px;color:red;"">Starting in...</div>","null","","","","","","","","","","","","",""
"html-keyboard-response","97","923094","0.0-3.0-11.0-10.0-1.0","spark_pilot_norest","11193","2","7","Female","","","","","","","null","<div style=""font-size:200px;color:red;"">3</div>","null","","","","","","","","","","","","",""
"html-keyboard-response","98","924113","0.0-3.0-11.0-10.0-2.0","spark_pilot_norest","11193","2","7","Female","","","","","","","null","<div style=""font-size:200px;color:red;"">2</div>","null","","","","","","","","","","","","",""
"html-keyboard-response","99","925126","0.0-3.0-11.0-10.0-3.0","spark_pilot_norest","11193","2","7","Female","","","","","","","null","<div style=""font-size:200px;color:red;"">1</div>","null","","","","","","","","","","","","",""
"revaluation","100","925713","0.0-3.0-11.0-11.0-0.0","spark_pilot_norest","11193","2","7","Female","","false","","","","","[577.8999999761581]","./assets/img/space/animals/cat.jpg","[""ArrowRight""]","practice block","space","0","{""ArrowUp,ArrowLeft"":3,""ArrowUp,ArrowRight"":36,""ArrowDown,ArrowLeft"":15,""ArrowDown,ArrowRight"":23}","true","ArrowUp,ArrowRight","","","","","","",""
"html-keyboard-response","101","926223","0.0-3.0-11.0-11.0-1.0","spark_pilot_norest","11193","2","7","Female","","","","","","","null","<div style=""font-size:60px;"">+</div>","null","fixation","","","","","","","","","","","",""
"revaluation","102","927152","0.0-3.0-11.0-11.0-0.1","spark_pilot_norest","11193","2","7","Female","","false","","","","","[919.2999999523163]","./assets/img/space/animals/rabbit.jpg","[""ArrowRight""]","practice block","space","0","{""ArrowUp,ArrowLeft"":3,""ArrowUp,ArrowRight"":36,""ArrowDown,ArrowLeft"":15,""ArrowDown,ArrowRight"":23}","true","ArrowDown,ArrowRight","","","","","","",""
"html-keyboard-response","103","927666","0.0-3.0-11.0-11.0-1.1","spark_pilot_norest","11193","2","7","Female","","","","","","","null","<div style=""font-size:60px;"">+</div>","null","fixation","","","","","","","","","","","",""
"learning-instructions","104","933619","0.0-3.0-12.0-0.0","spark_pilot_norest","11193","2","7","Female","","","","","","","1345.2999999523163","<p> Before you start, we're going to ask you a few questions about how the game works. </p>","","instructions","","","","","","","","","","","",""
"comp-q","105","940945","0.0-3.0-13.0-0.0-0.0","spark_pilot_norest","11193","2","7","Female","","","","","","","1686.6000000238419","<p> <b> True or False? </b> </p>
            <p> There can be 50 pieces of treasure in a given animal's chest. </p>","1","comp_question","","","","true","","","","","","","",""
"comp-q","106","948960","0.0-3.0-13.0-0.0-1.0","spark_pilot_norest","11193","2","7","Female","","","","","","","1314.7999999523163","<p> <b> That's right! </b> The amount of treasure in each chest can range from 0 to 40 pieces. </p>","0","comp_answer","","","","","","","","","","","",""
"comp-q","107","956989","0.0-3.0-13.0-0.1-0.1","spark_pilot_norest","11193","2","7","Female","","","","","","","873.1000000238419","<p> <b> True or False? </b> </p><p> In this game, all animals have the same amount of treasure in their left and right chests. </p>","1","comp_question","","","","true","","","","","","","",""
"comp-q","108","963958","0.0-3.0-13.0-0.1-1.1","spark_pilot_norest","11193","2","7","Female","","","","","","","1719","<p> <b> That's right! </b> Animals have different amounts of treasure in their treasure chests. </p>","0","comp_answer","","","","","","","","","","","",""
"comp-q","109","970842","0.0-3.0-13.0-0.2-0.2","spark_pilot_norest","11193","2","7","Female","","","","","","","1009.3999999761581","<p> <b> True or False? </b> </p><p> The same animal will always be there if you go up in the same place. </p>","0","comp_question","","","","true","","","","","","","",""
"comp-q","110","980930","0.0-3.0-13.0-0.2-1.2","spark_pilot_norest","11193","2","7","Female","","","","","","","3620.8000000715256","<p> <b> That's right! </b> One animal lives in the upper part and one lives in the lower part of every place. </p>","0","comp_answer","","","","","","","","","","","",""
"comp-q","111","987362","0.0-3.0-13.0-0.3-0.3","spark_pilot_norest","11193","2","7","Female","","","","","","","889.7999999523163","<p> <b> True or False? </b> </p><p> If you see a different picture, it means you are in a new place. </p>","1","comp_question","","","","true","","","","","","","",""
"comp-q","112","999428","0.0-3.0-13.0-0.3-1.3","spark_pilot_norest","11193","2","7","Female","","","","","","","806.7999999523163","<p> <b> That's right! </b> Lots of different images may show the same place. For example,  you may see three different images that all remind you that you are in outer space. </p>","0","comp_answer","","","","","","","","","","","",""
"learning-instructions","113","1012280","0.0-3.0-14.0-0.0","spark_pilot_norest","11193","2","7","Female","","","","","","","2970.3000000715256","<p> Good job. Remember to do your best because the amount of treasure you earn will be converted into bonus money. </p>
            <p> It’s time to start the real game! </p>","","instructions","","","","","","","","","","","",""
"learning-instructions","114","1016183","0.0-4.0-0.0-0.0","spark_pilot_norest","11193","2","7","Female","","","","","","","1157.2000000476837","<p> This time you are searching for treasure in the <b>ocean</b>.</p>","","instructions","","","","","","","","","","","",""
"learning-instructions","115","1034713","0.0-4.0-0.0-0.1","spark_pilot_norest","11193","2","7","Female","","","","","","","1189.8000000715256","<p><b>New</b> animals with <b>new</b> treasure chests live here. You need to explore to discover where the animal with the best treasure chest is.</p>
                    <p> Like before, once you figure out which animal has the chest with the most treasure, you should try to get to that animal and select that chest! </p>","","instructions","","","","","","","","","","","",""
"learning-instructions","116","1050582","0.0-4.0-1.0-0.0","spark_pilot_norest","11193","2","7","Female","","","","","","","1133.7999999523163","<p> Remember, when you see a picture of the place, use the up and down keys to <b>find an animal</b>.</p>
            <p> When you encounter an animal, you should use the left and right keys to <b>select a treasure chest</b>.</p>
            <p> Don't forget to look out for the robber! </p>","","instructions","","","","","","","","","","","",""
"revaluation","117","1056626","0.0-4.0-2.0-0.0","spark_pilot_norest","11193","2","7","Female","","false","","","","","[953.1000000238419,717.7999999523163]","./assets/img/ocean/memory/15.jpg","[""ArrowUp"",""ArrowRight""]","value training","ocean","10","{""ArrowUp,ArrowLeft"":23,""ArrowUp,ArrowRight"":10,""ArrowDown,ArrowLeft"":8,""ArrowDown,ArrowRight"":30}","false","ArrowUp,ArrowRight","false","revaluation","1","0","","",""
"html-keyboard-response","118","1057142","0.0-4.0-2.0-1.0","spark_pilot_norest","11193","2","7","Female","","","","","","","null","<div style=""font-size:60px;"">+</div>","null","fixation","","","","","","","","","1","","",""
"revaluation","119","1063185","0.0-4.0-2.0-0.1","spark_pilot_norest","11193","2","7","Female","","false","","","","","[746.1000000238419,694.9000000953674]","./assets/img/ocean/memory/5.jpg","[""ArrowDown"",""ArrowLeft""]","value training","ocean","8","{""ArrowUp,ArrowLeft"":23,""ArrowUp,ArrowRight"":10,""ArrowDown,ArrowLeft"":8,""ArrowDown,ArrowRight"":30}","false","ArrowDown,ArrowLeft","false","revaluation","1","2","","",""
"html-keyboard-response","120","1063693","0.0-4.0-2.0-1.1","spark_pilot_norest","11193","2","7","Female","","","","","","","null","<div style=""font-size:60px;"">+</div>","null","fixation","","","","","","","","","3","","",""
"revaluation","121","1069717","0.0-4.0-2.0-0.2","spark_pilot_norest","11193","2","7","Female","","false","","","","","[734.2999999523163,1634.7999999523163]","./assets/img/ocean/memory/31.jpg","[""ArrowUp"",""ArrowLeft""]","value training","ocean","23","{""ArrowUp,ArrowLeft"":23,""ArrowUp,ArrowRight"":10,""ArrowDown,ArrowLeft"":8,""ArrowDown,ArrowRight"":30}","false","ArrowUp,ArrowLeft","false","revaluation","1","4","","",""
"html-keyboard-response","122","1070236","0.0-4.0-2.0-1.2","spark_pilot_norest","11193","2","7","Female","","","","","","","null","<div style=""font-size:60px;"">+</div>","null","fixation","","","","","","","","","5","","",""
"revaluation","123","1074257","0.0-4.0-2.0-0.3","spark_pilot_norest","11193","2","7","Female","","false","","","","","[419.89999997615814]","./assets/img/ocean/catch/6.jpg","[""ArrowDown""]","value training","ocean","-10","{""ArrowUp,ArrowLeft"":23,""ArrowUp,ArrowRight"":10,""ArrowDown,ArrowLeft"":8,""ArrowDown,ArrowRight"":30}","false","ArrowDown","true","revaluation","1","6","","",""
"html-keyboard-response","124","1074769","0.0-4.0-2.0-1.3","spark_pilot_norest","11193","2","7","Female","","","","","","","null","<div style=""font-size:60px;"">+</div>","null","fixation","","","","","","","","","7","","",""
"revaluation","125","1078796","0.0-4.0-2.0-0.4","spark_pilot_norest","11193","2","7","Female","","false","","","","","[992.3999999761581]","./assets/img/ocean/catch/1.jpg","[""spaceBar""]","value training","ocean","0","{""ArrowUp,ArrowLeft"":23,""ArrowUp,ArrowRight"":10,""ArrowDown,ArrowLeft"":8,""ArrowDown,ArrowRight"":30}","true","spaceBar","true","revaluation","1","8","","",""
"html-keyboard-response","126","1079301","0.0-4.0-2.0-1.4","spark_pilot_norest","11193","2","7","Female","","","","","","","null","<div style=""font-size:60px;"">+</div>","null","fixation","","","","","","","","","9","","",""
"revaluation","127","1085324","0.0-4.0-2.0-0.5","spark_pilot_norest","11193","2","7","Female","","false","","","","","[1289.8999999761581,1712.5]","./assets/img/ocean/memory/10.jpg","[""ArrowDown"",""ArrowLeft""]","value training","ocean","8","{""ArrowUp,ArrowLeft"":23,""ArrowUp,ArrowRight"":10,""ArrowDown,ArrowLeft"":8,""ArrowDown,ArrowRight"":30}","false","ArrowDown,ArrowLeft","false","revaluation","1","10","","",""
"html-keyboard-response","128","1085827","0.0-4.0-2.0-1.5","spark_pilot_norest","11193","2","7","Female","","","","","","","null","<div style=""font-size:60px;"">+</div>","null","fixation","","","","","","","","","11","","",""
"revaluation","129","1091856","0.0-4.0-2.0-0.6","spark_pilot_norest","11193","2","7","Female","","false","","","","","[988.7999999523163,382.2000000476837]","./assets/img/ocean/memory/0.jpg","[""ArrowDown"",""ArrowRight""]","value training","ocean","30","{""ArrowUp,ArrowLeft"":23,""ArrowUp,ArrowRight"":10,""ArrowDown,ArrowLeft"":8,""ArrowDown,ArrowRight"":30}","true","ArrowDown,ArrowRight","false","revaluation","1","12","","",""
"html-keyboard-response","130","1092372","0.0-4.0-2.0-1.6","spark_pilot_norest","11193","2","7","Female","","","","","","","null","<div style=""font-size:60px;"">+</div>","null","fixation","","","","","","","","","13","","",""
"revaluation","131","1098393","0.0-4.0-2.0-0.7","spark_pilot_norest","11193","2","7","Female","","false","","","","","[1588.1000000238419,601.1999999284744]","./assets/img/ocean/memory/27.jpg","[""ArrowDown"",""ArrowRight""]","value training","ocean","30","{""ArrowUp,ArrowLeft"":23,""ArrowUp,ArrowRight"":10,""ArrowDown,ArrowLeft"":8,""ArrowDown,ArrowRight"":30}","true","ArrowDown,ArrowRight","false","revaluation","1","14","","",""
"html-keyboard-response","132","1098901","0.0-4.0-2.0-1.7","spark_pilot_norest","11193","2","7","Female","","","","","","","null","<div style=""font-size:60px;"">+</div>","null","fixation","","","","","","","","","15","","",""
"revaluation","133","1102918","0.0-4.0-2.0-0.8","spark_pilot_norest","11193","2","7","Female","","false","","","","","[1007]","./assets/img/ocean/catch/5.jpg","[""spaceBar""]","value training","ocean","0","{""ArrowUp,ArrowLeft"":23,""ArrowUp,ArrowRight"":10,""ArrowDown,ArrowLeft"":8,""ArrowDown,ArrowRight"":30}","true","spaceBar","true","revaluation","1","16","","",""
"html-keyboard-response","134","1103422","0.0-4.0-2.0-1.8","spark_pilot_norest","11193","2","7","Female","","","","","","","null","<div style=""font-size:60px;"">+</div>","null","fixation","","","","","","","","","17","","",""
"revaluation","135","1109463","0.0-4.0-2.0-0.9","spark_pilot_norest","11193","2","7","Female","","false","","","","","[671.5,426]","./assets/img/ocean/memory/4.jpg","[""ArrowDown"",""ArrowRight""]","value training","ocean","30","{""ArrowUp,ArrowLeft"":23,""ArrowUp,ArrowRight"":10,""ArrowDown,ArrowLeft"":8,""ArrowDown,ArrowRight"":30}","true","ArrowDown,ArrowRight","false","revaluation","1","18","","",""
"html-keyboard-response","136","1109982","0.0-4.0-2.0-1.9","spark_pilot_norest","11193","2","7","Female","","","","","","","null","<div style=""font-size:60px;"">+</div>","null","fixation","","","","","","","","","19","","",""
"revaluation","137","1116013","0.0-4.0-2.0-0.10","spark_pilot_norest","11193","2","7","Female","","false","","","","","[780.1999999284744,449.89999997615814]","./assets/img/ocean/memory/31.jpg","[""ArrowDown"",""ArrowRight""]","value training","ocean","30","{""ArrowUp,ArrowLeft"":23,""ArrowUp,ArrowRight"":10,""ArrowDown,ArrowLeft"":8,""ArrowDown,ArrowRight"":30}","true","ArrowDown,ArrowRight","false","revaluation","1","20","","",""
"html-keyboard-response","138","1116517","0.0-4.0-2.0-1.10","spark_pilot_norest","11193","2","7","Female","","","","","","","null","<div style=""font-size:60px;"">+</div>","null","fixation","","","","","","","","","21","","",""
"revaluation","139","1122546","0.0-4.0-2.0-0.11","spark_pilot_norest","11193","2","7","Female","","false","","","","","[962.1000000238419,419.3000000715256]","./assets/img/ocean/memory/30.jpg","[""ArrowDown"",""ArrowRight""]","value training","ocean","30","{""ArrowUp,ArrowLeft"":23,""ArrowUp,ArrowRight"":10,""ArrowDown,ArrowLeft"":8,""ArrowDown,ArrowRight"":30}","true","ArrowDown,ArrowRight","false","revaluation","1","22","","",""
"html-keyboard-response","140","1123049","0.0-4.0-2.0-1.11","spark_pilot_norest","11193","2","7","Female","","","","","","","null","<div style=""font-size:60px;"">+</div>","null","fixation","","","","","","","","","23","","",""
"revaluation","141","1129067","0.0-4.0-2.0-0.12","spark_pilot_norest","11193","2","7","Female","","false","","","","","[870.2999999523163,360.10000002384186]","./assets/img/ocean/memory/19.jpg","[""ArrowDown"",""ArrowRight""]","value training","ocean","30","{""ArrowUp,ArrowLeft"":23,""ArrowUp,ArrowRight"":10,""ArrowDown,ArrowLeft"":8,""ArrowDown,ArrowRight"":30}","true","ArrowDown,ArrowRight","false","revaluation","1","24","","",""
"html-keyboard-response","142","1129570","0.0-4.0-2.0-1.12","spark_pilot_norest","11193","2","7","Female","","","","","","","null","<div style=""font-size:60px;"">+</div>","null","fixation","","","","","","","","","25","","",""
"revaluation","143","1133589","0.0-4.0-2.0-0.13","spark_pilot_norest","11193","2","7","Female","","false","","","","","[929.3999999761581]","./assets/img/ocean/catch/7.jpg","[""spaceBar""]","value training","ocean","0","{""ArrowUp,ArrowLeft"":23,""ArrowUp,ArrowRight"":10,""ArrowDown,ArrowLeft"":8,""ArrowDown,ArrowRight"":30}","true","spaceBar","true","revaluation","1","26","","",""
"html-keyboard-response","144","1134096","0.0-4.0-2.0-1.13","spark_pilot_norest","11193","2","7","Female","","","","","","","null","<div style=""font-size:60px;"">+</div>","null","fixation","","","","","","","","","27","","",""
"revaluation","145","1140141","0.0-4.0-2.0-0.14","spark_pilot_norest","11193","2","7","Female","","false","","","","","[983.6000000238419,476.1999999284744]","./assets/img/ocean/memory/30.jpg","[""ArrowDown"",""ArrowRight""]","value training","ocean","30","{""ArrowUp,ArrowLeft"":23,""ArrowUp,ArrowRight"":10,""ArrowDown,ArrowLeft"":8,""ArrowDown,ArrowRight"":30}","true","ArrowDown,ArrowRight","false","revaluation","1","28","","",""
"html-keyboard-response","146","1140653","0.0-4.0-2.0-1.14","spark_pilot_norest","11193","2","7","Female","","","","","","","null","<div style=""font-size:60px;"">+</div>","null","fixation","","","","","","","","","29","","",""
"revaluation","147","1146680","0.0-4.0-2.0-0.15","spark_pilot_norest","11193","2","7","Female","","false","","","","","[765,805.6000000238419]","./assets/img/ocean/memory/10.jpg","[""ArrowDown"",""ArrowRight""]","value training","ocean","30","{""ArrowUp,ArrowLeft"":23,""ArrowUp,ArrowRight"":10,""ArrowDown,ArrowLeft"":8,""ArrowDown,ArrowRight"":30}","true","ArrowDown,ArrowRight","false","revaluation","1","30","","",""
"html-keyboard-response","148","1147183","0.0-4.0-2.0-1.15","spark_pilot_norest","11193","2","7","Female","","","","","","","null","<div style=""font-size:60px;"">+</div>","null","fixation","","","","","","","","","31","","",""
"revaluation","149","1153231","0.0-4.0-2.0-0.16","spark_pilot_norest","11193","2","7","Female","","false","","","","","[997.6999999284744,1149]","./assets/img/ocean/memory/15.jpg","[""ArrowDown"",""ArrowRight""]","value training","ocean","30","{""ArrowUp,ArrowLeft"":23,""ArrowUp,ArrowRight"":10,""ArrowDown,ArrowLeft"":8,""ArrowDown,ArrowRight"":30}","true","ArrowDown,ArrowRight","false","revaluation","1","32","","",""
"html-keyboard-response","150","1153746","0.0-4.0-2.0-1.16","spark_pilot_norest","11193","2","7","Female","","","","","","","null","<div style=""font-size:60px;"">+</div>","null","fixation","","","","","","","","","33","","",""
"revaluation","151","1159764","0.0-4.0-2.0-0.17","spark_pilot_norest","11193","2","7","Female","","false","","","","","[973.9000000953674,518.3999999761581]","./assets/img/ocean/memory/4.jpg","[""ArrowDown"",""ArrowRight""]","value training","ocean","30","{""ArrowUp,ArrowLeft"":23,""ArrowUp,ArrowRight"":10,""ArrowDown,ArrowLeft"":8,""ArrowDown,ArrowRight"":30}","true","ArrowDown,ArrowRight","false","revaluation","1","34","","",""
"html-keyboard-response","152","1160269","0.0-4.0-2.0-1.17","spark_pilot_norest","11193","2","7","Female","","","","","","","null","<div style=""font-size:60px;"">+</div>","null","fixation","","","","","","","","","35","","",""
"revaluation","153","1166300","0.0-4.0-2.0-0.18","spark_pilot_norest","11193","2","7","Female","","false","","","","","[959.8999999761581,356.8000000715256]","./assets/img/ocean/memory/37.jpg","[""ArrowDown"",""ArrowRight""]","value training","ocean","30","{""ArrowUp,ArrowLeft"":23,""ArrowUp,ArrowRight"":10,""ArrowDown,ArrowLeft"":8,""ArrowDown,ArrowRight"":30}","true","ArrowDown,ArrowRight","false","revaluation","1","36","","",""
"html-keyboard-response","154","1166809","0.0-4.0-2.0-1.18","spark_pilot_norest","11193","2","7","Female","","","","","","","null","<div style=""font-size:60px;"">+</div>","null","fixation","","","","","","","","","37","","",""
"revaluation","155","1172842","0.0-4.0-2.0-0.19","spark_pilot_norest","11193","2","7","Female","","false","","","","","[418.1999999284744,626.2999999523163]","./assets/img/ocean/memory/29.jpg","[""ArrowUp"",""ArrowRight""]","value training","ocean","10","{""ArrowUp,ArrowLeft"":23,""ArrowUp,ArrowRight"":10,""ArrowDown,ArrowLeft"":8,""ArrowDown,ArrowRight"":30}","false","ArrowUp,ArrowRight","false","revaluation","1","38","","",""
"html-keyboard-response","156","1173357","0.0-4.0-2.0-1.19","spark_pilot_norest","11193","2","7","Female","","","","","","","null","<div style=""font-size:60px;"">+</div>","null","fixation","","","","","","","","","39","","",""
"revaluation","157","1179370","0.0-4.0-2.0-0.20","spark_pilot_norest","11193","2","7","Female","","false","","","","","[865,376.39999997615814]","./assets/img/ocean/memory/38.jpg","[""ArrowDown"",""ArrowRight""]","value training","ocean","30","{""ArrowUp,ArrowLeft"":23,""ArrowUp,ArrowRight"":10,""ArrowDown,ArrowLeft"":8,""ArrowDown,ArrowRight"":30}","true","ArrowDown,ArrowRight","false","revaluation","1","40","","",""
"html-keyboard-response","158","1179881","0.0-4.0-2.0-1.20","spark_pilot_norest","11193","2","7","Female","","","","","","","null","<div style=""font-size:60px;"">+</div>","null","fixation","","","","","","","","","41","","",""
"revaluation","159","1185908","0.0-4.0-2.0-0.21","spark_pilot_norest","11193","2","7","Female","","false","","","","","[707.8999999761581,458.60000002384186]","./assets/img/ocean/memory/13.jpg","[""ArrowDown"",""ArrowRight""]","value training","ocean","30","{""ArrowUp,ArrowLeft"":23,""ArrowUp,ArrowRight"":10,""ArrowDown,ArrowLeft"":8,""ArrowDown,ArrowRight"":30}","true","ArrowDown,ArrowRight","false","revaluation","1","42","","",""
"html-keyboard-response","160","1186429","0.0-4.0-2.0-1.21","spark_pilot_norest","11193","2","7","Female","","","","","","","null","<div style=""font-size:60px;"">+</div>","null","fixation","","","","","","","","","43","","",""
"revaluation","161","1192449","0.0-4.0-2.0-0.22","spark_pilot_norest","11193","2","7","Female","","false","","","","","[604.2999999523163,396.39999997615814]","./assets/img/ocean/memory/36.jpg","[""ArrowDown"",""ArrowRight""]","value training","ocean","30","{""ArrowUp,ArrowLeft"":23,""ArrowUp,ArrowRight"":10,""ArrowDown,ArrowLeft"":8,""ArrowDown,ArrowRight"":30}","true","ArrowDown,ArrowRight","false","revaluation","1","44","","",""
"html-keyboard-response","162","1192955","0.0-4.0-2.0-1.22","spark_pilot_norest","11193","2","7","Female","","","","","","","null","<div style=""font-size:60px;"">+</div>","null","fixation","","","","","","","","","45","","",""
"revaluation","163","1198971","0.0-4.0-2.0-0.23","spark_pilot_norest","11193","2","7","Female","","false","","","","","[792.8999999761581,401.7000000476837]","./assets/img/ocean/memory/27.jpg","[""ArrowDown"",""ArrowRight""]","value training","ocean","30","{""ArrowUp,ArrowLeft"":23,""ArrowUp,ArrowRight"":10,""ArrowDown,ArrowLeft"":8,""ArrowDown,ArrowRight"":30}","true","ArrowDown,ArrowRight","false","revaluation","1","46","","",""
"html-keyboard-response","164","1199481","0.0-4.0-2.0-1.23","spark_pilot_norest","11193","2","7","Female","","","","","","","null","<div style=""font-size:60px;"">+</div>","null","fixation","","","","","","","","","47","","",""
"revaluation","165","1205507","0.0-4.0-2.0-0.24","spark_pilot_norest","11193","2","7","Female","","false","","","","","[342.39999997615814,524.8999999761581]","./assets/img/ocean/memory/39.jpg","[""ArrowDown"",""ArrowRight""]","value training","ocean","30","{""ArrowUp,ArrowLeft"":23,""ArrowUp,ArrowRight"":10,""ArrowDown,ArrowLeft"":8,""ArrowDown,ArrowRight"":30}","true","ArrowDown,ArrowRight","false","revaluation","1","48","","",""
"html-keyboard-response","166","1206017","0.0-4.0-2.0-1.24","spark_pilot_norest","11193","2","7","Female","","","","","","","null","<div style=""font-size:60px;"">+</div>","null","fixation","","","","","","","","","49","","",""
"revaluation","167","1212036","0.0-4.0-2.0-0.25","spark_pilot_norest","11193","2","7","Female","","false","","","","","[727.2000000476837,806.6999999284744]","./assets/img/ocean/memory/19.jpg","[""ArrowDown"",""ArrowRight""]","value training","ocean","30","{""ArrowUp,ArrowLeft"":23,""ArrowUp,ArrowRight"":10,""ArrowDown,ArrowLeft"":8,""ArrowDown,ArrowRight"":30}","true","ArrowDown,ArrowRight","false","revaluation","1","50","","",""
"html-keyboard-response","168","1212541","0.0-4.0-2.0-1.25","spark_pilot_norest","11193","2","7","Female","","","","","","","null","<div style=""font-size:60px;"">+</div>","null","fixation","","","","","","","","","51","","",""
"revaluation","169","1218570","0.0-4.0-2.0-0.26","spark_pilot_norest","11193","2","7","Female","","false","","","","","[881,354]","./assets/img/ocean/memory/13.jpg","[""ArrowDown"",""ArrowRight""]","value training","ocean","30","{""ArrowUp,ArrowLeft"":23,""ArrowUp,ArrowRight"":10,""ArrowDown,ArrowLeft"":8,""ArrowDown,ArrowRight"":30}","true","ArrowDown,ArrowRight","false","revaluation","1","52","","",""
"html-keyboard-response","170","1219073","0.0-4.0-2.0-1.26","spark_pilot_norest","11193","2","7","Female","","","","","","","null","<div style=""font-size:60px;"">+</div>","null","fixation","","","","","","","","","53","","",""
"revaluation","171","1225129","0.0-4.0-2.0-0.27","spark_pilot_norest","11193","2","7","Female","","false","","","","","[826.1000000238419,463.3000000715256]","./assets/img/ocean/memory/26.jpg","[""ArrowDown"",""ArrowRight""]","value training","ocean","30","{""ArrowUp,ArrowLeft"":23,""ArrowUp,ArrowRight"":10,""ArrowDown,ArrowLeft"":8,""ArrowDown,ArrowRight"":30}","true","ArrowDown,ArrowRight","false","revaluation","1","54","","",""
"html-keyboard-response","172","1225635","0.0-4.0-2.0-1.27","spark_pilot_norest","11193","2","7","Female","","","","","","","null","<div style=""font-size:60px;"">+</div>","null","fixation","","","","","","","","","55","","",""
"revaluation","173","1231665","0.0-4.0-2.0-0.28","spark_pilot_norest","11193","2","7","Female","","false","","","","","[767.5,361.60000002384186]","./assets/img/ocean/memory/18.jpg","[""ArrowDown"",""ArrowRight""]","value training","ocean","30","{""ArrowUp,ArrowLeft"":23,""ArrowUp,ArrowRight"":10,""ArrowDown,ArrowLeft"":8,""ArrowDown,ArrowRight"":30}","true","ArrowDown,ArrowRight","false","revaluation","1","56","","",""
"html-keyboard-response","174","1232177","0.0-4.0-2.0-1.28","spark_pilot_norest","11193","2","7","Female","","","","","","","null","<div style=""font-size:60px;"">+</div>","null","fixation","","","","","","","","","57","","",""
"revaluation","175","1238210","0.0-4.0-2.0-0.29","spark_pilot_norest","11193","2","7","Female","","false","","","","","[721.2000000476837,325.8000000715256]","./assets/img/ocean/memory/36.jpg","[""ArrowDown"",""ArrowRight""]","value training","ocean","30","{""ArrowUp,ArrowLeft"":23,""ArrowUp,ArrowRight"":10,""ArrowDown,ArrowLeft"":8,""ArrowDown,ArrowRight"":30}","true","ArrowDown,ArrowRight","false","revaluation","1","58","","",""
"html-keyboard-response","176","1238718","0.0-4.0-2.0-1.29","spark_pilot_norest","11193","2","7","Female","","","","","","","null","<div style=""font-size:60px;"">+</div>","null","fixation","","","","","","","","","59","","",""
"revaluation","177","1242740","0.0-4.0-2.0-0.30","spark_pilot_norest","11193","2","7","Female","","false","","","","","[477.7000000476837]","./assets/img/ocean/catch/0.jpg","[""spaceBar""]","value training","ocean","0","{""ArrowUp,ArrowLeft"":23,""ArrowUp,ArrowRight"":10,""ArrowDown,ArrowLeft"":8,""ArrowDown,ArrowRight"":30}","true","spaceBar","true","revaluation","1","60","","",""
"html-keyboard-response","178","1243256","0.0-4.0-2.0-1.30","spark_pilot_norest","11193","2","7","Female","","","","","","","null","<div style=""font-size:60px;"">+</div>","null","fixation","","","","","","","","","61","","",""
"revaluation","179","1249287","0.0-4.0-2.0-0.31","spark_pilot_norest","11193","2","7","Female","","false","","","","","[569.1000000238419,405.2000000476837]","./assets/img/ocean/memory/1.jpg","[""ArrowDown"",""ArrowRight""]","value training","ocean","30","{""ArrowUp,ArrowLeft"":23,""ArrowUp,ArrowRight"":10,""ArrowDown,ArrowLeft"":8,""ArrowDown,ArrowRight"":30}","true","ArrowDown,ArrowRight","false","revaluation","1","62","","",""
"html-keyboard-response","180","1249804","0.0-4.0-2.0-1.31","spark_pilot_norest","11193","2","7","Female","","","","","","","null","<div style=""font-size:60px;"">+</div>","null","fixation","","","","","","","","","63","","",""
"revaluation","181","1255823","0.0-4.0-2.0-0.32","spark_pilot_norest","11193","2","7","Female","","false","","","","","[666.6000000238419,288]","./assets/img/ocean/memory/34.jpg","[""ArrowDown"",""ArrowRight""]","value training","ocean","30","{""ArrowUp,ArrowLeft"":23,""ArrowUp,ArrowRight"":10,""ArrowDown,ArrowLeft"":8,""ArrowDown,ArrowRight"":30}","true","ArrowDown,ArrowRight","false","revaluation","1","64","","",""
"html-keyboard-response","182","1256332","0.0-4.0-2.0-1.32","spark_pilot_norest","11193","2","7","Female","","","","","","","null","<div style=""font-size:60px;"">+</div>","null","fixation","","","","","","","","","65","","",""
"revaluation","183","1262350","0.0-4.0-2.0-0.33","spark_pilot_norest","11193","2","7","Female","","false","","","","","[648.2000000476837,373.2999999523163]","./assets/img/ocean/memory/1.jpg","[""ArrowDown"",""ArrowRight""]","value training","ocean","30","{""ArrowUp,ArrowLeft"":23,""ArrowUp,ArrowRight"":10,""ArrowDown,ArrowLeft"":8,""ArrowDown,ArrowRight"":30}","true","ArrowDown,ArrowRight","false","revaluation","1","66","","",""
"html-keyboard-response","184","1262858","0.0-4.0-2.0-1.33","spark_pilot_norest","11193","2","7","Female","","","","","","","null","<div style=""font-size:60px;"">+</div>","null","fixation","","","","","","","","","67","","",""
"revaluation","185","1268891","0.0-4.0-2.0-0.34","spark_pilot_norest","11193","2","7","Female","","false","","","","","[654.2000000476837,535.3999999761581]","./assets/img/ocean/memory/29.jpg","[""ArrowDown"",""ArrowRight""]","value training","ocean","30","{""ArrowUp,ArrowLeft"":23,""ArrowUp,ArrowRight"":10,""ArrowDown,ArrowLeft"":8,""ArrowDown,ArrowRight"":30}","true","ArrowDown,ArrowRight","false","revaluation","1","68","","",""
"html-keyboard-response","186","1269396","0.0-4.0-2.0-1.34","spark_pilot_norest","11193","2","7","Female","","","","","","","null","<div style=""font-size:60px;"">+</div>","null","fixation","","","","","","","","","69","","",""
"revaluation","187","1275431","0.0-4.0-2.0-0.35","spark_pilot_norest","11193","2","7","Female","","false","","","","","[1679.8999999761581,835.6000000238419]","./assets/img/ocean/memory/18.jpg","[""ArrowDown"",""ArrowRight""]","value training","ocean","30","{""ArrowUp,ArrowLeft"":23,""ArrowUp,ArrowRight"":10,""ArrowDown,ArrowLeft"":8,""ArrowDown,ArrowRight"":30}","true","ArrowDown,ArrowRight","false","revaluation","1","70","","",""
"html-keyboard-response","188","1275941","0.0-4.0-2.0-1.35","spark_pilot_norest","11193","2","7","Female","","","","","","","null","<div style=""font-size:60px;"">+</div>","null","fixation","","","","","","","","","71","","",""
"revaluation","189","1281970","0.0-4.0-2.0-0.36","spark_pilot_norest","11193","2","7","Female","","false","","","","","[1355,560.7000000476837]","./assets/img/ocean/memory/20.jpg","[""ArrowDown"",""ArrowRight""]","value training","ocean","30","{""ArrowUp,ArrowLeft"":23,""ArrowUp,ArrowRight"":10,""ArrowDown,ArrowLeft"":8,""ArrowDown,ArrowRight"":30}","true","ArrowDown,ArrowRight","false","revaluation","1","72","","",""
"html-keyboard-response","190","1282480","0.0-4.0-2.0-1.36","spark_pilot_norest","11193","2","7","Female","","","","","","","null","<div style=""font-size:60px;"">+</div>","null","fixation","","","","","","","","","73","","",""
"revaluation","191","1288509","0.0-4.0-2.0-0.37","spark_pilot_norest","11193","2","7","Female","","false","","","","","[625.2999999523163,308.60000002384186]","./assets/img/ocean/memory/2.jpg","[""ArrowDown"",""ArrowRight""]","value training","ocean","30","{""ArrowUp,ArrowLeft"":23,""ArrowUp,ArrowRight"":10,""ArrowDown,ArrowLeft"":8,""ArrowDown,ArrowRight"":30}","true","ArrowDown,ArrowRight","false","revaluation","1","74","","",""
"html-keyboard-response","192","1289014","0.0-4.0-2.0-1.37","spark_pilot_norest","11193","2","7","Female","","","","","","","null","<div style=""font-size:60px;"">+</div>","null","fixation","","","","","","","","","75","","",""
"revaluation","193","1293030","0.0-4.0-2.0-0.38","spark_pilot_norest","11193","2","7","Female","","false","","","","","[727.8999999761581]","./assets/img/ocean/catch/2.jpg","[""spaceBar""]","value training","ocean","0","{""ArrowUp,ArrowLeft"":23,""ArrowUp,ArrowRight"":10,""ArrowDown,ArrowLeft"":8,""ArrowDown,ArrowRight"":30}","true","spaceBar","true","revaluation","1","76","","",""
"html-keyboard-response","194","1293537","0.0-4.0-2.0-1.38","spark_pilot_norest","11193","2","7","Female","","","","","","","null","<div style=""font-size:60px;"">+</div>","null","fixation","","","","","","","","","77","","",""
"revaluation","195","1299557","0.0-4.0-2.0-0.39","spark_pilot_norest","11193","2","7","Female","","false","","","","","[624.1000000238419,411.10000002384186]","./assets/img/ocean/memory/26.jpg","[""ArrowDown"",""ArrowRight""]","value training","ocean","30","{""ArrowUp,ArrowLeft"":23,""ArrowUp,ArrowRight"":10,""ArrowDown,ArrowLeft"":8,""ArrowDown,ArrowRight"":30}","true","ArrowDown,ArrowRight","false","revaluation","1","78","","",""
"html-keyboard-response","196","1300065","0.0-4.0-2.0-1.39","spark_pilot_norest","11193","2","7","Female","","","","","","","null","<div style=""font-size:60px;"">+</div>","null","fixation","","","","","","","","","79","","",""
"revaluation","197","1306093","0.0-4.0-2.0-0.40","spark_pilot_norest","11193","2","7","Female","","false","","","","","[665,288.60000002384186]","./assets/img/ocean/memory/39.jpg","[""ArrowDown"",""ArrowRight""]","value training","ocean","30","{""ArrowUp,ArrowLeft"":23,""ArrowUp,ArrowRight"":10,""ArrowDown,ArrowLeft"":8,""ArrowDown,ArrowRight"":30}","true","ArrowDown,ArrowRight","false","revaluation","1","80","","",""
"html-keyboard-response","198","1306609","0.0-4.0-2.0-1.40","spark_pilot_norest","11193","2","7","Female","","","","","","","null","<div style=""font-size:60px;"">+</div>","null","fixation","","","","","","","","","81","","",""
"revaluation","199","1312631","0.0-4.0-2.0-0.41","spark_pilot_norest","11193","2","7","Female","","false","","","","","[864,407.3000000715256]","./assets/img/ocean/memory/38.jpg","[""ArrowDown"",""ArrowRight""]","value training","ocean","30","{""ArrowUp,ArrowLeft"":23,""ArrowUp,ArrowRight"":10,""ArrowDown,ArrowLeft"":8,""ArrowDown,ArrowRight"":30}","true","ArrowDown,ArrowRight","false","revaluation","1","82","","",""
"html-keyboard-response","200","1313142","0.0-4.0-2.0-1.41","spark_pilot_norest","11193","2","7","Female","","","","","","","null","<div style=""font-size:60px;"">+</div>","null","fixation","","","","","","","","","83","","",""
"revaluation","201","1317165","0.0-4.0-2.0-0.42","spark_pilot_norest","11193","2","7","Female","","false","","","","","[754.1000000238419]","./assets/img/ocean/catch/3.jpg","[""spaceBar""]","value training","ocean","0","{""ArrowUp,ArrowLeft"":23,""ArrowUp,ArrowRight"":10,""ArrowDown,ArrowLeft"":8,""ArrowDown,ArrowRight"":30}","true","spaceBar","true","revaluation","1","84","","",""
"html-keyboard-response","202","1317675","0.0-4.0-2.0-1.42","spark_pilot_norest","11193","2","7","Female","","","","","","","null","<div style=""font-size:60px;"">+</div>","null","fixation","","","","","","","","","85","","",""
"revaluation","203","1323703","0.0-4.0-2.0-0.43","spark_pilot_norest","11193","2","7","Female","","false","","","","","[1080.7000000476837,345.7999999523163]","./assets/img/ocean/memory/0.jpg","[""ArrowDown"",""ArrowRight""]","value training","ocean","30","{""ArrowUp,ArrowLeft"":23,""ArrowUp,ArrowRight"":10,""ArrowDown,ArrowLeft"":8,""ArrowDown,ArrowRight"":30}","true","ArrowDown,ArrowRight","false","revaluation","1","86","","",""
"html-keyboard-response","204","1324208","0.0-4.0-2.0-1.43","spark_pilot_norest","11193","2","7","Female","","","","","","","null","<div style=""font-size:60px;"">+</div>","null","fixation","","","","","","","","","87","","",""
"revaluation","205","1330236","0.0-4.0-2.0-0.44","spark_pilot_norest","11193","2","7","Female","","false","","","","","[728.7000000476837,339]","./assets/img/ocean/memory/34.jpg","[""ArrowDown"",""ArrowRight""]","value training","ocean","30","{""ArrowUp,ArrowLeft"":23,""ArrowUp,ArrowRight"":10,""ArrowDown,ArrowLeft"":8,""ArrowDown,ArrowRight"":30}","true","ArrowDown,ArrowRight","false","revaluation","1","88","","",""
"html-keyboard-response","206","1330744","0.0-4.0-2.0-1.44","spark_pilot_norest","11193","2","7","Female","","","","","","","null","<div style=""font-size:60px;"">+</div>","null","fixation","","","","","","","","","89","","",""
"revaluation","207","1336769","0.0-4.0-2.0-0.45","spark_pilot_norest","11193","2","7","Female","","false","","","","","[603.8999999761581,286.5]","./assets/img/ocean/memory/37.jpg","[""ArrowDown"",""ArrowRight""]","value training","ocean","30","{""ArrowUp,ArrowLeft"":23,""ArrowUp,ArrowRight"":10,""ArrowDown,ArrowLeft"":8,""ArrowDown,ArrowRight"":30}","true","ArrowDown,ArrowRight","false","revaluation","1","90","","",""
"html-keyboard-response","208","1337279","0.0-4.0-2.0-1.45","spark_pilot_norest","11193","2","7","Female","","","","","","","null","<div style=""font-size:60px;"">+</div>","null","fixation","","","","","","","","","91","","",""
"revaluation","209","1343303","0.0-4.0-2.0-0.46","spark_pilot_norest","11193","2","7","Female","","false","","","","","[485.7999999523163,486.5]","./assets/img/ocean/memory/5.jpg","[""ArrowDown"",""ArrowRight""]","value training","ocean","30","{""ArrowUp,ArrowLeft"":23,""ArrowUp,ArrowRight"":10,""ArrowDown,ArrowLeft"":8,""ArrowDown,ArrowRight"":30}","true","ArrowDown,ArrowRight","false","revaluation","1","92","","",""
"html-keyboard-response","210","1343820","0.0-4.0-2.0-1.46","spark_pilot_norest","11193","2","7","Female","","","","","","","null","<div style=""font-size:60px;"">+</div>","null","fixation","","","","","","","","","93","","",""
"revaluation","211","1347841","0.0-4.0-2.0-0.47","spark_pilot_norest","11193","2","7","Female","","false","","","","","[843.3999999761581]","./assets/img/ocean/catch/4.jpg","[""spaceBar""]","value training","ocean","0","{""ArrowUp,ArrowLeft"":23,""ArrowUp,ArrowRight"":10,""ArrowDown,ArrowLeft"":8,""ArrowDown,ArrowRight"":30}","true","spaceBar","true","revaluation","1","94","","",""
"html-keyboard-response","212","1348348","0.0-4.0-2.0-1.47","spark_pilot_norest","11193","2","7","Female","","","","","","","null","<div style=""font-size:60px;"">+</div>","null","fixation","","","","","","","","","95","","",""
"revaluation","213","1354364","0.0-4.0-2.0-0.48","spark_pilot_norest","11193","2","7","Female","","false","","","","","[944.2999999523163,313.39999997615814]","./assets/img/ocean/memory/20.jpg","[""ArrowDown"",""ArrowRight""]","value training","ocean","30","{""ArrowUp,ArrowLeft"":23,""ArrowUp,ArrowRight"":10,""ArrowDown,ArrowLeft"":8,""ArrowDown,ArrowRight"":30}","true","ArrowDown,ArrowRight","false","revaluation","1","96","","",""
"html-keyboard-response","214","1354875","0.0-4.0-2.0-1.48","spark_pilot_norest","11193","2","7","Female","","","","","","","null","<div style=""font-size:60px;"">+</div>","null","fixation","","","","","","","","","97","","",""
"revaluation","215","1360905","0.0-4.0-2.0-0.49","spark_pilot_norest","11193","2","7","Female","","false","","","","","[601.5,435.10000002384186]","./assets/img/ocean/memory/2.jpg","[""ArrowDown"",""ArrowRight""]","value training","ocean","30","{""ArrowUp,ArrowLeft"":23,""ArrowUp,ArrowRight"":10,""ArrowDown,ArrowLeft"":8,""ArrowDown,ArrowRight"":30}","true","ArrowDown,ArrowRight","false","revaluation","1","98","","",""
"html-keyboard-response","216","1361412","0.0-4.0-2.0-1.49","spark_pilot_norest","11193","2","7","Female","","","","","","","null","<div style=""font-size:60px;"">+</div>","null","fixation","","","","","","","","","99","","",""
"learning-instructions","217","1376384","0.0-4.0-3.0-0.0","spark_pilot_norest","11193","2","7","Female","","","","","","","1622.7000000476837","<p> Now, you will travel with a friend who will choose whether you go up or down first. </p>
            <p> On these turns, you will just see the animal that they found. You will still get to choose which chest to search for treasure.</p>","","instructions","","","","","","","","","","","",""
"revaluation","218","1380405","0.0-4.0-4.0-0.0","spark_pilot_norest","11193","2","7","Female","","false","","","","","[586.5]","./assets/img/ocean/animals/seahorse.jpg","[""ArrowRight""]","revaluation","ocean","7","{""ArrowUp,ArrowLeft"":27,""ArrowUp,ArrowRight"":15,""ArrowDown,ArrowLeft"":21,""ArrowDown,ArrowRight"":7}","false","ArrowDown,ArrowRight","","revaluation","1","0","","",""
"html-keyboard-response","219","1380930","0.0-4.0-4.0-1.0","spark_pilot_norest","11193","2","7","Female","","","","","","","null","<div style=""font-size:60px;"">+</div>","null","fixation","","","","","","","","","1","","",""
"revaluation","220","1384952","0.0-4.0-4.0-0.1","spark_pilot_norest","11193","2","7","Female","","false","","","","","[1587.8999999761581]","./assets/img/ocean/animals/octopus.jpg","[""ArrowRight""]","revaluation","ocean","15","{""ArrowUp,ArrowLeft"":27,""ArrowUp,ArrowRight"":15,""ArrowDown,ArrowLeft"":21,""ArrowDown,ArrowRight"":7}","false","ArrowUp,ArrowRight","","revaluation","1","2","","",""
"html-keyboard-response","221","1385470","0.0-4.0-4.0-1.1","spark_pilot_norest","11193","2","7","Female","","","","","","","null","<div style=""font-size:60px;"">+</div>","null","fixation","","","","","","","","","3","","",""
"revaluation","222","1389503","0.0-4.0-4.0-0.2","spark_pilot_norest","11193","2","7","Female","","false","","","","","[833.1000000238419]","./assets/img/ocean/animals/seahorse.jpg","[""ArrowLeft""]","revaluation","ocean","21","{""ArrowUp,ArrowLeft"":27,""ArrowUp,ArrowRight"":15,""ArrowDown,ArrowLeft"":21,""ArrowDown,ArrowRight"":7}","true","ArrowDown,ArrowLeft","","revaluation","1","4","","",""
"html-keyboard-response","223","1390018","0.0-4.0-4.0-1.2","spark_pilot_norest","11193","2","7","Female","","","","","","","null","<div style=""font-size:60px;"">+</div>","null","fixation","","","","","","","","","5","","",""
"revaluation","224","1394041","0.0-4.0-4.0-0.3","spark_pilot_norest","11193","2","7","Female","","false","","","","","[594.2999999523163]","./assets/img/ocean/animals/octopus.jpg","[""ArrowLeft""]","revaluation","ocean","27","{""ArrowUp,ArrowLeft"":27,""ArrowUp,ArrowRight"":15,""ArrowDown,ArrowLeft"":21,""ArrowDown,ArrowRight"":7}","true","ArrowUp,ArrowLeft","","revaluation","1","6","","",""
"html-keyboard-response","225","1394547","0.0-4.0-4.0-1.3","spark_pilot_norest","11193","2","7","Female","","","","","","","null","<div style=""font-size:60px;"">+</div>","null","fixation","","","","","","","","","7","","",""
"revaluation","226","1398580","0.0-4.0-4.0-0.4","spark_pilot_norest","11193","2","7","Female","","false","","","","","[843.6000000238419]","./assets/img/ocean/animals/octopus.jpg","[""ArrowLeft""]","revaluation","ocean","27","{""ArrowUp,ArrowLeft"":27,""ArrowUp,ArrowRight"":15,""ArrowDown,ArrowLeft"":21,""ArrowDown,ArrowRight"":7}","true","ArrowUp,ArrowLeft","","revaluation","1","8","","",""
"html-keyboard-response","227","1399091","0.0-4.0-4.0-1.4","spark_pilot_norest","11193","2","7","Female","","","","","","","null","<div style=""font-size:60px;"">+</div>","null","fixation","","","","","","","","","9","","",""
"revaluation","228","1403118","0.0-4.0-4.0-0.5","spark_pilot_norest","11193","2","7","Female","","false","","","","","[856.1000000238419]","./assets/img/ocean/animals/seahorse.jpg","[""ArrowLeft""]","revaluation","ocean","21","{""ArrowUp,ArrowLeft"":27,""ArrowUp,ArrowRight"":15,""ArrowDown,ArrowLeft"":21,""ArrowDown,ArrowRight"":7}","true","ArrowDown,ArrowLeft","","revaluation","1","10","","",""
"html-keyboard-response","229","1403624","0.0-4.0-4.0-1.5","spark_pilot_norest","11193","2","7","Female","","","","","","","null","<div style=""font-size:60px;"">+</div>","null","fixation","","","","","","","","","11","","",""
"revaluation","230","1407643","0.0-4.0-4.0-0.6","spark_pilot_norest","11193","2","7","Female","","false","","","","","[860.5]","./assets/img/ocean/animals/seahorse.jpg","[""ArrowLeft""]","revaluation","ocean","21","{""ArrowUp,ArrowLeft"":27,""ArrowUp,ArrowRight"":15,""ArrowDown,ArrowLeft"":21,""ArrowDown,ArrowRight"":7}","true","ArrowDown,ArrowLeft","","revaluation","1","12","","",""
"html-keyboard-response","231","1408154","0.0-4.0-4.0-1.6","spark_pilot_norest","11193","2","7","Female","","","","","","","null","<div style=""font-size:60px;"">+</div>","null","fixation","","","","","","","","","13","","",""
"revaluation","232","1412180","0.0-4.0-4.0-0.7","spark_pilot_norest","11193","2","7","Female","","false","","","","","[483.2999999523163]","./assets/img/ocean/animals/octopus.jpg","[""ArrowLeft""]","revaluation","ocean","27","{""ArrowUp,ArrowLeft"":27,""ArrowUp,ArrowRight"":15,""ArrowDown,ArrowLeft"":21,""ArrowDown,ArrowRight"":7}","true","ArrowUp,ArrowLeft","","revaluation","1","14","","",""
"html-keyboard-response","233","1412687","0.0-4.0-4.0-1.7","spark_pilot_norest","11193","2","7","Female","","","","","","","null","<div style=""font-size:60px;"">+</div>","null","fixation","","","","","","","","","15","","",""
"revaluation","234","1416701","0.0-4.0-4.0-0.8","spark_pilot_norest","11193","2","7","Female","","false","","","","","[793.6000000238419]","./assets/img/ocean/animals/seahorse.jpg","[""ArrowLeft""]","revaluation","ocean","21","{""ArrowUp,ArrowLeft"":27,""ArrowUp,ArrowRight"":15,""ArrowDown,ArrowLeft"":21,""ArrowDown,ArrowRight"":7}","true","ArrowDown,ArrowLeft","","revaluation","1","16","","",""
"html-keyboard-response","235","1417215","0.0-4.0-4.0-1.8","spark_pilot_norest","11193","2","7","Female","","","","","","","null","<div style=""font-size:60px;"">+</div>","null","fixation","","","","","","","","","17","","",""
"revaluation","236","1421248","0.0-4.0-4.0-0.9","spark_pilot_norest","11193","2","7","Female","","false","","","","","[325.5]","./assets/img/ocean/animals/seahorse.jpg","[""ArrowLeft""]","revaluation","ocean","21","{""ArrowUp,ArrowLeft"":27,""ArrowUp,ArrowRight"":15,""ArrowDown,ArrowLeft"":21,""ArrowDown,ArrowRight"":7}","true","ArrowDown,ArrowLeft","","revaluation","1","18","","",""
"html-keyboard-response","237","1421754","0.0-4.0-4.0-1.9","spark_pilot_norest","11193","2","7","Female","","","","","","","null","<div style=""font-size:60px;"">+</div>","null","fixation","","","","","","","","","19","","",""
"revaluation","238","1425766","0.0-4.0-4.0-0.10","spark_pilot_norest","11193","2","7","Female","","false","","","","","[321.6999999284744]","./assets/img/ocean/animals/octopus.jpg","[""ArrowLeft""]","revaluation","ocean","27","{""ArrowUp,ArrowLeft"":27,""ArrowUp,ArrowRight"":15,""ArrowDown,ArrowLeft"":21,""ArrowDown,ArrowRight"":7}","true","ArrowUp,ArrowLeft","","revaluation","1","20","","",""
"html-keyboard-response","239","1426272","0.0-4.0-4.0-1.10","spark_pilot_norest","11193","2","7","Female","","","","","","","null","<div style=""font-size:60px;"">+</div>","null","fixation","","","","","","","","","21","","",""
"revaluation","240","1430305","0.0-4.0-4.0-0.11","spark_pilot_norest","11193","2","7","Female","","false","","","","","[326.60000002384186]","./assets/img/ocean/animals/seahorse.jpg","[""ArrowLeft""]","revaluation","ocean","21","{""ArrowUp,ArrowLeft"":27,""ArrowUp,ArrowRight"":15,""ArrowDown,ArrowLeft"":21,""ArrowDown,ArrowRight"":7}","true","ArrowDown,ArrowLeft","","revaluation","1","22","","",""
"html-keyboard-response","241","1430814","0.0-4.0-4.0-1.11","spark_pilot_norest","11193","2","7","Female","","","","","","","null","<div style=""font-size:60px;"">+</div>","null","fixation","","","","","","","","","23","","",""
"revaluation","242","1434823","0.0-4.0-4.0-0.12","spark_pilot_norest","11193","2","7","Female","","true","","","","","[]","./assets/img/ocean/animals/octopus.jpg","[]","revaluation","ocean","-5","{""ArrowUp,ArrowLeft"":27,""ArrowUp,ArrowRight"":15,""ArrowDown,ArrowLeft"":21,""ArrowDown,ArrowRight"":7}","false","ArrowUp","","revaluation","1","24","","",""
"html-keyboard-response","243","1435341","0.0-4.0-4.0-1.12","spark_pilot_norest","11193","2","7","Female","","","","","","","null","<div style=""font-size:60px;"">+</div>","null","fixation","","","","","","","","","25","","",""
"revaluation","244","1439359","0.0-4.0-4.0-0.13","spark_pilot_norest","11193","2","7","Female","","false","","","","","[355.60000002384186]","./assets/img/ocean/animals/octopus.jpg","[""ArrowLeft""]","revaluation","ocean","27","{""ArrowUp,ArrowLeft"":27,""ArrowUp,ArrowRight"":15,""ArrowDown,ArrowLeft"":21,""ArrowDown,ArrowRight"":7}","true","ArrowUp,ArrowLeft","","revaluation","1","26","","",""
"html-keyboard-response","245","1439876","0.0-4.0-4.0-1.13","spark_pilot_norest","11193","2","7","Female","","","","","","","null","<div style=""font-size:60px;"">+</div>","null","fixation","","","","","","","","","27","","",""
"revaluation","246","1443895","0.0-4.0-4.0-0.14","spark_pilot_norest","11193","2","7","Female","","false","","","","","[309]","./assets/img/ocean/animals/octopus.jpg","[""ArrowLeft""]","revaluation","ocean","27","{""ArrowUp,ArrowLeft"":27,""ArrowUp,ArrowRight"":15,""ArrowDown,ArrowLeft"":21,""ArrowDown,ArrowRight"":7}","true","ArrowUp,ArrowLeft","","revaluation","1","28","","",""
"html-keyboard-response","247","1444405","0.0-4.0-4.0-1.14","spark_pilot_norest","11193","2","7","Female","","","","","","","null","<div style=""font-size:60px;"">+</div>","null","fixation","","","","","","","","","29","","",""
"revaluation","248","1448425","0.0-4.0-4.0-0.15","spark_pilot_norest","11193","2","7","Female","","false","","","","","[311.2000000476837]","./assets/img/ocean/animals/octopus.jpg","[""ArrowLeft""]","revaluation","ocean","27","{""ArrowUp,ArrowLeft"":27,""ArrowUp,ArrowRight"":15,""ArrowDown,ArrowLeft"":21,""ArrowDown,ArrowRight"":7}","true","ArrowUp,ArrowLeft","","revaluation","1","30","","",""
"html-keyboard-response","249","1448933","0.0-4.0-4.0-1.15","spark_pilot_norest","11193","2","7","Female","","","","","","","null","<div style=""font-size:60px;"">+</div>","null","fixation","","","","","","","","","31","","",""
"revaluation","250","1452947","0.0-4.0-4.0-0.16","spark_pilot_norest","11193","2","7","Female","","false","","","","","[345.2000000476837]","./assets/img/ocean/animals/seahorse.jpg","[""ArrowLeft""]","revaluation","ocean","21","{""ArrowUp,ArrowLeft"":27,""ArrowUp,ArrowRight"":15,""ArrowDown,ArrowLeft"":21,""ArrowDown,ArrowRight"":7}","true","ArrowDown,ArrowLeft","","revaluation","1","32","","",""
"html-keyboard-response","251","1453455","0.0-4.0-4.0-1.16","spark_pilot_norest","11193","2","7","Female","","","","","","","null","<div style=""font-size:60px;"">+</div>","null","fixation","","","","","","","","","33","","",""
"revaluation","252","1457482","0.0-4.0-4.0-0.17","spark_pilot_norest","11193","2","7","Female","","false","","","","","[310.8000000715256]","./assets/img/ocean/animals/seahorse.jpg","[""ArrowLeft""]","revaluation","ocean","21","{""ArrowUp,ArrowLeft"":27,""ArrowUp,ArrowRight"":15,""ArrowDown,ArrowLeft"":21,""ArrowDown,ArrowRight"":7}","true","ArrowDown,ArrowLeft","","revaluation","1","34","","",""
"html-keyboard-response","253","1457993","0.0-4.0-4.0-1.17","spark_pilot_norest","11193","2","7","Female","","","","","","","null","<div style=""font-size:60px;"">+</div>","null","fixation","","","","","","","","","35","","",""
"learning-instructions","254","1466576","0.0-4.0-5.0-0.0","spark_pilot_norest","11193","2","7","Female","","","","","","","null","<p> You have almost finished this part of the game! </p>
            <p> We are going to ask you to make a few more choices. </p>","","instructions","","","","","","","","","","","",""
"learning-instructions","255","1482566","0.0-4.0-5.0-0.1","spark_pilot_norest","11193","2","7","Female","","","","","","","null","<p> First, you need to decide whether to go up or down. When you see each picture, use the arrow keys to make your choice. </p>
            <p><b>You will not see which animal you found, but try to get to the one that will give you the most treasure.</b></p>","","instructions","","","","","","","","","","","",""
"html-keyboard-response","256","1483584","0.0-4.0-6.0-0.0","spark_pilot_norest","11193","2","7","Female","","","","","","","null","<div style=""font-size:100px;color:red;"">Starting in...</div>","null","","","","","","","","","","","","",""
"html-keyboard-response","257","1484598","0.0-4.0-6.0-1.0","spark_pilot_norest","11193","2","7","Female","","","","","","","null","<div style=""font-size:200px;color:red;"">3</div>","null","","","","","","","","","","","","",""
"html-keyboard-response","258","1485606","0.0-4.0-6.0-2.0","spark_pilot_norest","11193","2","7","Female","","","","","","","null","<div style=""font-size:200px;color:red;"">2</div>","null","","","","","","","","","","","","",""
"html-keyboard-response","259","1486619","0.0-4.0-6.0-3.0","spark_pilot_norest","11193","2","7","Female","","","","","","","null","<div style=""font-size:200px;color:red;"">1</div>","null","","","","","","","","","","","","",""
"revaluation","260","1487219","0.0-4.0-7.0-0.0","spark_pilot_norest","11193","2","7","Female","","false","","","","","[592.6000000238419]","./assets/img/ocean/test/0.jpg","[""ArrowUp""]","first stage test","ocean","0","{""ArrowUp,ArrowLeft"":27,""ArrowUp,ArrowRight"":15,""ArrowDown,ArrowLeft"":21,""ArrowDown,ArrowRight"":7}","true","ArrowUp","false","revaluation","1","","","",""
"html-keyboard-response","261","1487722","0.0-4.0-7.0-1.0","spark_pilot_norest","11193","2","7","Female","","","","","","","null","<div style=""font-size:60px;"">+</div>","null","fixation","","","","","","","","","","","",""
"revaluation","262","1489057","0.0-4.0-7.0-0.1","spark_pilot_norest","11193","2","7","Female","","false","","","","","[1327.9000000953674]","./assets/img/ocean/test/2.jpg","[""ArrowUp""]","first stage test","ocean","0","{""ArrowUp,ArrowLeft"":27,""ArrowUp,ArrowRight"":15,""ArrowDown,ArrowLeft"":21,""ArrowDown,ArrowRight"":7}","true","ArrowUp","false","revaluation","1","","","",""
"html-keyboard-response","263","1489560","0.0-4.0-7.0-1.1","spark_pilot_norest","11193","2","7","Female","","","","","","","null","<div style=""font-size:60px;"">+</div>","null","fixation","","","","","","","","","","","",""
"revaluation","264","1492181","0.0-4.0-7.0-0.2","spark_pilot_norest","11193","2","7","Female","","false","","","","","[2613.2999999523163]","./assets/img/ocean/test/3.jpg","[""ArrowDown""]","first stage test","ocean","0","{""ArrowUp,ArrowLeft"":27,""ArrowUp,ArrowRight"":15,""ArrowDown,ArrowLeft"":21,""ArrowDown,ArrowRight"":7}","false","ArrowDown","false","revaluation","1","","","",""
"html-keyboard-response","265","1492705","0.0-4.0-7.0-1.2","spark_pilot_norest","11193","2","7","Female","","","","","","","null","<div style=""font-size:60px;"">+</div>","null","fixation","","","","","","","","","","","",""
"revaluation","266","1493448","0.0-4.0-7.0-0.3","spark_pilot_norest","11193","2","7","Female","","false","","","","","[736.1000000238419]","./assets/img/ocean/test/1.jpg","[""ArrowUp""]","first stage test","ocean","0","{""ArrowUp,ArrowLeft"":27,""ArrowUp,ArrowRight"":15,""ArrowDown,ArrowLeft"":21,""ArrowDown,ArrowRight"":7}","true","ArrowUp","false","revaluation","1","","","",""
"html-keyboard-response","267","1493963","0.0-4.0-7.0-1.3","spark_pilot_norest","11193","2","7","Female","","","","","","","null","<div style=""font-size:60px;"">+</div>","null","fixation","","","","","","","","","","","",""
"learning-instructions","268","1507313","0.0-4.0-8.0-0.0","spark_pilot_norest","11193","2","7","Female","","","","","","","null","<p> Now you will see the animals again and can search their chests for treasure. </p>
            <p> This time, you will not see how much treasure you earned, but you will earn more bonus money for making better choices. </p>","","instructions","","","","","","","","","","","",""
"html-keyboard-response","269","1508323","0.0-4.0-9.0-0.0","spark_pilot_norest","11193","2","7","Female","","","","","","","null","<div style=""font-size:100px;color:red;"">Starting in...</div>","null","","","","","","","","","","","","",""
"html-keyboard-response","270","1509328","0.0-4.0-9.0-1.0","spark_pilot_norest","11193","2","7","Female","","","","","","","null","<div style=""font-size:200px;color:red;"">3</div>","null","","","","","","","","","","","","",""
"html-keyboard-response","271","1510333","0.0-4.0-9.0-2.0","spark_pilot_norest","11193","2","7","Female","","","","","","","null","<div style=""font-size:200px;color:red;"">2</div>","null","","","","","","","","","","","","",""
"html-keyboard-response","272","1511344","0.0-4.0-9.0-3.0","spark_pilot_norest","11193","2","7","Female","","","","","","","null","<div style=""font-size:200px;color:red;"">1</div>","null","","","","","","","","","","","","",""
"revaluation","273","1511835","0.0-4.0-10.0-0.0","spark_pilot_norest","11193","2","7","Female","","false","","","","","[482.10000002384186]","./assets/img/ocean/animals/octopus.jpg","[""ArrowRight""]","second stage test","ocean","0","{""ArrowUp,ArrowLeft"":27,""ArrowUp,ArrowRight"":15,""ArrowDown,ArrowLeft"":21,""ArrowDown,ArrowRight"":7}","false","ArrowUp,ArrowRight","","revaluation","1","","","",""
"html-keyboard-response","274","1512352","0.0-4.0-10.0-1.0","spark_pilot_norest","11193","2","7","Female","","","","","","","null","<div style=""font-size:60px;"">+</div>","null","fixation","","","","","","","","","","","",""
"revaluation","275","1512895","0.0-4.0-10.0-0.1","spark_pilot_norest","11193","2","7","Female","","false","","","","","[534.8000000715256]","./assets/img/ocean/animals/octopus.jpg","[""ArrowLeft""]","second stage test","ocean","0","{""ArrowUp,ArrowLeft"":27,""ArrowUp,ArrowRight"":15,""ArrowDown,ArrowLeft"":21,""ArrowDown,ArrowRight"":7}","true","ArrowUp,ArrowLeft","","revaluation","1","","","",""
"html-keyboard-response","276","1513403","0.0-4.0-10.0-1.1","spark_pilot_norest","11193","2","7","Female","","","","","","","null","<div style=""font-size:60px;"">+</div>","null","fixation","","","","","","","","","","","",""
"revaluation","277","1513857","0.0-4.0-10.0-0.2","spark_pilot_norest","11193","2","7","Female","","false","","","","","[446.89999997615814]","./assets/img/ocean/animals/octopus.jpg","[""ArrowRight""]","second stage test","ocean","0","{""ArrowUp,ArrowLeft"":27,""ArrowUp,ArrowRight"":15,""ArrowDown,ArrowLeft"":21,""ArrowDown,ArrowRight"":7}","false","ArrowUp,ArrowRight","","revaluation","1","","","",""
"html-keyboard-response","278","1514363","0.0-4.0-10.0-1.2","spark_pilot_norest","11193","2","7","Female","","","","","","","null","<div style=""font-size:60px;"">+</div>","null","fixation","","","","","","","","","","","",""
"revaluation","279","1514685","0.0-4.0-10.0-0.3","spark_pilot_norest","11193","2","7","Female","","false","","","","","[315.7000000476837]","./assets/img/ocean/animals/octopus.jpg","[""ArrowRight""]","second stage test","ocean","0","{""ArrowUp,ArrowLeft"":27,""ArrowUp,ArrowRight"":15,""ArrowDown,ArrowLeft"":21,""ArrowDown,ArrowRight"":7}","false","ArrowUp,ArrowRight","","revaluation","1","","","",""
"html-keyboard-response","280","1515191","0.0-4.0-10.0-1.3","spark_pilot_norest","11193","2","7","Female","","","","","","","null","<div style=""font-size:60px;"">+</div>","null","fixation","","","","","","","","","","","",""
"revaluation","281","1515648","0.0-4.0-10.0-0.4","spark_pilot_norest","11193","2","7","Female","","false","","","","","[448.59999990463257]","./assets/img/ocean/animals/seahorse.jpg","[""ArrowLeft""]","second stage test","ocean","0","{""ArrowUp,ArrowLeft"":27,""ArrowUp,ArrowRight"":15,""ArrowDown,ArrowLeft"":21,""ArrowDown,ArrowRight"":7}","true","ArrowDown,ArrowLeft","","revaluation","1","","","",""
"html-keyboard-response","282","1516160","0.0-4.0-10.0-1.4","spark_pilot_norest","11193","2","7","Female","","","","","","","null","<div style=""font-size:60px;"">+</div>","null","fixation","","","","","","","","","","","",""
"revaluation","283","1516426","0.0-4.0-10.0-0.5","spark_pilot_norest","11193","2","7","Female","","false","","","","","[258.5]","./assets/img/ocean/animals/seahorse.jpg","[""ArrowRight""]","second stage test","ocean","0","{""ArrowUp,ArrowLeft"":27,""ArrowUp,ArrowRight"":15,""ArrowDown,ArrowLeft"":21,""ArrowDown,ArrowRight"":7}","false","ArrowDown,ArrowRight","","revaluation","1","","","",""
"html-keyboard-response","284","1516933","0.0-4.0-10.0-1.5","spark_pilot_norest","11193","2","7","Female","","","","","","","null","<div style=""font-size:60px;"">+</div>","null","fixation","","","","","","","","","","","",""
"revaluation","285","1517192","0.0-4.0-10.0-0.6","spark_pilot_norest","11193","2","7","Female","","false","","","","","[251.39999997615814]","./assets/img/ocean/animals/seahorse.jpg","[""ArrowRight""]","second stage test","ocean","0","{""ArrowUp,ArrowLeft"":27,""ArrowUp,ArrowRight"":15,""ArrowDown,ArrowLeft"":21,""ArrowDown,ArrowRight"":7}","false","ArrowDown,ArrowRight","","revaluation","1","","","",""
"html-keyboard-response","286","1517707","0.0-4.0-10.0-1.6","spark_pilot_norest","11193","2","7","Female","","","","","","","null","<div style=""font-size:60px;"">+</div>","null","fixation","","","","","","","","","","","",""
"revaluation","287","1518253","0.0-4.0-10.0-0.7","spark_pilot_norest","11193","2","7","Female","","false","","","","","[537.7999999523163]","./assets/img/ocean/animals/seahorse.jpg","[""ArrowRight""]","second stage test","ocean","0","{""ArrowUp,ArrowLeft"":27,""ArrowUp,ArrowRight"":15,""ArrowDown,ArrowLeft"":21,""ArrowDown,ArrowRight"":7}","false","ArrowDown,ArrowRight","","revaluation","1","","","",""
"html-keyboard-response","288","1518765","0.0-4.0-10.0-1.7","spark_pilot_norest","11193","2","7","Female","","","","","","","null","<div style=""font-size:60px;"">+</div>","null","fixation","","","","","","","","","","","",""
"learning-instructions","289","1523204","0.0-4.0-0.1-0.2","spark_pilot_norest","11193","2","7","Female","","","","","","","1649.2999999523163","<p> This time you are searching for treasure in the <b>canyon</b>.</p>","","instructions","","","","","","","","","","","",""
"learning-instructions","290","1541095","0.0-4.0-0.1-0.3","spark_pilot_norest","11193","2","7","Female","","","","","","","629.6999999284744","<p><b>New</b> animals with <b>new</b> treasure chests live here. You need to explore to discover where the animal with the best treasure chest is.</p>
                    <p> Like before, once you figure out which animal has the chest with the most treasure, you should try to get to that animal and select that chest! </p>","","instructions","","","","","","","","","","","",""
"learning-instructions","291","1588658","0.0-4.0-1.1-0.1","spark_pilot_norest","11193","2","7","Female","","","","","","","32832.700000047684","<p> Remember, when you see a picture of the place, use the up and down keys to <b>find an animal</b>.</p>
            <p> When you encounter an animal, you should use the left and right keys to <b>select a treasure chest</b>.</p>
            <p> Don't forget to look out for the robber! </p>","","instructions","","","","","","","","","","","",""
"revaluation","292","1592675","0.0-4.0-2.1-0.50","spark_pilot_norest","11193","2","7","Female","","false","","","","","[799.2999999523163]","./assets/img/canyon/catch/2.jpg","[""ArrowUp""]","value training","canyon","-10","{""ArrowUp,ArrowLeft"":26,""ArrowUp,ArrowRight"":10,""ArrowDown,ArrowLeft"":5,""ArrowDown,ArrowRight"":17}","false","ArrowUp","true","original","2","0","","",""
"html-keyboard-response","293","1593183","0.0-4.0-2.1-1.50","spark_pilot_norest","11193","2","7","Female","","","","","","","null","<div style=""font-size:60px;"">+</div>","null","fixation","","","","","","","","","1","","",""
"revaluation","294","1597208","0.0-4.0-2.1-0.51","spark_pilot_norest","11193","2","7","Female","","false","","","","","[785.2000000476837]","./assets/img/canyon/catch/5.jpg","[""spaceBar""]","value training","canyon","0","{""ArrowUp,ArrowLeft"":26,""ArrowUp,ArrowRight"":10,""ArrowDown,ArrowLeft"":5,""ArrowDown,ArrowRight"":17}","true","spaceBar","true","original","2","2","","",""
"html-keyboard-response","295","1597714","0.0-4.0-2.1-1.51","spark_pilot_norest","11193","2","7","Female","","","","","","","null","<div style=""font-size:60px;"">+</div>","null","fixation","","","","","","","","","3","","",""
"revaluation","296","1603742","0.0-4.0-2.1-0.52","spark_pilot_norest","11193","2","7","Female","","false","","","","","[766.3999999761581,563.4000000953674]","./assets/img/canyon/memory/20.jpg","[""ArrowUp"",""ArrowRight""]","value training","canyon","10","{""ArrowUp,ArrowLeft"":26,""ArrowUp,ArrowRight"":10,""ArrowDown,ArrowLeft"":5,""ArrowDown,ArrowRight"":17}","false","ArrowUp,ArrowRight","false","original","2","4","","",""
"html-keyboard-response","297","1604257","0.0-4.0-2.1-1.52","spark_pilot_norest","11193","2","7","Female","","","","","","","null","<div style=""font-size:60px;"">+</div>","null","fixation","","","","","","","","","5","","",""
"revaluation","298","1610290","0.0-4.0-2.1-0.53","spark_pilot_norest","11193","2","7","Female","","false","","","","","[1991.3000000715256,1319.9000000953674]","./assets/img/canyon/memory/39.jpg","[""ArrowUp"",""ArrowLeft""]","value training","canyon","26","{""ArrowUp,ArrowLeft"":26,""ArrowUp,ArrowRight"":10,""ArrowDown,ArrowLeft"":5,""ArrowDown,ArrowRight"":17}","true","ArrowUp,ArrowLeft","false","original","2","6","","",""
"html-keyboard-response","299","1610796","0.0-4.0-2.1-1.53","spark_pilot_norest","11193","2","7","Female","","","","","","","null","<div style=""font-size:60px;"">+</div>","null","fixation","","","","","","","","","7","","",""
"revaluation","300","1616815","0.0-4.0-2.1-0.54","spark_pilot_norest","11193","2","7","Female","","false","","","","","[669.2000000476837,629.4000000953674]","./assets/img/canyon/memory/26.jpg","[""ArrowDown"",""ArrowRight""]","value training","canyon","17","{""ArrowUp,ArrowLeft"":26,""ArrowUp,ArrowRight"":10,""ArrowDown,ArrowLeft"":5,""ArrowDown,ArrowRight"":17}","false","ArrowDown,ArrowRight","false","original","2","8","","",""
"html-keyboard-response","301","1617317","0.0-4.0-2.1-1.54","spark_pilot_norest","11193","2","7","Female","","","","","","","null","<div style=""font-size:60px;"">+</div>","null","fixation","","","","","","","","","9","","",""
"revaluation","302","1621333","0.0-4.0-2.1-0.55","spark_pilot_norest","11193","2","7","Female","","false","","","","","[545.2999999523163]","./assets/img/canyon/catch/0.jpg","[""ArrowDown""]","value training","canyon","-10","{""ArrowUp,ArrowLeft"":26,""ArrowUp,ArrowRight"":10,""ArrowDown,ArrowLeft"":5,""ArrowDown,ArrowRight"":17}","false","ArrowDown","true","original","2","10","","",""
"html-keyboard-response","303","1621838","0.0-4.0-2.1-1.55","spark_pilot_norest","11193","2","7","Female","","","","","","","null","<div style=""font-size:60px;"">+</div>","null","fixation","","","","","","","","","11","","",""
"revaluation","304","1627860","0.0-4.0-2.1-0.56","spark_pilot_norest","11193","2","7","Female","","false","","","","","[770.2999999523163,341.8000000715256]","./assets/img/canyon/memory/13.jpg","[""ArrowDown"",""ArrowLeft""]","value training","canyon","5","{""ArrowUp,ArrowLeft"":26,""ArrowUp,ArrowRight"":10,""ArrowDown,ArrowLeft"":5,""ArrowDown,ArrowRight"":17}","false","ArrowDown,ArrowLeft","false","original","2","12","","",""
"html-keyboard-response","305","1628375","0.0-4.0-2.1-1.56","spark_pilot_norest","11193","2","7","Female","","","","","","","null","<div style=""font-size:60px;"">+</div>","null","fixation","","","","","","","","","13","","",""
"revaluation","306","1634408","0.0-4.0-2.1-0.57","spark_pilot_norest","11193","2","7","Female","","false","","","","","[541,427.90000009536743]","./assets/img/canyon/memory/13.jpg","[""ArrowUp"",""ArrowLeft""]","value training","canyon","26","{""ArrowUp,ArrowLeft"":26,""ArrowUp,ArrowRight"":10,""ArrowDown,ArrowLeft"":5,""ArrowDown,ArrowRight"":17}","true","ArrowUp,ArrowLeft","false","original","2","14","","",""
"html-keyboard-response","307","1634925","0.0-4.0-2.1-1.57","spark_pilot_norest","11193","2","7","Female","","","","","","","null","<div style=""font-size:60px;"">+</div>","null","fixation","","","","","","","","","15","","",""
"revaluation","308","1640944","0.0-4.0-2.1-0.58","spark_pilot_norest","11193","2","7","Female","","false","","","","","[647.1000000238419,402.10000002384186]","./assets/img/canyon/memory/29.jpg","[""ArrowUp"",""ArrowLeft""]","value training","canyon","26","{""ArrowUp,ArrowLeft"":26,""ArrowUp,ArrowRight"":10,""ArrowDown,ArrowLeft"":5,""ArrowDown,ArrowRight"":17}","true","ArrowUp,ArrowLeft","false","original","2","16","","",""
"html-keyboard-response","309","1641448","0.0-4.0-2.1-1.58","spark_pilot_norest","11193","2","7","Female","","","","","","","null","<div style=""font-size:60px;"">+</div>","null","fixation","","","","","","","","","17","","",""
"revaluation","310","1645458","0.0-4.0-2.1-0.59","spark_pilot_norest","11193","2","7","Female","","false","","","","","[508.2999999523163]","./assets/img/canyon/catch/7.jpg","[""spaceBar""]","value training","canyon","0","{""ArrowUp,ArrowLeft"":26,""ArrowUp,ArrowRight"":10,""ArrowDown,ArrowLeft"":5,""ArrowDown,ArrowRight"":17}","true","spaceBar","true","original","2","18","","",""
