"trial_type","trial_index","time_elapsed","internal_node_id","task_version","subject_id","assigned_condition","age","gender","success","timeout","failed_images","failed_audio","failed_video","browser_interaction","rt","stimulus","response","task_part","environment","score","rewardMap","correct","fullState","isCatch","condition","order","trial_num","key_press","ground_truth","bonus"
"pavlovia","0","1418","0.0-0.0","spark_pilot_norest","8217","2","13","Female","","","","","","","","","","","","","","","","","","","","","",""
"preload","1","23694","0.0-1.0","spark_pilot_norest","8217","2","13","Female","true","false","[]","[]","[]","[{""event"":""fullscreenenter"",""trial"":2,""time"":26893}]","","","","","","","","","","","","","","","",""
"fullscreen","2","27894","0.0-2.0","spark_pilot_norest","8217","2","13","Female","true","","","","","","","","","","","","","","","","","","","","",""
"audio-button-response","3","29965","0.0-3.0-0.0-0.0","spark_pilot_norest","8217","2","13","Female","","","","","","","1995","./assets/audio/audiotest/turtle.mp3","2","audio_test","","","","","","","","","","","",""
"learning-instructions","4","39431","0.0-3.0-1.0-0.0","spark_pilot_norest","8217","2","13","Female","","","","","","","2446.300000011921","<p> Welcome! Please remember to stay in fullscreen mode and don't click away from the experiment. </p>","","instructions","","","","","","","","","","","",""
"learning-instructions","5","49037","0.0-3.0-1.0-0.1","spark_pilot_norest","8217","2","13","Female","","","","","","","1156.5","<p> Today you will be playing a game to earn treasure. </p>
            <p> At the end of the experiment, you will earn a bonus based on how much treasure you find. </p>
            <img src='./assets/img/instructions/treasure.jpg' class='instructions-image'>","","instructions","","","","","","","","","","","",""
"learning-instructions","6","58546","0.0-3.0-1.0-0.2","spark_pilot_norest","8217","2","13","Female","","","","","","","1246.699999988079","<p> Animals have hidden treasure in treasure chests. </p>
            <p> You need to first find an animal and then choose which of their treasure chests to search. </p>
            <img src='./assets/img/space/animals/cat.jpg' class='instructions-image'>","","instructions","","","","","","","","","","","",""
"learning-instructions","7","72376","0.0-3.0-1.0-0.3","spark_pilot_norest","8217","2","13","Female","","","","","","","677.2000000178814","<p> In each round, you will search for treasure in a different place. In the real game, there will be two rounds. </p>
            <p> You will begin with a separate, practice round where you will search for treasure in outer space. </p>
            <img src='./assets/img/space/0.jpg' class='instructions-image'>","","instructions","","","","","","","","","","","",""
"learning-instructions","8","84307","0.0-3.0-1.0-0.4","spark_pilot_norest","8217","2","13","Female","","","","","","","512.7999999821186","<p> On every turn, you will see a picture of the place that you are in, but the specific image may be different each time. </p>
            <p> For example, both of these images mean you are in outer space. </p>
            <img src='./assets/img/instructions/outerspace.jpg' class='instructions-image'>","","instructions","","","","","","","","","","","",""
"learning-instructions","9","92734","0.0-3.0-1.0-0.5","spark_pilot_norest","8217","2","13","Female","","","","","","","598.7000000178814","<p> You need to decide which direction to travel in. </p>
            <p> You can choose between going <b>up or down</b> by using the arrow keys. </p>
            <img src='./assets/img/instructions/updown.jpg' class='instructions-image'>","","instructions","","","","","","","","","","","",""
"learning-instructions","10","102352","0.0-3.0-1.0-0.6","spark_pilot_norest","8217","2","13","Female","","","","","","","803.7999999821186","<p> You will have <b>2 seconds</b> to make your choice. </p>
            <p> If you do not make a choice within 2 seconds, you will not find an animal or earn treasure. </p>
            <img src='./assets/img/instructions/2seconds.jpg' class='instructions-image'>","","instructions","","","","","","","","","","","",""
"learning-instructions","11","110414","0.0-3.0-1.0-0.7","spark_pilot_norest","8217","2","13","Female","","","","","","","1025.2000000178814","<p> Let’s try practicing that now! </p>
            <p> When you see a picture of the place you are in, press the <b>up</b> key to travel up. </p>
            <img src='./assets/img/instructions/pressUp.jpg' class='instructions-image'>","","instructions","","","","","","","","","","","",""
"revaluation","12","114435","0.0-3.0-2.0-0.0","spark_pilot_norest","8217","2","13","Female","","false","","","","","[492.5]","./assets/img/space/0.jpg","[""ArrowUp""]","first stage practice","space","0","null","null","ArrowUp","false","","","","","",""
"html-keyboard-response","13","114939","0.0-3.0-2.0-1.0","spark_pilot_norest","8217","2","13","Female","","","","","","","null","<div style=""font-size:60px;"">+</div>","null","fixation","","","","","","","","","","","",""
"revaluation","14","118957","0.0-3.0-2.0-0.1","spark_pilot_norest","8217","2","13","Female","","false","","","","","[764.5]","./assets/img/space/1.jpg","[""ArrowUp""]","first stage practice","space","0","null","null","ArrowUp","false","","","","","",""
"html-keyboard-response","15","119471","0.0-3.0-2.0-1.1","spark_pilot_norest","8217","2","13","Female","","","","","","","null","<div style=""font-size:60px;"">+</div>","null","fixation","","","","","","","","","","","",""
"revaluation","16","123494","0.0-3.0-2.0-0.2","spark_pilot_norest","8217","2","13","Female","","false","","","","","[321.5]","./assets/img/space/2.jpg","[""ArrowUp""]","first stage practice","space","0","null","null","ArrowUp","false","","","","","",""
"html-keyboard-response","17","124007","0.0-3.0-2.0-1.2","spark_pilot_norest","8217","2","13","Female","","","","","","","null","<div style=""font-size:60px;"">+</div>","null","fixation","","","","","","","","","","","",""
"learning-instructions","18","130027","0.0-3.0-3.0-0.0","spark_pilot_norest","8217","2","13","Female","","","","","","","1310.5999999940395","<p> Great job! Now try pressing the <b>down</b> key to travel down. </p>
            <img src='./assets/img/instructions/pressDown.jpg' class='instructions-image'>","","instructions","","","","","","","","","","","",""
"revaluation","19","134045","0.0-3.0-4.0-0.0","spark_pilot_norest","8217","2","13","Female","","false","","","","","[388.30000001192093]","./assets/img/space/3.jpg","[""ArrowDown""]","first stage practice","space","0","null","null","ArrowDown","false","","","","","",""
"html-keyboard-response","20","134555","0.0-3.0-4.0-1.0","spark_pilot_norest","8217","2","13","Female","","","","","","","null","<div style=""font-size:60px;"">+</div>","null","fixation","","","","","","","","","","","",""
"revaluation","21","138571","0.0-3.0-4.0-0.1","spark_pilot_norest","8217","2","13","Female","","false","","","","","[424.09999999403954]","./assets/img/space/4.jpg","[""ArrowDown""]","first stage practice","space","0","null","null","ArrowDown","false","","","","","",""
"html-keyboard-response","22","139079","0.0-3.0-4.0-1.1","spark_pilot_norest","8217","2","13","Female","","","","","","","null","<div style=""font-size:60px;"">+</div>","null","fixation","","","","","","","","","","","",""
"revaluation","23","143103","0.0-3.0-4.0-0.2","spark_pilot_norest","8217","2","13","Female","","false","","","","","[371]","./assets/img/space/5.jpg","[""ArrowDown""]","first stage practice","space","0","null","null","ArrowDown","false","","","","","",""
"html-keyboard-response","24","143615","0.0-3.0-4.0-1.2","spark_pilot_norest","8217","2","13","Female","","","","","","","null","<div style=""font-size:60px;"">+</div>","null","fixation","","","","","","","","","","","",""
"learning-instructions","25","154330","0.0-3.0-5.0-0.0","spark_pilot_norest","8217","2","13","Female","","","","","","","856.9000000059605","<p> The animals don’t move, so the animal in the upper part of a place will stay in the upper part of a place, and the animal in the lower part of a place will stay in the lower part of a place. </p>","","instructions","","","","","","","","","","","",""
"learning-instructions","26","163882","0.0-3.0-5.0-0.1","spark_pilot_norest","8217","2","13","Female","","","","","","","419.7000000178814","<p> Each animal has two treasure chests for you to choose from. </p>
            <p> The amount of treasure in each chest can range from <b> 0 to 40 pieces.</b></p>","","instructions","","","","","","","","","","","",""
"learning-instructions","27","175579","0.0-3.0-5.0-0.2","spark_pilot_norest","8217","2","13","Female","","","","","","","512.1000000238419","<p> You should decide which chest to search for treasure by using the <b>left</b> and <b>right</b> arrow keys. </p>
            <p><b> Pay attention to which animal is on the screen, as the animals have different treasure chests. </b></p>
            <img src='./assets/img/instructions/leftright.jpg' class='instructions-image'>","","instructions","","","","","","","","","","","",""
"learning-instructions","28","182388","0.0-3.0-5.0-0.3","spark_pilot_norest","8217","2","13","Female","","","","","","","440.5","<p> Let’s try practicing that now. </p>
            <p> When you see an animal, choose which chest to search for treasure. </p>
            <img src='./assets/img/instructions/chooseChest.jpg' class='instructions-image'>","","instructions","","","","","","","","","","","",""
"revaluation","29","186406","0.0-3.0-6.0-0.0","spark_pilot_norest","8217","2","13","Female","","false","","","","","[305.69999998807907]","./assets/img/space/animals/cat.jpg","[""ArrowLeft""]","second stage practice","space","3","{""ArrowUp,ArrowLeft"":3,""ArrowUp,ArrowRight"":36,""ArrowDown,ArrowLeft"":15,""ArrowDown,ArrowRight"":23}","false","ArrowUp,ArrowLeft","","","","","","",""
"html-keyboard-response","30","186917","0.0-3.0-6.0-1.0","spark_pilot_norest","8217","2","13","Female","","","","","","","null","<div style=""font-size:60px;"">+</div>","null","fixation","","","","","","","","","","","",""
"revaluation","31","190936","0.0-3.0-6.0-0.1","spark_pilot_norest","8217","2","13","Female","","false","","","","","[1055.4000000059605]","./assets/img/space/animals/rabbit.jpg","[""ArrowLeft""]","second stage practice","space","15","{""ArrowUp,ArrowLeft"":3,""ArrowUp,ArrowRight"":36,""ArrowDown,ArrowLeft"":15,""ArrowDown,ArrowRight"":23}","false","ArrowDown,ArrowLeft","","","","","","",""
"html-keyboard-response","32","191447","0.0-3.0-6.0-1.1","spark_pilot_norest","8217","2","13","Female","","","","","","","null","<div style=""font-size:60px;"">+</div>","null","fixation","","","","","","","","","","","",""
"revaluation","33","195472","0.0-3.0-6.0-0.2","spark_pilot_norest","8217","2","13","Female","","false","","","","","[459.09999999403954]","./assets/img/space/animals/cat.jpg","[""ArrowRight""]","second stage practice","space","36","{""ArrowUp,ArrowLeft"":3,""ArrowUp,ArrowRight"":36,""ArrowDown,ArrowLeft"":15,""ArrowDown,ArrowRight"":23}","true","ArrowUp,ArrowRight","","","","","","",""
"html-keyboard-response","34","195979","0.0-3.0-6.0-1.2","spark_pilot_norest","8217","2","13","Female","","","","","","","null","<div style=""font-size:60px;"">+</div>","null","fixation","","","","","","","","","","","",""
"revaluation","35","200000","0.0-3.0-6.0-0.3","spark_pilot_norest","8217","2","13","Female","","false","","","","","[592.2000000178814]","./assets/img/space/animals/rabbit.jpg","[""ArrowRight""]","second stage practice","space","23","{""ArrowUp,ArrowLeft"":3,""ArrowUp,ArrowRight"":36,""ArrowDown,ArrowLeft"":15,""ArrowDown,ArrowRight"":23}","true","ArrowDown,ArrowRight","","","","","","",""
"html-keyboard-response","36","200511","0.0-3.0-6.0-1.3","spark_pilot_norest","8217","2","13","Female","","","","","","","null","<div style=""font-size:60px;"">+</div>","null","fixation","","","","","","","","","","","",""
"learning-instructions","37","218121","0.0-3.0-7.0-0.0","spark_pilot_norest","8217","2","13","Female","","","","","","","788.2000000178814","<p> Great job. Now let’s try putting it together. </p>
            <p> On each turn, you will first see a picture to remind you of the place you are in, and you need to choose whether to go up or down. </p>
            <p> Then you will see an animal and choose which of its chests to search for treasure. </p>","","instructions","","","","","","","","","","","",""
"learning-instructions","38","226848","0.0-3.0-7.0-0.1","spark_pilot_norest","8217","2","13","Female","","","","","","","464.5","<p> When you choose whether to go up or down, try to go to the animal with the chest with the most treasure. </p>
            <p> Try practicing that now! </p>","","instructions","","","","","","","","","","","",""
"revaluation","39","232869","0.0-3.0-8.0-0.0","spark_pilot_norest","8217","2","13","Female","","false","","","","","[591.4000000059605,495.5]","./assets/img/space/6.jpg","[""ArrowUp"",""ArrowRight""]","full practice","space","36","{""ArrowUp,ArrowLeft"":3,""ArrowUp,ArrowRight"":36,""ArrowDown,ArrowLeft"":15,""ArrowDown,ArrowRight"":23}","true","ArrowUp,ArrowRight","false","","","","","",""
"html-keyboard-response","40","233375","0.0-3.0-8.0-1.0","spark_pilot_norest","8217","2","13","Female","","","","","","","null","<div style=""font-size:60px;"">+</div>","null","fixation","","","","","","","","","","","",""
"revaluation","41","239400","0.0-3.0-8.0-0.1","spark_pilot_norest","8217","2","13","Female","","false","","","","","[340.5,305.09999999403954]","./assets/img/space/7.jpg","[""ArrowDown"",""ArrowRight""]","full practice","space","23","{""ArrowUp,ArrowLeft"":3,""ArrowUp,ArrowRight"":36,""ArrowDown,ArrowLeft"":15,""ArrowDown,ArrowRight"":23}","false","ArrowDown,ArrowRight","false","","","","","",""
"html-keyboard-response","42","239911","0.0-3.0-8.0-1.1","spark_pilot_norest","8217","2","13","Female","","","","","","","null","<div style=""font-size:60px;"">+</div>","null","fixation","","","","","","","","","","","",""
"revaluation","43","245935","0.0-3.0-8.0-0.2","spark_pilot_norest","8217","2","13","Female","","false","","","","","[354.30000001192093,491.60000002384186]","./assets/img/space/8.jpg","[""ArrowUp"",""ArrowRight""]","full practice","space","36","{""ArrowUp,ArrowLeft"":3,""ArrowUp,ArrowRight"":36,""ArrowDown,ArrowLeft"":15,""ArrowDown,ArrowRight"":23}","true","ArrowUp,ArrowRight","false","","","","","",""
"html-keyboard-response","44","246446","0.0-3.0-8.0-1.2","spark_pilot_norest","8217","2","13","Female","","","","","","","null","<div style=""font-size:60px;"">+</div>","null","fixation","","","","","","","","","","","",""
"revaluation","45","252472","0.0-3.0-8.0-0.3","spark_pilot_norest","8217","2","13","Female","","false","","","","","[472.40000000596046,311.09999999403954]","./assets/img/space/9.jpg","[""ArrowUp"",""ArrowRight""]","full practice","space","36","{""ArrowUp,ArrowLeft"":3,""ArrowUp,ArrowRight"":36,""ArrowDown,ArrowLeft"":15,""ArrowDown,ArrowRight"":23}","true","ArrowUp,ArrowRight","false","","","","","",""
"html-keyboard-response","46","252984","0.0-3.0-8.0-1.3","spark_pilot_norest","8217","2","13","Female","","","","","","","null","<div style=""font-size:60px;"">+</div>","null","fixation","","","","","","","","","","","",""
"revaluation","47","259014","0.0-3.0-8.0-0.4","spark_pilot_norest","8217","2","13","Female","","false","","","","","[386.30000001192093,329]","./assets/img/space/10.jpg","[""ArrowUp"",""ArrowRight""]","full practice","space","36","{""ArrowUp,ArrowLeft"":3,""ArrowUp,ArrowRight"":36,""ArrowDown,ArrowLeft"":15,""ArrowDown,ArrowRight"":23}","true","ArrowUp,ArrowRight","false","","","","","",""
"html-keyboard-response","48","259516","0.0-3.0-8.0-1.4","spark_pilot_norest","8217","2","13","Female","","","","","","","null","<div style=""font-size:60px;"">+</div>","null","fixation","","","","","","","","","","","",""
"learning-instructions","49","270822","0.0-3.0-9.0-0.0","spark_pilot_norest","8217","2","13","Female","","","","","","","932.5","<p> One last thing: sometimes, you will see a robber. The robber can be anywhere in the picture. </p>
            <p> If you do not stop them, you will lose treasure. </p>
            <img src='./assets/img/instructions/robber.jpg' class='instructions-image'>","","instructions","","","","","","","","","","","",""
"learning-instructions","50","278451","0.0-3.0-9.0-0.1","spark_pilot_norest","8217","2","13","Female","","","","","","","460.7999999821186","<p> If you see the robber, you should <b>press the space bar</b> rather than using the arrow keys. </p>
            <p> Try practicing that now! </p>","","instructions","","","","","","","","","","","",""
"revaluation","51","282472","0.0-3.0-10.0-0.0","spark_pilot_norest","8217","2","13","Female","","false","","","","","[636.4000000059605]","./assets/img/space/catch/0.jpg","[""spaceBar""]","catch practice","space","0","{""ArrowUp,ArrowLeft"":3,""ArrowUp,ArrowRight"":36,""ArrowDown,ArrowLeft"":15,""ArrowDown,ArrowRight"":23}","true","spaceBar","true","","","","","",""
"html-keyboard-response","52","282984","0.0-3.0-10.0-1.0","spark_pilot_norest","8217","2","13","Female","","","","","","","null","<div style=""font-size:60px;"">+</div>","null","fixation","","","","","","","","","","","",""
"revaluation","53","286996","0.0-3.0-10.0-0.1","spark_pilot_norest","8217","2","13","Female","","false","","","","","[471.2000000178814]","./assets/img/space/catch/1.jpg","[""spaceBar""]","catch practice","space","0","{""ArrowUp,ArrowLeft"":3,""ArrowUp,ArrowRight"":36,""ArrowDown,ArrowLeft"":15,""ArrowDown,ArrowRight"":23}","true","spaceBar","true","","","","","",""
"html-keyboard-response","54","287501","0.0-3.0-10.0-1.1","spark_pilot_norest","8217","2","13","Female","","","","","","","null","<div style=""font-size:60px;"">+</div>","null","fixation","","","","","","","","","","","",""
"revaluation","55","291516","0.0-3.0-10.0-0.2","spark_pilot_norest","8217","2","13","Female","","false","","","","","[518.9000000059605]","./assets/img/space/catch/2.jpg","[""spaceBar""]","catch practice","space","0","{""ArrowUp,ArrowLeft"":3,""ArrowUp,ArrowRight"":36,""ArrowDown,ArrowLeft"":15,""ArrowDown,ArrowRight"":23}","true","spaceBar","true","","","","","",""
"html-keyboard-response","56","292020","0.0-3.0-10.0-1.2","spark_pilot_norest","8217","2","13","Female","","","","","","","null","<div style=""font-size:60px;"">+</div>","null","fixation","","","","","","","","","","","",""
"learning-instructions","57","298170","0.0-3.0-11.0-0.0-0.0","spark_pilot_norest","8217","2","13","Female","","","","","","","888.7999999821186","<p> Now, you will practice a shortened version of the game to get a sense of how it all fits together. </p>","","instructions","","","","","","","","","","","",""
"learning-instructions","58","302283","0.0-3.0-11.0-0.0-0.1","spark_pilot_norest","8217","2","13","Female","","","","","","","922.3999999761581","<p>This time you are searching for treasure in outer space.</p>","","instructions","","","","","","","","","","","",""
"learning-instructions","59","317554","0.0-3.0-11.0-1.0-0.0","spark_pilot_norest","8217","2","13","Female","","","","","","","498.30000001192093","<p> Remember, when you see a picture of the place, use the up and down keys to <b>find an animal</b>.</p>
            <p> When you encounter an animal, you should use the left and right keys to <b>select a treasure chest</b>.</p>
            <p> Don't forget to look out for the robber! </p>","","instructions","","","","","","","","","","","",""
"revaluation","60","323580","0.0-3.0-11.0-2.0-0.0","spark_pilot_norest","8217","2","13","Female","","false","","","","","[1470.800000011921,743]","./assets/img/space/11.jpg","[""ArrowUp"",""ArrowRight""]","practice block","space","36","{""ArrowUp,ArrowLeft"":3,""ArrowUp,ArrowRight"":36,""ArrowDown,ArrowLeft"":15,""ArrowDown,ArrowRight"":23}","true","ArrowUp,ArrowRight","false","","","","","",""
"html-keyboard-response","61","324088","0.0-3.0-11.0-2.0-1.0","spark_pilot_norest","8217","2","13","Female","","","","","","","null","<div style=""font-size:60px;"">+</div>","null","fixation","","","","","","","","","","","",""
"revaluation","62","330108","0.0-3.0-11.0-2.0-0.1","spark_pilot_norest","8217","2","13","Female","","false","","","","","[808.3000000119209,369.90000000596046]","./assets/img/space/12.jpg","[""ArrowUp"",""ArrowRight""]","practice block","space","36","{""ArrowUp,ArrowLeft"":3,""ArrowUp,ArrowRight"":36,""ArrowDown,ArrowLeft"":15,""ArrowDown,ArrowRight"":23}","true","ArrowUp,ArrowRight","false","","","","","",""
"html-keyboard-response","63","330612","0.0-3.0-11.0-2.0-1.1","spark_pilot_norest","8217","2","13","Female","","","","","","","null","<div style=""font-size:60px;"">+</div>","null","fixation","","","","","","","","","","","",""
"revaluation","64","336635","0.0-3.0-11.0-2.0-0.2","spark_pilot_norest","8217","2","13","Female","","false","","","","","[607.9000000059605,336.59999999403954]","./assets/img/space/13.jpg","[""ArrowUp"",""ArrowRight""]","practice block","space","36","{""ArrowUp,ArrowLeft"":3,""ArrowUp,ArrowRight"":36,""ArrowDown,ArrowLeft"":15,""ArrowDown,ArrowRight"":23}","true","ArrowUp,ArrowRight","false","","","","","",""
"html-keyboard-response","65","337141","0.0-3.0-11.0-2.0-1.2","spark_pilot_norest","8217","2","13","Female","","","","","","","null","<div style=""font-size:60px;"">+</div>","null","fixation","","","","","","","","","","","",""
"revaluation","66","343166","0.0-3.0-11.0-2.0-0.3","spark_pilot_norest","8217","2","13","Female","","false","","","","","[897.0999999940395,433.59999999403954]","./assets/img/space/14.jpg","[""ArrowUp"",""ArrowRight""]","practice block","space","36","{""ArrowUp,ArrowLeft"":3,""ArrowUp,ArrowRight"":36,""ArrowDown,ArrowLeft"":15,""ArrowDown,ArrowRight"":23}","true","ArrowUp,ArrowRight","false","","","","","",""
"html-keyboard-response","67","343680","0.0-3.0-11.0-2.0-1.3","spark_pilot_norest","8217","2","13","Female","","","","","","","null","<div style=""font-size:60px;"">+</div>","null","fixation","","","","","","","","","","","",""
"revaluation","68","349708","0.0-3.0-11.0-2.0-0.4","spark_pilot_norest","8217","2","13","Female","","false","","","","","[840.5,287.80000001192093]","./assets/img/space/11.jpg","[""ArrowUp"",""ArrowRight""]","practice block","space","36","{""ArrowUp,ArrowLeft"":3,""ArrowUp,ArrowRight"":36,""ArrowDown,ArrowLeft"":15,""ArrowDown,ArrowRight"":23}","true","ArrowUp,ArrowRight","false","","","","","",""
"html-keyboard-response","69","350214","0.0-3.0-11.0-2.0-1.4","spark_pilot_norest","8217","2","13","Female","","","","","","","null","<div style=""font-size:60px;"">+</div>","null","fixation","","","","","","","","","","","",""
"revaluation","70","356236","0.0-3.0-11.0-2.0-0.5","spark_pilot_norest","8217","2","13","Female","","false","","","","","[711,349.90000000596046]","./assets/img/space/12.jpg","[""ArrowUp"",""ArrowRight""]","practice block","space","36","{""ArrowUp,ArrowLeft"":3,""ArrowUp,ArrowRight"":36,""ArrowDown,ArrowLeft"":15,""ArrowDown,ArrowRight"":23}","true","ArrowUp,ArrowRight","false","","","","","",""
"html-keyboard-response","71","356742","0.0-3.0-11.0-2.0-1.5","spark_pilot_norest","8217","2","13","Female","","","","","","","null","<div style=""font-size:60px;"">+</div>","null","fixation","","","","","","","","","","","",""
"revaluation","72","362764","0.0-3.0-11.0-2.0-0.6","spark_pilot_norest","8217","2","13","Female","","false","","","","","[623.5,264.30000001192093]","./assets/img/space/13.jpg","[""ArrowUp"",""ArrowRight""]","practice block","space","36","{""ArrowUp,ArrowLeft"":3,""ArrowUp,ArrowRight"":36,""ArrowDown,ArrowLeft"":15,""ArrowDown,ArrowRight"":23}","true","ArrowUp,ArrowRight","false","","","","","",""
"html-keyboard-response","73","363269","0.0-3.0-11.0-2.0-1.6","spark_pilot_norest","8217","2","13","Female","","","","","","","null","<div style=""font-size:60px;"">+</div>","null","fixation","","","","","","","","","","","",""
"revaluation","74","369292","0.0-3.0-11.0-2.0-0.7","spark_pilot_norest","8217","2","13","Female","","false","","","","","[669.4000000059605,343.89999997615814]","./assets/img/space/14.jpg","[""ArrowUp"",""ArrowRight""]","practice block","space","36","{""ArrowUp,ArrowLeft"":3,""ArrowUp,ArrowRight"":36,""ArrowDown,ArrowLeft"":15,""ArrowDown,ArrowRight"":23}","true","ArrowUp,ArrowRight","false","","","","","",""
"html-keyboard-response","75","369798","0.0-3.0-11.0-2.0-1.7","spark_pilot_norest","8217","2","13","Female","","","","","","","null","<div style=""font-size:60px;"">+</div>","null","fixation","","","","","","","","","","","",""
"revaluation","76","373814","0.0-3.0-11.0-2.0-0.8","spark_pilot_norest","8217","2","13","Female","","false","","","","","[515.3000000119209]","./assets/img/space/catch/3.jpg","[""ArrowUp""]","practice block","space","-10","{""ArrowUp,ArrowLeft"":3,""ArrowUp,ArrowRight"":36,""ArrowDown,ArrowLeft"":15,""ArrowDown,ArrowRight"":23}","false","ArrowUp","true","","","","","",""
"html-keyboard-response","77","374326","0.0-3.0-11.0-2.0-1.8","spark_pilot_norest","8217","2","13","Female","","","","","","","null","<div style=""font-size:60px;"">+</div>","null","fixation","","","","","","","","","","","",""
"learning-instructions","78","388003","0.0-3.0-11.0-3.0-0.0","spark_pilot_norest","8217","2","13","Female","","","","","","","701.9000000059605","<p> Now, you will travel with a friend who will choose whether you go up or down first. </p>
            <p> On these turns, you will just see the animal that they found. You will still get to choose which chest to search for treasure.</p>","","instructions","","","","","","","","","","","",""
"revaluation","79","392024","0.0-3.0-11.0-4.0-0.0","spark_pilot_norest","8217","2","13","Female","","false","","","","","[948.5999999940395]","./assets/img/space/animals/rabbit.jpg","[""ArrowRight""]","practice block","space","23","{""ArrowUp,ArrowLeft"":3,""ArrowUp,ArrowRight"":36,""ArrowDown,ArrowLeft"":15,""ArrowDown,ArrowRight"":23}","true","ArrowDown,ArrowRight","","","","","","",""
"html-keyboard-response","80","392532","0.0-3.0-11.0-4.0-1.0","spark_pilot_norest","8217","2","13","Female","","","","","","","null","<div style=""font-size:60px;"">+</div>","null","fixation","","","","","","","","","","","",""
"revaluation","81","396548","0.0-3.0-11.0-4.0-0.1","spark_pilot_norest","8217","2","13","Female","","false","","","","","[505.5]","./assets/img/space/animals/rabbit.jpg","[""ArrowRight""]","practice block","space","23","{""ArrowUp,ArrowLeft"":3,""ArrowUp,ArrowRight"":36,""ArrowDown,ArrowLeft"":15,""ArrowDown,ArrowRight"":23}","true","ArrowDown,ArrowRight","","","","","","",""
"html-keyboard-response","82","397055","0.0-3.0-11.0-4.0-1.1","spark_pilot_norest","8217","2","13","Female","","","","","","","null","<div style=""font-size:60px;"">+</div>","null","fixation","","","","","","","","","","","",""
"revaluation","83","401072","0.0-3.0-11.0-4.0-0.2","spark_pilot_norest","8217","2","13","Female","","false","","","","","[869.5]","./assets/img/space/animals/cat.jpg","[""ArrowRight""]","practice block","space","36","{""ArrowUp,ArrowLeft"":3,""ArrowUp,ArrowRight"":36,""ArrowDown,ArrowLeft"":15,""ArrowDown,ArrowRight"":23}","true","ArrowUp,ArrowRight","","","","","","",""
"html-keyboard-response","84","401580","0.0-3.0-11.0-4.0-1.2","spark_pilot_norest","8217","2","13","Female","","","","","","","null","<div style=""font-size:60px;"">+</div>","null","fixation","","","","","","","","","","","",""
"revaluation","85","405600","0.0-3.0-11.0-4.0-0.3","spark_pilot_norest","8217","2","13","Female","","false","","","","","[1002.8000000119209]","./assets/img/space/animals/cat.jpg","[""ArrowRight""]","practice block","space","36","{""ArrowUp,ArrowLeft"":3,""ArrowUp,ArrowRight"":36,""ArrowDown,ArrowLeft"":15,""ArrowDown,ArrowRight"":23}","true","ArrowUp,ArrowRight","","","","","","",""
"html-keyboard-response","86","406110","0.0-3.0-11.0-4.0-1.3","spark_pilot_norest","8217","2","13","Female","","","","","","","null","<div style=""font-size:60px;"">+</div>","null","fixation","","","","","","","","","","","",""
"learning-instructions","87","414240","0.0-3.0-11.0-5.0-0.0","spark_pilot_norest","8217","2","13","Female","","","","","","","null","<p> You have almost finished this part of the game! </p>
            <p> We are going to ask you to make a few more choices. </p>","","instructions","","","","","","","","","","","",""
"learning-instructions","88","430260","0.0-3.0-11.0-5.0-0.1","spark_pilot_norest","8217","2","13","Female","","","","","","","null","<p> First, you need to decide whether to go up or down. When you see each picture, use the arrow keys to make your choice. </p>
            <p><b>You will not see which animal you found, but try to get to the one that will give you the most treasure.</b></p>","","instructions","","","","","","","","","","","",""
"html-keyboard-response","89","431268","0.0-3.0-11.0-6.0-0.0","spark_pilot_norest","8217","2","13","Female","","","","","","","null","<div style=""font-size:100px;color:red;"">Starting in...</div>","null","","","","","","","","","","","","",""
"html-keyboard-response","90","432275","0.0-3.0-11.0-6.0-1.0","spark_pilot_norest","8217","2","13","Female","","","","","","","null","<div style=""font-size:200px;color:red;"">3</div>","null","","","","","","","","","","","","",""
"html-keyboard-response","91","433279","0.0-3.0-11.0-6.0-2.0","spark_pilot_norest","8217","2","13","Female","","","","","","","null","<div style=""font-size:200px;color:red;"">2</div>","null","","","","","","","","","","","","",""
"html-keyboard-response","92","434288","0.0-3.0-11.0-6.0-3.0","spark_pilot_norest","8217","2","13","Female","","","","","","","null","<div style=""font-size:200px;color:red;"">1</div>","null","","","","","","","","","","","","",""
"revaluation","93","434985","0.0-3.0-11.0-7.0","spark_pilot_norest","8217","2","13","Female","","false","","","","","[694]","./assets/img/space/15.jpg","[""ArrowUp""]","practice block","space","0","{""ArrowUp,ArrowLeft"":3,""ArrowUp,ArrowRight"":36,""ArrowDown,ArrowLeft"":15,""ArrowDown,ArrowRight"":23}","true","ArrowUp","false","","","","","",""
"html-keyboard-response","94","435492","0.0-3.0-11.0-8.0","spark_pilot_norest","8217","2","13","Female","","","","","","","null","<div style=""font-size:60px;"">+</div>","null","fixation","","","","","","","","","","","",""
"learning-instructions","95","448879","0.0-3.0-11.0-9.0-0.0","spark_pilot_norest","8217","2","13","Female","","","","","","","null","<p> Now you will see the animals again and can search their chests for treasure. </p>
            <p> This time, you will not see how much treasure you earned, but you will earn more bonus money for making better choices. </p>","","instructions","","","","","","","","","","","",""
"html-keyboard-response","96","449888","0.0-3.0-11.0-10.0-0.0","spark_pilot_norest","8217","2","13","Female","","","","","","","null","<div style=""font-size:100px;color:red;"">Starting in...</div>","null","","","","","","","","","","","","",""
"html-keyboard-response","97","450891","0.0-3.0-11.0-10.0-1.0","spark_pilot_norest","8217","2","13","Female","","","","","","","null","<div style=""font-size:200px;color:red;"">3</div>","null","","","","","","","","","","","","",""
"html-keyboard-response","98","451904","0.0-3.0-11.0-10.0-2.0","spark_pilot_norest","8217","2","13","Female","","","","","","","null","<div style=""font-size:200px;color:red;"">2</div>","null","","","","","","","","","","","","",""
"html-keyboard-response","99","452911","0.0-3.0-11.0-10.0-3.0","spark_pilot_norest","8217","2","13","Female","","","","","","","null","<div style=""font-size:200px;color:red;"">1</div>","null","","","","","","","","","","","","",""
"revaluation","100","453324","0.0-3.0-11.0-11.0-0.0","spark_pilot_norest","8217","2","13","Female","","false","","","","","[409.7000000178814]","./assets/img/space/animals/cat.jpg","[""ArrowRight""]","practice block","space","0","{""ArrowUp,ArrowLeft"":3,""ArrowUp,ArrowRight"":36,""ArrowDown,ArrowLeft"":15,""ArrowDown,ArrowRight"":23}","true","ArrowUp,ArrowRight","","","","","","",""
"html-keyboard-response","101","453832","0.0-3.0-11.0-11.0-1.0","spark_pilot_norest","8217","2","13","Female","","","","","","","null","<div style=""font-size:60px;"">+</div>","null","fixation","","","","","","","","","","","",""
"revaluation","102","454469","0.0-3.0-11.0-11.0-0.1","spark_pilot_norest","8217","2","13","Female","","false","","","","","[633.7000000178814]","./assets/img/space/animals/rabbit.jpg","[""ArrowRight""]","practice block","space","0","{""ArrowUp,ArrowLeft"":3,""ArrowUp,ArrowRight"":36,""ArrowDown,ArrowLeft"":15,""ArrowDown,ArrowRight"":23}","true","ArrowDown,ArrowRight","","","","","","",""
"html-keyboard-response","103","454974","0.0-3.0-11.0-11.0-1.1","spark_pilot_norest","8217","2","13","Female","","","","","","","null","<div style=""font-size:60px;"">+</div>","null","fixation","","","","","","","","","","","",""
"learning-instructions","104","460537","0.0-3.0-12.0-0.0","spark_pilot_norest","8217","2","13","Female","","","","","","","976.3000000119209","<p> Before you start, we're going to ask you a few questions about how the game works. </p>","","instructions","","","","","","","","","","","",""
"comp-q","105","467663","0.0-3.0-13.0-0.0-0.0","spark_pilot_norest","8217","2","13","Female","","","","","","","1531.5999999940395","<p> <b> True or False? </b> </p>
            <p> There can be 50 pieces of treasure in a given animal's chest. </p>","1","comp_question","","","","true","","","","","","","",""
"comp-q","106","475319","0.0-3.0-13.0-0.0-1.0","spark_pilot_norest","8217","2","13","Female","","","","","","","1000.5","<p> <b> That's right! </b> The amount of treasure in each chest can range from 0 to 40 pieces. </p>","0","comp_answer","","","","","","","","","","","",""
"comp-q","107","483202","0.0-3.0-13.0-0.1-0.1","spark_pilot_norest","8217","2","13","Female","","","","","","","761.4000000059605","<p> <b> True or False? </b> </p><p> In this game, all animals have the same amount of treasure in their left and right chests. </p>","1","comp_question","","","","true","","","","","","","",""
"comp-q","108","490044","0.0-3.0-13.0-0.1-1.1","spark_pilot_norest","8217","2","13","Female","","","","","","","1603.9000000059605","<p> <b> That's right! </b> Animals have different amounts of treasure in their treasure chests. </p>","0","comp_answer","","","","","","","","","","","",""
"comp-q","109","496663","0.0-3.0-13.0-0.2-0.2","spark_pilot_norest","8217","2","13","Female","","","","","","","771.9000000059605","<p> <b> True or False? </b> </p><p> The same animal will always be there if you go up in the same place. </p>","0","comp_question","","","","true","","","","","","","",""
"comp-q","110","504183","0.0-3.0-13.0-0.2-1.2","spark_pilot_norest","8217","2","13","Female","","","","","","","1075.800000011921","<p> <b> That's right! </b> One animal lives in the upper part and one lives in the lower part of every place. </p>","0","comp_answer","","","","","","","","","","","",""
"comp-q","111","510674","0.0-3.0-13.0-0.3-0.3","spark_pilot_norest","8217","2","13","Female","","","","","","","959.4000000059605","<p> <b> True or False? </b> </p><p> If you see a different picture, it means you are in a new place. </p>","0","comp_question","","","","false","","","","","","","",""
"comp-q","112","522651","0.0-3.0-13.0-0.3-1.3","spark_pilot_norest","8217","2","13","Female","","","","","","","883","<p> <b>Incorrect.</b> Lots of different images may show the same place. For example,  you may see three different images that all remind you that you are in outer space. </p>","0","comp_answer","","","","","","","","","","","",""
"comp-q","113","528967","0.0-3.0-13.0-0.4-0.4","spark_pilot_norest","8217","2","13","Female","","","","","","","814.8999999761581","<p> <b> True or False? </b> </p><p> If you see a different picture, it means you are in a new place. </p>","1","comp_question","","","","true","","","","","","","",""
"comp-q","114","541922","0.0-3.0-13.0-0.4-1.4","spark_pilot_norest","8217","2","13","Female","","","","","","","1728","<p> <b> That's right! </b> Lots of different images may show the same place. For example,  you may see three different images that all remind you that you are in outer space. </p>","0","comp_answer","","","","","","","","","","","",""
"learning-instructions","115","553021","0.0-3.0-14.0-0.0","spark_pilot_norest","8217","2","13","Female","","","","","","","1243.5","<p> Good job. Remember to do your best because the amount of treasure you earn will be converted into bonus money. </p>
            <p> It’s time to start the real game! </p>","","instructions","","","","","","","","","","","",""
"learning-instructions","116","556917","0.0-4.0-0.0-0.0","spark_pilot_norest","8217","2","13","Female","","","","","","","1186.5999999940395","<p> This time you are searching for treasure in the <b>ocean</b>.</p>","","instructions","","","","","","","","","","","",""
"learning-instructions","117","574999","0.0-4.0-0.0-0.1","spark_pilot_norest","8217","2","13","Female","","","","","","","771.5999999940395","<p><b>New</b> animals with <b>new</b> treasure chests live here. You need to explore to discover where the animal with the best treasure chest is.</p>
                    <p> Like before, once you figure out which animal has the chest with the most treasure, you should try to get to that animal and select that chest! </p>","","instructions","","","","","","","","","","","",""
"learning-instructions","118","590481","0.0-4.0-1.0-0.0","spark_pilot_norest","8217","2","13","Female","","","","","","","754.8000000119209","<p> Remember, when you see a picture of the place, use the up and down keys to <b>find an animal</b>.</p>
            <p> When you encounter an animal, you should use the left and right keys to <b>select a treasure chest</b>.</p>
            <p> Don't forget to look out for the robber! </p>","","instructions","","","","","","","","","","","",""
"revaluation","119","594499","0.0-4.0-2.0-0.0","spark_pilot_norest","8217","2","13","Female","","false","","","","","[1303.4000000059605]","./assets/img/ocean/catch/7.jpg","[""spaceBar""]","value training","ocean","0","{""ArrowUp,ArrowLeft"":23,""ArrowUp,ArrowRight"":10,""ArrowDown,ArrowLeft"":8,""ArrowDown,ArrowRight"":30}","true","spaceBar","true","revaluation","1","0","","",""
"html-keyboard-response","120","595007","0.0-4.0-2.0-1.0","spark_pilot_norest","8217","2","13","Female","","","","","","","null","<div style=""font-size:60px;"">+</div>","null","fixation","","","","","","","","","1","","",""
"revaluation","121","601035","0.0-4.0-2.0-0.1","spark_pilot_norest","8217","2","13","Female","","false","","","","","[622.6999999880791,528.2999999821186]","./assets/img/ocean/memory/5.jpg","[""ArrowUp"",""ArrowLeft""]","value training","ocean","23","{""ArrowUp,ArrowLeft"":23,""ArrowUp,ArrowRight"":10,""ArrowDown,ArrowLeft"":8,""ArrowDown,ArrowRight"":30}","false","ArrowUp,ArrowLeft","false","revaluation","1","2","","",""
"html-keyboard-response","122","601543","0.0-4.0-2.0-1.1","spark_pilot_norest","8217","2","13","Female","","","","","","","null","<div style=""font-size:60px;"">+</div>","null","fixation","","","","","","","","","3","","",""
"revaluation","123","607568","0.0-4.0-2.0-0.2","spark_pilot_norest","8217","2","13","Female","","false","","","","","[630.6999999880791,374.90000000596046]","./assets/img/ocean/memory/30.jpg","[""ArrowUp"",""ArrowRight""]","value training","ocean","10","{""ArrowUp,ArrowLeft"":23,""ArrowUp,ArrowRight"":10,""ArrowDown,ArrowLeft"":8,""ArrowDown,ArrowRight"":30}","false","ArrowUp,ArrowRight","false","revaluation","1","4","","",""
"html-keyboard-response","124","608075","0.0-4.0-2.0-1.2","spark_pilot_norest","8217","2","13","Female","","","","","","","null","<div style=""font-size:60px;"">+</div>","null","fixation","","","","","","","","","5","","",""
"revaluation","125","612099","0.0-4.0-2.0-0.3","spark_pilot_norest","8217","2","13","Female","","false","","","","","[537.8000000119209]","./assets/img/ocean/catch/4.jpg","[""ArrowDown""]","value training","ocean","-10","{""ArrowUp,ArrowLeft"":23,""ArrowUp,ArrowRight"":10,""ArrowDown,ArrowLeft"":8,""ArrowDown,ArrowRight"":30}","false","ArrowDown","true","revaluation","1","6","","",""
"html-keyboard-response","126","612611","0.0-4.0-2.0-1.3","spark_pilot_norest","8217","2","13","Female","","","","","","","null","<div style=""font-size:60px;"">+</div>","null","fixation","","","","","","","","","7","","",""
"revaluation","127","618641","0.0-4.0-2.0-0.4","spark_pilot_norest","8217","2","13","Female","","false","","","","","[1124.7999999821186,392.40000000596046]","./assets/img/ocean/memory/9.jpg","[""ArrowUp"",""ArrowLeft""]","value training","ocean","23","{""ArrowUp,ArrowLeft"":23,""ArrowUp,ArrowRight"":10,""ArrowDown,ArrowLeft"":8,""ArrowDown,ArrowRight"":30}","false","ArrowUp,ArrowLeft","false","revaluation","1","8","","",""
"html-keyboard-response","128","619155","0.0-4.0-2.0-1.4","spark_pilot_norest","8217","2","13","Female","","","","","","","null","<div style=""font-size:60px;"">+</div>","null","fixation","","","","","","","","","9","","",""
"revaluation","129","623170","0.0-4.0-2.0-0.5","spark_pilot_norest","8217","2","13","Female","","false","","","","","[696.9000000059605]","./assets/img/ocean/catch/1.jpg","[""spaceBar""]","value training","ocean","0","{""ArrowUp,ArrowLeft"":23,""ArrowUp,ArrowRight"":10,""ArrowDown,ArrowLeft"":8,""ArrowDown,ArrowRight"":30}","true","spaceBar","true","revaluation","1","10","","",""
"html-keyboard-response","130","623679","0.0-4.0-2.0-1.5","spark_pilot_norest","8217","2","13","Female","","","","","","","null","<div style=""font-size:60px;"">+</div>","null","fixation","","","","","","","","","11","","",""
"revaluation","131","629705","0.0-4.0-2.0-0.6","spark_pilot_norest","8217","2","13","Female","","false","","","","","[506.69999998807907,590.6000000238419]","./assets/img/ocean/memory/16.jpg","[""ArrowDown"",""ArrowLeft""]","value training","ocean","8","{""ArrowUp,ArrowLeft"":23,""ArrowUp,ArrowRight"":10,""ArrowDown,ArrowLeft"":8,""ArrowDown,ArrowRight"":30}","false","ArrowDown,ArrowLeft","false","revaluation","1","12","","",""
"html-keyboard-response","132","630218","0.0-4.0-2.0-1.6","spark_pilot_norest","8217","2","13","Female","","","","","","","null","<div style=""font-size:60px;"">+</div>","null","fixation","","","","","","","","","13","","",""
"revaluation","133","636239","0.0-4.0-2.0-0.7","spark_pilot_norest","8217","2","13","Female","","false","","","","","[622.5,371.19999998807907]","./assets/img/ocean/memory/21.jpg","[""ArrowDown"",""ArrowRight""]","value training","ocean","30","{""ArrowUp,ArrowLeft"":23,""ArrowUp,ArrowRight"":10,""ArrowDown,ArrowLeft"":8,""ArrowDown,ArrowRight"":30}","true","ArrowDown,ArrowRight","false","revaluation","1","14","","",""
"html-keyboard-response","134","636745","0.0-4.0-2.0-1.7","spark_pilot_norest","8217","2","13","Female","","","","","","","null","<div style=""font-size:60px;"">+</div>","null","fixation","","","","","","","","","15","","",""
"revaluation","135","642767","0.0-4.0-2.0-0.8","spark_pilot_norest","8217","2","13","Female","","false","","","","","[1078.199999988079,657.5]","./assets/img/ocean/memory/21.jpg","[""ArrowDown"",""ArrowRight""]","value training","ocean","30","{""ArrowUp,ArrowLeft"":23,""ArrowUp,ArrowRight"":10,""ArrowDown,ArrowLeft"":8,""ArrowDown,ArrowRight"":30}","true","ArrowDown,ArrowRight","false","revaluation","1","16","","",""
"html-keyboard-response","136","643274","0.0-4.0-2.0-1.8","spark_pilot_norest","8217","2","13","Female","","","","","","","null","<div style=""font-size:60px;"">+</div>","null","fixation","","","","","","","","","17","","",""
"revaluation","137","649295","0.0-4.0-2.0-0.9","spark_pilot_norest","8217","2","13","Female","","false","","","","","[680.4000000059605,557.6999999880791]","./assets/img/ocean/memory/36.jpg","[""ArrowDown"",""ArrowRight""]","value training","ocean","30","{""ArrowUp,ArrowLeft"":23,""ArrowUp,ArrowRight"":10,""ArrowDown,ArrowLeft"":8,""ArrowDown,ArrowRight"":30}","true","ArrowDown,ArrowRight","false","revaluation","1","18","","",""
"html-keyboard-response","138","649802","0.0-4.0-2.0-1.9","spark_pilot_norest","8217","2","13","Female","","","","","","","null","<div style=""font-size:60px;"">+</div>","null","fixation","","","","","","","","","19","","",""
"revaluation","139","655823","0.0-4.0-2.0-0.10","spark_pilot_norest","8217","2","13","Female","","false","","","","","[754.4000000059605,685.8999999761581]","./assets/img/ocean/memory/36.jpg","[""ArrowDown"",""ArrowRight""]","value training","ocean","30","{""ArrowUp,ArrowLeft"":23,""ArrowUp,ArrowRight"":10,""ArrowDown,ArrowLeft"":8,""ArrowDown,ArrowRight"":30}","true","ArrowDown,ArrowRight","false","revaluation","1","20","","",""
"html-keyboard-response","140","656330","0.0-4.0-2.0-1.10","spark_pilot_norest","8217","2","13","Female","","","","","","","null","<div style=""font-size:60px;"">+</div>","null","fixation","","","","","","","","","21","","",""
"revaluation","141","662351","0.0-4.0-2.0-0.11","spark_pilot_norest","8217","2","13","Female","","false","","","","","[802.4000000059605,540]","./assets/img/ocean/memory/19.jpg","[""ArrowDown"",""ArrowRight""]","value training","ocean","30","{""ArrowUp,ArrowLeft"":23,""ArrowUp,ArrowRight"":10,""ArrowDown,ArrowLeft"":8,""ArrowDown,ArrowRight"":30}","true","ArrowDown,ArrowRight","false","revaluation","1","22","","",""
"html-keyboard-response","142","662858","0.0-4.0-2.0-1.11","spark_pilot_norest","8217","2","13","Female","","","","","","","null","<div style=""font-size:60px;"">+</div>","null","fixation","","","","","","","","","23","","",""
"revaluation","143","668879","0.0-4.0-2.0-0.12","spark_pilot_norest","8217","2","13","Female","","false","","","","","[855.9000000059605,454.59999999403954]","./assets/img/ocean/memory/22.jpg","[""ArrowDown"",""ArrowRight""]","value training","ocean","30","{""ArrowUp,ArrowLeft"":23,""ArrowUp,ArrowRight"":10,""ArrowDown,ArrowLeft"":8,""ArrowDown,ArrowRight"":30}","true","ArrowDown,ArrowRight","false","revaluation","1","24","","",""
"html-keyboard-response","144","669386","0.0-4.0-2.0-1.12","spark_pilot_norest","8217","2","13","Female","","","","","","","null","<div style=""font-size:60px;"">+</div>","null","fixation","","","","","","","","","25","","",""
"revaluation","145","675407","0.0-4.0-2.0-0.13","spark_pilot_norest","8217","2","13","Female","","false","","","","","[824.5,426.59999999403954]","./assets/img/ocean/memory/3.jpg","[""ArrowDown"",""ArrowRight""]","value training","ocean","30","{""ArrowUp,ArrowLeft"":23,""ArrowUp,ArrowRight"":10,""ArrowDown,ArrowLeft"":8,""ArrowDown,ArrowRight"":30}","true","ArrowDown,ArrowRight","false","revaluation","1","26","","",""
"html-keyboard-response","146","675914","0.0-4.0-2.0-1.13","spark_pilot_norest","8217","2","13","Female","","","","","","","null","<div style=""font-size:60px;"">+</div>","null","fixation","","","","","","","","","27","","",""
"revaluation","147","681935","0.0-4.0-2.0-0.14","spark_pilot_norest","8217","2","13","Female","","false","","","","","[553.9000000059605,406]","./assets/img/ocean/memory/10.jpg","[""ArrowDown"",""ArrowRight""]","value training","ocean","30","{""ArrowUp,ArrowLeft"":23,""ArrowUp,ArrowRight"":10,""ArrowDown,ArrowLeft"":8,""ArrowDown,ArrowRight"":30}","true","ArrowDown,ArrowRight","false","revaluation","1","28","","",""
"html-keyboard-response","148","682442","0.0-4.0-2.0-1.14","spark_pilot_norest","8217","2","13","Female","","","","","","","null","<div style=""font-size:60px;"">+</div>","null","fixation","","","","","","","","","29","","",""
"revaluation","149","688463","0.0-4.0-2.0-0.15","spark_pilot_norest","8217","2","13","Female","","false","","","","","[687.9000000059605,621.7000000178814]","./assets/img/ocean/memory/25.jpg","[""ArrowDown"",""ArrowRight""]","value training","ocean","30","{""ArrowUp,ArrowLeft"":23,""ArrowUp,ArrowRight"":10,""ArrowDown,ArrowLeft"":8,""ArrowDown,ArrowRight"":30}","true","ArrowDown,ArrowRight","false","revaluation","1","30","","",""
"html-keyboard-response","150","688970","0.0-4.0-2.0-1.15","spark_pilot_norest","8217","2","13","Female","","","","","","","null","<div style=""font-size:60px;"">+</div>","null","fixation","","","","","","","","","31","","",""
"revaluation","151","692986","0.0-4.0-2.0-0.16","spark_pilot_norest","8217","2","13","Female","","false","","","","","[790.2000000178814]","./assets/img/ocean/catch/0.jpg","[""spaceBar""]","value training","ocean","0","{""ArrowUp,ArrowLeft"":23,""ArrowUp,ArrowRight"":10,""ArrowDown,ArrowLeft"":8,""ArrowDown,ArrowRight"":30}","true","spaceBar","true","revaluation","1","32","","",""
"html-keyboard-response","152","693498","0.0-4.0-2.0-1.16","spark_pilot_norest","8217","2","13","Female","","","","","","","null","<div style=""font-size:60px;"">+</div>","null","fixation","","","","","","","","","33","","",""
"revaluation","153","699519","0.0-4.0-2.0-0.17","spark_pilot_norest","8217","2","13","Female","","false","","","","","[719,451.69999998807907]","./assets/img/ocean/memory/26.jpg","[""ArrowDown"",""ArrowRight""]","value training","ocean","30","{""ArrowUp,ArrowLeft"":23,""ArrowUp,ArrowRight"":10,""ArrowDown,ArrowLeft"":8,""ArrowDown,ArrowRight"":30}","true","ArrowDown,ArrowRight","false","revaluation","1","34","","",""
"html-keyboard-response","154","700026","0.0-4.0-2.0-1.17","spark_pilot_norest","8217","2","13","Female","","","","","","","null","<div style=""font-size:60px;"">+</div>","null","fixation","","","","","","","","","35","","",""
"revaluation","155","706047","0.0-4.0-2.0-0.18","spark_pilot_norest","8217","2","13","Female","","false","","","","","[1125.699999988079,674.1999999880791]","./assets/img/ocean/memory/9.jpg","[""ArrowDown"",""ArrowRight""]","value training","ocean","30","{""ArrowUp,ArrowLeft"":23,""ArrowUp,ArrowRight"":10,""ArrowDown,ArrowLeft"":8,""ArrowDown,ArrowRight"":30}","true","ArrowDown,ArrowRight","false","revaluation","1","36","","",""
"html-keyboard-response","156","706554","0.0-4.0-2.0-1.18","spark_pilot_norest","8217","2","13","Female","","","","","","","null","<div style=""font-size:60px;"">+</div>","null","fixation","","","","","","","","","37","","",""
"revaluation","157","712575","0.0-4.0-2.0-0.19","spark_pilot_norest","8217","2","13","Female","","false","","","","","[813.3000000119209,390.89999997615814]","./assets/img/ocean/memory/29.jpg","[""ArrowDown"",""ArrowRight""]","value training","ocean","30","{""ArrowUp,ArrowLeft"":23,""ArrowUp,ArrowRight"":10,""ArrowDown,ArrowLeft"":8,""ArrowDown,ArrowRight"":30}","true","ArrowDown,ArrowRight","false","revaluation","1","38","","",""
"html-keyboard-response","158","713082","0.0-4.0-2.0-1.19","spark_pilot_norest","8217","2","13","Female","","","","","","","null","<div style=""font-size:60px;"">+</div>","null","fixation","","","","","","","","","39","","",""
"revaluation","159","719103","0.0-4.0-2.0-0.20","spark_pilot_norest","8217","2","13","Female","","false","","","","","[593.8000000119209,464.69999998807907]","./assets/img/ocean/memory/3.jpg","[""ArrowDown"",""ArrowRight""]","value training","ocean","30","{""ArrowUp,ArrowLeft"":23,""ArrowUp,ArrowRight"":10,""ArrowDown,ArrowLeft"":8,""ArrowDown,ArrowRight"":30}","true","ArrowDown,ArrowRight","false","revaluation","1","40","","",""
"html-keyboard-response","160","719610","0.0-4.0-2.0-1.20","spark_pilot_norest","8217","2","13","Female","","","","","","","null","<div style=""font-size:60px;"">+</div>","null","fixation","","","","","","","","","41","","",""
"revaluation","161","725631","0.0-4.0-2.0-0.21","spark_pilot_norest","8217","2","13","Female","","false","","","","","[569.6999999880791,364]","./assets/img/ocean/memory/12.jpg","[""ArrowDown"",""ArrowRight""]","value training","ocean","30","{""ArrowUp,ArrowLeft"":23,""ArrowUp,ArrowRight"":10,""ArrowDown,ArrowLeft"":8,""ArrowDown,ArrowRight"":30}","true","ArrowDown,ArrowRight","false","revaluation","1","42","","",""
"html-keyboard-response","162","726138","0.0-4.0-2.0-1.21","spark_pilot_norest","8217","2","13","Female","","","","","","","null","<div style=""font-size:60px;"">+</div>","null","fixation","","","","","","","","","43","","",""
"revaluation","163","732159","0.0-4.0-2.0-0.22","spark_pilot_norest","8217","2","13","Female","","false","","","","","[565.5999999940395,541.5999999940395]","./assets/img/ocean/memory/8.jpg","[""ArrowDown"",""ArrowRight""]","value training","ocean","30","{""ArrowUp,ArrowLeft"":23,""ArrowUp,ArrowRight"":10,""ArrowDown,ArrowLeft"":8,""ArrowDown,ArrowRight"":30}","true","ArrowDown,ArrowRight","false","revaluation","1","44","","",""
"html-keyboard-response","164","732666","0.0-4.0-2.0-1.22","spark_pilot_norest","8217","2","13","Female","","","","","","","null","<div style=""font-size:60px;"">+</div>","null","fixation","","","","","","","","","45","","",""
"revaluation","165","738687","0.0-4.0-2.0-0.23","spark_pilot_norest","8217","2","13","Female","","false","","","","","[726.6999999880791,512.5999999940395]","./assets/img/ocean/memory/25.jpg","[""ArrowDown"",""ArrowRight""]","value training","ocean","30","{""ArrowUp,ArrowLeft"":23,""ArrowUp,ArrowRight"":10,""ArrowDown,ArrowLeft"":8,""ArrowDown,ArrowRight"":30}","true","ArrowDown,ArrowRight","false","revaluation","1","46","","",""
"html-keyboard-response","166","739194","0.0-4.0-2.0-1.23","spark_pilot_norest","8217","2","13","Female","","","","","","","null","<div style=""font-size:60px;"">+</div>","null","fixation","","","","","","","","","47","","",""
"revaluation","167","745220","0.0-4.0-2.0-0.24","spark_pilot_norest","8217","2","13","Female","","false","","","","","[733.3000000119209,532.0999999940395]","./assets/img/ocean/memory/12.jpg","[""ArrowDown"",""ArrowRight""]","value training","ocean","30","{""ArrowUp,ArrowLeft"":23,""ArrowUp,ArrowRight"":10,""ArrowDown,ArrowLeft"":8,""ArrowDown,ArrowRight"":30}","true","ArrowDown,ArrowRight","false","revaluation","1","48","","",""
"html-keyboard-response","168","745727","0.0-4.0-2.0-1.24","spark_pilot_norest","8217","2","13","Female","","","","","","","null","<div style=""font-size:60px;"">+</div>","null","fixation","","","","","","","","","49","","",""
"revaluation","169","751754","0.0-4.0-2.0-0.25","spark_pilot_norest","8217","2","13","Female","","false","","","","","[579.5,554.0999999940395]","./assets/img/ocean/memory/7.jpg","[""ArrowDown"",""ArrowRight""]","value training","ocean","30","{""ArrowUp,ArrowLeft"":23,""ArrowUp,ArrowRight"":10,""ArrowDown,ArrowLeft"":8,""ArrowDown,ArrowRight"":30}","true","ArrowDown,ArrowRight","false","revaluation","1","50","","",""
"html-keyboard-response","170","752266","0.0-4.0-2.0-1.25","spark_pilot_norest","8217","2","13","Female","","","","","","","null","<div style=""font-size:60px;"">+</div>","null","fixation","","","","","","","","","51","","",""
"revaluation","171","758288","0.0-4.0-2.0-0.26","spark_pilot_norest","8217","2","13","Female","","false","","","","","[645.5999999940395,444.60000002384186]","./assets/img/ocean/memory/29.jpg","[""ArrowDown"",""ArrowRight""]","value training","ocean","30","{""ArrowUp,ArrowLeft"":23,""ArrowUp,ArrowRight"":10,""ArrowDown,ArrowLeft"":8,""ArrowDown,ArrowRight"":30}","true","ArrowDown,ArrowRight","false","revaluation","1","52","","",""
"html-keyboard-response","172","758794","0.0-4.0-2.0-1.26","spark_pilot_norest","8217","2","13","Female","","","","","","","null","<div style=""font-size:60px;"">+</div>","null","fixation","","","","","","","","","53","","",""
"revaluation","173","764820","0.0-4.0-2.0-0.27","spark_pilot_norest","8217","2","13","Female","","false","","","","","[676,506.7000000178814]","./assets/img/ocean/memory/22.jpg","[""ArrowDown"",""ArrowRight""]","value training","ocean","30","{""ArrowUp,ArrowLeft"":23,""ArrowUp,ArrowRight"":10,""ArrowDown,ArrowLeft"":8,""ArrowDown,ArrowRight"":30}","true","ArrowDown,ArrowRight","false","revaluation","1","54","","",""
"html-keyboard-response","174","765327","0.0-4.0-2.0-1.27","spark_pilot_norest","8217","2","13","Female","","","","","","","null","<div style=""font-size:60px;"">+</div>","null","fixation","","","","","","","","","55","","",""
"revaluation","175","771353","0.0-4.0-2.0-0.28","spark_pilot_norest","8217","2","13","Female","","false","","","","","[895.9000000059605,417.90000000596046]","./assets/img/ocean/memory/15.jpg","[""ArrowDown"",""ArrowRight""]","value training","ocean","30","{""ArrowUp,ArrowLeft"":23,""ArrowUp,ArrowRight"":10,""ArrowDown,ArrowLeft"":8,""ArrowDown,ArrowRight"":30}","true","ArrowDown,ArrowRight","false","revaluation","1","56","","",""
"html-keyboard-response","176","771855","0.0-4.0-2.0-1.28","spark_pilot_norest","8217","2","13","Female","","","","","","","null","<div style=""font-size:60px;"">+</div>","null","fixation","","","","","","","","","57","","",""
"revaluation","177","777882","0.0-4.0-2.0-0.29","spark_pilot_norest","8217","2","13","Female","","false","","","","","[589.0999999940395,386.80000001192093]","./assets/img/ocean/memory/5.jpg","[""ArrowDown"",""ArrowRight""]","value training","ocean","30","{""ArrowUp,ArrowLeft"":23,""ArrowUp,ArrowRight"":10,""ArrowDown,ArrowLeft"":8,""ArrowDown,ArrowRight"":30}","true","ArrowDown,ArrowRight","false","revaluation","1","58","","",""
"html-keyboard-response","178","778394","0.0-4.0-2.0-1.29","spark_pilot_norest","8217","2","13","Female","","","","","","","null","<div style=""font-size:60px;"">+</div>","null","fixation","","","","","","","","","59","","",""
"revaluation","179","784416","0.0-4.0-2.0-0.30","spark_pilot_norest","8217","2","13","Female","","false","","","","","[745.5999999940395,383.2000000178814]","./assets/img/ocean/memory/30.jpg","[""ArrowDown"",""ArrowRight""]","value training","ocean","30","{""ArrowUp,ArrowLeft"":23,""ArrowUp,ArrowRight"":10,""ArrowDown,ArrowLeft"":8,""ArrowDown,ArrowRight"":30}","true","ArrowDown,ArrowRight","false","revaluation","1","60","","",""
"html-keyboard-response","180","784922","0.0-4.0-2.0-1.30","spark_pilot_norest","8217","2","13","Female","","","","","","","null","<div style=""font-size:60px;"">+</div>","null","fixation","","","","","","","","","61","","",""
"revaluation","181","790944","0.0-4.0-2.0-0.31","spark_pilot_norest","8217","2","13","Female","","false","","","","","[712.1999999880791,552.5999999940395]","./assets/img/ocean/memory/31.jpg","[""ArrowDown"",""ArrowRight""]","value training","ocean","30","{""ArrowUp,ArrowLeft"":23,""ArrowUp,ArrowRight"":10,""ArrowDown,ArrowLeft"":8,""ArrowDown,ArrowRight"":30}","true","ArrowDown,ArrowRight","false","revaluation","1","62","","",""
"html-keyboard-response","182","791450","0.0-4.0-2.0-1.31","spark_pilot_norest","8217","2","13","Female","","","","","","","null","<div style=""font-size:60px;"">+</div>","null","fixation","","","","","","","","","63","","",""
"revaluation","183","797472","0.0-4.0-2.0-0.32","spark_pilot_norest","8217","2","13","Female","","false","","","","","[1053.9000000059605,456.5]","./assets/img/ocean/memory/15.jpg","[""ArrowDown"",""ArrowRight""]","value training","ocean","30","{""ArrowUp,ArrowLeft"":23,""ArrowUp,ArrowRight"":10,""ArrowDown,ArrowLeft"":8,""ArrowDown,ArrowRight"":30}","true","ArrowDown,ArrowRight","false","revaluation","1","64","","",""
"html-keyboard-response","184","797978","0.0-4.0-2.0-1.32","spark_pilot_norest","8217","2","13","Female","","","","","","","null","<div style=""font-size:60px;"">+</div>","null","fixation","","","","","","","","","65","","",""
"revaluation","185","801994","0.0-4.0-2.0-0.33","spark_pilot_norest","8217","2","13","Female","","false","","","","","[1063.9000000059605]","./assets/img/ocean/catch/3.jpg","[""spaceBar""]","value training","ocean","0","{""ArrowUp,ArrowLeft"":23,""ArrowUp,ArrowRight"":10,""ArrowDown,ArrowLeft"":8,""ArrowDown,ArrowRight"":30}","true","spaceBar","true","revaluation","1","66","","",""
"html-keyboard-response","186","802506","0.0-4.0-2.0-1.33","spark_pilot_norest","8217","2","13","Female","","","","","","","null","<div style=""font-size:60px;"">+</div>","null","fixation","","","","","","","","","67","","",""
"revaluation","187","808528","0.0-4.0-2.0-0.34","spark_pilot_norest","8217","2","13","Female","","false","","","","","[747.8000000119209,426.5]","./assets/img/ocean/memory/33.jpg","[""ArrowDown"",""ArrowRight""]","value training","ocean","30","{""ArrowUp,ArrowLeft"":23,""ArrowUp,ArrowRight"":10,""ArrowDown,ArrowLeft"":8,""ArrowDown,ArrowRight"":30}","true","ArrowDown,ArrowRight","false","revaluation","1","68","","",""
"html-keyboard-response","188","809034","0.0-4.0-2.0-1.34","spark_pilot_norest","8217","2","13","Female","","","","","","","null","<div style=""font-size:60px;"">+</div>","null","fixation","","","","","","","","","69","","",""
"revaluation","189","815056","0.0-4.0-2.0-0.35","spark_pilot_norest","8217","2","13","Female","","false","","","","","[645,314.39999997615814]","./assets/img/ocean/memory/38.jpg","[""ArrowDown"",""ArrowRight""]","value training","ocean","30","{""ArrowUp,ArrowLeft"":23,""ArrowUp,ArrowRight"":10,""ArrowDown,ArrowLeft"":8,""ArrowDown,ArrowRight"":30}","true","ArrowDown,ArrowRight","false","revaluation","1","70","","",""
"html-keyboard-response","190","815562","0.0-4.0-2.0-1.35","spark_pilot_norest","8217","2","13","Female","","","","","","","null","<div style=""font-size:60px;"">+</div>","null","fixation","","","","","","","","","71","","",""
"revaluation","191","821584","0.0-4.0-2.0-0.36","spark_pilot_norest","8217","2","13","Female","","false","","","","","[601.9000000059605,374.7999999821186]","./assets/img/ocean/memory/10.jpg","[""ArrowDown"",""ArrowRight""]","value training","ocean","30","{""ArrowUp,ArrowLeft"":23,""ArrowUp,ArrowRight"":10,""ArrowDown,ArrowLeft"":8,""ArrowDown,ArrowRight"":30}","true","ArrowDown,ArrowRight","false","revaluation","1","72","","",""
"html-keyboard-response","192","822090","0.0-4.0-2.0-1.36","spark_pilot_norest","8217","2","13","Female","","","","","","","null","<div style=""font-size:60px;"">+</div>","null","fixation","","","","","","","","","73","","",""
"revaluation","193","828112","0.0-4.0-2.0-0.37","spark_pilot_norest","8217","2","13","Female","","false","","","","","[629.7999999821186,344.69999998807907]","./assets/img/ocean/memory/17.jpg","[""ArrowDown"",""ArrowRight""]","value training","ocean","30","{""ArrowUp,ArrowLeft"":23,""ArrowUp,ArrowRight"":10,""ArrowDown,ArrowLeft"":8,""ArrowDown,ArrowRight"":30}","true","ArrowDown,ArrowRight","false","revaluation","1","74","","",""
"html-keyboard-response","194","828618","0.0-4.0-2.0-1.37","spark_pilot_norest","8217","2","13","Female","","","","","","","null","<div style=""font-size:60px;"">+</div>","null","fixation","","","","","","","","","75","","",""
"revaluation","195","832634","0.0-4.0-2.0-0.38","spark_pilot_norest","8217","2","13","Female","","false","","","","","[941.6000000238419]","./assets/img/ocean/catch/5.jpg","[""spaceBar""]","value training","ocean","0","{""ArrowUp,ArrowLeft"":23,""ArrowUp,ArrowRight"":10,""ArrowDown,ArrowLeft"":8,""ArrowDown,ArrowRight"":30}","true","spaceBar","true","revaluation","1","76","","",""
"html-keyboard-response","196","833146","0.0-4.0-2.0-1.38","spark_pilot_norest","8217","2","13","Female","","","","","","","null","<div style=""font-size:60px;"">+</div>","null","fixation","","","","","","","","","77","","",""
"revaluation","197","839168","0.0-4.0-2.0-0.39","spark_pilot_norest","8217","2","13","Female","","false","","","","","[693,779.1999999880791]","./assets/img/ocean/memory/26.jpg","[""ArrowDown"",""ArrowRight""]","value training","ocean","30","{""ArrowUp,ArrowLeft"":23,""ArrowUp,ArrowRight"":10,""ArrowDown,ArrowLeft"":8,""ArrowDown,ArrowRight"":30}","true","ArrowDown,ArrowRight","false","revaluation","1","78","","",""
"html-keyboard-response","198","839674","0.0-4.0-2.0-1.39","spark_pilot_norest","8217","2","13","Female","","","","","","","null","<div style=""font-size:60px;"">+</div>","null","fixation","","","","","","","","","79","","",""
"revaluation","199","845695","0.0-4.0-2.0-0.40","spark_pilot_norest","8217","2","13","Female","","false","","","","","[651.6000000238419,476.89999997615814]","./assets/img/ocean/memory/19.jpg","[""ArrowDown"",""ArrowRight""]","value training","ocean","30","{""ArrowUp,ArrowLeft"":23,""ArrowUp,ArrowRight"":10,""ArrowDown,ArrowLeft"":8,""ArrowDown,ArrowRight"":30}","true","ArrowDown,ArrowRight","false","revaluation","1","80","","",""
"html-keyboard-response","200","846202","0.0-4.0-2.0-1.40","spark_pilot_norest","8217","2","13","Female","","","","","","","null","<div style=""font-size:60px;"">+</div>","null","fixation","","","","","","","","","81","","",""
"revaluation","201","852224","0.0-4.0-2.0-0.41","spark_pilot_norest","8217","2","13","Female","","false","","","","","[675.6999999880791,470.09999999403954]","./assets/img/ocean/memory/16.jpg","[""ArrowDown"",""ArrowRight""]","value training","ocean","30","{""ArrowUp,ArrowLeft"":23,""ArrowUp,ArrowRight"":10,""ArrowDown,ArrowLeft"":8,""ArrowDown,ArrowRight"":30}","true","ArrowDown,ArrowRight","false","revaluation","1","82","","",""
"html-keyboard-response","202","852730","0.0-4.0-2.0-1.41","spark_pilot_norest","8217","2","13","Female","","","","","","","null","<div style=""font-size:60px;"">+</div>","null","fixation","","","","","","","","","83","","",""
"revaluation","203","856746","0.0-4.0-2.0-0.42","spark_pilot_norest","8217","2","13","Female","","false","","","","","[759.4000000059605]","./assets/img/ocean/catch/6.jpg","[""spaceBar""]","value training","ocean","0","{""ArrowUp,ArrowLeft"":23,""ArrowUp,ArrowRight"":10,""ArrowDown,ArrowLeft"":8,""ArrowDown,ArrowRight"":30}","true","spaceBar","true","revaluation","1","84","","",""
"html-keyboard-response","204","857258","0.0-4.0-2.0-1.42","spark_pilot_norest","8217","2","13","Female","","","","","","","null","<div style=""font-size:60px;"">+</div>","null","fixation","","","","","","","","","85","","",""
"revaluation","205","863280","0.0-4.0-2.0-0.43","spark_pilot_norest","8217","2","13","Female","","false","","","","","[648.4000000059605,287.69999998807907]","./assets/img/ocean/memory/33.jpg","[""ArrowDown"",""ArrowRight""]","value training","ocean","30","{""ArrowUp,ArrowLeft"":23,""ArrowUp,ArrowRight"":10,""ArrowDown,ArrowLeft"":8,""ArrowDown,ArrowRight"":30}","true","ArrowDown,ArrowRight","false","revaluation","1","86","","",""
"html-keyboard-response","206","863786","0.0-4.0-2.0-1.43","spark_pilot_norest","8217","2","13","Female","","","","","","","null","<div style=""font-size:60px;"">+</div>","null","fixation","","","","","","","","","87","","",""
"revaluation","207","869808","0.0-4.0-2.0-0.44","spark_pilot_norest","8217","2","13","Female","","false","","","","","[615,347.09999999403954]","./assets/img/ocean/memory/17.jpg","[""ArrowDown"",""ArrowRight""]","value training","ocean","30","{""ArrowUp,ArrowLeft"":23,""ArrowUp,ArrowRight"":10,""ArrowDown,ArrowLeft"":8,""ArrowDown,ArrowRight"":30}","true","ArrowDown,ArrowRight","false","revaluation","1","88","","",""
"html-keyboard-response","208","870313","0.0-4.0-2.0-1.44","spark_pilot_norest","8217","2","13","Female","","","","","","","null","<div style=""font-size:60px;"">+</div>","null","fixation","","","","","","","","","89","","",""
"revaluation","209","876336","0.0-4.0-2.0-0.45","spark_pilot_norest","8217","2","13","Female","","false","","","","","[614.5999999940395,407.7999999821186]","./assets/img/ocean/memory/8.jpg","[""ArrowDown"",""ArrowRight""]","value training","ocean","30","{""ArrowUp,ArrowLeft"":23,""ArrowUp,ArrowRight"":10,""ArrowDown,ArrowLeft"":8,""ArrowDown,ArrowRight"":30}","true","ArrowDown,ArrowRight","false","revaluation","1","90","","",""
"html-keyboard-response","210","876842","0.0-4.0-2.0-1.45","spark_pilot_norest","8217","2","13","Female","","","","","","","null","<div style=""font-size:60px;"">+</div>","null","fixation","","","","","","","","","91","","",""
"revaluation","211","880858","0.0-4.0-2.0-0.46","spark_pilot_norest","8217","2","13","Female","","false","","","","","[697.1000000238419]","./assets/img/ocean/catch/2.jpg","[""spaceBar""]","value training","ocean","0","{""ArrowUp,ArrowLeft"":23,""ArrowUp,ArrowRight"":10,""ArrowDown,ArrowLeft"":8,""ArrowDown,ArrowRight"":30}","true","spaceBar","true","revaluation","1","92","","",""
"html-keyboard-response","212","881370","0.0-4.0-2.0-1.46","spark_pilot_norest","8217","2","13","Female","","","","","","","null","<div style=""font-size:60px;"">+</div>","null","fixation","","","","","","","","","93","","",""
"revaluation","213","887392","0.0-4.0-2.0-0.47","spark_pilot_norest","8217","2","13","Female","","false","","","","","[592.2000000178814,323.09999999403954]","./assets/img/ocean/memory/7.jpg","[""ArrowDown"",""ArrowRight""]","value training","ocean","30","{""ArrowUp,ArrowLeft"":23,""ArrowUp,ArrowRight"":10,""ArrowDown,ArrowLeft"":8,""ArrowDown,ArrowRight"":30}","true","ArrowDown,ArrowRight","false","revaluation","1","94","","",""
"html-keyboard-response","214","887898","0.0-4.0-2.0-1.47","spark_pilot_norest","8217","2","13","Female","","","","","","","null","<div style=""font-size:60px;"">+</div>","null","fixation","","","","","","","","","95","","",""
"revaluation","215","893920","0.0-4.0-2.0-0.48","spark_pilot_norest","8217","2","13","Female","","false","","","","","[570.9000000059605,366.59999999403954]","./assets/img/ocean/memory/31.jpg","[""ArrowDown"",""ArrowRight""]","value training","ocean","30","{""ArrowUp,ArrowLeft"":23,""ArrowUp,ArrowRight"":10,""ArrowDown,ArrowLeft"":8,""ArrowDown,ArrowRight"":30}","true","ArrowDown,ArrowRight","false","revaluation","1","96","","",""
"html-keyboard-response","216","894426","0.0-4.0-2.0-1.48","spark_pilot_norest","8217","2","13","Female","","","","","","","null","<div style=""font-size:60px;"">+</div>","null","fixation","","","","","","","","","97","","",""
"revaluation","217","900448","0.0-4.0-2.0-0.49","spark_pilot_norest","8217","2","13","Female","","false","","","","","[608.0999999940395,161.09999999403954]","./assets/img/ocean/memory/38.jpg","[""ArrowDown"",""ArrowRight""]","value training","ocean","30","{""ArrowUp,ArrowLeft"":23,""ArrowUp,ArrowRight"":10,""ArrowDown,ArrowLeft"":8,""ArrowDown,ArrowRight"":30}","true","ArrowDown,ArrowRight","false","revaluation","1","98","","",""
"html-keyboard-response","218","900954","0.0-4.0-2.0-1.49","spark_pilot_norest","8217","2","13","Female","","","","","","","null","<div style=""font-size:60px;"">+</div>","null","fixation","","","","","","","","","99","","",""
"learning-instructions","219","917851","0.0-4.0-3.0-0.0","spark_pilot_norest","8217","2","13","Female","","","","","","","3952.5","<p> Now, you will travel with a friend who will choose whether you go up or down first. </p>
            <p> On these turns, you will just see the animal that they found. You will still get to choose which chest to search for treasure.</p>","","instructions","","","","","","","","","","","",""
"revaluation","220","921868","0.0-4.0-4.0-0.0","spark_pilot_norest","8217","2","13","Female","","false","","","","","[585.5999999940395]","./assets/img/ocean/animals/seahorse.jpg","[""ArrowRight""]","revaluation","ocean","7","{""ArrowUp,ArrowLeft"":27,""ArrowUp,ArrowRight"":15,""ArrowDown,ArrowLeft"":21,""ArrowDown,ArrowRight"":7}","false","ArrowDown,ArrowRight","","revaluation","1","0","","",""
"html-keyboard-response","221","922380","0.0-4.0-4.0-1.0","spark_pilot_norest","8217","2","13","Female","","","","","","","null","<div style=""font-size:60px;"">+</div>","null","fixation","","","","","","","","","1","","",""
"revaluation","222","926404","0.0-4.0-4.0-0.1","spark_pilot_norest","8217","2","13","Female","","false","","","","","[1291.7000000178814]","./assets/img/ocean/animals/octopus.jpg","[""ArrowLeft""]","revaluation","ocean","27","{""ArrowUp,ArrowLeft"":27,""ArrowUp,ArrowRight"":15,""ArrowDown,ArrowLeft"":21,""ArrowDown,ArrowRight"":7}","true","ArrowUp,ArrowLeft","","revaluation","1","2","","",""
"html-keyboard-response","223","926916","0.0-4.0-4.0-1.1","spark_pilot_norest","8217","2","13","Female","","","","","","","null","<div style=""font-size:60px;"">+</div>","null","fixation","","","","","","","","","3","","",""
"revaluation","224","930940","0.0-4.0-4.0-0.2","spark_pilot_norest","8217","2","13","Female","","false","","","","","[844.4000000059605]","./assets/img/ocean/animals/octopus.jpg","[""ArrowRight""]","revaluation","ocean","15","{""ArrowUp,ArrowLeft"":27,""ArrowUp,ArrowRight"":15,""ArrowDown,ArrowLeft"":21,""ArrowDown,ArrowRight"":7}","false","ArrowUp,ArrowRight","","revaluation","1","4","","",""
"html-keyboard-response","225","931452","0.0-4.0-4.0-1.2","spark_pilot_norest","8217","2","13","Female","","","","","","","null","<div style=""font-size:60px;"">+</div>","null","fixation","","","","","","","","","5","","",""
"revaluation","226","935476","0.0-4.0-4.0-0.3","spark_pilot_norest","8217","2","13","Female","","false","","","","","[589.5999999940395]","./assets/img/ocean/animals/seahorse.jpg","[""ArrowLeft""]","revaluation","ocean","21","{""ArrowUp,ArrowLeft"":27,""ArrowUp,ArrowRight"":15,""ArrowDown,ArrowLeft"":21,""ArrowDown,ArrowRight"":7}","true","ArrowDown,ArrowLeft","","revaluation","1","6","","",""
"html-keyboard-response","227","935988","0.0-4.0-4.0-1.3","spark_pilot_norest","8217","2","13","Female","","","","","","","null","<div style=""font-size:60px;"">+</div>","null","fixation","","","","","","","","","7","","",""
"revaluation","228","940012","0.0-4.0-4.0-0.4","spark_pilot_norest","8217","2","13","Female","","false","","","","","[866.8000000119209]","./assets/img/ocean/animals/seahorse.jpg","[""ArrowLeft""]","revaluation","ocean","21","{""ArrowUp,ArrowLeft"":27,""ArrowUp,ArrowRight"":15,""ArrowDown,ArrowLeft"":21,""ArrowDown,ArrowRight"":7}","true","ArrowDown,ArrowLeft","","revaluation","1","8","","",""
"html-keyboard-response","229","940524","0.0-4.0-4.0-1.4","spark_pilot_norest","8217","2","13","Female","","","","","","","null","<div style=""font-size:60px;"">+</div>","null","fixation","","","","","","","","","9","","",""
"revaluation","230","944544","0.0-4.0-4.0-0.5","spark_pilot_norest","8217","2","13","Female","","false","","","","","[1090.7000000178814]","./assets/img/ocean/animals/seahorse.jpg","[""ArrowLeft""]","revaluation","ocean","21","{""ArrowUp,ArrowLeft"":27,""ArrowUp,ArrowRight"":15,""ArrowDown,ArrowLeft"":21,""ArrowDown,ArrowRight"":7}","true","ArrowDown,ArrowLeft","","revaluation","1","10","","",""
"html-keyboard-response","231","945050","0.0-4.0-4.0-1.5","spark_pilot_norest","8217","2","13","Female","","","","","","","null","<div style=""font-size:60px;"">+</div>","null","fixation","","","","","","","","","11","","",""
"revaluation","232","949067","0.0-4.0-4.0-0.6","spark_pilot_norest","8217","2","13","Female","","false","","","","","[641.4000000059605]","./assets/img/ocean/animals/seahorse.jpg","[""ArrowLeft""]","revaluation","ocean","21","{""ArrowUp,ArrowLeft"":27,""ArrowUp,ArrowRight"":15,""ArrowDown,ArrowLeft"":21,""ArrowDown,ArrowRight"":7}","true","ArrowDown,ArrowLeft","","revaluation","1","12","","",""
"html-keyboard-response","233","949578","0.0-4.0-4.0-1.6","spark_pilot_norest","8217","2","13","Female","","","","","","","null","<div style=""font-size:60px;"">+</div>","null","fixation","","","","","","","","","13","","",""
"revaluation","234","953595","0.0-4.0-4.0-0.7","spark_pilot_norest","8217","2","13","Female","","false","","","","","[498.5]","./assets/img/ocean/animals/seahorse.jpg","[""ArrowLeft""]","revaluation","ocean","21","{""ArrowUp,ArrowLeft"":27,""ArrowUp,ArrowRight"":15,""ArrowDown,ArrowLeft"":21,""ArrowDown,ArrowRight"":7}","true","ArrowDown,ArrowLeft","","revaluation","1","14","","",""
"html-keyboard-response","235","954107","0.0-4.0-4.0-1.7","spark_pilot_norest","8217","2","13","Female","","","","","","","null","<div style=""font-size:60px;"">+</div>","null","fixation","","","","","","","","","15","","",""
"revaluation","236","958123","0.0-4.0-4.0-0.8","spark_pilot_norest","8217","2","13","Female","","false","","","","","[554.7999999821186]","./assets/img/ocean/animals/seahorse.jpg","[""ArrowLeft""]","revaluation","ocean","21","{""ArrowUp,ArrowLeft"":27,""ArrowUp,ArrowRight"":15,""ArrowDown,ArrowLeft"":21,""ArrowDown,ArrowRight"":7}","true","ArrowDown,ArrowLeft","","revaluation","1","16","","",""
"html-keyboard-response","237","958635","0.0-4.0-4.0-1.8","spark_pilot_norest","8217","2","13","Female","","","","","","","null","<div style=""font-size:60px;"">+</div>","null","fixation","","","","","","","","","17","","",""
"revaluation","238","962651","0.0-4.0-4.0-0.9","spark_pilot_norest","8217","2","13","Female","","false","","","","","[524.7000000178814]","./assets/img/ocean/animals/octopus.jpg","[""ArrowLeft""]","revaluation","ocean","27","{""ArrowUp,ArrowLeft"":27,""ArrowUp,ArrowRight"":15,""ArrowDown,ArrowLeft"":21,""ArrowDown,ArrowRight"":7}","true","ArrowUp,ArrowLeft","","revaluation","1","18","","",""
"html-keyboard-response","239","963163","0.0-4.0-4.0-1.9","spark_pilot_norest","8217","2","13","Female","","","","","","","null","<div style=""font-size:60px;"">+</div>","null","fixation","","","","","","","","","19","","",""
"revaluation","240","967179","0.0-4.0-4.0-0.10","spark_pilot_norest","8217","2","13","Female","","false","","","","","[658.8000000119209]","./assets/img/ocean/animals/octopus.jpg","[""ArrowLeft""]","revaluation","ocean","27","{""ArrowUp,ArrowLeft"":27,""ArrowUp,ArrowRight"":15,""ArrowDown,ArrowLeft"":21,""ArrowDown,ArrowRight"":7}","true","ArrowUp,ArrowLeft","","revaluation","1","20","","",""
"html-keyboard-response","241","967691","0.0-4.0-4.0-1.10","spark_pilot_norest","8217","2","13","Female","","","","","","","null","<div style=""font-size:60px;"">+</div>","null","fixation","","","","","","","","","21","","",""
"revaluation","242","971707","0.0-4.0-4.0-0.11","spark_pilot_norest","8217","2","13","Female","","false","","","","","[647.2000000178814]","./assets/img/ocean/animals/octopus.jpg","[""ArrowLeft""]","revaluation","ocean","27","{""ArrowUp,ArrowLeft"":27,""ArrowUp,ArrowRight"":15,""ArrowDown,ArrowLeft"":21,""ArrowDown,ArrowRight"":7}","true","ArrowUp,ArrowLeft","","revaluation","1","22","","",""
"html-keyboard-response","243","972219","0.0-4.0-4.0-1.11","spark_pilot_norest","8217","2","13","Female","","","","","","","null","<div style=""font-size:60px;"">+</div>","null","fixation","","","","","","","","","23","","",""
"revaluation","244","976235","0.0-4.0-4.0-0.12","spark_pilot_norest","8217","2","13","Female","","false","","","","","[572.5999999940395]","./assets/img/ocean/animals/octopus.jpg","[""ArrowLeft""]","revaluation","ocean","27","{""ArrowUp,ArrowLeft"":27,""ArrowUp,ArrowRight"":15,""ArrowDown,ArrowLeft"":21,""ArrowDown,ArrowRight"":7}","true","ArrowUp,ArrowLeft","","revaluation","1","24","","",""
"html-keyboard-response","245","976746","0.0-4.0-4.0-1.12","spark_pilot_norest","8217","2","13","Female","","","","","","","null","<div style=""font-size:60px;"">+</div>","null","fixation","","","","","","","","","25","","",""
"revaluation","246","980763","0.0-4.0-4.0-0.13","spark_pilot_norest","8217","2","13","Female","","false","","","","","[523.5]","./assets/img/ocean/animals/seahorse.jpg","[""ArrowLeft""]","revaluation","ocean","21","{""ArrowUp,ArrowLeft"":27,""ArrowUp,ArrowRight"":15,""ArrowDown,ArrowLeft"":21,""ArrowDown,ArrowRight"":7}","true","ArrowDown,ArrowLeft","","revaluation","1","26","","",""
"html-keyboard-response","247","981275","0.0-4.0-4.0-1.13","spark_pilot_norest","8217","2","13","Female","","","","","","","null","<div style=""font-size:60px;"">+</div>","null","fixation","","","","","","","","","27","","",""
"revaluation","248","985291","0.0-4.0-4.0-0.14","spark_pilot_norest","8217","2","13","Female","","false","","","","","[890.0999999940395]","./assets/img/ocean/animals/octopus.jpg","[""ArrowLeft""]","revaluation","ocean","27","{""ArrowUp,ArrowLeft"":27,""ArrowUp,ArrowRight"":15,""ArrowDown,ArrowLeft"":21,""ArrowDown,ArrowRight"":7}","true","ArrowUp,ArrowLeft","","revaluation","1","28","","",""
"html-keyboard-response","249","985803","0.0-4.0-4.0-1.14","spark_pilot_norest","8217","2","13","Female","","","","","","","null","<div style=""font-size:60px;"">+</div>","null","fixation","","","","","","","","","29","","",""
"revaluation","250","989819","0.0-4.0-4.0-0.15","spark_pilot_norest","8217","2","13","Female","","false","","","","","[380.90000000596046]","./assets/img/ocean/animals/octopus.jpg","[""ArrowLeft""]","revaluation","ocean","27","{""ArrowUp,ArrowLeft"":27,""ArrowUp,ArrowRight"":15,""ArrowDown,ArrowLeft"":21,""ArrowDown,ArrowRight"":7}","true","ArrowUp,ArrowLeft","","revaluation","1","30","","",""
"html-keyboard-response","251","990331","0.0-4.0-4.0-1.15","spark_pilot_norest","8217","2","13","Female","","","","","","","null","<div style=""font-size:60px;"">+</div>","null","fixation","","","","","","","","","31","","",""
"revaluation","252","994347","0.0-4.0-4.0-0.16","spark_pilot_norest","8217","2","13","Female","","false","","","","","[181]","./assets/img/ocean/animals/octopus.jpg","[""ArrowLeft""]","revaluation","ocean","27","{""ArrowUp,ArrowLeft"":27,""ArrowUp,ArrowRight"":15,""ArrowDown,ArrowLeft"":21,""ArrowDown,ArrowRight"":7}","true","ArrowUp,ArrowLeft","","revaluation","1","32","","",""
"html-keyboard-response","253","994859","0.0-4.0-4.0-1.16","spark_pilot_norest","8217","2","13","Female","","","","","","","null","<div style=""font-size:60px;"">+</div>","null","fixation","","","","","","","","","33","","",""
"revaluation","254","998875","0.0-4.0-4.0-0.17","spark_pilot_norest","8217","2","13","Female","","false","","","","","[479.80000001192093]","./assets/img/ocean/animals/seahorse.jpg","[""ArrowLeft""]","revaluation","ocean","21","{""ArrowUp,ArrowLeft"":27,""ArrowUp,ArrowRight"":15,""ArrowDown,ArrowLeft"":21,""ArrowDown,ArrowRight"":7}","true","ArrowDown,ArrowLeft","","revaluation","1","34","","",""
"html-keyboard-response","255","999387","0.0-4.0-4.0-1.17","spark_pilot_norest","8217","2","13","Female","","","","","","","null","<div style=""font-size:60px;"">+</div>","null","fixation","","","","","","","","","35","","",""
"learning-instructions","256","1007560","0.0-4.0-5.0-0.0","spark_pilot_norest","8217","2","13","Female","","","","","","","null","<p> You have almost finished this part of the game! </p>
            <p> We are going to ask you to make a few more choices. </p>","","instructions","","","","","","","","","","","",""
"learning-instructions","257","1023536","0.0-4.0-5.0-0.1","spark_pilot_norest","8217","2","13","Female","","","","","","","null","<p> First, you need to decide whether to go up or down. When you see each picture, use the arrow keys to make your choice. </p>
            <p><b>You will not see which animal you found, but try to get to the one that will give you the most treasure.</b></p>","","instructions","","","","","","","","","","","",""
"html-keyboard-response","258","1024547","0.0-4.0-6.0-0.0","spark_pilot_norest","8217","2","13","Female","","","","","","","null","<div style=""font-size:100px;color:red;"">Starting in...</div>","null","","","","","","","","","","","","",""
"html-keyboard-response","259","1025552","0.0-4.0-6.0-1.0","spark_pilot_norest","8217","2","13","Female","","","","","","","null","<div style=""font-size:200px;color:red;"">3</div>","null","","","","","","","","","","","","",""
"html-keyboard-response","260","1026559","0.0-4.0-6.0-2.0","spark_pilot_norest","8217","2","13","Female","","","","","","","null","<div style=""font-size:200px;color:red;"">2</div>","null","","","","","","","","","","","","",""
"html-keyboard-response","261","1027569","0.0-4.0-6.0-3.0","spark_pilot_norest","8217","2","13","Female","","","","","","","null","<div style=""font-size:200px;color:red;"">1</div>","null","","","","","","","","","","","","",""
"revaluation","262","1027998","0.0-4.0-7.0-0.0","spark_pilot_norest","8217","2","13","Female","","false","","","","","[426.60000002384186]","./assets/img/ocean/test/1.jpg","[""ArrowUp""]","first stage test","ocean","0","{""ArrowUp,ArrowLeft"":27,""ArrowUp,ArrowRight"":15,""ArrowDown,ArrowLeft"":21,""ArrowDown,ArrowRight"":7}","true","ArrowUp","false","revaluation","1","","","",""
"html-keyboard-response","263","1028508","0.0-4.0-7.0-1.0","spark_pilot_norest","8217","2","13","Female","","","","","","","null","<div style=""font-size:60px;"">+</div>","null","fixation","","","","","","","","","","","",""
"revaluation","264","1029215","0.0-4.0-7.0-0.1","spark_pilot_norest","8217","2","13","Female","","false","","","","","[704.1999999880791]","./assets/img/ocean/test/3.jpg","[""ArrowUp""]","first stage test","ocean","0","{""ArrowUp,ArrowLeft"":27,""ArrowUp,ArrowRight"":15,""ArrowDown,ArrowLeft"":21,""ArrowDown,ArrowRight"":7}","true","ArrowUp","false","revaluation","1","","","",""
"html-keyboard-response","265","1029722","0.0-4.0-7.0-1.1","spark_pilot_norest","8217","2","13","Female","","","","","","","null","<div style=""font-size:60px;"">+</div>","null","fixation","","","","","","","","","","","",""
"revaluation","266","1030282","0.0-4.0-7.0-0.2","spark_pilot_norest","8217","2","13","Female","","false","","","","","[556.4000000059605]","./assets/img/ocean/test/0.jpg","[""ArrowUp""]","first stage test","ocean","0","{""ArrowUp,ArrowLeft"":27,""ArrowUp,ArrowRight"":15,""ArrowDown,ArrowLeft"":21,""ArrowDown,ArrowRight"":7}","true","ArrowUp","false","revaluation","1","","","",""
"html-keyboard-response","267","1030783","0.0-4.0-7.0-1.2","spark_pilot_norest","8217","2","13","Female","","","","","","","null","<div style=""font-size:60px;"">+</div>","null","fixation","","","","","","","","","","","",""
"revaluation","268","1031134","0.0-4.0-7.0-0.3","spark_pilot_norest","8217","2","13","Female","","false","","","","","[347.5]","./assets/img/ocean/test/2.jpg","[""ArrowUp""]","first stage test","ocean","0","{""ArrowUp,ArrowLeft"":27,""ArrowUp,ArrowRight"":15,""ArrowDown,ArrowLeft"":21,""ArrowDown,ArrowRight"":7}","true","ArrowUp","false","revaluation","1","","","",""
"html-keyboard-response","269","1031644","0.0-4.0-7.0-1.3","spark_pilot_norest","8217","2","13","Female","","","","","","","null","<div style=""font-size:60px;"">+</div>","null","fixation","","","","","","","","","","","",""
"learning-instructions","270","1044996","0.0-4.0-8.0-0.0","spark_pilot_norest","8217","2","13","Female","","","","","","","null","<p> Now you will see the animals again and can search their chests for treasure. </p>
            <p> This time, you will not see how much treasure you earned, but you will earn more bonus money for making better choices. </p>","","instructions","","","","","","","","","","","",""
"html-keyboard-response","271","1046001","0.0-4.0-9.0-0.0","spark_pilot_norest","8217","2","13","Female","","","","","","","null","<div style=""font-size:100px;color:red;"">Starting in...</div>","null","","","","","","","","","","","","",""
"html-keyboard-response","272","1047007","0.0-4.0-9.0-1.0","spark_pilot_norest","8217","2","13","Female","","","","","","","null","<div style=""font-size:200px;color:red;"">3</div>","null","","","","","","","","","","","","",""
"html-keyboard-response","273","1048015","0.0-4.0-9.0-2.0","spark_pilot_norest","8217","2","13","Female","","","","","","","null","<div style=""font-size:200px;color:red;"">2</div>","null","","","","","","","","","","","","",""
"html-keyboard-response","274","1049023","0.0-4.0-9.0-3.0","spark_pilot_norest","8217","2","13","Female","","","","","","","null","<div style=""font-size:200px;color:red;"">1</div>","null","","","","","","","","","","","","",""
"revaluation","275","1049657","0.0-4.0-10.0-0.0","spark_pilot_norest","8217","2","13","Female","","false","","","","","[630.4000000059605]","./assets/img/ocean/animals/octopus.jpg","[""ArrowLeft""]","second stage test","ocean","0","{""ArrowUp,ArrowLeft"":27,""ArrowUp,ArrowRight"":15,""ArrowDown,ArrowLeft"":21,""ArrowDown,ArrowRight"":7}","true","ArrowUp,ArrowLeft","","revaluation","1","","","",""
"html-keyboard-response","276","1050164","0.0-4.0-10.0-1.0","spark_pilot_norest","8217","2","13","Female","","","","","","","null","<div style=""font-size:60px;"">+</div>","null","fixation","","","","","","","","","","","",""
"revaluation","277","1050481","0.0-4.0-10.0-0.1","spark_pilot_norest","8217","2","13","Female","","false","","","","","[313.59999999403954]","./assets/img/ocean/animals/octopus.jpg","[""ArrowLeft""]","second stage test","ocean","0","{""ArrowUp,ArrowLeft"":27,""ArrowUp,ArrowRight"":15,""ArrowDown,ArrowLeft"":21,""ArrowDown,ArrowRight"":7}","true","ArrowUp,ArrowLeft","","revaluation","1","","","",""
"html-keyboard-response","278","1050988","0.0-4.0-10.0-1.1","spark_pilot_norest","8217","2","13","Female","","","","","","","null","<div style=""font-size:60px;"">+</div>","null","fixation","","","","","","","","","","","",""
"revaluation","279","1051276","0.0-4.0-10.0-0.2","spark_pilot_norest","8217","2","13","Female","","false","","","","","[284.5]","./assets/img/ocean/animals/octopus.jpg","[""ArrowLeft""]","second stage test","ocean","0","{""ArrowUp,ArrowLeft"":27,""ArrowUp,ArrowRight"":15,""ArrowDown,ArrowLeft"":21,""ArrowDown,ArrowRight"":7}","true","ArrowUp,ArrowLeft","","revaluation","1","","","",""
"html-keyboard-response","280","1051784","0.0-4.0-10.0-1.2","spark_pilot_norest","8217","2","13","Female","","","","","","","null","<div style=""font-size:60px;"">+</div>","null","fixation","","","","","","","","","","","",""
"revaluation","281","1052074","0.0-4.0-10.0-0.3","spark_pilot_norest","8217","2","13","Female","","false","","","","","[286.69999998807907]","./assets/img/ocean/animals/octopus.jpg","[""ArrowLeft""]","second stage test","ocean","0","{""ArrowUp,ArrowLeft"":27,""ArrowUp,ArrowRight"":15,""ArrowDown,ArrowLeft"":21,""ArrowDown,ArrowRight"":7}","true","ArrowUp,ArrowLeft","","revaluation","1","","","",""
"html-keyboard-response","282","1052580","0.0-4.0-10.0-1.3","spark_pilot_norest","8217","2","13","Female","","","","","","","null","<div style=""font-size:60px;"">+</div>","null","fixation","","","","","","","","","","","",""
"revaluation","283","1052878","0.0-4.0-10.0-0.4","spark_pilot_norest","8217","2","13","Female","","false","","","","","[294.19999998807907]","./assets/img/ocean/animals/seahorse.jpg","[""ArrowLeft""]","second stage test","ocean","0","{""ArrowUp,ArrowLeft"":27,""ArrowUp,ArrowRight"":15,""ArrowDown,ArrowLeft"":21,""ArrowDown,ArrowRight"":7}","true","ArrowDown,ArrowLeft","","revaluation","1","","","",""
"html-keyboard-response","284","1053388","0.0-4.0-10.0-1.4","spark_pilot_norest","8217","2","13","Female","","","","","","","null","<div style=""font-size:60px;"">+</div>","null","fixation","","","","","","","","","","","",""
"revaluation","285","1053627","0.0-4.0-10.0-0.5","spark_pilot_norest","8217","2","13","Female","","false","","","","","[235.40000000596046]","./assets/img/ocean/animals/seahorse.jpg","[""ArrowLeft""]","second stage test","ocean","0","{""ArrowUp,ArrowLeft"":27,""ArrowUp,ArrowRight"":15,""ArrowDown,ArrowLeft"":21,""ArrowDown,ArrowRight"":7}","true","ArrowDown,ArrowLeft","","revaluation","1","","","",""
"html-keyboard-response","286","1054132","0.0-4.0-10.0-1.5","spark_pilot_norest","8217","2","13","Female","","","","","","","null","<div style=""font-size:60px;"">+</div>","null","fixation","","","","","","","","","","","",""
"revaluation","287","1054385","0.0-4.0-10.0-0.6","spark_pilot_norest","8217","2","13","Female","","false","","","","","[249.5]","./assets/img/ocean/animals/seahorse.jpg","[""ArrowLeft""]","second stage test","ocean","0","{""ArrowUp,ArrowLeft"":27,""ArrowUp,ArrowRight"":15,""ArrowDown,ArrowLeft"":21,""ArrowDown,ArrowRight"":7}","true","ArrowDown,ArrowLeft","","revaluation","1","","","",""
"html-keyboard-response","288","1054890","0.0-4.0-10.0-1.6","spark_pilot_norest","8217","2","13","Female","","","","","","","null","<div style=""font-size:60px;"">+</div>","null","fixation","","","","","","","","","","","",""
"revaluation","289","1055191","0.0-4.0-10.0-0.7","spark_pilot_norest","8217","2","13","Female","","false","","","","","[297.90000000596046]","./assets/img/ocean/animals/seahorse.jpg","[""ArrowLeft""]","second stage test","ocean","0","{""ArrowUp,ArrowLeft"":27,""ArrowUp,ArrowRight"":15,""ArrowDown,ArrowLeft"":21,""ArrowDown,ArrowRight"":7}","true","ArrowDown,ArrowLeft","","revaluation","1","","","",""
"html-keyboard-response","290","1055696","0.0-4.0-10.0-1.7","spark_pilot_norest","8217","2","13","Female","","","","","","","null","<div style=""font-size:60px;"">+</div>","null","fixation","","","","","","","","","","","",""
"learning-instructions","291","1059386","0.0-4.0-0.1-0.2","spark_pilot_norest","8217","2","13","Female","","","","","","","923","<p> This time you are searching for treasure in the <b>canyon</b>.</p>","","instructions","","","","","","","","","","","",""
"learning-instructions","292","1077737","0.0-4.0-0.1-0.3","spark_pilot_norest","8217","2","13","Female","","","","","","","1097.7999999821186","<p><b>New</b> animals with <b>new</b> treasure chests live here. You need to explore to discover where the animal with the best treasure chest is.</p>
                    <p> Like before, once you figure out which animal has the chest with the most treasure, you should try to get to that animal and select that chest! </p>","","instructions","","","","","","","","","","","",""
"learning-instructions","293","1094506","0.0-4.0-1.1-0.1","spark_pilot_norest","8217","2","13","Female","","","","","","","2038.300000011921","<p> Remember, when you see a picture of the place, use the up and down keys to <b>find an animal</b>.</p>
            <p> When you encounter an animal, you should use the left and right keys to <b>select a treasure chest</b>.</p>
            <p> Don't forget to look out for the robber! </p>","","instructions","","","","","","","","","","","",""
"revaluation","294","1100532","0.0-4.0-2.1-0.50","spark_pilot_norest","8217","2","13","Female","","false","","","","","[721.5,310.5]","./assets/img/canyon/memory/38.jpg","[""ArrowUp"",""ArrowLeft""]","value training","canyon","26","{""ArrowUp,ArrowLeft"":26,""ArrowUp,ArrowRight"":10,""ArrowDown,ArrowLeft"":5,""ArrowDown,ArrowRight"":17}","true","ArrowUp,ArrowLeft","false","original","2","0","","",""
"html-keyboard-response","295","1101044","0.0-4.0-2.1-1.50","spark_pilot_norest","8217","2","13","Female","","","","","","","null","<div style=""font-size:60px;"">+</div>","null","fixation","","","","","","","","","1","","",""
"revaluation","296","1107075","0.0-4.0-2.1-0.51","spark_pilot_norest","8217","2","13","Female","","false","","","","","[290.2000000178814,309.30000001192093]","./assets/img/canyon/memory/21.jpg","[""ArrowUp"",""ArrowRight""]","value training","canyon","10","{""ArrowUp,ArrowLeft"":26,""ArrowUp,ArrowRight"":10,""ArrowDown,ArrowLeft"":5,""ArrowDown,ArrowRight"":17}","false","ArrowUp,ArrowRight","false","original","2","2","","",""
"html-keyboard-response","297","1107588","0.0-4.0-2.1-1.51","spark_pilot_norest","8217","2","13","Female","","","","","","","null","<div style=""font-size:60px;"">+</div>","null","fixation","","","","","","","","","3","","",""
"revaluation","298","1111612","0.0-4.0-2.1-0.52","spark_pilot_norest","8217","2","13","Female","","false","","","","","[305.80000001192093]","./assets/img/canyon/catch/7.jpg","[""ArrowDown""]","value training","canyon","-10","{""ArrowUp,ArrowLeft"":26,""ArrowUp,ArrowRight"":10,""ArrowDown,ArrowLeft"":5,""ArrowDown,ArrowRight"":17}","false","ArrowDown","true","original","2","4","","",""
"html-keyboard-response","299","1112123","0.0-4.0-2.1-1.52","spark_pilot_norest","8217","2","13","Female","","","","","","","null","<div style=""font-size:60px;"">+</div>","null","fixation","","","","","","","","","5","","",""
"revaluation","300","1118144","0.0-4.0-2.1-0.53","spark_pilot_norest","8217","2","13","Female","","false","","","","","[417.09999999403954,645.3000000119209]","./assets/img/canyon/memory/3.jpg","[""ArrowDown"",""ArrowLeft""]","value training","canyon","5","{""ArrowUp,ArrowLeft"":26,""ArrowUp,ArrowRight"":10,""ArrowDown,ArrowLeft"":5,""ArrowDown,ArrowRight"":17}","false","ArrowDown,ArrowLeft","false","original","2","6","","",""
"html-keyboard-response","301","1118649","0.0-4.0-2.1-1.53","spark_pilot_norest","8217","2","13","Female","","","","","","","null","<div style=""font-size:60px;"">+</div>","null","fixation","","","","","","","","","7","","",""
"revaluation","302","1124675","0.0-4.0-2.1-0.54","spark_pilot_norest","8217","2","13","Female","","false","","","","","[703.2999999821186,612.1999999880791]","./assets/img/canyon/memory/22.jpg","[""ArrowDown"",""ArrowRight""]","value training","canyon","17","{""ArrowUp,ArrowLeft"":26,""ArrowUp,ArrowRight"":10,""ArrowDown,ArrowLeft"":5,""ArrowDown,ArrowRight"":17}","false","ArrowDown,ArrowRight","false","original","2","8","","",""
"html-keyboard-response","303","1125188","0.0-4.0-2.1-1.54","spark_pilot_norest","8217","2","13","Female","","","","","","","null","<div style=""font-size:60px;"">+</div>","null","fixation","","","","","","","","","9","","",""
"revaluation","304","1131215","0.0-4.0-2.1-0.55","spark_pilot_norest","8217","2","13","Female","","false","","","","","[325.09999999403954,359.90000000596046]","./assets/img/canyon/memory/5.jpg","[""ArrowUp"",""ArrowLeft""]","value training","canyon","26","{""ArrowUp,ArrowLeft"":26,""ArrowUp,ArrowRight"":10,""ArrowDown,ArrowLeft"":5,""ArrowDown,ArrowRight"":17}","true","ArrowUp,ArrowLeft","false","original","2","10","","",""
"html-keyboard-response","305","1131722","0.0-4.0-2.1-1.55","spark_pilot_norest","8217","2","13","Female","","","","","","","null","<div style=""font-size:60px;"">+</div>","null","fixation","","","","","","","","","11","","",""
"revaluation","306","1137737","0.0-4.0-2.1-0.56","spark_pilot_norest","8217","2","13","Female","","false","","","","","[415,347.60000002384186]","./assets/img/canyon/memory/19.jpg","[""ArrowUp"",""ArrowLeft""]","value training","canyon","26","{""ArrowUp,ArrowLeft"":26,""ArrowUp,ArrowRight"":10,""ArrowDown,ArrowLeft"":5,""ArrowDown,ArrowRight"":17}","true","ArrowUp,ArrowLeft","false","original","2","12","","",""
"html-keyboard-response","307","1138244","0.0-4.0-2.1-1.56","spark_pilot_norest","8217","2","13","Female","","","","","","","null","<div style=""font-size:60px;"">+</div>","null","fixation","","","","","","","","","13","","",""
"revaluation","308","1144272","0.0-4.0-2.1-0.57","spark_pilot_norest","8217","2","13","Female","","false","","","","","[476.09999999403954,669.7000000178814]","./assets/img/canyon/memory/9.jpg","[""ArrowUp"",""ArrowLeft""]","value training","canyon","26","{""ArrowUp,ArrowLeft"":26,""ArrowUp,ArrowRight"":10,""ArrowDown,ArrowLeft"":5,""ArrowDown,ArrowRight"":17}","true","ArrowUp,ArrowLeft","false","original","2","14","","",""
"html-keyboard-response","309","1144778","0.0-4.0-2.1-1.57","spark_pilot_norest","8217","2","13","Female","","","","","","","null","<div style=""font-size:60px;"">+</div>","null","fixation","","","","","","","","","15","","",""
"revaluation","310","1150799","0.0-4.0-2.1-0.58","spark_pilot_norest","8217","2","13","Female","","false","","","","","[488.19999998807907,646]","./assets/img/canyon/memory/12.jpg","[""ArrowUp"",""ArrowLeft""]","value training","canyon","26","{""ArrowUp,ArrowLeft"":26,""ArrowUp,ArrowRight"":10,""ArrowDown,ArrowLeft"":5,""ArrowDown,ArrowRight"":17}","true","ArrowUp,ArrowLeft","false","original","2","16","","",""
