"trial_type","trial_index","time_elapsed","internal_node_id","task_version","subject_id","assigned_condition","age","gender","success","timeout","failed_images","failed_audio","failed_video","browser_interaction","rt","stimulus","response","task_part","environment","score","rewardMap","correct","fullState","isCatch","condition","order","trial_num","key_press","ground_truth","bonus"
"pavlovia","0","1878","0.0-0.0","spark_pilot_norest","8408","1","9","Male","","","","","","","","","","","","","","","","","","","","","",""
"preload","1","19346","0.0-1.0","spark_pilot_norest","8408","1","9","Male","true","false","[]","[]","[]","[{""event"":""fullscreenenter"",""trial"":2,""time"":25848},{""event"":""blur"",""trial"":189,""time"":871764},{""event"":""focus"",""trial"":191,""time"":876670},{""event"":""blur"",""trial"":645,""time"":1981756},{""event"":""focus"",""trial"":646,""time"":1991883}]","","","","","","","","","","","","","","","",""
"fullscreen","2","26812","0.0-2.0","spark_pilot_norest","8408","1","9","Male","true","","","","","","","","","","","","","","","","","","","","",""
"audio-button-response","3","28868","0.0-3.0-0.0-0.0","spark_pilot_norest","8408","1","9","Male","","","","","","","1621","./assets/audio/audiotest/turtle.mp3","2","audio_test","","","","","","","","","","","",""
"learning-instructions","4","39712","0.0-3.0-1.0-0.0","spark_pilot_norest","8408","1","9","Male","","","","","","","3856.89999999851","<p> Welcome! Please remember to stay in fullscreen mode and don't click away from the experiment. </p>","","instructions","","","","","","","","","","","",""
"learning-instructions","5","49384","0.0-3.0-1.0-0.1","spark_pilot_norest","8408","1","9","Male","","","","","","","1239.7999999970198","<p> Today you will be playing a game to earn treasure. </p>
            <p> At the end of the experiment, you will earn a bonus based on how much treasure you find. </p>
            <img src='./assets/img/instructions/treasure.jpg' class='instructions-image'>","","instructions","","","","","","","","","","","",""
"learning-instructions","6","59080","0.0-3.0-1.0-0.2","spark_pilot_norest","8408","1","9","Male","","","","","","","1408.8999999985099","<p> Animals have hidden treasure in treasure chests. </p>
            <p> You need to first find an animal and then choose which of their treasure chests to search. </p>
            <img src='./assets/img/space/animals/cat.jpg' class='instructions-image'>","","instructions","","","","","","","","","","","",""
"learning-instructions","7","74467","0.0-3.0-1.0-0.3","spark_pilot_norest","8408","1","9","Male","","","","","","","2203.1999999955297","<p> In each round, you will search for treasure in a different place. In the real game, there will be two rounds. </p>
            <p> You will begin with a separate, practice round where you will search for treasure in outer space. </p>
            <img src='./assets/img/space/0.jpg' class='instructions-image'>","","instructions","","","","","","","","","","","",""
"learning-instructions","8","87054","0.0-3.0-1.0-0.4","spark_pilot_norest","8408","1","9","Male","","","","","","","1146.6000000014901","<p> On every turn, you will see a picture of the place that you are in, but the specific image may be different each time. </p>
            <p> For example, both of these images mean you are in outer space. </p>
            <img src='./assets/img/instructions/outerspace.jpg' class='instructions-image'>","","instructions","","","","","","","","","","","",""
"learning-instructions","9","96323","0.0-3.0-1.0-0.5","spark_pilot_norest","8408","1","9","Male","","","","","","","1412.5","<p> You need to decide which direction to travel in. </p>
            <p> You can choose between going <b>up or down</b> by using the arrow keys. </p>
            <img src='./assets/img/instructions/updown.jpg' class='instructions-image'>","","instructions","","","","","","","","","","","",""
"learning-instructions","10","106870","0.0-3.0-1.0-0.6","spark_pilot_norest","8408","1","9","Male","","","","","","","1708.8999999985099","<p> You will have <b>2 seconds</b> to make your choice. </p>
            <p> If you do not make a choice within 2 seconds, you will not find an animal or earn treasure. </p>
            <img src='./assets/img/instructions/2seconds.jpg' class='instructions-image'>","","instructions","","","","","","","","","","","",""
"learning-instructions","11","115333","0.0-3.0-1.0-0.7","spark_pilot_norest","8408","1","9","Male","","","","","","","1402.4000000059605","<p> Let’s try practicing that now! </p>
            <p> When you see a picture of the place you are in, press the <b>up</b> key to travel up. </p>
            <img src='./assets/img/instructions/pressUp.jpg' class='instructions-image'>","","instructions","","","","","","","","","","","",""
"revaluation","12","119378","0.0-3.0-2.0-0.0","spark_pilot_norest","8408","1","9","Male","","false","","","","","[1154.2999999970198]","./assets/img/space/0.jpg","[""ArrowUp""]","first stage practice","space","0","null","null","ArrowUp","false","","","","","",""
"html-keyboard-response","13","119885","0.0-3.0-2.0-1.0","spark_pilot_norest","8408","1","9","Male","","","","","","","null","<div style=""font-size:60px;"">+</div>","null","fixation","","","","","","","","","","","",""
"revaluation","14","123909","0.0-3.0-2.0-0.1","spark_pilot_norest","8408","1","9","Male","","false","","","","","[724.5]","./assets/img/space/1.jpg","[""ArrowUp""]","first stage practice","space","0","null","null","ArrowUp","false","","","","","",""
"html-keyboard-response","15","124414","0.0-3.0-2.0-1.1","spark_pilot_norest","8408","1","9","Male","","","","","","","null","<div style=""font-size:60px;"">+</div>","null","fixation","","","","","","","","","","","",""
"revaluation","16","128432","0.0-3.0-2.0-0.2","spark_pilot_norest","8408","1","9","Male","","false","","","","","[691.1000000014901]","./assets/img/space/2.jpg","[""ArrowUp""]","first stage practice","space","0","null","null","ArrowUp","false","","","","","",""
"html-keyboard-response","17","128936","0.0-3.0-2.0-1.2","spark_pilot_norest","8408","1","9","Male","","","","","","","null","<div style=""font-size:60px;"">+</div>","null","fixation","","","","","","","","","","","",""
"learning-instructions","18","134976","0.0-3.0-3.0-0.0","spark_pilot_norest","8408","1","9","Male","","","","","","","1321.8000000044703","<p> Great job! Now try pressing the <b>down</b> key to travel down. </p>
            <img src='./assets/img/instructions/pressDown.jpg' class='instructions-image'>","","instructions","","","","","","","","","","","",""
"revaluation","19","138991","0.0-3.0-4.0-0.0","spark_pilot_norest","8408","1","9","Male","","false","","","","","[466.70000000298023]","./assets/img/space/3.jpg","[""ArrowDown""]","first stage practice","space","0","null","null","ArrowDown","false","","","","","",""
"html-keyboard-response","20","139505","0.0-3.0-4.0-1.0","spark_pilot_norest","8408","1","9","Male","","","","","","","null","<div style=""font-size:60px;"">+</div>","null","fixation","","","","","","","","","","","",""
"revaluation","21","143517","0.0-3.0-4.0-0.1","spark_pilot_norest","8408","1","9","Male","","false","","","","","[577.2999999970198]","./assets/img/space/4.jpg","[""ArrowDown""]","first stage practice","space","0","null","null","ArrowDown","false","","","","","",""
"html-keyboard-response","22","144021","0.0-3.0-4.0-1.1","spark_pilot_norest","8408","1","9","Male","","","","","","","null","<div style=""font-size:60px;"">+</div>","null","fixation","","","","","","","","","","","",""
"revaluation","23","148036","0.0-3.0-4.0-0.2","spark_pilot_norest","8408","1","9","Male","","false","","","","","[887.8999999985099]","./assets/img/space/5.jpg","[""ArrowDown""]","first stage practice","space","0","null","null","ArrowDown","false","","","","","",""
"html-keyboard-response","24","148548","0.0-3.0-4.0-1.2","spark_pilot_norest","8408","1","9","Male","","","","","","","null","<div style=""font-size:60px;"">+</div>","null","fixation","","","","","","","","","","","",""
"learning-instructions","25","161198","0.0-3.0-5.0-0.0","spark_pilot_norest","8408","1","9","Male","","","","","","","2743","<p> The animals don’t move, so the animal in the upper part of a place will stay in the upper part of a place, and the animal in the lower part of a place will stay in the lower part of a place. </p>","","instructions","","","","","","","","","","","",""
"learning-instructions","26","175606","0.0-3.0-5.0-0.1","spark_pilot_norest","8408","1","9","Male","","","","","","","5246.39999999851","<p> Each animal has two treasure chests for you to choose from. </p>
            <p> The amount of treasure in each chest can range from <b> 0 to 40 pieces.</b></p>","","instructions","","","","","","","","","","","",""
"learning-instructions","27","188108","0.0-3.0-5.0-0.2","spark_pilot_norest","8408","1","9","Male","","","","","","","1280.5999999940395","<p> You should decide which chest to search for treasure by using the <b>left</b> and <b>right</b> arrow keys. </p>
            <p><b> Pay attention to which animal is on the screen, as the animals have different treasure chests. </b></p>
            <img src='./assets/img/instructions/leftright.jpg' class='instructions-image'>","","instructions","","","","","","","","","","","",""
"learning-instructions","28","196127","0.0-3.0-5.0-0.3","spark_pilot_norest","8408","1","9","Male","","","","","","","1629.7999999970198","<p> Let’s try practicing that now. </p>
            <p> When you see an animal, choose which chest to search for treasure. </p>
            <img src='./assets/img/instructions/chooseChest.jpg' class='instructions-image'>","","instructions","","","","","","","","","","","",""
"revaluation","29","200132","0.0-3.0-6.0-0.0","spark_pilot_norest","8408","1","9","Male","","false","","","","","[829.4000000059605]","./assets/img/space/animals/rabbit.jpg","[""ArrowLeft""]","second stage practice","space","15","{""ArrowUp,ArrowLeft"":3,""ArrowUp,ArrowRight"":36,""ArrowDown,ArrowLeft"":15,""ArrowDown,ArrowRight"":23}","false","ArrowDown,ArrowLeft","","","","","","",""
"html-keyboard-response","30","200648","0.0-3.0-6.0-1.0","spark_pilot_norest","8408","1","9","Male","","","","","","","null","<div style=""font-size:60px;"">+</div>","null","fixation","","","","","","","","","","","",""
"revaluation","31","204666","0.0-3.0-6.0-0.1","spark_pilot_norest","8408","1","9","Male","","false","","","","","[480.20000000298023]","./assets/img/space/animals/cat.jpg","[""ArrowRight""]","second stage practice","space","36","{""ArrowUp,ArrowLeft"":3,""ArrowUp,ArrowRight"":36,""ArrowDown,ArrowLeft"":15,""ArrowDown,ArrowRight"":23}","true","ArrowUp,ArrowRight","","","","","","",""
"html-keyboard-response","32","205176","0.0-3.0-6.0-1.1","spark_pilot_norest","8408","1","9","Male","","","","","","","null","<div style=""font-size:60px;"">+</div>","null","fixation","","","","","","","","","","","",""
"revaluation","33","209202","0.0-3.0-6.0-0.2","spark_pilot_norest","8408","1","9","Male","","false","","","","","[888.3999999985099]","./assets/img/space/animals/cat.jpg","[""ArrowLeft""]","second stage practice","space","3","{""ArrowUp,ArrowLeft"":3,""ArrowUp,ArrowRight"":36,""ArrowDown,ArrowLeft"":15,""ArrowDown,ArrowRight"":23}","false","ArrowUp,ArrowLeft","","","","","","",""
"html-keyboard-response","34","209714","0.0-3.0-6.0-1.2","spark_pilot_norest","8408","1","9","Male","","","","","","","null","<div style=""font-size:60px;"">+</div>","null","fixation","","","","","","","","","","","",""
"revaluation","35","213736","0.0-3.0-6.0-0.3","spark_pilot_norest","8408","1","9","Male","","false","","","","","[553.2999999970198]","./assets/img/space/animals/rabbit.jpg","[""ArrowLeft""]","second stage practice","space","15","{""ArrowUp,ArrowLeft"":3,""ArrowUp,ArrowRight"":36,""ArrowDown,ArrowLeft"":15,""ArrowDown,ArrowRight"":23}","false","ArrowDown,ArrowLeft","","","","","","",""
"html-keyboard-response","36","214248","0.0-3.0-6.0-1.3","spark_pilot_norest","8408","1","9","Male","","","","","","","null","<div style=""font-size:60px;"">+</div>","null","fixation","","","","","","","","","","","",""
"learning-instructions","37","242933","0.0-3.0-7.0-0.0","spark_pilot_norest","8408","1","9","Male","","","","","","","11836.39999999851","<p> Great job. Now let’s try putting it together. </p>
            <p> On each turn, you will first see a picture to remind you of the place you are in, and you need to choose whether to go up or down. </p>
            <p> Then you will see an animal and choose which of its chests to search for treasure. </p>","","instructions","","","","","","","","","","","",""
"learning-instructions","38","251569","0.0-3.0-7.0-0.1","spark_pilot_norest","8408","1","9","Male","","","","","","","350.69999999552965","<p> When you choose whether to go up or down, try to go to the animal with the chest with the most treasure. </p>
            <p> Try practicing that now! </p>","","instructions","","","","","","","","","","","",""
"revaluation","39","257589","0.0-3.0-8.0-0.0","spark_pilot_norest","8408","1","9","Male","","false","","","","","[1580.2999999970198,1378]","./assets/img/space/6.jpg","[""ArrowUp"",""ArrowRight""]","full practice","space","36","{""ArrowUp,ArrowLeft"":3,""ArrowUp,ArrowRight"":36,""ArrowDown,ArrowLeft"":15,""ArrowDown,ArrowRight"":23}","true","ArrowUp,ArrowRight","false","","","","","",""
"html-keyboard-response","40","258099","0.0-3.0-8.0-1.0","spark_pilot_norest","8408","1","9","Male","","","","","","","null","<div style=""font-size:60px;"">+</div>","null","fixation","","","","","","","","","","","",""
"revaluation","41","264111","0.0-3.0-8.0-0.1","spark_pilot_norest","8408","1","9","Male","","false","","","","","[1194.7000000029802,956.8999999985099]","./assets/img/space/7.jpg","[""ArrowUp"",""ArrowLeft""]","full practice","space","3","{""ArrowUp,ArrowLeft"":3,""ArrowUp,ArrowRight"":36,""ArrowDown,ArrowLeft"":15,""ArrowDown,ArrowRight"":23}","false","ArrowUp,ArrowLeft","false","","","","","",""
"html-keyboard-response","42","264614","0.0-3.0-8.0-1.1","spark_pilot_norest","8408","1","9","Male","","","","","","","null","<div style=""font-size:60px;"">+</div>","null","fixation","","","","","","","","","","","",""
"revaluation","43","270650","0.0-3.0-8.0-0.2","spark_pilot_norest","8408","1","9","Male","","false","","","","","[1516.7000000029802,1260]","./assets/img/space/8.jpg","[""ArrowDown"",""ArrowLeft""]","full practice","space","15","{""ArrowUp,ArrowLeft"":3,""ArrowUp,ArrowRight"":36,""ArrowDown,ArrowLeft"":15,""ArrowDown,ArrowRight"":23}","false","ArrowDown,ArrowLeft","false","","","","","",""
"html-keyboard-response","44","271160","0.0-3.0-8.0-1.2","spark_pilot_norest","8408","1","9","Male","","","","","","","null","<div style=""font-size:60px;"">+</div>","null","fixation","","","","","","","","","","","",""
"revaluation","45","277181","0.0-3.0-8.0-0.3","spark_pilot_norest","8408","1","9","Male","","false","","","","","[748.5999999940395,825]","./assets/img/space/9.jpg","[""ArrowUp"",""ArrowRight""]","full practice","space","36","{""ArrowUp,ArrowLeft"":3,""ArrowUp,ArrowRight"":36,""ArrowDown,ArrowLeft"":15,""ArrowDown,ArrowRight"":23}","true","ArrowUp,ArrowRight","false","","","","","",""
"html-keyboard-response","46","277689","0.0-3.0-8.0-1.3","spark_pilot_norest","8408","1","9","Male","","","","","","","null","<div style=""font-size:60px;"">+</div>","null","fixation","","","","","","","","","","","",""
"revaluation","47","283697","0.0-3.0-8.0-0.4","spark_pilot_norest","8408","1","9","Male","","false","","","","","[1137.5,778.9000000059605]","./assets/img/space/10.jpg","[""ArrowUp"",""ArrowRight""]","full practice","space","36","{""ArrowUp,ArrowLeft"":3,""ArrowUp,ArrowRight"":36,""ArrowDown,ArrowLeft"":15,""ArrowDown,ArrowRight"":23}","true","ArrowUp,ArrowRight","false","","","","","",""
"html-keyboard-response","48","284199","0.0-3.0-8.0-1.4","spark_pilot_norest","8408","1","9","Male","","","","","","","null","<div style=""font-size:60px;"">+</div>","null","fixation","","","","","","","","","","","",""
"learning-instructions","49","295937","0.0-3.0-9.0-0.0","spark_pilot_norest","8408","1","9","Male","","","","","","","1420.5","<p> One last thing: sometimes, you will see a robber. The robber can be anywhere in the picture. </p>
            <p> If you do not stop them, you will lose treasure. </p>
            <img src='./assets/img/instructions/robber.jpg' class='instructions-image'>","","instructions","","","","","","","","","","","",""
"learning-instructions","50","304075","0.0-3.0-9.0-0.1","spark_pilot_norest","8408","1","9","Male","","","","","","","949.8000000044703","<p> If you see the robber, you should <b>press the space bar</b> rather than using the arrow keys. </p>
            <p> Try practicing that now! </p>","","instructions","","","","","","","","","","","",""
"revaluation","51","308093","0.0-3.0-10.0-0.0","spark_pilot_norest","8408","1","9","Male","","false","","","","","[1526.3999999985099]","./assets/img/space/catch/0.jpg","[""spaceBar""]","catch practice","space","0","{""ArrowUp,ArrowLeft"":3,""ArrowUp,ArrowRight"":36,""ArrowDown,ArrowLeft"":15,""ArrowDown,ArrowRight"":23}","true","spaceBar","true","","","","","",""
"html-keyboard-response","52","308600","0.0-3.0-10.0-1.0","spark_pilot_norest","8408","1","9","Male","","","","","","","null","<div style=""font-size:60px;"">+</div>","null","fixation","","","","","","","","","","","",""
"revaluation","53","312617","0.0-3.0-10.0-0.1","spark_pilot_norest","8408","1","9","Male","","false","","","","","[791.8999999985099]","./assets/img/space/catch/1.jpg","[""spaceBar""]","catch practice","space","0","{""ArrowUp,ArrowLeft"":3,""ArrowUp,ArrowRight"":36,""ArrowDown,ArrowLeft"":15,""ArrowDown,ArrowRight"":23}","true","spaceBar","true","","","","","",""
"html-keyboard-response","54","313123","0.0-3.0-10.0-1.1","spark_pilot_norest","8408","1","9","Male","","","","","","","null","<div style=""font-size:60px;"">+</div>","null","fixation","","","","","","","","","","","",""
"revaluation","55","317151","0.0-3.0-10.0-0.2","spark_pilot_norest","8408","1","9","Male","","false","","","","","[591.8000000044703]","./assets/img/space/catch/2.jpg","[""spaceBar""]","catch practice","space","0","{""ArrowUp,ArrowLeft"":3,""ArrowUp,ArrowRight"":36,""ArrowDown,ArrowLeft"":15,""ArrowDown,ArrowRight"":23}","true","spaceBar","true","","","","","",""
"html-keyboard-response","56","317657","0.0-3.0-10.0-1.2","spark_pilot_norest","8408","1","9","Male","","","","","","","null","<div style=""font-size:60px;"">+</div>","null","fixation","","","","","","","","","","","",""
"learning-instructions","57","326765","0.0-3.0-11.0-0.0-0.0","spark_pilot_norest","8408","1","9","Male","","","","","","","3830.89999999851","<p> Now, you will practice a shortened version of the game to get a sense of how it all fits together. </p>","","instructions","","","","","","","","","","","",""
"learning-instructions","58","332368","0.0-3.0-11.0-0.0-0.1","spark_pilot_norest","8408","1","9","Male","","","","","","","2392.8000000044703","<p>This time you are searching for treasure in outer space.</p>","","instructions","","","","","","","","","","","",""
"learning-instructions","59","348970","0.0-3.0-11.0-1.0-0.0","spark_pilot_norest","8408","1","9","Male","","","","","","","1788.8999999985099","<p> Remember, when you see a picture of the place, use the up and down keys to <b>find an animal</b>.</p>
            <p> When you encounter an animal, you should use the left and right keys to <b>select a treasure chest</b>.</p>
            <p> Don't forget to look out for the robber! </p>","","instructions","","","","","","","","","","","",""
"revaluation","60","355006","0.0-3.0-11.0-2.0-0.0","spark_pilot_norest","8408","1","9","Male","","false","","","","","[1182.6000000014901,804.6000000014901]","./assets/img/space/11.jpg","[""ArrowDown"",""ArrowRight""]","practice block","space","23","{""ArrowUp,ArrowLeft"":3,""ArrowUp,ArrowRight"":36,""ArrowDown,ArrowLeft"":15,""ArrowDown,ArrowRight"":23}","false","ArrowDown,ArrowRight","false","","","","","",""
"html-keyboard-response","61","355515","0.0-3.0-11.0-2.0-1.0","spark_pilot_norest","8408","1","9","Male","","","","","","","null","<div style=""font-size:60px;"">+</div>","null","fixation","","","","","","","","","","","",""
"revaluation","62","361546","0.0-3.0-11.0-2.0-0.1","spark_pilot_norest","8408","1","9","Male","","false","","","","","[521,1551.9000000059605]","./assets/img/space/12.jpg","[""ArrowDown"",""ArrowLeft""]","practice block","space","15","{""ArrowUp,ArrowLeft"":3,""ArrowUp,ArrowRight"":36,""ArrowDown,ArrowLeft"":15,""ArrowDown,ArrowRight"":23}","false","ArrowDown,ArrowLeft","false","","","","","",""
"html-keyboard-response","63","362050","0.0-3.0-11.0-2.0-1.1","spark_pilot_norest","8408","1","9","Male","","","","","","","null","<div style=""font-size:60px;"">+</div>","null","fixation","","","","","","","","","","","",""
"revaluation","64","368092","0.0-3.0-11.0-2.0-0.2","spark_pilot_norest","8408","1","9","Male","","false","","","","","[998.6999999955297,1578.2000000029802]","./assets/img/space/13.jpg","[""ArrowUp"",""ArrowLeft""]","practice block","space","3","{""ArrowUp,ArrowLeft"":3,""ArrowUp,ArrowRight"":36,""ArrowDown,ArrowLeft"":15,""ArrowDown,ArrowRight"":23}","false","ArrowUp,ArrowLeft","false","","","","","",""
"html-keyboard-response","65","368599","0.0-3.0-11.0-2.0-1.2","spark_pilot_norest","8408","1","9","Male","","","","","","","null","<div style=""font-size:60px;"">+</div>","null","fixation","","","","","","","","","","","",""
"revaluation","66","374634","0.0-3.0-11.0-2.0-0.3","spark_pilot_norest","8408","1","9","Male","","false","","","","","[1018.6000000014901,1230.5999999940395]","./assets/img/space/14.jpg","[""ArrowDown"",""ArrowRight""]","practice block","space","23","{""ArrowUp,ArrowLeft"":3,""ArrowUp,ArrowRight"":36,""ArrowDown,ArrowLeft"":15,""ArrowDown,ArrowRight"":23}","false","ArrowDown,ArrowRight","false","","","","","",""
"html-keyboard-response","67","375141","0.0-3.0-11.0-2.0-1.3","spark_pilot_norest","8408","1","9","Male","","","","","","","null","<div style=""font-size:60px;"">+</div>","null","fixation","","","","","","","","","","","",""
"revaluation","68","381167","0.0-3.0-11.0-2.0-0.4","spark_pilot_norest","8408","1","9","Male","","false","","","","","[763.6999999955297,1108.1000000014901]","./assets/img/space/11.jpg","[""ArrowUp"",""ArrowRight""]","practice block","space","36","{""ArrowUp,ArrowLeft"":3,""ArrowUp,ArrowRight"":36,""ArrowDown,ArrowLeft"":15,""ArrowDown,ArrowRight"":23}","true","ArrowUp,ArrowRight","false","","","","","",""
"html-keyboard-response","69","381669","0.0-3.0-11.0-2.0-1.4","spark_pilot_norest","8408","1","9","Male","","","","","","","null","<div style=""font-size:60px;"">+</div>","null","fixation","","","","","","","","","","","",""
"revaluation","70","387702","0.0-3.0-11.0-2.0-0.5","spark_pilot_norest","8408","1","9","Male","","false","","","","","[793.3999999985099,657.2000000029802]","./assets/img/space/12.jpg","[""ArrowUp"",""ArrowRight""]","practice block","space","36","{""ArrowUp,ArrowLeft"":3,""ArrowUp,ArrowRight"":36,""ArrowDown,ArrowLeft"":15,""ArrowDown,ArrowRight"":23}","true","ArrowUp,ArrowRight","false","","","","","",""
"html-keyboard-response","71","388209","0.0-3.0-11.0-2.0-1.5","spark_pilot_norest","8408","1","9","Male","","","","","","","null","<div style=""font-size:60px;"">+</div>","null","fixation","","","","","","","","","","","",""
"revaluation","72","394235","0.0-3.0-11.0-2.0-0.6","spark_pilot_norest","8408","1","9","Male","","false","","","","","[1780.8000000044703,1014.8999999985099]","./assets/img/space/13.jpg","[""ArrowDown"",""ArrowRight""]","practice block","space","23","{""ArrowUp,ArrowLeft"":3,""ArrowUp,ArrowRight"":36,""ArrowDown,ArrowLeft"":15,""ArrowDown,ArrowRight"":23}","false","ArrowDown,ArrowRight","false","","","","","",""
"html-keyboard-response","73","394740","0.0-3.0-11.0-2.0-1.6","spark_pilot_norest","8408","1","9","Male","","","","","","","null","<div style=""font-size:60px;"">+</div>","null","fixation","","","","","","","","","","","",""
"revaluation","74","400759","0.0-3.0-11.0-2.0-0.7","spark_pilot_norest","8408","1","9","Male","","false","","","","","[928.8999999985099,1189.7999999970198]","./assets/img/space/14.jpg","[""ArrowDown"",""ArrowLeft""]","practice block","space","15","{""ArrowUp,ArrowLeft"":3,""ArrowUp,ArrowRight"":36,""ArrowDown,ArrowLeft"":15,""ArrowDown,ArrowRight"":23}","false","ArrowDown,ArrowLeft","false","","","","","",""
"html-keyboard-response","75","401269","0.0-3.0-11.0-2.0-1.7","spark_pilot_norest","8408","1","9","Male","","","","","","","null","<div style=""font-size:60px;"">+</div>","null","fixation","","","","","","","","","","","",""
"revaluation","76","405284","0.0-3.0-11.0-2.0-0.8","spark_pilot_norest","8408","1","9","Male","","false","","","","","[1103.5]","./assets/img/space/catch/3.jpg","[""spaceBar""]","practice block","space","0","{""ArrowUp,ArrowLeft"":3,""ArrowUp,ArrowRight"":36,""ArrowDown,ArrowLeft"":15,""ArrowDown,ArrowRight"":23}","true","spaceBar","true","","","","","",""
"html-keyboard-response","77","405788","0.0-3.0-11.0-2.0-1.8","spark_pilot_norest","8408","1","9","Male","","","","","","","null","<div style=""font-size:60px;"">+</div>","null","fixation","","","","","","","","","","","",""
"learning-instructions","78","423116","0.0-3.0-11.0-3.0-0.0","spark_pilot_norest","8408","1","9","Male","","","","","","","4038.1999999955297","<p> Now, you will travel with a friend who will choose whether you go up or down first. </p>
            <p> On these turns, you will just see the animal that they found. You will still get to choose which chest to search for treasure.</p>","","instructions","","","","","","","","","","","",""
"revaluation","79","427134","0.0-3.0-11.0-4.0-0.0","spark_pilot_norest","8408","1","9","Male","","false","","","","","[1123.1000000014901]","./assets/img/space/animals/rabbit.jpg","[""ArrowRight""]","practice block","space","23","{""ArrowUp,ArrowLeft"":3,""ArrowUp,ArrowRight"":36,""ArrowDown,ArrowLeft"":15,""ArrowDown,ArrowRight"":23}","true","ArrowDown,ArrowRight","","","","","","",""
"html-keyboard-response","80","427647","0.0-3.0-11.0-4.0-1.0","spark_pilot_norest","8408","1","9","Male","","","","","","","null","<div style=""font-size:60px;"">+</div>","null","fixation","","","","","","","","","","","",""
"revaluation","81","431669","0.0-3.0-11.0-4.0-0.1","spark_pilot_norest","8408","1","9","Male","","false","","","","","[937.1999999955297]","./assets/img/space/animals/cat.jpg","[""ArrowRight""]","practice block","space","36","{""ArrowUp,ArrowLeft"":3,""ArrowUp,ArrowRight"":36,""ArrowDown,ArrowLeft"":15,""ArrowDown,ArrowRight"":23}","true","ArrowUp,ArrowRight","","","","","","",""
"html-keyboard-response","82","432178","0.0-3.0-11.0-4.0-1.1","spark_pilot_norest","8408","1","9","Male","","","","","","","null","<div style=""font-size:60px;"">+</div>","null","fixation","","","","","","","","","","","",""
"revaluation","83","436198","0.0-3.0-11.0-4.0-0.2","spark_pilot_norest","8408","1","9","Male","","false","","","","","[850.1000000014901]","./assets/img/space/animals/cat.jpg","[""ArrowRight""]","practice block","space","36","{""ArrowUp,ArrowLeft"":3,""ArrowUp,ArrowRight"":36,""ArrowDown,ArrowLeft"":15,""ArrowDown,ArrowRight"":23}","true","ArrowUp,ArrowRight","","","","","","",""
"html-keyboard-response","84","436707","0.0-3.0-11.0-4.0-1.2","spark_pilot_norest","8408","1","9","Male","","","","","","","null","<div style=""font-size:60px;"">+</div>","null","fixation","","","","","","","","","","","",""
"revaluation","85","440729","0.0-3.0-11.0-4.0-0.3","spark_pilot_norest","8408","1","9","Male","","false","","","","","[1565.1000000014901]","./assets/img/space/animals/rabbit.jpg","[""ArrowRight""]","practice block","space","23","{""ArrowUp,ArrowLeft"":3,""ArrowUp,ArrowRight"":36,""ArrowDown,ArrowLeft"":15,""ArrowDown,ArrowRight"":23}","true","ArrowDown,ArrowRight","","","","","","",""
"html-keyboard-response","86","441234","0.0-3.0-11.0-4.0-1.3","spark_pilot_norest","8408","1","9","Male","","","","","","","null","<div style=""font-size:60px;"">+</div>","null","fixation","","","","","","","","","","","",""
"learning-instructions","87","449379","0.0-3.0-11.0-5.0-0.0","spark_pilot_norest","8408","1","9","Male","","","","","","","null","<p> You have almost finished this part of the game! </p>
            <p> We are going to ask you to make a few more choices. </p>","","instructions","","","","","","","","","","","",""
"learning-instructions","88","465429","0.0-3.0-11.0-5.0-0.1","spark_pilot_norest","8408","1","9","Male","","","","","","","null","<p> First, you need to decide whether to go up or down. When you see each picture, use the arrow keys to make your choice. </p>
            <p><b>You will not see which animal you found, but try to get to the one that will give you the most treasure.</b></p>","","instructions","","","","","","","","","","","",""
"html-keyboard-response","89","466437","0.0-3.0-11.0-6.0-0.0","spark_pilot_norest","8408","1","9","Male","","","","","","","null","<div style=""font-size:100px;color:red;"">Starting in...</div>","null","","","","","","","","","","","","",""
"html-keyboard-response","90","467442","0.0-3.0-11.0-6.0-1.0","spark_pilot_norest","8408","1","9","Male","","","","","","","null","<div style=""font-size:200px;color:red;"">3</div>","null","","","","","","","","","","","","",""
"html-keyboard-response","91","468445","0.0-3.0-11.0-6.0-2.0","spark_pilot_norest","8408","1","9","Male","","","","","","","null","<div style=""font-size:200px;color:red;"">2</div>","null","","","","","","","","","","","","",""
"html-keyboard-response","92","469450","0.0-3.0-11.0-6.0-3.0","spark_pilot_norest","8408","1","9","Male","","","","","","","null","<div style=""font-size:200px;color:red;"">1</div>","null","","","","","","","","","","","","",""
"revaluation","93","471078","0.0-3.0-11.0-7.0","spark_pilot_norest","8408","1","9","Male","","false","","","","","[1623.9000000059605]","./assets/img/space/15.jpg","[""ArrowUp""]","practice block","space","0","{""ArrowUp,ArrowLeft"":3,""ArrowUp,ArrowRight"":36,""ArrowDown,ArrowLeft"":15,""ArrowDown,ArrowRight"":23}","true","ArrowUp","false","","","","","",""
"html-keyboard-response","94","471592","0.0-3.0-11.0-8.0","spark_pilot_norest","8408","1","9","Male","","","","","","","null","<div style=""font-size:60px;"">+</div>","null","fixation","","","","","","","","","","","",""
"learning-instructions","95","485000","0.0-3.0-11.0-9.0-0.0","spark_pilot_norest","8408","1","9","Male","","","","","","","null","<p> Now you will see the animals again and can search their chests for treasure. </p>
            <p> This time, you will not see how much treasure you earned, but you will earn more bonus money for making better choices. </p>","","instructions","","","","","","","","","","","",""
"html-keyboard-response","96","486013","0.0-3.0-11.0-10.0-0.0","spark_pilot_norest","8408","1","9","Male","","","","","","","null","<div style=""font-size:100px;color:red;"">Starting in...</div>","null","","","","","","","","","","","","",""
"html-keyboard-response","97","487027","0.0-3.0-11.0-10.0-1.0","spark_pilot_norest","8408","1","9","Male","","","","","","","null","<div style=""font-size:200px;color:red;"">3</div>","null","","","","","","","","","","","","",""
"html-keyboard-response","98","488035","0.0-3.0-11.0-10.0-2.0","spark_pilot_norest","8408","1","9","Male","","","","","","","null","<div style=""font-size:200px;color:red;"">2</div>","null","","","","","","","","","","","","",""
"html-keyboard-response","99","489043","0.0-3.0-11.0-10.0-3.0","spark_pilot_norest","8408","1","9","Male","","","","","","","null","<div style=""font-size:200px;color:red;"">1</div>","null","","","","","","","","","","","","",""
"revaluation","100","489915","0.0-3.0-11.0-11.0-0.0","spark_pilot_norest","8408","1","9","Male","","false","","","","","[867.1999999955297]","./assets/img/space/animals/cat.jpg","[""ArrowRight""]","practice block","space","0","{""ArrowUp,ArrowLeft"":3,""ArrowUp,ArrowRight"":36,""ArrowDown,ArrowLeft"":15,""ArrowDown,ArrowRight"":23}","true","ArrowUp,ArrowRight","","","","","","",""
"html-keyboard-response","101","490417","0.0-3.0-11.0-11.0-1.0","spark_pilot_norest","8408","1","9","Male","","","","","","","null","<div style=""font-size:60px;"">+</div>","null","fixation","","","","","","","","","","","",""
"revaluation","102","491053","0.0-3.0-11.0-11.0-0.1","spark_pilot_norest","8408","1","9","Male","","false","","","","","[632.1999999955297]","./assets/img/space/animals/rabbit.jpg","[""ArrowRight""]","practice block","space","0","{""ArrowUp,ArrowLeft"":3,""ArrowUp,ArrowRight"":36,""ArrowDown,ArrowLeft"":15,""ArrowDown,ArrowRight"":23}","true","ArrowDown,ArrowRight","","","","","","",""
"html-keyboard-response","103","491562","0.0-3.0-11.0-11.0-1.1","spark_pilot_norest","8408","1","9","Male","","","","","","","null","<div style=""font-size:60px;"">+</div>","null","fixation","","","","","","","","","","","",""
"learning-instructions","104","497873","0.0-3.0-12.0-0.0","spark_pilot_norest","8408","1","9","Male","","","","","","","1713.7000000029802","<p> Before you start, we're going to ask you a few questions about how the game works. </p>","","instructions","","","","","","","","","","","",""
"comp-q","105","506813","0.0-3.0-13.0-0.0-0.0","spark_pilot_norest","8408","1","9","Male","","","","","","","3332.0999999940395","<p> <b> True or False? </b> </p>
            <p> There can be 50 pieces of treasure in a given animal's chest. </p>","1","comp_question","","","","true","","","","","","","",""
"comp-q","106","517372","0.0-3.0-13.0-0.0-1.0","spark_pilot_norest","8408","1","9","Male","","","","","","","3887.60000000149","<p> <b> That's right! </b> The amount of treasure in each chest can range from 0 to 40 pieces. </p>","0","comp_answer","","","","","","","","","","","",""
"comp-q","107","525841","0.0-3.0-13.0-0.1-0.1","spark_pilot_norest","8408","1","9","Male","","","","","","","1327.1999999955297","<p> <b> True or False? </b> </p><p> In this game, all animals have the same amount of treasure in their left and right chests. </p>","1","comp_question","","","","true","","","","","","","",""
"comp-q","108","532947","0.0-3.0-13.0-0.1-1.1","spark_pilot_norest","8408","1","9","Male","","","","","","","1851.3999999985099","<p> <b> That's right! </b> Animals have different amounts of treasure in their treasure chests. </p>","0","comp_answer","","","","","","","","","","","",""
"comp-q","109","540713","0.0-3.0-13.0-0.2-0.2","spark_pilot_norest","8408","1","9","Male","","","","","","","1905.6999999955297","<p> <b> True or False? </b> </p><p> The same animal will always be there if you go up in the same place. </p>","0","comp_question","","","","true","","","","","","","",""
"comp-q","110","558521","0.0-3.0-13.0-0.2-1.2","spark_pilot_norest","8408","1","9","Male","","","","","","","11349.60000000149","<p> <b> That's right! </b> One animal lives in the upper part and one lives in the lower part of every place. </p>","0","comp_answer","","","","","","","","","","","",""
"comp-q","111","565516","0.0-3.0-13.0-0.3-0.3","spark_pilot_norest","8408","1","9","Male","","","","","","","1458.2999999970198","<p> <b> True or False? </b> </p><p> If you see a different picture, it means you are in a new place. </p>","0","comp_question","","","","false","","","","","","","",""
"comp-q","112","579625","0.0-3.0-13.0-0.3-1.3","spark_pilot_norest","8408","1","9","Male","","","","","","","2990.60000000149","<p> <b>Incorrect.</b> Lots of different images may show the same place. For example,  you may see three different images that all remind you that you are in outer space. </p>","0","comp_answer","","","","","","","","","","","",""
"comp-q","113","586442","0.0-3.0-13.0-0.4-0.4","spark_pilot_norest","8408","1","9","Male","","","","","","","1316.8999999985099","<p> <b> True or False? </b> </p><p> If you see a different picture, it means you are in a new place. </p>","1","comp_question","","","","true","","","","","","","",""
"comp-q","114","599527","0.0-3.0-13.0-0.4-1.4","spark_pilot_norest","8408","1","9","Male","","","","","","","1825.5","<p> <b> That's right! </b> Lots of different images may show the same place. For example,  you may see three different images that all remind you that you are in outer space. </p>","0","comp_answer","","","","","","","","","","","",""
"learning-instructions","115","613652","0.0-3.0-14.0-0.0","spark_pilot_norest","8408","1","9","Male","","","","","","","4247.70000000298","<p> Good job. Remember to do your best because the amount of treasure you earn will be converted into bonus money. </p>
            <p> It’s time to start the real game! </p>","","instructions","","","","","","","","","","","",""
"learning-instructions","116","617593","0.0-4.0-0.0-0.0","spark_pilot_norest","8408","1","9","Male","","","","","","","1212.6999999955297","<p> This time you are searching for treasure in the <b>ocean</b>.</p>","","instructions","","","","","","","","","","","",""
"learning-instructions","117","638423","0.0-4.0-0.0-0.1","spark_pilot_norest","8408","1","9","Male","","","","","","","3493.60000000149","<p><b>New</b> animals with <b>new</b> treasure chests live here. You need to explore to discover where the animal with the best treasure chest is.</p>
                    <p> Like before, once you figure out which animal has the chest with the most treasure, you should try to get to that animal and select that chest! </p>","","instructions","","","","","","","","","","","",""
"learning-instructions","118","654347","0.0-4.0-1.0-0.0","spark_pilot_norest","8408","1","9","Male","","","","","","","1198","<p> Remember, when you see a picture of the place, use the up and down keys to <b>find an animal</b>.</p>
            <p> When you encounter an animal, you should use the left and right keys to <b>select a treasure chest</b>.</p>
            <p> Don't forget to look out for the robber! </p>","","instructions","","","","","","","","","","","",""
"revaluation","119","660370","0.0-4.0-2.0-0.0","spark_pilot_norest","8408","1","9","Male","","false","","","","","[1080.2000000029802,959.6000000014901]","./assets/img/ocean/memory/12.jpg","[""ArrowDown"",""ArrowLeft""]","value training","ocean","5","{""ArrowUp,ArrowLeft"":26,""ArrowUp,ArrowRight"":10,""ArrowDown,ArrowLeft"":5,""ArrowDown,ArrowRight"":17}","false","ArrowDown,ArrowLeft","false","original","1","0","","",""
"html-keyboard-response","120","660879","0.0-4.0-2.0-1.0","spark_pilot_norest","8408","1","9","Male","","","","","","","null","<div style=""font-size:60px;"">+</div>","null","fixation","","","","","","","","","1","","",""
"revaluation","121","666909","0.0-4.0-2.0-0.1","spark_pilot_norest","8408","1","9","Male","","false","","","","","[943.1999999955297,639.3999999985099]","./assets/img/ocean/memory/17.jpg","[""ArrowUp"",""ArrowRight""]","value training","ocean","10","{""ArrowUp,ArrowLeft"":26,""ArrowUp,ArrowRight"":10,""ArrowDown,ArrowLeft"":5,""ArrowDown,ArrowRight"":17}","false","ArrowUp,ArrowRight","false","original","1","2","","",""
"html-keyboard-response","122","667426","0.0-4.0-2.0-1.1","spark_pilot_norest","8408","1","9","Male","","","","","","","null","<div style=""font-size:60px;"">+</div>","null","fixation","","","","","","","","","3","","",""
"revaluation","123","673464","0.0-4.0-2.0-0.2","spark_pilot_norest","8408","1","9","Male","","false","","","","","[1784.5,1273.2999999970198]","./assets/img/ocean/memory/17.jpg","[""ArrowDown"",""ArrowLeft""]","value training","ocean","5","{""ArrowUp,ArrowLeft"":26,""ArrowUp,ArrowRight"":10,""ArrowDown,ArrowLeft"":5,""ArrowDown,ArrowRight"":17}","false","ArrowDown,ArrowLeft","false","original","1","4","","",""
"html-keyboard-response","124","673979","0.0-4.0-2.0-1.2","spark_pilot_norest","8408","1","9","Male","","","","","","","null","<div style=""font-size:60px;"">+</div>","null","fixation","","","","","","","","","5","","",""
"revaluation","125","678002","0.0-4.0-2.0-0.3","spark_pilot_norest","8408","1","9","Male","","true","","","","","[]","./assets/img/ocean/catch/6.jpg","[]","value training","ocean","-5","{""ArrowUp,ArrowLeft"":26,""ArrowUp,ArrowRight"":10,""ArrowDown,ArrowLeft"":5,""ArrowDown,ArrowRight"":17}","false","","true","original","1","6","","",""
"html-keyboard-response","126","678506","0.0-4.0-2.0-1.3","spark_pilot_norest","8408","1","9","Male","","","","","","","null","<div style=""font-size:60px;"">+</div>","null","fixation","","","","","","","","","7","","",""
"revaluation","127","684523","0.0-4.0-2.0-0.4","spark_pilot_norest","8408","1","9","Male","","false","","","","","[952.2999999970198,819.0999999940395]","./assets/img/ocean/memory/22.jpg","[""ArrowUp"",""ArrowRight""]","value training","ocean","10","{""ArrowUp,ArrowLeft"":26,""ArrowUp,ArrowRight"":10,""ArrowDown,ArrowLeft"":5,""ArrowDown,ArrowRight"":17}","false","ArrowUp,ArrowRight","false","original","1","8","","",""
"html-keyboard-response","128","685033","0.0-4.0-2.0-1.4","spark_pilot_norest","8408","1","9","Male","","","","","","","null","<div style=""font-size:60px;"">+</div>","null","fixation","","","","","","","","","9","","",""
"revaluation","129","691049","0.0-4.0-2.0-0.5","spark_pilot_norest","8408","1","9","Male","","false","","","","","[1094.6999999955297,844.5]","./assets/img/ocean/memory/34.jpg","[""ArrowUp"",""ArrowRight""]","value training","ocean","10","{""ArrowUp,ArrowLeft"":26,""ArrowUp,ArrowRight"":10,""ArrowDown,ArrowLeft"":5,""ArrowDown,ArrowRight"":17}","false","ArrowUp,ArrowRight","false","original","1","10","","",""
"html-keyboard-response","130","691551","0.0-4.0-2.0-1.5","spark_pilot_norest","8408","1","9","Male","","","","","","","null","<div style=""font-size:60px;"">+</div>","null","fixation","","","","","","","","","11","","",""
"revaluation","131","697571","0.0-4.0-2.0-0.6","spark_pilot_norest","8408","1","9","Male","","false","","","","","[804.4000000059605,716]","./assets/img/ocean/memory/12.jpg","[""ArrowDown"",""ArrowRight""]","value training","ocean","17","{""ArrowUp,ArrowLeft"":26,""ArrowUp,ArrowRight"":10,""ArrowDown,ArrowLeft"":5,""ArrowDown,ArrowRight"":17}","false","ArrowDown,ArrowRight","false","original","1","12","","",""
"html-keyboard-response","132","698080","0.0-4.0-2.0-1.6","spark_pilot_norest","8408","1","9","Male","","","","","","","null","<div style=""font-size:60px;"">+</div>","null","fixation","","","","","","","","","13","","",""
"revaluation","133","704106","0.0-4.0-2.0-0.7","spark_pilot_norest","8408","1","9","Male","","false","","","","","[692,510.8999999985099]","./assets/img/ocean/memory/0.jpg","[""ArrowUp"",""ArrowRight""]","value training","ocean","10","{""ArrowUp,ArrowLeft"":26,""ArrowUp,ArrowRight"":10,""ArrowDown,ArrowLeft"":5,""ArrowDown,ArrowRight"":17}","false","ArrowUp,ArrowRight","false","original","1","14","","",""
"html-keyboard-response","134","704617","0.0-4.0-2.0-1.7","spark_pilot_norest","8408","1","9","Male","","","","","","","null","<div style=""font-size:60px;"">+</div>","null","fixation","","","","","","","","","15","","",""
"revaluation","135","710630","0.0-4.0-2.0-0.8","spark_pilot_norest","8408","1","9","Male","","false","","","","","[424.29999999701977,675.2000000029802]","./assets/img/ocean/memory/5.jpg","[""ArrowUp"",""ArrowLeft""]","value training","ocean","26","{""ArrowUp,ArrowLeft"":26,""ArrowUp,ArrowRight"":10,""ArrowDown,ArrowLeft"":5,""ArrowDown,ArrowRight"":17}","true","ArrowUp,ArrowLeft","false","original","1","16","","",""
"html-keyboard-response","136","711136","0.0-4.0-2.0-1.8","spark_pilot_norest","8408","1","9","Male","","","","","","","null","<div style=""font-size:60px;"">+</div>","null","fixation","","","","","","","","","17","","",""
"revaluation","137","717160","0.0-4.0-2.0-0.9","spark_pilot_norest","8408","1","9","Male","","false","","","","","[777.3999999985099,925.8000000044703]","./assets/img/ocean/memory/4.jpg","[""ArrowDown"",""ArrowRight""]","value training","ocean","17","{""ArrowUp,ArrowLeft"":26,""ArrowUp,ArrowRight"":10,""ArrowDown,ArrowLeft"":5,""ArrowDown,ArrowRight"":17}","false","ArrowDown,ArrowRight","false","original","1","18","","",""
"html-keyboard-response","138","717668","0.0-4.0-2.0-1.9","spark_pilot_norest","8408","1","9","Male","","","","","","","null","<div style=""font-size:60px;"">+</div>","null","fixation","","","","","","","","","19","","",""
"revaluation","139","723693","0.0-4.0-2.0-0.10","spark_pilot_norest","8408","1","9","Male","","false","","","","","[1082.3999999985099,1083.7999999970198]","./assets/img/ocean/memory/37.jpg","[""ArrowUp"",""ArrowLeft""]","value training","ocean","26","{""ArrowUp,ArrowLeft"":26,""ArrowUp,ArrowRight"":10,""ArrowDown,ArrowLeft"":5,""ArrowDown,ArrowRight"":17}","true","ArrowUp,ArrowLeft","false","original","1","20","","",""
"html-keyboard-response","140","724207","0.0-4.0-2.0-1.10","spark_pilot_norest","8408","1","9","Male","","","","","","","null","<div style=""font-size:60px;"">+</div>","null","fixation","","","","","","","","","21","","",""
"revaluation","141","728222","0.0-4.0-2.0-0.11","spark_pilot_norest","8408","1","9","Male","","false","","","","","[560]","./assets/img/ocean/catch/3.jpg","[""spaceBar""]","value training","ocean","0","{""ArrowUp,ArrowLeft"":26,""ArrowUp,ArrowRight"":10,""ArrowDown,ArrowLeft"":5,""ArrowDown,ArrowRight"":17}","true","spaceBar","true","original","1","22","","",""
"html-keyboard-response","142","728729","0.0-4.0-2.0-1.11","spark_pilot_norest","8408","1","9","Male","","","","","","","null","<div style=""font-size:60px;"">+</div>","null","fixation","","","","","","","","","23","","",""
"revaluation","143","734749","0.0-4.0-2.0-0.12","spark_pilot_norest","8408","1","9","Male","","false","","","","","[798.6999999955297,830.5]","./assets/img/ocean/memory/10.jpg","[""ArrowUp"",""ArrowRight""]","value training","ocean","10","{""ArrowUp,ArrowLeft"":26,""ArrowUp,ArrowRight"":10,""ArrowDown,ArrowLeft"":5,""ArrowDown,ArrowRight"":17}","false","ArrowUp,ArrowRight","false","original","1","24","","",""
"html-keyboard-response","144","735257","0.0-4.0-2.0-1.12","spark_pilot_norest","8408","1","9","Male","","","","","","","null","<div style=""font-size:60px;"">+</div>","null","fixation","","","","","","","","","25","","",""
"revaluation","145","741273","0.0-4.0-2.0-0.13","spark_pilot_norest","8408","1","9","Male","","false","","","","","[1213,1008.6000000014901]","./assets/img/ocean/memory/28.jpg","[""ArrowDown"",""ArrowRight""]","value training","ocean","17","{""ArrowUp,ArrowLeft"":26,""ArrowUp,ArrowRight"":10,""ArrowDown,ArrowLeft"":5,""ArrowDown,ArrowRight"":17}","false","ArrowDown,ArrowRight","false","original","1","26","","",""
"html-keyboard-response","146","741779","0.0-4.0-2.0-1.13","spark_pilot_norest","8408","1","9","Male","","","","","","","null","<div style=""font-size:60px;"">+</div>","null","fixation","","","","","","","","","27","","",""
"revaluation","147","747795","0.0-4.0-2.0-0.14","spark_pilot_norest","8408","1","9","Male","","false","","","","","[973.1999999955297,1745.5]","./assets/img/ocean/memory/36.jpg","[""ArrowDown"",""ArrowLeft""]","value training","ocean","5","{""ArrowUp,ArrowLeft"":26,""ArrowUp,ArrowRight"":10,""ArrowDown,ArrowLeft"":5,""ArrowDown,ArrowRight"":17}","false","ArrowDown,ArrowLeft","false","original","1","28","","",""
"html-keyboard-response","148","748298","0.0-4.0-2.0-1.14","spark_pilot_norest","8408","1","9","Male","","","","","","","null","<div style=""font-size:60px;"">+</div>","null","fixation","","","","","","","","","29","","",""
"revaluation","149","754316","0.0-4.0-2.0-0.15","spark_pilot_norest","8408","1","9","Male","","false","","","","","[962.1999999955297,1008.9000000059605]","./assets/img/ocean/memory/31.jpg","[""ArrowUp"",""ArrowLeft""]","value training","ocean","26","{""ArrowUp,ArrowLeft"":26,""ArrowUp,ArrowRight"":10,""ArrowDown,ArrowLeft"":5,""ArrowDown,ArrowRight"":17}","true","ArrowUp,ArrowLeft","false","original","1","30","","",""
"html-keyboard-response","150","754824","0.0-4.0-2.0-1.15","spark_pilot_norest","8408","1","9","Male","","","","","","","null","<div style=""font-size:60px;"">+</div>","null","fixation","","","","","","","","","31","","",""
"revaluation","151","760849","0.0-4.0-2.0-0.16","spark_pilot_norest","8408","1","9","Male","","false","","","","","[961.2000000029802,765.1999999955297]","./assets/img/ocean/memory/38.jpg","[""ArrowDown"",""ArrowRight""]","value training","ocean","17","{""ArrowUp,ArrowLeft"":26,""ArrowUp,ArrowRight"":10,""ArrowDown,ArrowLeft"":5,""ArrowDown,ArrowRight"":17}","false","ArrowDown,ArrowRight","false","original","1","32","","",""
"html-keyboard-response","152","761351","0.0-4.0-2.0-1.16","spark_pilot_norest","8408","1","9","Male","","","","","","","null","<div style=""font-size:60px;"">+</div>","null","fixation","","","","","","","","","33","","",""
"revaluation","153","765366","0.0-4.0-2.0-0.17","spark_pilot_norest","8408","1","9","Male","","false","","","","","[573.2000000029802]","./assets/img/ocean/catch/0.jpg","[""spaceBar""]","value training","ocean","0","{""ArrowUp,ArrowLeft"":26,""ArrowUp,ArrowRight"":10,""ArrowDown,ArrowLeft"":5,""ArrowDown,ArrowRight"":17}","true","spaceBar","true","original","1","34","","",""
"html-keyboard-response","154","765870","0.0-4.0-2.0-1.17","spark_pilot_norest","8408","1","9","Male","","","","","","","null","<div style=""font-size:60px;"">+</div>","null","fixation","","","","","","","","","35","","",""
"revaluation","155","769882","0.0-4.0-2.0-0.18","spark_pilot_norest","8408","1","9","Male","","false","","","","","[882.6000000014901]","./assets/img/ocean/catch/2.jpg","[""spaceBar""]","value training","ocean","0","{""ArrowUp,ArrowLeft"":26,""ArrowUp,ArrowRight"":10,""ArrowDown,ArrowLeft"":5,""ArrowDown,ArrowRight"":17}","true","spaceBar","true","original","1","36","","",""
"html-keyboard-response","156","770394","0.0-4.0-2.0-1.18","spark_pilot_norest","8408","1","9","Male","","","","","","","null","<div style=""font-size:60px;"">+</div>","null","fixation","","","","","","","","","37","","",""
"revaluation","157","776424","0.0-4.0-2.0-0.19","spark_pilot_norest","8408","1","9","Male","","false","","","","","[926.8999999985099,669]","./assets/img/ocean/memory/39.jpg","[""ArrowDown"",""ArrowRight""]","value training","ocean","17","{""ArrowUp,ArrowLeft"":26,""ArrowUp,ArrowRight"":10,""ArrowDown,ArrowLeft"":5,""ArrowDown,ArrowRight"":17}","false","ArrowDown,ArrowRight","false","original","1","38","","",""
"html-keyboard-response","158","776928","0.0-4.0-2.0-1.19","spark_pilot_norest","8408","1","9","Male","","","","","","","null","<div style=""font-size:60px;"">+</div>","null","fixation","","","","","","","","","39","","",""
"revaluation","159","780940","0.0-4.0-2.0-0.20","spark_pilot_norest","8408","1","9","Male","","false","","","","","[1208.1000000014901]","./assets/img/ocean/catch/7.jpg","[""spaceBar""]","value training","ocean","0","{""ArrowUp,ArrowLeft"":26,""ArrowUp,ArrowRight"":10,""ArrowDown,ArrowLeft"":5,""ArrowDown,ArrowRight"":17}","true","spaceBar","true","original","1","40","","",""
"html-keyboard-response","160","781445","0.0-4.0-2.0-1.20","spark_pilot_norest","8408","1","9","Male","","","","","","","null","<div style=""font-size:60px;"">+</div>","null","fixation","","","","","","","","","41","","",""
"revaluation","161","787458","0.0-4.0-2.0-0.21","spark_pilot_norest","8408","1","9","Male","","false","","","","","[685.8999999985099,786.7000000029802]","./assets/img/ocean/memory/10.jpg","[""ArrowUp"",""ArrowRight""]","value training","ocean","10","{""ArrowUp,ArrowLeft"":26,""ArrowUp,ArrowRight"":10,""ArrowDown,ArrowLeft"":5,""ArrowDown,ArrowRight"":17}","false","ArrowUp,ArrowRight","false","original","1","42","","",""
"html-keyboard-response","162","787965","0.0-4.0-2.0-1.21","spark_pilot_norest","8408","1","9","Male","","","","","","","null","<div style=""font-size:60px;"">+</div>","null","fixation","","","","","","","","","43","","",""
"revaluation","163","793983","0.0-4.0-2.0-0.22","spark_pilot_norest","8408","1","9","Male","","false","","","","","[939.2999999970198,381.70000000298023]","./assets/img/ocean/memory/20.jpg","[""ArrowUp"",""ArrowLeft""]","value training","ocean","26","{""ArrowUp,ArrowLeft"":26,""ArrowUp,ArrowRight"":10,""ArrowDown,ArrowLeft"":5,""ArrowDown,ArrowRight"":17}","true","ArrowUp,ArrowLeft","false","original","1","44","","",""
"html-keyboard-response","164","794489","0.0-4.0-2.0-1.22","spark_pilot_norest","8408","1","9","Male","","","","","","","null","<div style=""font-size:60px;"">+</div>","null","fixation","","","","","","","","","45","","",""
"revaluation","165","800522","0.0-4.0-2.0-0.23","spark_pilot_norest","8408","1","9","Male","","false","","","","","[1537,1079.6999999955297]","./assets/img/ocean/memory/3.jpg","[""ArrowDown"",""ArrowLeft""]","value training","ocean","5","{""ArrowUp,ArrowLeft"":26,""ArrowUp,ArrowRight"":10,""ArrowDown,ArrowLeft"":5,""ArrowDown,ArrowRight"":17}","false","ArrowDown,ArrowLeft","false","original","1","46","","",""
"html-keyboard-response","166","801026","0.0-4.0-2.0-1.23","spark_pilot_norest","8408","1","9","Male","","","","","","","null","<div style=""font-size:60px;"">+</div>","null","fixation","","","","","","","","","47","","",""
"revaluation","167","807047","0.0-4.0-2.0-0.24","spark_pilot_norest","8408","1","9","Male","","false","","","","","[532.4000000059605,466.79999999701977]","./assets/img/ocean/memory/15.jpg","[""ArrowUp"",""ArrowLeft""]","value training","ocean","26","{""ArrowUp,ArrowLeft"":26,""ArrowUp,ArrowRight"":10,""ArrowDown,ArrowLeft"":5,""ArrowDown,ArrowRight"":17}","true","ArrowUp,ArrowLeft","false","original","1","48","","",""
"html-keyboard-response","168","807552","0.0-4.0-2.0-1.24","spark_pilot_norest","8408","1","9","Male","","","","","","","null","<div style=""font-size:60px;"">+</div>","null","fixation","","","","","","","","","49","","",""
"revaluation","169","813568","0.0-4.0-2.0-0.25","spark_pilot_norest","8408","1","9","Male","","false","","","","","[480.79999999701977,524.7000000029802]","./assets/img/ocean/memory/38.jpg","[""ArrowDown"",""ArrowRight""]","value training","ocean","17","{""ArrowUp,ArrowLeft"":26,""ArrowUp,ArrowRight"":10,""ArrowDown,ArrowLeft"":5,""ArrowDown,ArrowRight"":17}","false","ArrowDown,ArrowRight","false","original","1","50","","",""
"html-keyboard-response","170","814072","0.0-4.0-2.0-1.25","spark_pilot_norest","8408","1","9","Male","","","","","","","null","<div style=""font-size:60px;"">+</div>","null","fixation","","","","","","","","","51","","",""
"revaluation","171","820095","0.0-4.0-2.0-0.26","spark_pilot_norest","8408","1","9","Male","","false","","","","","[918.5,1499.6000000014901]","./assets/img/ocean/memory/31.jpg","[""ArrowUp"",""ArrowRight""]","value training","ocean","10","{""ArrowUp,ArrowLeft"":26,""ArrowUp,ArrowRight"":10,""ArrowDown,ArrowLeft"":5,""ArrowDown,ArrowRight"":17}","false","ArrowUp,ArrowRight","false","original","1","52","","",""
"html-keyboard-response","172","820602","0.0-4.0-2.0-1.26","spark_pilot_norest","8408","1","9","Male","","","","","","","null","<div style=""font-size:60px;"">+</div>","null","fixation","","","","","","","","","53","","",""
"revaluation","173","826629","0.0-4.0-2.0-0.27","spark_pilot_norest","8408","1","9","Male","","false","","","","","[825.6000000014901,454.79999999701977]","./assets/img/ocean/memory/6.jpg","[""ArrowUp"",""ArrowLeft""]","value training","ocean","26","{""ArrowUp,ArrowLeft"":26,""ArrowUp,ArrowRight"":10,""ArrowDown,ArrowLeft"":5,""ArrowDown,ArrowRight"":17}","true","ArrowUp,ArrowLeft","false","original","1","54","","",""
"html-keyboard-response","174","827135","0.0-4.0-2.0-1.27","spark_pilot_norest","8408","1","9","Male","","","","","","","null","<div style=""font-size:60px;"">+</div>","null","fixation","","","","","","","","","55","","",""
"revaluation","175","833155","0.0-4.0-2.0-0.28","spark_pilot_norest","8408","1","9","Male","","false","","","","","[860.8999999985099,1012.8999999985099]","./assets/img/ocean/memory/34.jpg","[""ArrowUp"",""ArrowLeft""]","value training","ocean","26","{""ArrowUp,ArrowLeft"":26,""ArrowUp,ArrowRight"":10,""ArrowDown,ArrowLeft"":5,""ArrowDown,ArrowRight"":17}","true","ArrowUp,ArrowLeft","false","original","1","56","","",""
"html-keyboard-response","176","833665","0.0-4.0-2.0-1.28","spark_pilot_norest","8408","1","9","Male","","","","","","","null","<div style=""font-size:60px;"">+</div>","null","fixation","","","","","","","","","57","","",""
"revaluation","177","839684","0.0-4.0-2.0-0.29","spark_pilot_norest","8408","1","9","Male","","false","","","","","[712.2000000029802,505.3999999985099]","./assets/img/ocean/memory/0.jpg","[""ArrowUp"",""ArrowLeft""]","value training","ocean","26","{""ArrowUp,ArrowLeft"":26,""ArrowUp,ArrowRight"":10,""ArrowDown,ArrowLeft"":5,""ArrowDown,ArrowRight"":17}","true","ArrowUp,ArrowLeft","false","original","1","58","","",""
"html-keyboard-response","178","840187","0.0-4.0-2.0-1.29","spark_pilot_norest","8408","1","9","Male","","","","","","","null","<div style=""font-size:60px;"">+</div>","null","fixation","","","","","","","","","59","","",""
"revaluation","179","846204","0.0-4.0-2.0-0.30","spark_pilot_norest","8408","1","9","Male","","false","","","","","[901.5,842.5]","./assets/img/ocean/memory/15.jpg","[""ArrowUp"",""ArrowLeft""]","value training","ocean","26","{""ArrowUp,ArrowLeft"":26,""ArrowUp,ArrowRight"":10,""ArrowDown,ArrowLeft"":5,""ArrowDown,ArrowRight"":17}","true","ArrowUp,ArrowLeft","false","original","1","60","","",""
"html-keyboard-response","180","846711","0.0-4.0-2.0-1.30","spark_pilot_norest","8408","1","9","Male","","","","","","","null","<div style=""font-size:60px;"">+</div>","null","fixation","","","","","","","","","61","","",""
"revaluation","181","852733","0.0-4.0-2.0-0.31","spark_pilot_norest","8408","1","9","Male","","false","","","","","[634.6000000014901,747.6000000014901]","./assets/img/ocean/memory/24.jpg","[""ArrowUp"",""ArrowLeft""]","value training","ocean","26","{""ArrowUp,ArrowLeft"":26,""ArrowUp,ArrowRight"":10,""ArrowDown,ArrowLeft"":5,""ArrowDown,ArrowRight"":17}","true","ArrowUp,ArrowLeft","false","original","1","62","","",""
"html-keyboard-response","182","853242","0.0-4.0-2.0-1.31","spark_pilot_norest","8408","1","9","Male","","","","","","","null","<div style=""font-size:60px;"">+</div>","null","fixation","","","","","","","","","63","","",""
"revaluation","183","859264","0.0-4.0-2.0-0.32","spark_pilot_norest","8408","1","9","Male","","false","","","","","[682.5,493.1000000014901]","./assets/img/ocean/memory/39.jpg","[""ArrowUp"",""ArrowLeft""]","value training","ocean","26","{""ArrowUp,ArrowLeft"":26,""ArrowUp,ArrowRight"":10,""ArrowDown,ArrowLeft"":5,""ArrowDown,ArrowRight"":17}","true","ArrowUp,ArrowLeft","false","original","1","64","","",""
"html-keyboard-response","184","859768","0.0-4.0-2.0-1.32","spark_pilot_norest","8408","1","9","Male","","","","","","","null","<div style=""font-size:60px;"">+</div>","null","fixation","","","","","","","","","65","","",""
"revaluation","185","865790","0.0-4.0-2.0-0.33","spark_pilot_norest","8408","1","9","Male","","false","","","","","[1795.3999999985099,1271]","./assets/img/ocean/memory/37.jpg","[""ArrowDown"",""ArrowLeft""]","value training","ocean","5","{""ArrowUp,ArrowLeft"":26,""ArrowUp,ArrowRight"":10,""ArrowDown,ArrowLeft"":5,""ArrowDown,ArrowRight"":17}","false","ArrowDown,ArrowLeft","false","original","1","66","","",""
"html-keyboard-response","186","866297","0.0-4.0-2.0-1.33","spark_pilot_norest","8408","1","9","Male","","","","","","","null","<div style=""font-size:60px;"">+</div>","null","fixation","","","","","","","","","67","","",""
"revaluation","187","870311","0.0-4.0-2.0-0.34","spark_pilot_norest","8408","1","9","Male","","false","","","","","[1587.6000000014901]","./assets/img/ocean/catch/1.jpg","[""spaceBar""]","value training","ocean","0","{""ArrowUp,ArrowLeft"":26,""ArrowUp,ArrowRight"":10,""ArrowDown,ArrowLeft"":5,""ArrowDown,ArrowRight"":17}","true","spaceBar","true","original","1","68","","",""
"html-keyboard-response","188","870813","0.0-4.0-2.0-1.34","spark_pilot_norest","8408","1","9","Male","","","","","","[{""event"":""fullscreenenter"",""trial"":2,""time"":25848},{""event"":""blur"",""trial"":189,""time"":871764},{""event"":""focus"",""trial"":191,""time"":876670},{""event"":""blur"",""trial"":645,""time"":1981756},{""event"":""focus"",""trial"":646,""time"":1991883}]","null","<div style=""font-size:60px;"">+</div>","null","fixation","","","","","","","","","69","","",""
"revaluation","189","874824","0.0-4.0-2.0-0.35","spark_pilot_norest","8408","1","9","Male","","true","","","","","[]","./assets/img/ocean/memory/1.jpg","[]","value training","ocean","-5","{""ArrowUp,ArrowLeft"":26,""ArrowUp,ArrowRight"":10,""ArrowDown,ArrowLeft"":5,""ArrowDown,ArrowRight"":17}","false","","false","original","1","70","","",""
"html-keyboard-response","190","875332","0.0-4.0-2.0-1.35","spark_pilot_norest","8408","1","9","Male","","","","","","[{""event"":""fullscreenenter"",""trial"":2,""time"":25848},{""event"":""blur"",""trial"":189,""time"":871764},{""event"":""focus"",""trial"":191,""time"":876670},{""event"":""blur"",""trial"":645,""time"":1981756},{""event"":""focus"",""trial"":646,""time"":1991883}]","null","<div style=""font-size:60px;"">+</div>","null","fixation","","","","","","","","","71","","",""
"revaluation","191","879354","0.0-4.0-2.0-0.36","spark_pilot_norest","8408","1","9","Male","","true","","","","","[]","./assets/img/ocean/memory/20.jpg","[]","value training","ocean","-5","{""ArrowUp,ArrowLeft"":26,""ArrowUp,ArrowRight"":10,""ArrowDown,ArrowLeft"":5,""ArrowDown,ArrowRight"":17}","false","","false","original","1","72","","",""
"html-keyboard-response","192","879862","0.0-4.0-2.0-1.36","spark_pilot_norest","8408","1","9","Male","","","","","","","null","<div style=""font-size:60px;"">+</div>","null","fixation","","","","","","","","","73","","",""
"revaluation","193","885875","0.0-4.0-2.0-0.37","spark_pilot_norest","8408","1","9","Male","","false","","","","","[422.5,768.2000000029802]","./assets/img/ocean/memory/4.jpg","[""ArrowUp"",""ArrowLeft""]","value training","ocean","26","{""ArrowUp,ArrowLeft"":26,""ArrowUp,ArrowRight"":10,""ArrowDown,ArrowLeft"":5,""ArrowDown,ArrowRight"":17}","true","ArrowUp,ArrowLeft","false","original","1","74","","",""
"html-keyboard-response","194","886384","0.0-4.0-2.0-1.37","spark_pilot_norest","8408","1","9","Male","","","","","","","null","<div style=""font-size:60px;"">+</div>","null","fixation","","","","","","","","","75","","",""
"revaluation","195","892407","0.0-4.0-2.0-0.38","spark_pilot_norest","8408","1","9","Male","","false","","","","","[919.7000000029802,594.6999999955297]","./assets/img/ocean/memory/3.jpg","[""ArrowUp"",""ArrowRight""]","value training","ocean","10","{""ArrowUp,ArrowLeft"":26,""ArrowUp,ArrowRight"":10,""ArrowDown,ArrowLeft"":5,""ArrowDown,ArrowRight"":17}","false","ArrowUp,ArrowRight","false","original","1","76","","",""
"html-keyboard-response","196","892912","0.0-4.0-2.0-1.38","spark_pilot_norest","8408","1","9","Male","","","","","","","null","<div style=""font-size:60px;"">+</div>","null","fixation","","","","","","","","","77","","",""
"revaluation","197","898932","0.0-4.0-2.0-0.39","spark_pilot_norest","8408","1","9","Male","","false","","","","","[1584.8999999985099,1422.5999999940395]","./assets/img/ocean/memory/26.jpg","[""ArrowDown"",""ArrowRight""]","value training","ocean","17","{""ArrowUp,ArrowLeft"":26,""ArrowUp,ArrowRight"":10,""ArrowDown,ArrowLeft"":5,""ArrowDown,ArrowRight"":17}","false","ArrowDown,ArrowRight","false","original","1","78","","",""
"html-keyboard-response","198","899450","0.0-4.0-2.0-1.39","spark_pilot_norest","8408","1","9","Male","","","","","","","null","<div style=""font-size:60px;"">+</div>","null","fixation","","","","","","","","","79","","",""
"revaluation","199","905465","0.0-4.0-2.0-0.40","spark_pilot_norest","8408","1","9","Male","","false","","","","","[686.5,1556.5999999940395]","./assets/img/ocean/memory/5.jpg","[""ArrowUp"",""ArrowLeft""]","value training","ocean","26","{""ArrowUp,ArrowLeft"":26,""ArrowUp,ArrowRight"":10,""ArrowDown,ArrowLeft"":5,""ArrowDown,ArrowRight"":17}","true","ArrowUp,ArrowLeft","false","original","1","80","","",""
"html-keyboard-response","200","905967","0.0-4.0-2.0-1.40","spark_pilot_norest","8408","1","9","Male","","","","","","","null","<div style=""font-size:60px;"">+</div>","null","fixation","","","","","","","","","81","","",""
"revaluation","201","911984","0.0-4.0-2.0-0.41","spark_pilot_norest","8408","1","9","Male","","false","","","","","[1666,946.7000000029802]","./assets/img/ocean/memory/24.jpg","[""ArrowDown"",""ArrowRight""]","value training","ocean","17","{""ArrowUp,ArrowLeft"":26,""ArrowUp,ArrowRight"":10,""ArrowDown,ArrowLeft"":5,""ArrowDown,ArrowRight"":17}","false","ArrowDown,ArrowRight","false","original","1","82","","",""
"html-keyboard-response","202","912488","0.0-4.0-2.0-1.41","spark_pilot_norest","8408","1","9","Male","","","","","","","null","<div style=""font-size:60px;"">+</div>","null","fixation","","","","","","","","","83","","",""
"revaluation","203","918501","0.0-4.0-2.0-0.42","spark_pilot_norest","8408","1","9","Male","","false","","","","","[761.2999999970198,679.2999999970198]","./assets/img/ocean/memory/1.jpg","[""ArrowUp"",""ArrowLeft""]","value training","ocean","26","{""ArrowUp,ArrowLeft"":26,""ArrowUp,ArrowRight"":10,""ArrowDown,ArrowLeft"":5,""ArrowDown,ArrowRight"":17}","true","ArrowUp,ArrowLeft","false","original","1","84","","",""
"html-keyboard-response","204","919011","0.0-4.0-2.0-1.42","spark_pilot_norest","8408","1","9","Male","","","","","","","null","<div style=""font-size:60px;"">+</div>","null","fixation","","","","","","","","","85","","",""
"revaluation","205","925044","0.0-4.0-2.0-0.43","spark_pilot_norest","8408","1","9","Male","","false","","","","","[1427.5,1198.2999999970198]","./assets/img/ocean/memory/22.jpg","[""ArrowDown"",""ArrowRight""]","value training","ocean","17","{""ArrowUp,ArrowLeft"":26,""ArrowUp,ArrowRight"":10,""ArrowDown,ArrowLeft"":5,""ArrowDown,ArrowRight"":17}","false","ArrowDown,ArrowRight","false","original","1","86","","",""
"html-keyboard-response","206","925548","0.0-4.0-2.0-1.43","spark_pilot_norest","8408","1","9","Male","","","","","","","null","<div style=""font-size:60px;"">+</div>","null","fixation","","","","","","","","","87","","",""
"revaluation","207","929568","0.0-4.0-2.0-0.44","spark_pilot_norest","8408","1","9","Male","","false","","","","","[810.5]","./assets/img/ocean/catch/4.jpg","[""spaceBar""]","value training","ocean","0","{""ArrowUp,ArrowLeft"":26,""ArrowUp,ArrowRight"":10,""ArrowDown,ArrowLeft"":5,""ArrowDown,ArrowRight"":17}","true","spaceBar","true","original","1","88","","",""
"html-keyboard-response","208","930075","0.0-4.0-2.0-1.44","spark_pilot_norest","8408","1","9","Male","","","","","","","null","<div style=""font-size:60px;"">+</div>","null","fixation","","","","","","","","","89","","",""
"revaluation","209","934091","0.0-4.0-2.0-0.45","spark_pilot_norest","8408","1","9","Male","","false","","","","","[951.2999999970198]","./assets/img/ocean/catch/5.jpg","[""spaceBar""]","value training","ocean","0","{""ArrowUp,ArrowLeft"":26,""ArrowUp,ArrowRight"":10,""ArrowDown,ArrowLeft"":5,""ArrowDown,ArrowRight"":17}","true","spaceBar","true","original","1","90","","",""
"html-keyboard-response","210","934597","0.0-4.0-2.0-1.45","spark_pilot_norest","8408","1","9","Male","","","","","","","null","<div style=""font-size:60px;"">+</div>","null","fixation","","","","","","","","","91","","",""
"revaluation","211","940624","0.0-4.0-2.0-0.46","spark_pilot_norest","8408","1","9","Male","","false","","","","","[1259.7999999970198,770.6000000014901]","./assets/img/ocean/memory/26.jpg","[""ArrowDown"",""ArrowRight""]","value training","ocean","17","{""ArrowUp,ArrowLeft"":26,""ArrowUp,ArrowRight"":10,""ArrowDown,ArrowLeft"":5,""ArrowDown,ArrowRight"":17}","false","ArrowDown,ArrowRight","false","original","1","92","","",""
"html-keyboard-response","212","941134","0.0-4.0-2.0-1.46","spark_pilot_norest","8408","1","9","Male","","","","","","","null","<div style=""font-size:60px;"">+</div>","null","fixation","","","","","","","","","93","","",""
"revaluation","213","947144","0.0-4.0-2.0-0.47","spark_pilot_norest","8408","1","9","Male","","false","","","","","[455.30000000447035,1513.5]","./assets/img/ocean/memory/28.jpg","[""ArrowUp"",""ArrowLeft""]","value training","ocean","26","{""ArrowUp,ArrowLeft"":26,""ArrowUp,ArrowRight"":10,""ArrowDown,ArrowLeft"":5,""ArrowDown,ArrowRight"":17}","true","ArrowUp,ArrowLeft","false","original","1","94","","",""
"html-keyboard-response","214","947651","0.0-4.0-2.0-1.47","spark_pilot_norest","8408","1","9","Male","","","","","","","null","<div style=""font-size:60px;"">+</div>","null","fixation","","","","","","","","","95","","",""
"revaluation","215","953678","0.0-4.0-2.0-0.48","spark_pilot_norest","8408","1","9","Male","","false","","","","","[689.5,1719.8000000044703]","./assets/img/ocean/memory/6.jpg","[""ArrowUp"",""ArrowLeft""]","value training","ocean","26","{""ArrowUp,ArrowLeft"":26,""ArrowUp,ArrowRight"":10,""ArrowDown,ArrowLeft"":5,""ArrowDown,ArrowRight"":17}","true","ArrowUp,ArrowLeft","false","original","1","96","","",""
"html-keyboard-response","216","954185","0.0-4.0-2.0-1.48","spark_pilot_norest","8408","1","9","Male","","","","","","","null","<div style=""font-size:60px;"">+</div>","null","fixation","","","","","","","","","97","","",""
"revaluation","217","960213","0.0-4.0-2.0-0.49","spark_pilot_norest","8408","1","9","Male","","false","","","","","[1041,1366]","./assets/img/ocean/memory/36.jpg","[""ArrowUp"",""ArrowLeft""]","value training","ocean","26","{""ArrowUp,ArrowLeft"":26,""ArrowUp,ArrowRight"":10,""ArrowDown,ArrowLeft"":5,""ArrowDown,ArrowRight"":17}","true","ArrowUp,ArrowLeft","false","original","1","98","","",""
"html-keyboard-response","218","960728","0.0-4.0-2.0-1.49","spark_pilot_norest","8408","1","9","Male","","","","","","","null","<div style=""font-size:60px;"">+</div>","null","fixation","","","","","","","","","99","","",""
"learning-instructions","219","977157","0.0-4.0-3.0-0.0","spark_pilot_norest","8408","1","9","Male","","","","","","","3198.10000000149","<p> Now, you will travel with a friend who will choose whether you go up or down first. </p>
            <p> On these turns, you will just see the animal that they found. You will still get to choose which chest to search for treasure.</p>","","instructions","","","","","","","","","","","",""
"revaluation","220","981184","0.0-4.0-4.0-0.0","spark_pilot_norest","8408","1","9","Male","","false","","","","","[1272.7000000029802]","./assets/img/ocean/animals/octopus.jpg","[""ArrowLeft""]","revaluation","ocean","5","{""ArrowUp,ArrowLeft"":26,""ArrowUp,ArrowRight"":10,""ArrowDown,ArrowLeft"":5,""ArrowDown,ArrowRight"":17}","false","ArrowDown,ArrowLeft","","original","1","0","","",""
"html-keyboard-response","221","981695","0.0-4.0-4.0-1.0","spark_pilot_norest","8408","1","9","Male","","","","","","","null","<div style=""font-size:60px;"">+</div>","null","fixation","","","","","","","","","1","","",""
"revaluation","222","985710","0.0-4.0-4.0-0.1","spark_pilot_norest","8408","1","9","Male","","false","","","","","[637.5999999940395]","./assets/img/ocean/animals/seahorse.jpg","[""ArrowRight""]","revaluation","ocean","10","{""ArrowUp,ArrowLeft"":26,""ArrowUp,ArrowRight"":10,""ArrowDown,ArrowLeft"":5,""ArrowDown,ArrowRight"":17}","false","ArrowUp,ArrowRight","","original","1","2","","",""
"html-keyboard-response","223","986224","0.0-4.0-4.0-1.1","spark_pilot_norest","8408","1","9","Male","","","","","","","null","<div style=""font-size:60px;"">+</div>","null","fixation","","","","","","","","","3","","",""
"revaluation","224","990244","0.0-4.0-4.0-0.2","spark_pilot_norest","8408","1","9","Male","","false","","","","","[837.8999999985099]","./assets/img/ocean/animals/octopus.jpg","[""ArrowRight""]","revaluation","ocean","17","{""ArrowUp,ArrowLeft"":26,""ArrowUp,ArrowRight"":10,""ArrowDown,ArrowLeft"":5,""ArrowDown,ArrowRight"":17}","true","ArrowDown,ArrowRight","","original","1","4","","",""
"html-keyboard-response","225","990752","0.0-4.0-4.0-1.2","spark_pilot_norest","8408","1","9","Male","","","","","","","null","<div style=""font-size:60px;"">+</div>","null","fixation","","","","","","","","","5","","",""
"revaluation","226","994776","0.0-4.0-4.0-0.3","spark_pilot_norest","8408","1","9","Male","","false","","","","","[679.6000000014901]","./assets/img/ocean/animals/octopus.jpg","[""ArrowRight""]","revaluation","ocean","17","{""ArrowUp,ArrowLeft"":26,""ArrowUp,ArrowRight"":10,""ArrowDown,ArrowLeft"":5,""ArrowDown,ArrowRight"":17}","true","ArrowDown,ArrowRight","","original","1","6","","",""
"html-keyboard-response","227","995292","0.0-4.0-4.0-1.3","spark_pilot_norest","8408","1","9","Male","","","","","","","null","<div style=""font-size:60px;"">+</div>","null","fixation","","","","","","","","","7","","",""
"revaluation","228","999311","0.0-4.0-4.0-0.4","spark_pilot_norest","8408","1","9","Male","","false","","","","","[1105.8000000044703]","./assets/img/ocean/animals/seahorse.jpg","[""ArrowLeft""]","revaluation","ocean","26","{""ArrowUp,ArrowLeft"":26,""ArrowUp,ArrowRight"":10,""ArrowDown,ArrowLeft"":5,""ArrowDown,ArrowRight"":17}","true","ArrowUp,ArrowLeft","","original","1","8","","",""
"html-keyboard-response","229","999820","0.0-4.0-4.0-1.4","spark_pilot_norest","8408","1","9","Male","","","","","","","null","<div style=""font-size:60px;"">+</div>","null","fixation","","","","","","","","","9","","",""
"revaluation","230","1003831","0.0-4.0-4.0-0.5","spark_pilot_norest","8408","1","9","Male","","false","","","","","[1025.1999999955297]","./assets/img/ocean/animals/octopus.jpg","[""ArrowRight""]","revaluation","ocean","17","{""ArrowUp,ArrowLeft"":26,""ArrowUp,ArrowRight"":10,""ArrowDown,ArrowLeft"":5,""ArrowDown,ArrowRight"":17}","true","ArrowDown,ArrowRight","","original","1","10","","",""
"html-keyboard-response","231","1004334","0.0-4.0-4.0-1.5","spark_pilot_norest","8408","1","9","Male","","","","","","","null","<div style=""font-size:60px;"">+</div>","null","fixation","","","","","","","","","11","","",""
"revaluation","232","1008356","0.0-4.0-4.0-0.6","spark_pilot_norest","8408","1","9","Male","","false","","","","","[1617.8999999985099]","./assets/img/ocean/animals/seahorse.jpg","[""ArrowLeft""]","revaluation","ocean","26","{""ArrowUp,ArrowLeft"":26,""ArrowUp,ArrowRight"":10,""ArrowDown,ArrowLeft"":5,""ArrowDown,ArrowRight"":17}","true","ArrowUp,ArrowLeft","","original","1","12","","",""
"html-keyboard-response","233","1008863","0.0-4.0-4.0-1.6","spark_pilot_norest","8408","1","9","Male","","","","","","","null","<div style=""font-size:60px;"">+</div>","null","fixation","","","","","","","","","13","","",""
"revaluation","234","1012876","0.0-4.0-4.0-0.7","spark_pilot_norest","8408","1","9","Male","","false","","","","","[774]","./assets/img/ocean/animals/seahorse.jpg","[""ArrowLeft""]","revaluation","ocean","26","{""ArrowUp,ArrowLeft"":26,""ArrowUp,ArrowRight"":10,""ArrowDown,ArrowLeft"":5,""ArrowDown,ArrowRight"":17}","true","ArrowUp,ArrowLeft","","original","1","14","","",""
"html-keyboard-response","235","1013381","0.0-4.0-4.0-1.7","spark_pilot_norest","8408","1","9","Male","","","","","","","null","<div style=""font-size:60px;"">+</div>","null","fixation","","","","","","","","","15","","",""
"revaluation","236","1017393","0.0-4.0-4.0-0.8","spark_pilot_norest","8408","1","9","Male","","false","","","","","[965.6000000014901]","./assets/img/ocean/animals/seahorse.jpg","[""ArrowRight""]","revaluation","ocean","10","{""ArrowUp,ArrowLeft"":26,""ArrowUp,ArrowRight"":10,""ArrowDown,ArrowLeft"":5,""ArrowDown,ArrowRight"":17}","false","ArrowUp,ArrowRight","","original","1","16","","",""
"html-keyboard-response","237","1017900","0.0-4.0-4.0-1.8","spark_pilot_norest","8408","1","9","Male","","","","","","","null","<div style=""font-size:60px;"">+</div>","null","fixation","","","","","","","","","17","","",""
"revaluation","238","1021912","0.0-4.0-4.0-0.9","spark_pilot_norest","8408","1","9","Male","","false","","","","","[620.6000000014901]","./assets/img/ocean/animals/octopus.jpg","[""ArrowLeft""]","revaluation","ocean","5","{""ArrowUp,ArrowLeft"":26,""ArrowUp,ArrowRight"":10,""ArrowDown,ArrowLeft"":5,""ArrowDown,ArrowRight"":17}","false","ArrowDown,ArrowLeft","","original","1","18","","",""
"html-keyboard-response","239","1022418","0.0-4.0-4.0-1.9","spark_pilot_norest","8408","1","9","Male","","","","","","","null","<div style=""font-size:60px;"">+</div>","null","fixation","","","","","","","","","19","","",""
"revaluation","240","1026434","0.0-4.0-4.0-0.10","spark_pilot_norest","8408","1","9","Male","","false","","","","","[1130.3999999985099]","./assets/img/ocean/animals/seahorse.jpg","[""ArrowLeft""]","revaluation","ocean","26","{""ArrowUp,ArrowLeft"":26,""ArrowUp,ArrowRight"":10,""ArrowDown,ArrowLeft"":5,""ArrowDown,ArrowRight"":17}","true","ArrowUp,ArrowLeft","","original","1","20","","",""
"html-keyboard-response","241","1026941","0.0-4.0-4.0-1.10","spark_pilot_norest","8408","1","9","Male","","","","","","","null","<div style=""font-size:60px;"">+</div>","null","fixation","","","","","","","","","21","","",""
"revaluation","242","1030957","0.0-4.0-4.0-0.11","spark_pilot_norest","8408","1","9","Male","","false","","","","","[563.7000000029802]","./assets/img/ocean/animals/octopus.jpg","[""ArrowRight""]","revaluation","ocean","17","{""ArrowUp,ArrowLeft"":26,""ArrowUp,ArrowRight"":10,""ArrowDown,ArrowLeft"":5,""ArrowDown,ArrowRight"":17}","true","ArrowDown,ArrowRight","","original","1","22","","",""
"html-keyboard-response","243","1031466","0.0-4.0-4.0-1.11","spark_pilot_norest","8408","1","9","Male","","","","","","","null","<div style=""font-size:60px;"">+</div>","null","fixation","","","","","","","","","23","","",""
"revaluation","244","1035476","0.0-4.0-4.0-0.12","spark_pilot_norest","8408","1","9","Male","","false","","","","","[1330.3000000044703]","./assets/img/ocean/animals/octopus.jpg","[""ArrowRight""]","revaluation","ocean","17","{""ArrowUp,ArrowLeft"":26,""ArrowUp,ArrowRight"":10,""ArrowDown,ArrowLeft"":5,""ArrowDown,ArrowRight"":17}","true","ArrowDown,ArrowRight","","original","1","24","","",""
"html-keyboard-response","245","1035981","0.0-4.0-4.0-1.12","spark_pilot_norest","8408","1","9","Male","","","","","","","null","<div style=""font-size:60px;"">+</div>","null","fixation","","","","","","","","","25","","",""
"revaluation","246","1039991","0.0-4.0-4.0-0.13","spark_pilot_norest","8408","1","9","Male","","false","","","","","[1016.8999999985099]","./assets/img/ocean/animals/seahorse.jpg","[""ArrowLeft""]","revaluation","ocean","26","{""ArrowUp,ArrowLeft"":26,""ArrowUp,ArrowRight"":10,""ArrowDown,ArrowLeft"":5,""ArrowDown,ArrowRight"":17}","true","ArrowUp,ArrowLeft","","original","1","26","","",""
"html-keyboard-response","247","1040501","0.0-4.0-4.0-1.13","spark_pilot_norest","8408","1","9","Male","","","","","","","null","<div style=""font-size:60px;"">+</div>","null","fixation","","","","","","","","","27","","",""
"revaluation","248","1044509","0.0-4.0-4.0-0.14","spark_pilot_norest","8408","1","9","Male","","false","","","","","[1115.2000000029802]","./assets/img/ocean/animals/seahorse.jpg","[""ArrowLeft""]","revaluation","ocean","26","{""ArrowUp,ArrowLeft"":26,""ArrowUp,ArrowRight"":10,""ArrowDown,ArrowLeft"":5,""ArrowDown,ArrowRight"":17}","true","ArrowUp,ArrowLeft","","original","1","28","","",""
"html-keyboard-response","249","1045015","0.0-4.0-4.0-1.14","spark_pilot_norest","8408","1","9","Male","","","","","","","null","<div style=""font-size:60px;"">+</div>","null","fixation","","","","","","","","","29","","",""
"revaluation","250","1049026","0.0-4.0-4.0-0.15","spark_pilot_norest","8408","1","9","Male","","false","","","","","[1135.5]","./assets/img/ocean/animals/seahorse.jpg","[""ArrowLeft""]","revaluation","ocean","26","{""ArrowUp,ArrowLeft"":26,""ArrowUp,ArrowRight"":10,""ArrowDown,ArrowLeft"":5,""ArrowDown,ArrowRight"":17}","true","ArrowUp,ArrowLeft","","original","1","30","","",""
"html-keyboard-response","251","1049530","0.0-4.0-4.0-1.15","spark_pilot_norest","8408","1","9","Male","","","","","","","null","<div style=""font-size:60px;"">+</div>","null","fixation","","","","","","","","","31","","",""
"revaluation","252","1053548","0.0-4.0-4.0-0.16","spark_pilot_norest","8408","1","9","Male","","false","","","","","[962.8999999985099]","./assets/img/ocean/animals/octopus.jpg","[""ArrowRight""]","revaluation","ocean","17","{""ArrowUp,ArrowLeft"":26,""ArrowUp,ArrowRight"":10,""ArrowDown,ArrowLeft"":5,""ArrowDown,ArrowRight"":17}","true","ArrowDown,ArrowRight","","original","1","32","","",""
"html-keyboard-response","253","1054055","0.0-4.0-4.0-1.16","spark_pilot_norest","8408","1","9","Male","","","","","","","null","<div style=""font-size:60px;"">+</div>","null","fixation","","","","","","","","","33","","",""
"revaluation","254","1058070","0.0-4.0-4.0-0.17","spark_pilot_norest","8408","1","9","Male","","false","","","","","[842.2000000029802]","./assets/img/ocean/animals/octopus.jpg","[""ArrowRight""]","revaluation","ocean","17","{""ArrowUp,ArrowLeft"":26,""ArrowUp,ArrowRight"":10,""ArrowDown,ArrowLeft"":5,""ArrowDown,ArrowRight"":17}","true","ArrowDown,ArrowRight","","original","1","34","","",""
"html-keyboard-response","255","1058578","0.0-4.0-4.0-1.17","spark_pilot_norest","8408","1","9","Male","","","","","","","null","<div style=""font-size:60px;"">+</div>","null","fixation","","","","","","","","","35","","",""
"learning-instructions","256","1067031","0.0-4.0-5.0-0.0","spark_pilot_norest","8408","1","9","Male","","","","","","","null","<p> You have almost finished this part of the game! </p>
            <p> We are going to ask you to make a few more choices. </p>","","instructions","","","","","","","","","","","",""
"learning-instructions","257","1083014","0.0-4.0-5.0-0.1","spark_pilot_norest","8408","1","9","Male","","","","","","","null","<p> First, you need to decide whether to go up or down. When you see each picture, use the arrow keys to make your choice. </p>
            <p><b>You will not see which animal you found, but try to get to the one that will give you the most treasure.</b></p>","","instructions","","","","","","","","","","","",""
"html-keyboard-response","258","1084016","0.0-4.0-6.0-0.0","spark_pilot_norest","8408","1","9","Male","","","","","","","null","<div style=""font-size:100px;color:red;"">Starting in...</div>","null","","","","","","","","","","","","",""
"html-keyboard-response","259","1085020","0.0-4.0-6.0-1.0","spark_pilot_norest","8408","1","9","Male","","","","","","","null","<div style=""font-size:200px;color:red;"">3</div>","null","","","","","","","","","","","","",""
"html-keyboard-response","260","1086030","0.0-4.0-6.0-2.0","spark_pilot_norest","8408","1","9","Male","","","","","","","null","<div style=""font-size:200px;color:red;"">2</div>","null","","","","","","","","","","","","",""
"html-keyboard-response","261","1087044","0.0-4.0-6.0-3.0","spark_pilot_norest","8408","1","9","Male","","","","","","","null","<div style=""font-size:200px;color:red;"">1</div>","null","","","","","","","","","","","","",""
"revaluation","262","1087743","0.0-4.0-7.0-0.0","spark_pilot_norest","8408","1","9","Male","","false","","","","","[694.3999999985099]","./assets/img/ocean/test/0.jpg","[""ArrowUp""]","first stage test","ocean","0","{""ArrowUp,ArrowLeft"":26,""ArrowUp,ArrowRight"":10,""ArrowDown,ArrowLeft"":5,""ArrowDown,ArrowRight"":17}","true","ArrowUp","false","original","1","","","",""
"html-keyboard-response","263","1088248","0.0-4.0-7.0-1.0","spark_pilot_norest","8408","1","9","Male","","","","","","","null","<div style=""font-size:60px;"">+</div>","null","fixation","","","","","","","","","","","",""
"revaluation","264","1088841","0.0-4.0-7.0-0.1","spark_pilot_norest","8408","1","9","Male","","false","","","","","[589]","./assets/img/ocean/test/1.jpg","[""ArrowUp""]","first stage test","ocean","0","{""ArrowUp,ArrowLeft"":26,""ArrowUp,ArrowRight"":10,""ArrowDown,ArrowLeft"":5,""ArrowDown,ArrowRight"":17}","true","ArrowUp","false","original","1","","","",""
"html-keyboard-response","265","1089353","0.0-4.0-7.0-1.1","spark_pilot_norest","8408","1","9","Male","","","","","","","null","<div style=""font-size:60px;"">+</div>","null","fixation","","","","","","","","","","","",""
"revaluation","266","1089935","0.0-4.0-7.0-0.2","spark_pilot_norest","8408","1","9","Male","","false","","","","","[577.8000000044703]","./assets/img/ocean/test/3.jpg","[""ArrowDown""]","first stage test","ocean","0","{""ArrowUp,ArrowLeft"":26,""ArrowUp,ArrowRight"":10,""ArrowDown,ArrowLeft"":5,""ArrowDown,ArrowRight"":17}","false","ArrowDown","false","original","1","","","",""
"html-keyboard-response","267","1090442","0.0-4.0-7.0-1.2","spark_pilot_norest","8408","1","9","Male","","","","","","","null","<div style=""font-size:60px;"">+</div>","null","fixation","","","","","","","","","","","",""
"revaluation","268","1090998","0.0-4.0-7.0-0.3","spark_pilot_norest","8408","1","9","Male","","false","","","","","[552.1000000014901]","./assets/img/ocean/test/2.jpg","[""ArrowUp""]","first stage test","ocean","0","{""ArrowUp,ArrowLeft"":26,""ArrowUp,ArrowRight"":10,""ArrowDown,ArrowLeft"":5,""ArrowDown,ArrowRight"":17}","true","ArrowUp","false","original","1","","","",""
"html-keyboard-response","269","1091508","0.0-4.0-7.0-1.3","spark_pilot_norest","8408","1","9","Male","","","","","","","null","<div style=""font-size:60px;"">+</div>","null","fixation","","","","","","","","","","","",""
"learning-instructions","270","1104874","0.0-4.0-8.0-0.0","spark_pilot_norest","8408","1","9","Male","","","","","","","null","<p> Now you will see the animals again and can search their chests for treasure. </p>
            <p> This time, you will not see how much treasure you earned, but you will earn more bonus money for making better choices. </p>","","instructions","","","","","","","","","","","",""
"html-keyboard-response","271","1105890","0.0-4.0-9.0-0.0","spark_pilot_norest","8408","1","9","Male","","","","","","","null","<div style=""font-size:100px;color:red;"">Starting in...</div>","null","","","","","","","","","","","","",""
"html-keyboard-response","272","1106899","0.0-4.0-9.0-1.0","spark_pilot_norest","8408","1","9","Male","","","","","","","null","<div style=""font-size:200px;color:red;"">3</div>","null","","","","","","","","","","","","",""
"html-keyboard-response","273","1107901","0.0-4.0-9.0-2.0","spark_pilot_norest","8408","1","9","Male","","","","","","","null","<div style=""font-size:200px;color:red;"">2</div>","null","","","","","","","","","","","","",""
"html-keyboard-response","274","1108906","0.0-4.0-9.0-3.0","spark_pilot_norest","8408","1","9","Male","","","","","","","null","<div style=""font-size:200px;color:red;"">1</div>","null","","","","","","","","","","","","",""
"revaluation","275","1109830","0.0-4.0-10.0-0.0","spark_pilot_norest","8408","1","9","Male","","false","","","","","[920.1000000014901]","./assets/img/ocean/animals/seahorse.jpg","[""ArrowLeft""]","second stage test","ocean","0","{""ArrowUp,ArrowLeft"":26,""ArrowUp,ArrowRight"":10,""ArrowDown,ArrowLeft"":5,""ArrowDown,ArrowRight"":17}","true","ArrowUp,ArrowLeft","","original","1","","","",""
"html-keyboard-response","276","1110336","0.0-4.0-10.0-1.0","spark_pilot_norest","8408","1","9","Male","","","","","","","null","<div style=""font-size:60px;"">+</div>","null","fixation","","","","","","","","","","","",""
"revaluation","277","1111095","0.0-4.0-10.0-0.1","spark_pilot_norest","8408","1","9","Male","","false","","","","","[754.8000000044703]","./assets/img/ocean/animals/seahorse.jpg","[""ArrowLeft""]","second stage test","ocean","0","{""ArrowUp,ArrowLeft"":26,""ArrowUp,ArrowRight"":10,""ArrowDown,ArrowLeft"":5,""ArrowDown,ArrowRight"":17}","true","ArrowUp,ArrowLeft","","original","1","","","",""
"html-keyboard-response","278","1111605","0.0-4.0-10.0-1.1","spark_pilot_norest","8408","1","9","Male","","","","","","","null","<div style=""font-size:60px;"">+</div>","null","fixation","","","","","","","","","","","",""
"revaluation","279","1112193","0.0-4.0-10.0-0.2","spark_pilot_norest","8408","1","9","Male","","false","","","","","[583.5999999940395]","./assets/img/ocean/animals/seahorse.jpg","[""ArrowLeft""]","second stage test","ocean","0","{""ArrowUp,ArrowLeft"":26,""ArrowUp,ArrowRight"":10,""ArrowDown,ArrowLeft"":5,""ArrowDown,ArrowRight"":17}","true","ArrowUp,ArrowLeft","","original","1","","","",""
"html-keyboard-response","280","1112703","0.0-4.0-10.0-1.2","spark_pilot_norest","8408","1","9","Male","","","","","","","null","<div style=""font-size:60px;"">+</div>","null","fixation","","","","","","","","","","","",""
"revaluation","281","1113136","0.0-4.0-10.0-0.3","spark_pilot_norest","8408","1","9","Male","","false","","","","","[428.1000000014901]","./assets/img/ocean/animals/seahorse.jpg","[""ArrowLeft""]","second stage test","ocean","0","{""ArrowUp,ArrowLeft"":26,""ArrowUp,ArrowRight"":10,""ArrowDown,ArrowLeft"":5,""ArrowDown,ArrowRight"":17}","true","ArrowUp,ArrowLeft","","original","1","","","",""
"html-keyboard-response","282","1113642","0.0-4.0-10.0-1.3","spark_pilot_norest","8408","1","9","Male","","","","","","","null","<div style=""font-size:60px;"">+</div>","null","fixation","","","","","","","","","","","",""
"revaluation","283","1114263","0.0-4.0-10.0-0.4","spark_pilot_norest","8408","1","9","Male","","false","","","","","[617.2000000029802]","./assets/img/ocean/animals/octopus.jpg","[""ArrowRight""]","second stage test","ocean","0","{""ArrowUp,ArrowLeft"":26,""ArrowUp,ArrowRight"":10,""ArrowDown,ArrowLeft"":5,""ArrowDown,ArrowRight"":17}","true","ArrowDown,ArrowRight","","original","1","","","",""
"html-keyboard-response","284","1114770","0.0-4.0-10.0-1.4","spark_pilot_norest","8408","1","9","Male","","","","","","","null","<div style=""font-size:60px;"">+</div>","null","fixation","","","","","","","","","","","",""
"revaluation","285","1115351","0.0-4.0-10.0-0.5","spark_pilot_norest","8408","1","9","Male","","false","","","","","[576.2000000029802]","./assets/img/ocean/animals/octopus.jpg","[""ArrowRight""]","second stage test","ocean","0","{""ArrowUp,ArrowLeft"":26,""ArrowUp,ArrowRight"":10,""ArrowDown,ArrowLeft"":5,""ArrowDown,ArrowRight"":17}","true","ArrowDown,ArrowRight","","original","1","","","",""
"html-keyboard-response","286","1115861","0.0-4.0-10.0-1.5","spark_pilot_norest","8408","1","9","Male","","","","","","","null","<div style=""font-size:60px;"">+</div>","null","fixation","","","","","","","","","","","",""
"revaluation","287","1116482","0.0-4.0-10.0-0.6","spark_pilot_norest","8408","1","9","Male","","false","","","","","[616.5]","./assets/img/ocean/animals/octopus.jpg","[""ArrowRight""]","second stage test","ocean","0","{""ArrowUp,ArrowLeft"":26,""ArrowUp,ArrowRight"":10,""ArrowDown,ArrowLeft"":5,""ArrowDown,ArrowRight"":17}","true","ArrowDown,ArrowRight","","original","1","","","",""
"html-keyboard-response","288","1116995","0.0-4.0-10.0-1.6","spark_pilot_norest","8408","1","9","Male","","","","","","","null","<div style=""font-size:60px;"">+</div>","null","fixation","","","","","","","","","","","",""
"revaluation","289","1117520","0.0-4.0-10.0-0.7","spark_pilot_norest","8408","1","9","Male","","false","","","","","[520.8999999985099]","./assets/img/ocean/animals/octopus.jpg","[""ArrowRight""]","second stage test","ocean","0","{""ArrowUp,ArrowLeft"":26,""ArrowUp,ArrowRight"":10,""ArrowDown,ArrowLeft"":5,""ArrowDown,ArrowRight"":17}","true","ArrowDown,ArrowRight","","original","1","","","",""
"html-keyboard-response","290","1118037","0.0-4.0-10.0-1.7","spark_pilot_norest","8408","1","9","Male","","","","","","","null","<div style=""font-size:60px;"">+</div>","null","fixation","","","","","","","","","","","",""
"learning-instructions","291","1122566","0.0-4.0-0.1-0.2","spark_pilot_norest","8408","1","9","Male","","","","","","","1753.5","<p> This time you are searching for treasure in the <b>canyon</b>.</p>","","instructions","","","","","","","","","","","",""
"learning-instructions","292","1143253","0.0-4.0-0.1-0.3","spark_pilot_norest","8408","1","9","Male","","","","","","","3431.7999999970198","<p><b>New</b> animals with <b>new</b> treasure chests live here. You need to explore to discover where the animal with the best treasure chest is.</p>
                    <p> Like before, once you figure out which animal has the chest with the most treasure, you should try to get to that animal and select that chest! </p>","","instructions","","","","","","","","","","","",""
"learning-instructions","293","1159562","0.0-4.0-1.1-0.1","spark_pilot_norest","8408","1","9","Male","","","","","","","1584.6000000014901","<p> Remember, when you see a picture of the place, use the up and down keys to <b>find an animal</b>.</p>
            <p> When you encounter an animal, you should use the left and right keys to <b>select a treasure chest</b>.</p>
            <p> Don't forget to look out for the robber! </p>","","instructions","","","","","","","","","","","",""
"revaluation","294","1165589","0.0-4.0-2.1-0.50","spark_pilot_norest","8408","1","9","Male","","false","","","","","[1033.1000000014901,1125.6999999955297]","./assets/img/canyon/memory/5.jpg","[""ArrowUp"",""ArrowRight""]","value training","canyon","10","{""ArrowUp,ArrowLeft"":23,""ArrowUp,ArrowRight"":10,""ArrowDown,ArrowLeft"":8,""ArrowDown,ArrowRight"":30}","false","ArrowUp,ArrowRight","false","revaluation","2","0","","",""
"html-keyboard-response","295","1166101","0.0-4.0-2.1-1.50","spark_pilot_norest","8408","1","9","Male","","","","","","","null","<div style=""font-size:60px;"">+</div>","null","fixation","","","","","","","","","1","","",""
"revaluation","296","1172134","0.0-4.0-2.1-0.51","spark_pilot_norest","8408","1","9","Male","","false","","","","","[744.3999999985099,670.5]","./assets/img/canyon/memory/1.jpg","[""ArrowUp"",""ArrowLeft""]","value training","canyon","23","{""ArrowUp,ArrowLeft"":23,""ArrowUp,ArrowRight"":10,""ArrowDown,ArrowLeft"":8,""ArrowDown,ArrowRight"":30}","false","ArrowUp,ArrowLeft","false","revaluation","2","2","","",""
"html-keyboard-response","297","1172638","0.0-4.0-2.1-1.51","spark_pilot_norest","8408","1","9","Male","","","","","","","null","<div style=""font-size:60px;"">+</div>","null","fixation","","","","","","","","","3","","",""
"revaluation","298","1178670","0.0-4.0-2.1-0.52","spark_pilot_norest","8408","1","9","Male","","false","","","","","[665.3000000044703,1480.5999999940395]","./assets/img/canyon/memory/36.jpg","[""ArrowDown"",""ArrowRight""]","value training","canyon","30","{""ArrowUp,ArrowLeft"":23,""ArrowUp,ArrowRight"":10,""ArrowDown,ArrowLeft"":8,""ArrowDown,ArrowRight"":30}","true","ArrowDown,ArrowRight","false","revaluation","2","4","","",""
"html-keyboard-response","299","1179174","0.0-4.0-2.1-1.52","spark_pilot_norest","8408","1","9","Male","","","","","","","null","<div style=""font-size:60px;"">+</div>","null","fixation","","","","","","","","","5","","",""
"revaluation","300","1185204","0.0-4.0-2.1-0.53","spark_pilot_norest","8408","1","9","Male","","false","","","","","[1484.8999999985099,628.8000000044703]","./assets/img/canyon/memory/28.jpg","[""ArrowDown"",""ArrowLeft""]","value training","canyon","8","{""ArrowUp,ArrowLeft"":23,""ArrowUp,ArrowRight"":10,""ArrowDown,ArrowLeft"":8,""ArrowDown,ArrowRight"":30}","false","ArrowDown,ArrowLeft","false","revaluation","2","6","","",""
"html-keyboard-response","301","1185714","0.0-4.0-2.1-1.53","spark_pilot_norest","8408","1","9","Male","","","","","","","null","<div style=""font-size:60px;"">+</div>","null","fixation","","","","","","","","","7","","",""
"revaluation","302","1191734","0.0-4.0-2.1-0.54","spark_pilot_norest","8408","1","9","Male","","false","","","","","[993,516.7999999970198]","./assets/img/canyon/memory/31.jpg","[""ArrowUp"",""ArrowLeft""]","value training","canyon","23","{""ArrowUp,ArrowLeft"":23,""ArrowUp,ArrowRight"":10,""ArrowDown,ArrowLeft"":8,""ArrowDown,ArrowRight"":30}","false","ArrowUp,ArrowLeft","false","revaluation","2","8","","",""
"html-keyboard-response","303","1192241","0.0-4.0-2.1-1.54","spark_pilot_norest","8408","1","9","Male","","","","","","","null","<div style=""font-size:60px;"">+</div>","null","fixation","","","","","","","","","9","","",""
"revaluation","304","1198261","0.0-4.0-2.1-0.55","spark_pilot_norest","8408","1","9","Male","","false","","","","","[661.5,851.6999999955297]","./assets/img/canyon/memory/12.jpg","[""ArrowDown"",""ArrowRight""]","value training","canyon","30","{""ArrowUp,ArrowLeft"":23,""ArrowUp,ArrowRight"":10,""ArrowDown,ArrowLeft"":8,""ArrowDown,ArrowRight"":30}","true","ArrowDown,ArrowRight","false","revaluation","2","10","","",""
"html-keyboard-response","305","1198766","0.0-4.0-2.1-1.55","spark_pilot_norest","8408","1","9","Male","","","","","","","null","<div style=""font-size:60px;"">+</div>","null","fixation","","","","","","","","","11","","",""
"revaluation","306","1204778","0.0-4.0-2.1-0.56","spark_pilot_norest","8408","1","9","Male","","false","","","","","[639.6000000014901,789.2999999970198]","./assets/img/canyon/memory/0.jpg","[""ArrowUp"",""ArrowLeft""]","value training","canyon","23","{""ArrowUp,ArrowLeft"":23,""ArrowUp,ArrowRight"":10,""ArrowDown,ArrowLeft"":8,""ArrowDown,ArrowRight"":30}","false","ArrowUp,ArrowLeft","false","revaluation","2","12","","",""
"html-keyboard-response","307","1205284","0.0-4.0-2.1-1.56","spark_pilot_norest","8408","1","9","Male","","","","","","","null","<div style=""font-size:60px;"">+</div>","null","fixation","","","","","","","","","13","","",""
"revaluation","308","1211303","0.0-4.0-2.1-0.57","spark_pilot_norest","8408","1","9","Male","","false","","","","","[830.8000000044703,620.5]","./assets/img/canyon/memory/20.jpg","[""ArrowDown"",""ArrowRight""]","value training","canyon","30","{""ArrowUp,ArrowLeft"":23,""ArrowUp,ArrowRight"":10,""ArrowDown,ArrowLeft"":8,""ArrowDown,ArrowRight"":30}","true","ArrowDown,ArrowRight","false","revaluation","2","14","","",""
"html-keyboard-response","309","1211804","0.0-4.0-2.1-1.57","spark_pilot_norest","8408","1","9","Male","","","","","","","null","<div style=""font-size:60px;"">+</div>","null","fixation","","","","","","","","","15","","",""
"revaluation","310","1215822","0.0-4.0-2.1-0.58","spark_pilot_norest","8408","1","9","Male","","false","","","","","[1341.7999999970198]","./assets/img/canyon/catch/3.jpg","[""spaceBar""]","value training","canyon","0","{""ArrowUp,ArrowLeft"":23,""ArrowUp,ArrowRight"":10,""ArrowDown,ArrowLeft"":8,""ArrowDown,ArrowRight"":30}","true","spaceBar","true","revaluation","2","16","","",""
"html-keyboard-response","311","1216329","0.0-4.0-2.1-1.58","spark_pilot_norest","8408","1","9","Male","","","","","","","null","<div style=""font-size:60px;"">+</div>","null","fixation","","","","","","","","","17","","",""
"revaluation","312","1222356","0.0-4.0-2.1-0.59","spark_pilot_norest","8408","1","9","Male","","false","","","","","[1192.5,1127.7999999970198]","./assets/img/canyon/memory/0.jpg","[""ArrowDown"",""ArrowRight""]","value training","canyon","30","{""ArrowUp,ArrowLeft"":23,""ArrowUp,ArrowRight"":10,""ArrowDown,ArrowLeft"":8,""ArrowDown,ArrowRight"":30}","true","ArrowDown,ArrowRight","false","revaluation","2","18","","",""
