"trial_type","trial_index","time_elapsed","internal_node_id","task_version","subject_id","assigned_condition","age","gender","browser_interaction","success","timeout","failed_images","failed_audio","failed_video","rt","stimulus","response","task_part","environment","score","rewardMap","correct","fullState","isCatch","condition","order","trial_num","key_press","ground_truth","bonus"
"pavlovia","0","1634","0.0-0.0","spark_pilot_norest","8340","5","15","Male","[{""event"":""focus"",""trial"":0,""time"":1172},{""event"":""blur"",""trial"":1,""time"":4105},{""event"":""focus"",""trial"":2,""time"":15069},{""event"":""fullscreenenter"",""trial"":2,""time"":15143},{""event"":""blur"",""trial"":110,""time"":589840},{""event"":""focus"",""trial"":110,""time"":594677},{""event"":""blur"",""trial"":112,""time"":607486},{""event"":""focus"",""trial"":112,""time"":623097},{""event"":""blur"",""trial"":221,""time"":1044896},{""event"":""focus"",""trial"":221,""time"":1053025},{""event"":""blur"",""trial"":294,""time"":1206575},{""event"":""focus"",""trial"":294,""time"":1207230},{""event"":""blur"",""trial"":484,""time"":1783666},{""event"":""focus"",""trial"":484,""time"":1789485},{""event"":""blur"",""trial"":485,""time"":1791810},{""event"":""focus"",""trial"":485,""time"":1798723},{""event"":""fullscreenexit"",""trial"":488,""time"":1818858},{""event"":""blur"",""trial"":556,""time"":1915898},{""event"":""focus"",""trial"":558,""time"":1921829},{""event"":""blur"",""trial"":616,""time"":2010491},{""event"":""focus"",""trial"":616,""time"":2013334}]","","","","","","","","","","","","","","","","","","","","",""
"preload","1","11512","0.0-1.0","spark_pilot_norest","8340","5","15","Male","[{""event"":""focus"",""trial"":0,""time"":1172},{""event"":""blur"",""trial"":1,""time"":4105},{""event"":""focus"",""trial"":2,""time"":15069},{""event"":""fullscreenenter"",""trial"":2,""time"":15143},{""event"":""blur"",""trial"":110,""time"":589840},{""event"":""focus"",""trial"":110,""time"":594677},{""event"":""blur"",""trial"":112,""time"":607486},{""event"":""focus"",""trial"":112,""time"":623097},{""event"":""blur"",""trial"":221,""time"":1044896},{""event"":""focus"",""trial"":221,""time"":1053025},{""event"":""blur"",""trial"":294,""time"":1206575},{""event"":""focus"",""trial"":294,""time"":1207230},{""event"":""blur"",""trial"":484,""time"":1783666},{""event"":""focus"",""trial"":484,""time"":1789485},{""event"":""blur"",""trial"":485,""time"":1791810},{""event"":""focus"",""trial"":485,""time"":1798723},{""event"":""fullscreenexit"",""trial"":488,""time"":1818858},{""event"":""blur"",""trial"":556,""time"":1915898},{""event"":""focus"",""trial"":558,""time"":1921829},{""event"":""blur"",""trial"":616,""time"":2010491},{""event"":""focus"",""trial"":616,""time"":2013334}]","true","false","[]","[]","[]","","","","","","","","","","","","","","","",""
"fullscreen","2","16135","0.0-2.0","spark_pilot_norest","8340","5","15","Male","","true","","","","","","","","","","","","","","","","","","","",""
"audio-button-response","3","17675","0.0-3.0-0.0-0.0","spark_pilot_norest","8340","5","15","Male","","","","","","","1541","./assets/audio/audiotest/turtle.mp3","2","audio_test","","","","","","","","","","","",""
"learning-instructions","4","26787","0.0-3.0-1.0-0.0","spark_pilot_norest","8340","5","15","Male","","","","","","","2143.100000023842","<p> Welcome! Please remember to stay in fullscreen mode and don't click away from the experiment. </p>","","instructions","","","","","","","","","","","",""
"learning-instructions","5","37327","0.0-3.0-1.0-0.1","spark_pilot_norest","8340","5","15","Male","","","","","","","2132","<p> Today you will be playing a game to earn treasure. </p>
            <p> At the end of the experiment, you will earn a bonus based on how much treasure you find. </p>
            <img src='./assets/img/instructions/treasure.jpg' class='instructions-image'>","","instructions","","","","","","","","","","","",""
"learning-instructions","6","46628","0.0-3.0-1.0-0.2","spark_pilot_norest","8340","5","15","Male","","","","","","","1043.5","<p> Animals have hidden treasure in treasure chests. </p>
            <p> You need to first find an animal and then choose which of their treasure chests to search. </p>
            <img src='./assets/img/space/animals/cat.jpg' class='instructions-image'>","","instructions","","","","","","","","","","","",""
"learning-instructions","7","68287","0.0-3.0-1.0-0.3","spark_pilot_norest","8340","5","15","Male","","","","","","","8523.399999976158","<p> In each round, you will search for treasure in a different place. In the real game, there will be two rounds. </p>
            <p> You will begin with a separate, practice round where you will search for treasure in outer space. </p>
            <img src='./assets/img/space/0.jpg' class='instructions-image'>","","instructions","","","","","","","","","","","",""
"learning-instructions","8","80941","0.0-3.0-1.0-0.4","spark_pilot_norest","8340","5","15","Male","","","","","","","1257.2000000476837","<p> On every turn, you will see a picture of the place that you are in, but the specific image may be different each time. </p>
            <p> For example, both of these images mean you are in outer space. </p>
            <img src='./assets/img/instructions/outerspace.jpg' class='instructions-image'>","","instructions","","","","","","","","","","","",""
"learning-instructions","9","90172","0.0-3.0-1.0-0.5","spark_pilot_norest","8340","5","15","Male","","","","","","","1418.1000000238419","<p> You need to decide which direction to travel in. </p>
            <p> You can choose between going <b>up or down</b> by using the arrow keys. </p>
            <img src='./assets/img/instructions/updown.jpg' class='instructions-image'>","","instructions","","","","","","","","","","","",""
"learning-instructions","10","99724","0.0-3.0-1.0-0.6","spark_pilot_norest","8340","5","15","Male","","","","","","","759.7000000476837","<p> You will have <b>2 seconds</b> to make your choice. </p>
            <p> If you do not make a choice within 2 seconds, you will not find an animal or earn treasure. </p>
            <img src='./assets/img/instructions/2seconds.jpg' class='instructions-image'>","","instructions","","","","","","","","","","","",""
"learning-instructions","11","107268","0.0-3.0-1.0-0.7","spark_pilot_norest","8340","5","15","Male","","","","","","","524.1000000238419","<p> Let’s try practicing that now! </p>
            <p> When you see a picture of the place you are in, press the <b>up</b> key to travel up. </p>
            <img src='./assets/img/instructions/pressUp.jpg' class='instructions-image'>","","instructions","","","","","","","","","","","",""
"revaluation","12","111278","0.0-3.0-2.0-0.0","spark_pilot_norest","8340","5","15","Male","","","false","","","","[1085.6000000238419]","./assets/img/space/0.jpg","[""ArrowUp""]","first stage practice","space","0","null","null","ArrowUp","false","","","","","",""
"html-keyboard-response","13","111780","0.0-3.0-2.0-1.0","spark_pilot_norest","8340","5","15","Male","","","","","","","null","<div style=""font-size:60px;"">+</div>","null","fixation","","","","","","","","","","","",""
"revaluation","14","115784","0.0-3.0-2.0-0.1","spark_pilot_norest","8340","5","15","Male","","","false","","","","[1030.2000000476837]","./assets/img/space/1.jpg","[""ArrowUp""]","first stage practice","space","0","null","null","ArrowUp","false","","","","","",""
"html-keyboard-response","15","116286","0.0-3.0-2.0-1.1","spark_pilot_norest","8340","5","15","Male","","","","","","","null","<div style=""font-size:60px;"">+</div>","null","fixation","","","","","","","","","","","",""
"revaluation","16","120291","0.0-3.0-2.0-0.2","spark_pilot_norest","8340","5","15","Male","","","false","","","","[1083.5]","./assets/img/space/2.jpg","[""ArrowUp""]","first stage practice","space","0","null","null","ArrowUp","false","","","","","",""
"html-keyboard-response","17","120792","0.0-3.0-2.0-1.2","spark_pilot_norest","8340","5","15","Male","","","","","","","null","<div style=""font-size:60px;"">+</div>","null","fixation","","","","","","","","","","","",""
"learning-instructions","18","126186","0.0-3.0-3.0-0.0","spark_pilot_norest","8340","5","15","Male","","","","","","","702.6999999284744","<p> Great job! Now try pressing the <b>down</b> key to travel down. </p>
            <img src='./assets/img/instructions/pressDown.jpg' class='instructions-image'>","","instructions","","","","","","","","","","","",""
"revaluation","19","130189","0.0-3.0-4.0-0.0","spark_pilot_norest","8340","5","15","Male","","","false","","","","[623.3999999761581]","./assets/img/space/3.jpg","[""ArrowDown""]","first stage practice","space","0","null","null","ArrowDown","false","","","","","",""
"html-keyboard-response","20","130690","0.0-3.0-4.0-1.0","spark_pilot_norest","8340","5","15","Male","","","","","","","null","<div style=""font-size:60px;"">+</div>","null","fixation","","","","","","","","","","","",""
"revaluation","21","134692","0.0-3.0-4.0-0.1","spark_pilot_norest","8340","5","15","Male","","","false","","","","[410.6999999284744]","./assets/img/space/4.jpg","[""ArrowDown""]","first stage practice","space","0","null","null","ArrowDown","false","","","","","",""
"html-keyboard-response","22","135194","0.0-3.0-4.0-1.1","spark_pilot_norest","8340","5","15","Male","","","","","","","null","<div style=""font-size:60px;"">+</div>","null","fixation","","","","","","","","","","","",""
"revaluation","23","139197","0.0-3.0-4.0-0.2","spark_pilot_norest","8340","5","15","Male","","","false","","","","[266.7000000476837]","./assets/img/space/5.jpg","[""ArrowDown""]","first stage practice","space","0","null","null","ArrowDown","false","","","","","",""
"html-keyboard-response","24","139698","0.0-3.0-4.0-1.2","spark_pilot_norest","8340","5","15","Male","","","","","","","null","<div style=""font-size:60px;"">+</div>","null","fixation","","","","","","","","","","","",""
"learning-instructions","25","151062","0.0-3.0-5.0-0.0","spark_pilot_norest","8340","5","15","Male","","","","","","","1517.8999999761581","<p> The animals don’t move, so the animal in the upper part of a place will stay in the upper part of a place, and the animal in the lower part of a place will stay in the lower part of a place. </p>","","instructions","","","","","","","","","","","",""
"learning-instructions","26","161190","0.0-3.0-5.0-0.1","spark_pilot_norest","8340","5","15","Male","","","","","","","1006","<p> Each animal has two treasure chests for you to choose from. </p>
            <p> The amount of treasure in each chest can range from <b> 0 to 40 pieces.</b></p>","","instructions","","","","","","","","","","","",""
"learning-instructions","27","174686","0.0-3.0-5.0-0.2","spark_pilot_norest","8340","5","15","Male","","","","","","","2322.2000000476837","<p> You should decide which chest to search for treasure by using the <b>left</b> and <b>right</b> arrow keys. </p>
            <p><b> Pay attention to which animal is on the screen, as the animals have different treasure chests. </b></p>
            <img src='./assets/img/instructions/leftright.jpg' class='instructions-image'>","","instructions","","","","","","","","","","","",""
"learning-instructions","28","181700","0.0-3.0-5.0-0.3","spark_pilot_norest","8340","5","15","Male","","","","","","","665.2999999523163","<p> Let’s try practicing that now. </p>
            <p> When you see an animal, choose which chest to search for treasure. </p>
            <img src='./assets/img/instructions/chooseChest.jpg' class='instructions-image'>","","instructions","","","","","","","","","","","",""
"revaluation","29","185702","0.0-3.0-6.0-0.0","spark_pilot_norest","8340","5","15","Male","","","false","","","","[366.90000009536743]","./assets/img/space/animals/cat.jpg","[""ArrowRight""]","second stage practice","space","36","{""ArrowUp,ArrowLeft"":3,""ArrowUp,ArrowRight"":36,""ArrowDown,ArrowLeft"":15,""ArrowDown,ArrowRight"":23}","true","ArrowUp,ArrowRight","","","","","","",""
"html-keyboard-response","30","186203","0.0-3.0-6.0-1.0","spark_pilot_norest","8340","5","15","Male","","","","","","","null","<div style=""font-size:60px;"">+</div>","null","fixation","","","","","","","","","","","",""
"revaluation","31","190205","0.0-3.0-6.0-0.1","spark_pilot_norest","8340","5","15","Male","","","false","","","","[640.2000000476837]","./assets/img/space/animals/rabbit.jpg","[""ArrowLeft""]","second stage practice","space","15","{""ArrowUp,ArrowLeft"":3,""ArrowUp,ArrowRight"":36,""ArrowDown,ArrowLeft"":15,""ArrowDown,ArrowRight"":23}","false","ArrowDown,ArrowLeft","","","","","","",""
"html-keyboard-response","32","190706","0.0-3.0-6.0-1.1","spark_pilot_norest","8340","5","15","Male","","","","","","","null","<div style=""font-size:60px;"">+</div>","null","fixation","","","","","","","","","","","",""
"revaluation","33","194709","0.0-3.0-6.0-0.2","spark_pilot_norest","8340","5","15","Male","","","false","","","","[609.8999999761581]","./assets/img/space/animals/cat.jpg","[""ArrowRight""]","second stage practice","space","36","{""ArrowUp,ArrowLeft"":3,""ArrowUp,ArrowRight"":36,""ArrowDown,ArrowLeft"":15,""ArrowDown,ArrowRight"":23}","true","ArrowUp,ArrowRight","","","","","","",""
"html-keyboard-response","34","195211","0.0-3.0-6.0-1.2","spark_pilot_norest","8340","5","15","Male","","","","","","","null","<div style=""font-size:60px;"">+</div>","null","fixation","","","","","","","","","","","",""
"revaluation","35","199215","0.0-3.0-6.0-0.3","spark_pilot_norest","8340","5","15","Male","","","false","","","","[534.6999999284744]","./assets/img/space/animals/rabbit.jpg","[""ArrowRight""]","second stage practice","space","23","{""ArrowUp,ArrowLeft"":3,""ArrowUp,ArrowRight"":36,""ArrowDown,ArrowLeft"":15,""ArrowDown,ArrowRight"":23}","true","ArrowDown,ArrowRight","","","","","","",""
"html-keyboard-response","36","199715","0.0-3.0-6.0-1.3","spark_pilot_norest","8340","5","15","Male","","","","","","","null","<div style=""font-size:60px;"">+</div>","null","fixation","","","","","","","","","","","",""
"learning-instructions","37","261340","0.0-3.0-7.0-0.0","spark_pilot_norest","8340","5","15","Male","","","","","","","44825.39999997616","<p> Great job. Now let’s try putting it together. </p>
            <p> On each turn, you will first see a picture to remind you of the place you are in, and you need to choose whether to go up or down. </p>
            <p> Then you will see an animal and choose which of its chests to search for treasure. </p>","","instructions","","","","","","","","","","","",""
"learning-instructions","38","270112","0.0-3.0-7.0-0.1","spark_pilot_norest","8340","5","15","Male","","","","","","","508.6999999284744","<p> When you choose whether to go up or down, try to go to the animal with the chest with the most treasure. </p>
            <p> Try practicing that now! </p>","","instructions","","","","","","","","","","","",""
"revaluation","39","276117","0.0-3.0-8.0-0.0","spark_pilot_norest","8340","5","15","Male","","","false","","","","[393.39999997615814,446.60000002384186]","./assets/img/space/6.jpg","[""ArrowUp"",""ArrowRight""]","full practice","space","36","{""ArrowUp,ArrowLeft"":3,""ArrowUp,ArrowRight"":36,""ArrowDown,ArrowLeft"":15,""ArrowDown,ArrowRight"":23}","true","ArrowUp,ArrowRight","false","","","","","",""
"html-keyboard-response","40","276618","0.0-3.0-8.0-1.0","spark_pilot_norest","8340","5","15","Male","","","","","","","null","<div style=""font-size:60px;"">+</div>","null","fixation","","","","","","","","","","","",""
"revaluation","41","282623","0.0-3.0-8.0-0.1","spark_pilot_norest","8340","5","15","Male","","","false","","","","[326.09999990463257,669.2999999523163]","./assets/img/space/7.jpg","[""ArrowUp"",""ArrowRight""]","full practice","space","36","{""ArrowUp,ArrowLeft"":3,""ArrowUp,ArrowRight"":36,""ArrowDown,ArrowLeft"":15,""ArrowDown,ArrowRight"":23}","true","ArrowUp,ArrowRight","false","","","","","",""
"html-keyboard-response","42","283124","0.0-3.0-8.0-1.1","spark_pilot_norest","8340","5","15","Male","","","","","","","null","<div style=""font-size:60px;"">+</div>","null","fixation","","","","","","","","","","","",""
"revaluation","43","289129","0.0-3.0-8.0-0.2","spark_pilot_norest","8340","5","15","Male","","","false","","","","[346.89999997615814,544.1000000238419]","./assets/img/space/8.jpg","[""ArrowUp"",""ArrowRight""]","full practice","space","36","{""ArrowUp,ArrowLeft"":3,""ArrowUp,ArrowRight"":36,""ArrowDown,ArrowLeft"":15,""ArrowDown,ArrowRight"":23}","true","ArrowUp,ArrowRight","false","","","","","",""
"html-keyboard-response","44","289630","0.0-3.0-8.0-1.2","spark_pilot_norest","8340","5","15","Male","","","","","","","null","<div style=""font-size:60px;"">+</div>","null","fixation","","","","","","","","","","","",""
"revaluation","45","295634","0.0-3.0-8.0-0.3","spark_pilot_norest","8340","5","15","Male","","","false","","","","[308.39999997615814,710]","./assets/img/space/9.jpg","[""ArrowDown"",""ArrowRight""]","full practice","space","23","{""ArrowUp,ArrowLeft"":3,""ArrowUp,ArrowRight"":36,""ArrowDown,ArrowLeft"":15,""ArrowDown,ArrowRight"":23}","false","ArrowDown,ArrowRight","false","","","","","",""
"html-keyboard-response","46","296135","0.0-3.0-8.0-1.3","spark_pilot_norest","8340","5","15","Male","","","","","","","null","<div style=""font-size:60px;"">+</div>","null","fixation","","","","","","","","","","","",""
"revaluation","47","302138","0.0-3.0-8.0-0.4","spark_pilot_norest","8340","5","15","Male","","","false","","","","[346.8000000715256,442.39999997615814]","./assets/img/space/10.jpg","[""ArrowUp"",""ArrowRight""]","full practice","space","36","{""ArrowUp,ArrowLeft"":3,""ArrowUp,ArrowRight"":36,""ArrowDown,ArrowLeft"":15,""ArrowDown,ArrowRight"":23}","true","ArrowUp,ArrowRight","false","","","","","",""
"html-keyboard-response","48","302639","0.0-3.0-8.0-1.4","spark_pilot_norest","8340","5","15","Male","","","","","","","null","<div style=""font-size:60px;"">+</div>","null","fixation","","","","","","","","","","","",""
"learning-instructions","49","321376","0.0-3.0-9.0-0.0","spark_pilot_norest","8340","5","15","Male","","","","","","","8441.299999952316","<p> One last thing: sometimes, you will see a robber. The robber can be anywhere in the picture. </p>
            <p> If you do not stop them, you will lose treasure. </p>
            <img src='./assets/img/instructions/robber.jpg' class='instructions-image'>","","instructions","","","","","","","","","","","",""
"learning-instructions","50","329680","0.0-3.0-9.0-0.1","spark_pilot_norest","8340","5","15","Male","","","","","","","1145.1999999284744","<p> If you see the robber, you should <b>press the space bar</b> rather than using the arrow keys. </p>
            <p> Try practicing that now! </p>","","instructions","","","","","","","","","","","",""
"revaluation","51","333684","0.0-3.0-10.0-0.0","spark_pilot_norest","8340","5","15","Male","","","false","","","","[1093.5]","./assets/img/space/catch/0.jpg","[""spaceBar""]","catch practice","space","0","{""ArrowUp,ArrowLeft"":3,""ArrowUp,ArrowRight"":36,""ArrowDown,ArrowLeft"":15,""ArrowDown,ArrowRight"":23}","true","spaceBar","true","","","","","",""
"html-keyboard-response","52","334185","0.0-3.0-10.0-1.0","spark_pilot_norest","8340","5","15","Male","","","","","","","null","<div style=""font-size:60px;"">+</div>","null","fixation","","","","","","","","","","","",""
"revaluation","53","338189","0.0-3.0-10.0-0.1","spark_pilot_norest","8340","5","15","Male","","","false","","","","[972.3999999761581]","./assets/img/space/catch/1.jpg","[""spaceBar""]","catch practice","space","0","{""ArrowUp,ArrowLeft"":3,""ArrowUp,ArrowRight"":36,""ArrowDown,ArrowLeft"":15,""ArrowDown,ArrowRight"":23}","true","spaceBar","true","","","","","",""
"html-keyboard-response","54","338690","0.0-3.0-10.0-1.1","spark_pilot_norest","8340","5","15","Male","","","","","","","null","<div style=""font-size:60px;"">+</div>","null","fixation","","","","","","","","","","","",""
"revaluation","55","342693","0.0-3.0-10.0-0.2","spark_pilot_norest","8340","5","15","Male","","","false","","","","[561]","./assets/img/space/catch/2.jpg","[""spaceBar""]","catch practice","space","0","{""ArrowUp,ArrowLeft"":3,""ArrowUp,ArrowRight"":36,""ArrowDown,ArrowLeft"":15,""ArrowDown,ArrowRight"":23}","true","spaceBar","true","","","","","",""
"html-keyboard-response","56","343194","0.0-3.0-10.0-1.2","spark_pilot_norest","8340","5","15","Male","","","","","","","null","<div style=""font-size:60px;"">+</div>","null","fixation","","","","","","","","","","","",""
"learning-instructions","57","353212","0.0-3.0-11.0-0.0-0.0","spark_pilot_norest","8340","5","15","Male","","","","","","","4777.5","<p> Now, you will practice a shortened version of the game to get a sense of how it all fits together. </p>","","instructions","","","","","","","","","","","",""
"learning-instructions","58","359654","0.0-3.0-11.0-0.0-0.1","spark_pilot_norest","8340","5","15","Male","","","","","","","3269.7999999523163","<p>This time you are searching for treasure in outer space.</p>","","instructions","","","","","","","","","","","",""
"learning-instructions","59","398508","0.0-3.0-11.0-1.0-0.0","spark_pilot_norest","8340","5","15","Male","","","","","","","24093.400000095367","<p> Remember, when you see a picture of the place, use the up and down keys to <b>find an animal</b>.</p>
            <p> When you encounter an animal, you should use the left and right keys to <b>select a treasure chest</b>.</p>
            <p> Don't forget to look out for the robber! </p>","","instructions","","","","","","","","","","","",""
"revaluation","60","404511","0.0-3.0-11.0-2.0-0.0","spark_pilot_norest","8340","5","15","Male","","","false","","","","[1070.4000000953674,728.7000000476837]","./assets/img/space/11.jpg","[""ArrowDown"",""ArrowRight""]","practice block","space","23","{""ArrowUp,ArrowLeft"":3,""ArrowUp,ArrowRight"":36,""ArrowDown,ArrowLeft"":15,""ArrowDown,ArrowRight"":23}","false","ArrowDown,ArrowRight","false","","","","","",""
"html-keyboard-response","61","405012","0.0-3.0-11.0-2.0-1.0","spark_pilot_norest","8340","5","15","Male","","","","","","","null","<div style=""font-size:60px;"">+</div>","null","fixation","","","","","","","","","","","",""
"revaluation","62","411015","0.0-3.0-11.0-2.0-0.1","spark_pilot_norest","8340","5","15","Male","","","false","","","","[682.6000000238419,750.1999999284744]","./assets/img/space/12.jpg","[""ArrowUp"",""ArrowRight""]","practice block","space","36","{""ArrowUp,ArrowLeft"":3,""ArrowUp,ArrowRight"":36,""ArrowDown,ArrowLeft"":15,""ArrowDown,ArrowRight"":23}","true","ArrowUp,ArrowRight","false","","","","","",""
"html-keyboard-response","63","411516","0.0-3.0-11.0-2.0-1.1","spark_pilot_norest","8340","5","15","Male","","","","","","","null","<div style=""font-size:60px;"">+</div>","null","fixation","","","","","","","","","","","",""
"revaluation","64","417519","0.0-3.0-11.0-2.0-0.2","spark_pilot_norest","8340","5","15","Male","","","false","","","","[642.7000000476837,539.3000000715256]","./assets/img/space/13.jpg","[""ArrowDown"",""ArrowRight""]","practice block","space","23","{""ArrowUp,ArrowLeft"":3,""ArrowUp,ArrowRight"":36,""ArrowDown,ArrowLeft"":15,""ArrowDown,ArrowRight"":23}","false","ArrowDown,ArrowRight","false","","","","","",""
"html-keyboard-response","65","418021","0.0-3.0-11.0-2.0-1.2","spark_pilot_norest","8340","5","15","Male","","","","","","","null","<div style=""font-size:60px;"">+</div>","null","fixation","","","","","","","","","","","",""
"revaluation","66","424024","0.0-3.0-11.0-2.0-0.3","spark_pilot_norest","8340","5","15","Male","","","false","","","","[538.3999999761581,411.6999999284744]","./assets/img/space/14.jpg","[""ArrowUp"",""ArrowRight""]","practice block","space","36","{""ArrowUp,ArrowLeft"":3,""ArrowUp,ArrowRight"":36,""ArrowDown,ArrowLeft"":15,""ArrowDown,ArrowRight"":23}","true","ArrowUp,ArrowRight","false","","","","","",""
"html-keyboard-response","67","424526","0.0-3.0-11.0-2.0-1.3","spark_pilot_norest","8340","5","15","Male","","","","","","","null","<div style=""font-size:60px;"">+</div>","null","fixation","","","","","","","","","","","",""
"revaluation","68","430530","0.0-3.0-11.0-2.0-0.4","spark_pilot_norest","8340","5","15","Male","","","false","","","","[864.1999999284744,688]","./assets/img/space/11.jpg","[""ArrowUp"",""ArrowRight""]","practice block","space","36","{""ArrowUp,ArrowLeft"":3,""ArrowUp,ArrowRight"":36,""ArrowDown,ArrowLeft"":15,""ArrowDown,ArrowRight"":23}","true","ArrowUp,ArrowRight","false","","","","","",""
"html-keyboard-response","69","431031","0.0-3.0-11.0-2.0-1.4","spark_pilot_norest","8340","5","15","Male","","","","","","","null","<div style=""font-size:60px;"">+</div>","null","fixation","","","","","","","","","","","",""
"revaluation","70","437035","0.0-3.0-11.0-2.0-0.5","spark_pilot_norest","8340","5","15","Male","","","false","","","","[1013.1000000238419,629.3999999761581]","./assets/img/space/12.jpg","[""ArrowUp"",""ArrowRight""]","practice block","space","36","{""ArrowUp,ArrowLeft"":3,""ArrowUp,ArrowRight"":36,""ArrowDown,ArrowLeft"":15,""ArrowDown,ArrowRight"":23}","true","ArrowUp,ArrowRight","false","","","","","",""
"html-keyboard-response","71","437536","0.0-3.0-11.0-2.0-1.5","spark_pilot_norest","8340","5","15","Male","","","","","","","null","<div style=""font-size:60px;"">+</div>","null","fixation","","","","","","","","","","","",""
"revaluation","72","443539","0.0-3.0-11.0-2.0-0.6","spark_pilot_norest","8340","5","15","Male","","","false","","","","[726.7999999523163,493.8000000715256]","./assets/img/space/13.jpg","[""ArrowUp"",""ArrowRight""]","practice block","space","36","{""ArrowUp,ArrowLeft"":3,""ArrowUp,ArrowRight"":36,""ArrowDown,ArrowLeft"":15,""ArrowDown,ArrowRight"":23}","true","ArrowUp,ArrowRight","false","","","","","",""
"html-keyboard-response","73","444040","0.0-3.0-11.0-2.0-1.6","spark_pilot_norest","8340","5","15","Male","","","","","","","null","<div style=""font-size:60px;"">+</div>","null","fixation","","","","","","","","","","","",""
"revaluation","74","450043","0.0-3.0-11.0-2.0-0.7","spark_pilot_norest","8340","5","15","Male","","","false","","","","[712.7999999523163,420.3000000715256]","./assets/img/space/14.jpg","[""ArrowUp"",""ArrowRight""]","practice block","space","36","{""ArrowUp,ArrowLeft"":3,""ArrowUp,ArrowRight"":36,""ArrowDown,ArrowLeft"":15,""ArrowDown,ArrowRight"":23}","true","ArrowUp,ArrowRight","false","","","","","",""
"html-keyboard-response","75","450544","0.0-3.0-11.0-2.0-1.7","spark_pilot_norest","8340","5","15","Male","","","","","","","null","<div style=""font-size:60px;"">+</div>","null","fixation","","","","","","","","","","","",""
"revaluation","76","454547","0.0-3.0-11.0-2.0-0.8","spark_pilot_norest","8340","5","15","Male","","","false","","","","[730.0999999046326]","./assets/img/space/catch/3.jpg","[""spaceBar""]","practice block","space","0","{""ArrowUp,ArrowLeft"":3,""ArrowUp,ArrowRight"":36,""ArrowDown,ArrowLeft"":15,""ArrowDown,ArrowRight"":23}","true","spaceBar","true","","","","","",""
"html-keyboard-response","77","455049","0.0-3.0-11.0-2.0-1.8","spark_pilot_norest","8340","5","15","Male","","","","","","","null","<div style=""font-size:60px;"">+</div>","null","fixation","","","","","","","","","","","",""
"learning-instructions","78","472056","0.0-3.0-11.0-3.0-0.0","spark_pilot_norest","8340","5","15","Male","","","","","","","4101","<p> Now, you will travel with a friend who will choose whether you go up or down first. </p>
            <p> On these turns, you will just see the animal that they found. You will still get to choose which chest to search for treasure.</p>","","instructions","","","","","","","","","","","",""
"revaluation","79","476059","0.0-3.0-11.0-4.0-0.0","spark_pilot_norest","8340","5","15","Male","","","false","","","","[1013.2000000476837]","./assets/img/space/animals/cat.jpg","[""ArrowRight""]","practice block","space","36","{""ArrowUp,ArrowLeft"":3,""ArrowUp,ArrowRight"":36,""ArrowDown,ArrowLeft"":15,""ArrowDown,ArrowRight"":23}","true","ArrowUp,ArrowRight","","","","","","",""
"html-keyboard-response","80","476560","0.0-3.0-11.0-4.0-1.0","spark_pilot_norest","8340","5","15","Male","","","","","","","null","<div style=""font-size:60px;"">+</div>","null","fixation","","","","","","","","","","","",""
"revaluation","81","480563","0.0-3.0-11.0-4.0-0.1","spark_pilot_norest","8340","5","15","Male","","","false","","","","[509.8000000715256]","./assets/img/space/animals/rabbit.jpg","[""ArrowRight""]","practice block","space","23","{""ArrowUp,ArrowLeft"":3,""ArrowUp,ArrowRight"":36,""ArrowDown,ArrowLeft"":15,""ArrowDown,ArrowRight"":23}","true","ArrowDown,ArrowRight","","","","","","",""
"html-keyboard-response","82","481065","0.0-3.0-11.0-4.0-1.1","spark_pilot_norest","8340","5","15","Male","","","","","","","null","<div style=""font-size:60px;"">+</div>","null","fixation","","","","","","","","","","","",""
"revaluation","83","485068","0.0-3.0-11.0-4.0-0.2","spark_pilot_norest","8340","5","15","Male","","","false","","","","[476.7000000476837]","./assets/img/space/animals/cat.jpg","[""ArrowRight""]","practice block","space","36","{""ArrowUp,ArrowLeft"":3,""ArrowUp,ArrowRight"":36,""ArrowDown,ArrowLeft"":15,""ArrowDown,ArrowRight"":23}","true","ArrowUp,ArrowRight","","","","","","",""
"html-keyboard-response","84","485570","0.0-3.0-11.0-4.0-1.2","spark_pilot_norest","8340","5","15","Male","","","","","","","null","<div style=""font-size:60px;"">+</div>","null","fixation","","","","","","","","","","","",""
"revaluation","85","489572","0.0-3.0-11.0-4.0-0.3","spark_pilot_norest","8340","5","15","Male","","","false","","","","[422.5]","./assets/img/space/animals/rabbit.jpg","[""ArrowRight""]","practice block","space","23","{""ArrowUp,ArrowLeft"":3,""ArrowUp,ArrowRight"":36,""ArrowDown,ArrowLeft"":15,""ArrowDown,ArrowRight"":23}","true","ArrowDown,ArrowRight","","","","","","",""
"html-keyboard-response","86","490074","0.0-3.0-11.0-4.0-1.3","spark_pilot_norest","8340","5","15","Male","","","","","","","null","<div style=""font-size:60px;"">+</div>","null","fixation","","","","","","","","","","","",""
"learning-instructions","87","498184","0.0-3.0-11.0-5.0-0.0","spark_pilot_norest","8340","5","15","Male","","","","","","","null","<p> You have almost finished this part of the game! </p>
            <p> We are going to ask you to make a few more choices. </p>","","instructions","","","","","","","","","","","",""
"learning-instructions","88","514174","0.0-3.0-11.0-5.0-0.1","spark_pilot_norest","8340","5","15","Male","","","","","","","null","<p> First, you need to decide whether to go up or down. When you see each picture, use the arrow keys to make your choice. </p>
            <p><b>You will not see which animal you found, but try to get to the one that will give you the most treasure.</b></p>","","instructions","","","","","","","","","","","",""
"html-keyboard-response","89","515176","0.0-3.0-11.0-6.0-0.0","spark_pilot_norest","8340","5","15","Male","","","","","","","null","<div style=""font-size:100px;color:red;"">Starting in...</div>","null","","","","","","","","","","","","",""
"html-keyboard-response","90","516178","0.0-3.0-11.0-6.0-1.0","spark_pilot_norest","8340","5","15","Male","","","","","","","null","<div style=""font-size:200px;color:red;"">3</div>","null","","","","","","","","","","","","",""
"html-keyboard-response","91","517179","0.0-3.0-11.0-6.0-2.0","spark_pilot_norest","8340","5","15","Male","","","","","","","null","<div style=""font-size:200px;color:red;"">2</div>","null","","","","","","","","","","","","",""
"html-keyboard-response","92","518180","0.0-3.0-11.0-6.0-3.0","spark_pilot_norest","8340","5","15","Male","","","","","","","null","<div style=""font-size:200px;color:red;"">1</div>","null","","","","","","","","","","","","",""
"revaluation","93","520007","0.0-3.0-11.0-7.0","spark_pilot_norest","8340","5","15","Male","","","false","","","","[1825.2000000476837]","./assets/img/space/15.jpg","[""ArrowDown""]","practice block","space","0","{""ArrowUp,ArrowLeft"":3,""ArrowUp,ArrowRight"":36,""ArrowDown,ArrowLeft"":15,""ArrowDown,ArrowRight"":23}","false","ArrowDown","false","","","","","",""
"html-keyboard-response","94","520508","0.0-3.0-11.0-8.0","spark_pilot_norest","8340","5","15","Male","","","","","","","null","<div style=""font-size:60px;"">+</div>","null","fixation","","","","","","","","","","","",""
"learning-instructions","95","533866","0.0-3.0-11.0-9.0-0.0","spark_pilot_norest","8340","5","15","Male","","","","","","","null","<p> Now you will see the animals again and can search their chests for treasure. </p>
            <p> This time, you will not see how much treasure you earned, but you will earn more bonus money for making better choices. </p>","","instructions","","","","","","","","","","","",""
"html-keyboard-response","96","534868","0.0-3.0-11.0-10.0-0.0","spark_pilot_norest","8340","5","15","Male","","","","","","","null","<div style=""font-size:100px;color:red;"">Starting in...</div>","null","","","","","","","","","","","","",""
"html-keyboard-response","97","535869","0.0-3.0-11.0-10.0-1.0","spark_pilot_norest","8340","5","15","Male","","","","","","","null","<div style=""font-size:200px;color:red;"">3</div>","null","","","","","","","","","","","","",""
"html-keyboard-response","98","536870","0.0-3.0-11.0-10.0-2.0","spark_pilot_norest","8340","5","15","Male","","","","","","","null","<div style=""font-size:200px;color:red;"">2</div>","null","","","","","","","","","","","","",""
"html-keyboard-response","99","537871","0.0-3.0-11.0-10.0-3.0","spark_pilot_norest","8340","5","15","Male","","","","","","","null","<div style=""font-size:200px;color:red;"">1</div>","null","","","","","","","","","","","","",""
"revaluation","100","538467","0.0-3.0-11.0-11.0-0.0","spark_pilot_norest","8340","5","15","Male","","","false","","","","[594.6000000238419]","./assets/img/space/animals/cat.jpg","[""ArrowRight""]","practice block","space","0","{""ArrowUp,ArrowLeft"":3,""ArrowUp,ArrowRight"":36,""ArrowDown,ArrowLeft"":15,""ArrowDown,ArrowRight"":23}","true","ArrowUp,ArrowRight","","","","","","",""
"html-keyboard-response","101","538967","0.0-3.0-11.0-11.0-1.0","spark_pilot_norest","8340","5","15","Male","","","","","","","null","<div style=""font-size:60px;"">+</div>","null","fixation","","","","","","","","","","","",""
"revaluation","102","539729","0.0-3.0-11.0-11.0-0.1","spark_pilot_norest","8340","5","15","Male","","","false","","","","[760]","./assets/img/space/animals/rabbit.jpg","[""ArrowRight""]","practice block","space","0","{""ArrowUp,ArrowLeft"":3,""ArrowUp,ArrowRight"":36,""ArrowDown,ArrowLeft"":15,""ArrowDown,ArrowRight"":23}","true","ArrowDown,ArrowRight","","","","","","",""
"html-keyboard-response","103","540230","0.0-3.0-11.0-11.0-1.1","spark_pilot_norest","8340","5","15","Male","","","","","","","null","<div style=""font-size:60px;"">+</div>","null","fixation","","","","","","","","","","","",""
"learning-instructions","104","548273","0.0-3.0-12.0-0.0","spark_pilot_norest","8340","5","15","Male","","","","","","","3478.600000023842","<p> Before you start, we're going to ask you a few questions about how the game works. </p>","","instructions","","","","","","","","","","","",""
"comp-q","105","555721","0.0-3.0-13.0-0.0-0.0","spark_pilot_norest","8340","5","15","Male","","","","","","","1875","<p> <b> True or False? </b> </p>
            <p> There can be 50 pieces of treasure in a given animal's chest. </p>","0","comp_question","","","","false","","","","","","","",""
"comp-q","106","563967","0.0-3.0-13.0-0.0-1.0","spark_pilot_norest","8340","5","15","Male","","","","","","","1732.2999999523163","<p> <b>Incorrect.</b> The amount of treasure in each chest can range from 0 to 40 pieces. </p>","0","comp_answer","","","","","","","","","","","",""
"comp-q","107","570329","0.0-3.0-13.0-0.1-0.1","spark_pilot_norest","8340","5","15","Male","","","","","","","804.5","<p> <b> True or False? </b> </p>
            <p> There can be 50 pieces of treasure in a given animal's chest. </p>","1","comp_question","","","","true","","","","","","","",""
"comp-q","108","579906","0.0-3.0-13.0-0.1-1.1","spark_pilot_norest","8340","5","15","Male","","","","","","","2921.600000023842","<p> <b> That's right! </b> The amount of treasure in each chest can range from 0 to 40 pieces. </p>","0","comp_answer","","","","","","","","","","","",""
"comp-q","109","588061","0.0-3.0-13.0-0.2-0.2","spark_pilot_norest","8340","5","15","Male","[{""event"":""focus"",""trial"":0,""time"":1172},{""event"":""blur"",""trial"":1,""time"":4105},{""event"":""focus"",""trial"":2,""time"":15069},{""event"":""fullscreenenter"",""trial"":2,""time"":15143},{""event"":""blur"",""trial"":110,""time"":589840},{""event"":""focus"",""trial"":110,""time"":594677},{""event"":""blur"",""trial"":112,""time"":607486},{""event"":""focus"",""trial"":112,""time"":623097},{""event"":""blur"",""trial"":221,""time"":1044896},{""event"":""focus"",""trial"":221,""time"":1053025},{""event"":""blur"",""trial"":294,""time"":1206575},{""event"":""focus"",""trial"":294,""time"":1207230},{""event"":""blur"",""trial"":484,""time"":1783666},{""event"":""focus"",""trial"":484,""time"":1789485},{""event"":""blur"",""trial"":485,""time"":1791810},{""event"":""focus"",""trial"":485,""time"":1798723},{""event"":""fullscreenexit"",""trial"":488,""time"":1818858},{""event"":""blur"",""trial"":556,""time"":1915898},{""event"":""focus"",""trial"":558,""time"":1921829},{""event"":""blur"",""trial"":616,""time"":2010491},{""event"":""focus"",""trial"":616,""time"":2013334}]","","","","","","1046.3999999761581","<p> <b> True or False? </b> </p><p> In this game, all animals have the same amount of treasure in their left and right chests. </p>","1","comp_question","","","","true","","","","","","","",""
"comp-q","110","595259","0.0-3.0-13.0-0.2-1.2","spark_pilot_norest","8340","5","15","Male","","","","","","","1964.1000000238419","<p> <b> That's right! </b> Animals have different amounts of treasure in their treasure chests. </p>","0","comp_answer","","","","","","","","","","","",""
"comp-q","111","601964","0.0-3.0-13.0-0.3-0.3","spark_pilot_norest","8340","5","15","Male","[{""event"":""focus"",""trial"":0,""time"":1172},{""event"":""blur"",""trial"":1,""time"":4105},{""event"":""focus"",""trial"":2,""time"":15069},{""event"":""fullscreenenter"",""trial"":2,""time"":15143},{""event"":""blur"",""trial"":110,""time"":589840},{""event"":""focus"",""trial"":110,""time"":594677},{""event"":""blur"",""trial"":112,""time"":607486},{""event"":""focus"",""trial"":112,""time"":623097},{""event"":""blur"",""trial"":221,""time"":1044896},{""event"":""focus"",""trial"":221,""time"":1053025},{""event"":""blur"",""trial"":294,""time"":1206575},{""event"":""focus"",""trial"":294,""time"":1207230},{""event"":""blur"",""trial"":484,""time"":1783666},{""event"":""focus"",""trial"":484,""time"":1789485},{""event"":""blur"",""trial"":485,""time"":1791810},{""event"":""focus"",""trial"":485,""time"":1798723},{""event"":""fullscreenexit"",""trial"":488,""time"":1818858},{""event"":""blur"",""trial"":556,""time"":1915898},{""event"":""focus"",""trial"":558,""time"":1921829},{""event"":""blur"",""trial"":616,""time"":2010491},{""event"":""focus"",""trial"":616,""time"":2013334}]","","","","","","869.3999999761581","<p> <b> True or False? </b> </p><p> The same animal will always be there if you go up in the same place. </p>","0","comp_question","","","","true","","","","","","","",""
"comp-q","112","623155","0.0-3.0-13.0-0.3-1.3","spark_pilot_norest","8340","5","15","Male","","","","","","","14760.800000071526","<p> <b> That's right! </b> One animal lives in the upper part and one lives in the lower part of every place. </p>","0","comp_answer","","","","","","","","","","","",""
"comp-q","113","629414","0.0-3.0-13.0-0.4-0.4","spark_pilot_norest","8340","5","15","Male","","","","","","","749.7999999523163","<p> <b> True or False? </b> </p><p> If you see a different picture, it means you are in a new place. </p>","0","comp_question","","","","false","","","","","","","",""
"comp-q","114","642129","0.0-3.0-13.0-0.4-1.4","spark_pilot_norest","8340","5","15","Male","","","","","","","1624.5","<p> <b>Incorrect.</b> Lots of different images may show the same place. For example,  you may see three different images that all remind you that you are in outer space. </p>","0","comp_answer","","","","","","","","","","","",""
"comp-q","115","648982","0.0-3.0-13.0-0.5-0.5","spark_pilot_norest","8340","5","15","Male","","","","","","","1357.1999999284744","<p> <b> True or False? </b> </p><p> If you see a different picture, it means you are in a new place. </p>","1","comp_question","","","","true","","","","","","","",""
"comp-q","116","662440","0.0-3.0-13.0-0.5-1.5","spark_pilot_norest","8340","5","15","Male","","","","","","","2244.7999999523163","<p> <b> That's right! </b> Lots of different images may show the same place. For example,  you may see three different images that all remind you that you are in outer space. </p>","0","comp_answer","","","","","","","","","","","",""
"learning-instructions","117","675344","0.0-3.0-14.0-0.0","spark_pilot_norest","8340","5","15","Male","","","","","","","3068.899999976158","<p> Good job. Remember to do your best because the amount of treasure you earn will be converted into bonus money. </p>
            <p> It’s time to start the real game! </p>","","instructions","","","","","","","","","","","",""
"learning-instructions","118","678985","0.0-4.0-0.0-0.0","spark_pilot_norest","8340","5","15","Male","","","","","","","880.5","<p> This time you are searching for treasure in the <b>canyon</b>.</p>","","instructions","","","","","","","","","","","",""
"learning-instructions","119","698934","0.0-4.0-0.0-0.1","spark_pilot_norest","8340","5","15","Male","","","","","","","2669.5","<p><b>New</b> animals with <b>new</b> treasure chests live here. You need to explore to discover where the animal with the best treasure chest is.</p>
                    <p> Like before, once you figure out which animal has the chest with the most treasure, you should try to get to that animal and select that chest! </p>","","instructions","","","","","","","","","","","",""
"learning-instructions","120","716876","0.0-4.0-1.0-0.0","spark_pilot_norest","8340","5","15","Male","","","","","","","3210.9000000953674","<p> Remember, when you see a picture of the place, use the up and down keys to <b>find an animal</b>.</p>
            <p> When you encounter an animal, you should use the left and right keys to <b>select a treasure chest</b>.</p>
            <p> Don't forget to look out for the robber! </p>","","instructions","","","","","","","","","","","",""
"revaluation","121","722879","0.0-4.0-2.0-0.0","spark_pilot_norest","8340","5","15","Male","","","false","","","","[966.1000000238419,356.7999999523163]","./assets/img/canyon/memory/6.jpg","[""ArrowDown"",""ArrowRight""]","value training","canyon","17","{""ArrowUp,ArrowLeft"":26,""ArrowUp,ArrowRight"":10,""ArrowDown,ArrowLeft"":5,""ArrowDown,ArrowRight"":17}","false","ArrowDown,ArrowRight","false","original","1","0","","",""
"html-keyboard-response","122","723382","0.0-4.0-2.0-1.0","spark_pilot_norest","8340","5","15","Male","","","","","","","null","<div style=""font-size:60px;"">+</div>","null","fixation","","","","","","","","","1","","",""
"revaluation","123","729385","0.0-4.0-2.0-0.1","spark_pilot_norest","8340","5","15","Male","","","false","","","","[659.8999999761581,463.7000000476837]","./assets/img/canyon/memory/4.jpg","[""ArrowUp"",""ArrowRight""]","value training","canyon","10","{""ArrowUp,ArrowLeft"":26,""ArrowUp,ArrowRight"":10,""ArrowDown,ArrowLeft"":5,""ArrowDown,ArrowRight"":17}","false","ArrowUp,ArrowRight","false","original","1","2","","",""
"html-keyboard-response","124","729886","0.0-4.0-2.0-1.1","spark_pilot_norest","8340","5","15","Male","","","","","","","null","<div style=""font-size:60px;"">+</div>","null","fixation","","","","","","","","","3","","",""
"revaluation","125","735891","0.0-4.0-2.0-0.2","spark_pilot_norest","8340","5","15","Male","","","false","","","","[989.3000000715256,430.7999999523163]","./assets/img/canyon/memory/0.jpg","[""ArrowDown"",""ArrowLeft""]","value training","canyon","5","{""ArrowUp,ArrowLeft"":26,""ArrowUp,ArrowRight"":10,""ArrowDown,ArrowLeft"":5,""ArrowDown,ArrowRight"":17}","false","ArrowDown,ArrowLeft","false","original","1","4","","",""
"html-keyboard-response","126","736392","0.0-4.0-2.0-1.2","spark_pilot_norest","8340","5","15","Male","","","","","","","null","<div style=""font-size:60px;"">+</div>","null","fixation","","","","","","","","","5","","",""
"revaluation","127","740395","0.0-4.0-2.0-0.3","spark_pilot_norest","8340","5","15","Male","","","false","","","","[469.90000009536743]","./assets/img/canyon/catch/5.jpg","[""ArrowUp""]","value training","canyon","-10","{""ArrowUp,ArrowLeft"":26,""ArrowUp,ArrowRight"":10,""ArrowDown,ArrowLeft"":5,""ArrowDown,ArrowRight"":17}","false","ArrowUp","true","original","1","6","","",""
"html-keyboard-response","128","740896","0.0-4.0-2.0-1.3","spark_pilot_norest","8340","5","15","Male","","","","","","","null","<div style=""font-size:60px;"">+</div>","null","fixation","","","","","","","","","7","","",""
"revaluation","129","746900","0.0-4.0-2.0-0.4","spark_pilot_norest","8340","5","15","Male","","","false","","","","[1028.3999999761581,780.8999999761581]","./assets/img/canyon/memory/8.jpg","[""ArrowUp"",""ArrowLeft""]","value training","canyon","26","{""ArrowUp,ArrowLeft"":26,""ArrowUp,ArrowRight"":10,""ArrowDown,ArrowLeft"":5,""ArrowDown,ArrowRight"":17}","true","ArrowUp,ArrowLeft","false","original","1","8","","",""
"html-keyboard-response","130","747401","0.0-4.0-2.0-1.4","spark_pilot_norest","8340","5","15","Male","","","","","","","null","<div style=""font-size:60px;"">+</div>","null","fixation","","","","","","","","","9","","",""
"revaluation","131","751404","0.0-4.0-2.0-0.5","spark_pilot_norest","8340","5","15","Male","","","false","","","","[617.1000000238419]","./assets/img/canyon/catch/6.jpg","[""spaceBar""]","value training","canyon","0","{""ArrowUp,ArrowLeft"":26,""ArrowUp,ArrowRight"":10,""ArrowDown,ArrowLeft"":5,""ArrowDown,ArrowRight"":17}","true","spaceBar","true","original","1","10","","",""
"html-keyboard-response","132","751905","0.0-4.0-2.0-1.5","spark_pilot_norest","8340","5","15","Male","","","","","","","null","<div style=""font-size:60px;"">+</div>","null","fixation","","","","","","","","","11","","",""
"revaluation","133","757909","0.0-4.0-2.0-0.6","spark_pilot_norest","8340","5","15","Male","","","false","","","","[455.89999997615814,365.89999997615814]","./assets/img/canyon/memory/2.jpg","[""ArrowUp"",""ArrowLeft""]","value training","canyon","26","{""ArrowUp,ArrowLeft"":26,""ArrowUp,ArrowRight"":10,""ArrowDown,ArrowLeft"":5,""ArrowDown,ArrowRight"":17}","true","ArrowUp,ArrowLeft","false","original","1","12","","",""
"html-keyboard-response","134","758410","0.0-4.0-2.0-1.6","spark_pilot_norest","8340","5","15","Male","","","","","","","null","<div style=""font-size:60px;"">+</div>","null","fixation","","","","","","","","","13","","",""
"revaluation","135","764413","0.0-4.0-2.0-0.7","spark_pilot_norest","8340","5","15","Male","","","false","","","","[571,441.2000000476837]","./assets/img/canyon/memory/19.jpg","[""ArrowUp"",""ArrowLeft""]","value training","canyon","26","{""ArrowUp,ArrowLeft"":26,""ArrowUp,ArrowRight"":10,""ArrowDown,ArrowLeft"":5,""ArrowDown,ArrowRight"":17}","true","ArrowUp,ArrowLeft","false","original","1","14","","",""
"html-keyboard-response","136","764914","0.0-4.0-2.0-1.7","spark_pilot_norest","8340","5","15","Male","","","","","","","null","<div style=""font-size:60px;"">+</div>","null","fixation","","","","","","","","","15","","",""
"revaluation","137","770917","0.0-4.0-2.0-0.8","spark_pilot_norest","8340","5","15","Male","","","false","","","","[534.7999999523163,413.60000002384186]","./assets/img/canyon/memory/32.jpg","[""ArrowUp"",""ArrowLeft""]","value training","canyon","26","{""ArrowUp,ArrowLeft"":26,""ArrowUp,ArrowRight"":10,""ArrowDown,ArrowLeft"":5,""ArrowDown,ArrowRight"":17}","true","ArrowUp,ArrowLeft","false","original","1","16","","",""
"html-keyboard-response","138","771418","0.0-4.0-2.0-1.8","spark_pilot_norest","8340","5","15","Male","","","","","","","null","<div style=""font-size:60px;"">+</div>","null","fixation","","","","","","","","","17","","",""
"revaluation","139","777421","0.0-4.0-2.0-0.9","spark_pilot_norest","8340","5","15","Male","","","false","","","","[734.6000000238419,285]","./assets/img/canyon/memory/26.jpg","[""ArrowUp"",""ArrowLeft""]","value training","canyon","26","{""ArrowUp,ArrowLeft"":26,""ArrowUp,ArrowRight"":10,""ArrowDown,ArrowLeft"":5,""ArrowDown,ArrowRight"":17}","true","ArrowUp,ArrowLeft","false","original","1","18","","",""
"html-keyboard-response","140","777922","0.0-4.0-2.0-1.9","spark_pilot_norest","8340","5","15","Male","","","","","","","null","<div style=""font-size:60px;"">+</div>","null","fixation","","","","","","","","","19","","",""
"revaluation","141","783926","0.0-4.0-2.0-0.10","spark_pilot_norest","8340","5","15","Male","","","false","","","","[574.1000000238419,375]","./assets/img/canyon/memory/5.jpg","[""ArrowUp"",""ArrowLeft""]","value training","canyon","26","{""ArrowUp,ArrowLeft"":26,""ArrowUp,ArrowRight"":10,""ArrowDown,ArrowLeft"":5,""ArrowDown,ArrowRight"":17}","true","ArrowUp,ArrowLeft","false","original","1","20","","",""
"html-keyboard-response","142","784428","0.0-4.0-2.0-1.10","spark_pilot_norest","8340","5","15","Male","","","","","","","null","<div style=""font-size:60px;"">+</div>","null","fixation","","","","","","","","","21","","",""
"revaluation","143","790430","0.0-4.0-2.0-0.11","spark_pilot_norest","8340","5","15","Male","","","false","","","","[559.2999999523163,341.2000000476837]","./assets/img/canyon/memory/3.jpg","[""ArrowUp"",""ArrowLeft""]","value training","canyon","26","{""ArrowUp,ArrowLeft"":26,""ArrowUp,ArrowRight"":10,""ArrowDown,ArrowLeft"":5,""ArrowDown,ArrowRight"":17}","true","ArrowUp,ArrowLeft","false","original","1","22","","",""
"html-keyboard-response","144","790931","0.0-4.0-2.0-1.11","spark_pilot_norest","8340","5","15","Male","","","","","","","null","<div style=""font-size:60px;"">+</div>","null","fixation","","","","","","","","","23","","",""
"revaluation","145","796934","0.0-4.0-2.0-0.12","spark_pilot_norest","8340","5","15","Male","","","false","","","","[612.7999999523163,305.89999997615814]","./assets/img/canyon/memory/3.jpg","[""ArrowUp"",""ArrowLeft""]","value training","canyon","26","{""ArrowUp,ArrowLeft"":26,""ArrowUp,ArrowRight"":10,""ArrowDown,ArrowLeft"":5,""ArrowDown,ArrowRight"":17}","true","ArrowUp,ArrowLeft","false","original","1","24","","",""
"html-keyboard-response","146","797436","0.0-4.0-2.0-1.12","spark_pilot_norest","8340","5","15","Male","","","","","","","null","<div style=""font-size:60px;"">+</div>","null","fixation","","","","","","","","","25","","",""
"revaluation","147","803439","0.0-4.0-2.0-0.13","spark_pilot_norest","8340","5","15","Male","","","false","","","","[580.5,289.89999997615814]","./assets/img/canyon/memory/31.jpg","[""ArrowUp"",""ArrowLeft""]","value training","canyon","26","{""ArrowUp,ArrowLeft"":26,""ArrowUp,ArrowRight"":10,""ArrowDown,ArrowLeft"":5,""ArrowDown,ArrowRight"":17}","true","ArrowUp,ArrowLeft","false","original","1","26","","",""
"html-keyboard-response","148","803940","0.0-4.0-2.0-1.13","spark_pilot_norest","8340","5","15","Male","","","","","","","null","<div style=""font-size:60px;"">+</div>","null","fixation","","","","","","","","","27","","",""
"revaluation","149","807943","0.0-4.0-2.0-0.14","spark_pilot_norest","8340","5","15","Male","","","false","","","","[672.8999999761581]","./assets/img/canyon/catch/7.jpg","[""spaceBar""]","value training","canyon","0","{""ArrowUp,ArrowLeft"":26,""ArrowUp,ArrowRight"":10,""ArrowDown,ArrowLeft"":5,""ArrowDown,ArrowRight"":17}","true","spaceBar","true","original","1","28","","",""
"html-keyboard-response","150","808444","0.0-4.0-2.0-1.14","spark_pilot_norest","8340","5","15","Male","","","","","","","null","<div style=""font-size:60px;"">+</div>","null","fixation","","","","","","","","","29","","",""
"revaluation","151","814447","0.0-4.0-2.0-0.15","spark_pilot_norest","8340","5","15","Male","","","false","","","","[618.1999999284744,314.1999999284744]","./assets/img/canyon/memory/36.jpg","[""ArrowUp"",""ArrowLeft""]","value training","canyon","26","{""ArrowUp,ArrowLeft"":26,""ArrowUp,ArrowRight"":10,""ArrowDown,ArrowLeft"":5,""ArrowDown,ArrowRight"":17}","true","ArrowUp,ArrowLeft","false","original","1","30","","",""
"html-keyboard-response","152","814947","0.0-4.0-2.0-1.15","spark_pilot_norest","8340","5","15","Male","","","","","","","null","<div style=""font-size:60px;"">+</div>","null","fixation","","","","","","","","","31","","",""
"revaluation","153","820952","0.0-4.0-2.0-0.16","spark_pilot_norest","8340","5","15","Male","","","false","","","","[589.9000000953674,296.8000000715256]","./assets/img/canyon/memory/13.jpg","[""ArrowUp"",""ArrowLeft""]","value training","canyon","26","{""ArrowUp,ArrowLeft"":26,""ArrowUp,ArrowRight"":10,""ArrowDown,ArrowLeft"":5,""ArrowDown,ArrowRight"":17}","true","ArrowUp,ArrowLeft","false","original","1","32","","",""
"html-keyboard-response","154","821453","0.0-4.0-2.0-1.16","spark_pilot_norest","8340","5","15","Male","","","","","","","null","<div style=""font-size:60px;"">+</div>","null","fixation","","","","","","","","","33","","",""
"revaluation","155","827457","0.0-4.0-2.0-0.17","spark_pilot_norest","8340","5","15","Male","","","false","","","","[692.6000000238419,312.60000002384186]","./assets/img/canyon/memory/5.jpg","[""ArrowUp"",""ArrowLeft""]","value training","canyon","26","{""ArrowUp,ArrowLeft"":26,""ArrowUp,ArrowRight"":10,""ArrowDown,ArrowLeft"":5,""ArrowDown,ArrowRight"":17}","true","ArrowUp,ArrowLeft","false","original","1","34","","",""
"html-keyboard-response","156","827958","0.0-4.0-2.0-1.17","spark_pilot_norest","8340","5","15","Male","","","","","","","null","<div style=""font-size:60px;"">+</div>","null","fixation","","","","","","","","","35","","",""
"revaluation","157","833961","0.0-4.0-2.0-0.18","spark_pilot_norest","8340","5","15","Male","","","false","","","","[513,298.5]","./assets/img/canyon/memory/8.jpg","[""ArrowUp"",""ArrowLeft""]","value training","canyon","26","{""ArrowUp,ArrowLeft"":26,""ArrowUp,ArrowRight"":10,""ArrowDown,ArrowLeft"":5,""ArrowDown,ArrowRight"":17}","true","ArrowUp,ArrowLeft","false","original","1","36","","",""
"html-keyboard-response","158","834462","0.0-4.0-2.0-1.18","spark_pilot_norest","8340","5","15","Male","","","","","","","null","<div style=""font-size:60px;"">+</div>","null","fixation","","","","","","","","","37","","",""
"revaluation","159","838465","0.0-4.0-2.0-0.19","spark_pilot_norest","8340","5","15","Male","","","false","","","","[697.8999999761581]","./assets/img/canyon/catch/4.jpg","[""spaceBar""]","value training","canyon","0","{""ArrowUp,ArrowLeft"":26,""ArrowUp,ArrowRight"":10,""ArrowDown,ArrowLeft"":5,""ArrowDown,ArrowRight"":17}","true","spaceBar","true","original","1","38","","",""
"html-keyboard-response","160","838966","0.0-4.0-2.0-1.19","spark_pilot_norest","8340","5","15","Male","","","","","","","null","<div style=""font-size:60px;"">+</div>","null","fixation","","","","","","","","","39","","",""
"revaluation","161","844970","0.0-4.0-2.0-0.20","spark_pilot_norest","8340","5","15","Male","","","false","","","","[640.7999999523163,354.5]","./assets/img/canyon/memory/0.jpg","[""ArrowUp"",""ArrowLeft""]","value training","canyon","26","{""ArrowUp,ArrowLeft"":26,""ArrowUp,ArrowRight"":10,""ArrowDown,ArrowLeft"":5,""ArrowDown,ArrowRight"":17}","true","ArrowUp,ArrowLeft","false","original","1","40","","",""
"html-keyboard-response","162","845471","0.0-4.0-2.0-1.20","spark_pilot_norest","8340","5","15","Male","","","","","","","null","<div style=""font-size:60px;"">+</div>","null","fixation","","","","","","","","","41","","",""
"revaluation","163","851474","0.0-4.0-2.0-0.21","spark_pilot_norest","8340","5","15","Male","","","false","","","","[734.5999999046326,338.7999999523163]","./assets/img/canyon/memory/13.jpg","[""ArrowUp"",""ArrowLeft""]","value training","canyon","26","{""ArrowUp,ArrowLeft"":26,""ArrowUp,ArrowRight"":10,""ArrowDown,ArrowLeft"":5,""ArrowDown,ArrowRight"":17}","true","ArrowUp,ArrowLeft","false","original","1","42","","",""
"html-keyboard-response","164","851976","0.0-4.0-2.0-1.21","spark_pilot_norest","8340","5","15","Male","","","","","","","null","<div style=""font-size:60px;"">+</div>","null","fixation","","","","","","","","","43","","",""
"revaluation","165","857978","0.0-4.0-2.0-0.22","spark_pilot_norest","8340","5","15","Male","","","false","","","","[958.2000000476837,414.90000009536743]","./assets/img/canyon/memory/22.jpg","[""ArrowUp"",""ArrowLeft""]","value training","canyon","26","{""ArrowUp,ArrowLeft"":26,""ArrowUp,ArrowRight"":10,""ArrowDown,ArrowLeft"":5,""ArrowDown,ArrowRight"":17}","true","ArrowUp,ArrowLeft","false","original","1","44","","",""
"html-keyboard-response","166","858479","0.0-4.0-2.0-1.22","spark_pilot_norest","8340","5","15","Male","","","","","","","null","<div style=""font-size:60px;"">+</div>","null","fixation","","","","","","","","","45","","",""
"revaluation","167","864482","0.0-4.0-2.0-0.23","spark_pilot_norest","8340","5","15","Male","","","false","","","","[744.6000000238419,276.1999999284744]","./assets/img/canyon/memory/12.jpg","[""ArrowUp"",""ArrowLeft""]","value training","canyon","26","{""ArrowUp,ArrowLeft"":26,""ArrowUp,ArrowRight"":10,""ArrowDown,ArrowLeft"":5,""ArrowDown,ArrowRight"":17}","true","ArrowUp,ArrowLeft","false","original","1","46","","",""
"html-keyboard-response","168","864983","0.0-4.0-2.0-1.23","spark_pilot_norest","8340","5","15","Male","","","","","","","null","<div style=""font-size:60px;"">+</div>","null","fixation","","","","","","","","","47","","",""
"revaluation","169","870988","0.0-4.0-2.0-0.24","spark_pilot_norest","8340","5","15","Male","","","false","","","","[622.2999999523163,283.89999997615814]","./assets/img/canyon/memory/4.jpg","[""ArrowUp"",""ArrowLeft""]","value training","canyon","26","{""ArrowUp,ArrowLeft"":26,""ArrowUp,ArrowRight"":10,""ArrowDown,ArrowLeft"":5,""ArrowDown,ArrowRight"":17}","true","ArrowUp,ArrowLeft","false","original","1","48","","",""
"html-keyboard-response","170","871489","0.0-4.0-2.0-1.24","spark_pilot_norest","8340","5","15","Male","","","","","","","null","<div style=""font-size:60px;"">+</div>","null","fixation","","","","","","","","","49","","",""
"revaluation","171","877491","0.0-4.0-2.0-0.25","spark_pilot_norest","8340","5","15","Male","","","false","","","","[627.2999999523163,644.2000000476837]","./assets/img/canyon/memory/31.jpg","[""ArrowUp"",""ArrowLeft""]","value training","canyon","26","{""ArrowUp,ArrowLeft"":26,""ArrowUp,ArrowRight"":10,""ArrowDown,ArrowLeft"":5,""ArrowDown,ArrowRight"":17}","true","ArrowUp,ArrowLeft","false","original","1","50","","",""
"html-keyboard-response","172","877993","0.0-4.0-2.0-1.25","spark_pilot_norest","8340","5","15","Male","","","","","","","null","<div style=""font-size:60px;"">+</div>","null","fixation","","","","","","","","","51","","",""
"revaluation","173","883997","0.0-4.0-2.0-0.26","spark_pilot_norest","8340","5","15","Male","","","false","","","","[595.8000000715256,521.7000000476837]","./assets/img/canyon/memory/39.jpg","[""ArrowUp"",""ArrowLeft""]","value training","canyon","26","{""ArrowUp,ArrowLeft"":26,""ArrowUp,ArrowRight"":10,""ArrowDown,ArrowLeft"":5,""ArrowDown,ArrowRight"":17}","true","ArrowUp,ArrowLeft","false","original","1","52","","",""
"html-keyboard-response","174","884498","0.0-4.0-2.0-1.26","spark_pilot_norest","8340","5","15","Male","","","","","","","null","<div style=""font-size:60px;"">+</div>","null","fixation","","","","","","","","","53","","",""
"revaluation","175","890501","0.0-4.0-2.0-0.27","spark_pilot_norest","8340","5","15","Male","","","false","","","","[667.5,416.10000002384186]","./assets/img/canyon/memory/21.jpg","[""ArrowUp"",""ArrowLeft""]","value training","canyon","26","{""ArrowUp,ArrowLeft"":26,""ArrowUp,ArrowRight"":10,""ArrowDown,ArrowLeft"":5,""ArrowDown,ArrowRight"":17}","true","ArrowUp,ArrowLeft","false","original","1","54","","",""
"html-keyboard-response","176","891002","0.0-4.0-2.0-1.27","spark_pilot_norest","8340","5","15","Male","","","","","","","null","<div style=""font-size:60px;"">+</div>","null","fixation","","","","","","","","","55","","",""
"revaluation","177","895005","0.0-4.0-2.0-0.28","spark_pilot_norest","8340","5","15","Male","","","false","","","","[618.6000000238419]","./assets/img/canyon/catch/0.jpg","[""spaceBar""]","value training","canyon","0","{""ArrowUp,ArrowLeft"":26,""ArrowUp,ArrowRight"":10,""ArrowDown,ArrowLeft"":5,""ArrowDown,ArrowRight"":17}","true","spaceBar","true","original","1","56","","",""
"html-keyboard-response","178","895506","0.0-4.0-2.0-1.28","spark_pilot_norest","8340","5","15","Male","","","","","","","null","<div style=""font-size:60px;"">+</div>","null","fixation","","","","","","","","","57","","",""
"revaluation","179","901510","0.0-4.0-2.0-0.29","spark_pilot_norest","8340","5","15","Male","","","false","","","","[229.5,297.8000000715256]","./assets/img/canyon/memory/21.jpg","[""ArrowUp"",""ArrowLeft""]","value training","canyon","26","{""ArrowUp,ArrowLeft"":26,""ArrowUp,ArrowRight"":10,""ArrowDown,ArrowLeft"":5,""ArrowDown,ArrowRight"":17}","true","ArrowUp,ArrowLeft","false","original","1","58","","",""
"html-keyboard-response","180","902011","0.0-4.0-2.0-1.29","spark_pilot_norest","8340","5","15","Male","","","","","","","null","<div style=""font-size:60px;"">+</div>","null","fixation","","","","","","","","","59","","",""
"revaluation","181","908015","0.0-4.0-2.0-0.30","spark_pilot_norest","8340","5","15","Male","","","false","","","","[540.0999999046326,715.5]","./assets/img/canyon/memory/39.jpg","[""ArrowUp"",""ArrowLeft""]","value training","canyon","26","{""ArrowUp,ArrowLeft"":26,""ArrowUp,ArrowRight"":10,""ArrowDown,ArrowLeft"":5,""ArrowDown,ArrowRight"":17}","true","ArrowUp,ArrowLeft","false","original","1","60","","",""
"html-keyboard-response","182","908517","0.0-4.0-2.0-1.30","spark_pilot_norest","8340","5","15","Male","","","","","","","null","<div style=""font-size:60px;"">+</div>","null","fixation","","","","","","","","","61","","",""
"revaluation","183","914521","0.0-4.0-2.0-0.31","spark_pilot_norest","8340","5","15","Male","","","false","","","","[633.3000000715256,884.7999999523163]","./assets/img/canyon/memory/22.jpg","[""ArrowUp"",""ArrowLeft""]","value training","canyon","26","{""ArrowUp,ArrowLeft"":26,""ArrowUp,ArrowRight"":10,""ArrowDown,ArrowLeft"":5,""ArrowDown,ArrowRight"":17}","true","ArrowUp,ArrowLeft","false","original","1","62","","",""
"html-keyboard-response","184","915022","0.0-4.0-2.0-1.31","spark_pilot_norest","8340","5","15","Male","","","","","","","null","<div style=""font-size:60px;"">+</div>","null","fixation","","","","","","","","","63","","",""
"revaluation","185","921025","0.0-4.0-2.0-0.32","spark_pilot_norest","8340","5","15","Male","","","false","","","","[1030.7000000476837,351.5]","./assets/img/canyon/memory/32.jpg","[""ArrowUp"",""ArrowLeft""]","value training","canyon","26","{""ArrowUp,ArrowLeft"":26,""ArrowUp,ArrowRight"":10,""ArrowDown,ArrowLeft"":5,""ArrowDown,ArrowRight"":17}","true","ArrowUp,ArrowLeft","false","original","1","64","","",""
"html-keyboard-response","186","921526","0.0-4.0-2.0-1.32","spark_pilot_norest","8340","5","15","Male","","","","","","","null","<div style=""font-size:60px;"">+</div>","null","fixation","","","","","","","","","65","","",""
"revaluation","187","927528","0.0-4.0-2.0-0.33","spark_pilot_norest","8340","5","15","Male","","","false","","","","[691,313.7999999523163]","./assets/img/canyon/memory/19.jpg","[""ArrowUp"",""ArrowLeft""]","value training","canyon","26","{""ArrowUp,ArrowLeft"":26,""ArrowUp,ArrowRight"":10,""ArrowDown,ArrowLeft"":5,""ArrowDown,ArrowRight"":17}","true","ArrowUp,ArrowLeft","false","original","1","66","","",""
"html-keyboard-response","188","928030","0.0-4.0-2.0-1.33","spark_pilot_norest","8340","5","15","Male","","","","","","","null","<div style=""font-size:60px;"">+</div>","null","fixation","","","","","","","","","67","","",""
"revaluation","189","934034","0.0-4.0-2.0-0.34","spark_pilot_norest","8340","5","15","Male","","","false","","","","[624.7999999523163,354.7999999523163]","./assets/img/canyon/memory/38.jpg","[""ArrowUp"",""ArrowLeft""]","value training","canyon","26","{""ArrowUp,ArrowLeft"":26,""ArrowUp,ArrowRight"":10,""ArrowDown,ArrowLeft"":5,""ArrowDown,ArrowRight"":17}","true","ArrowUp,ArrowLeft","false","original","1","68","","",""
"html-keyboard-response","190","934534","0.0-4.0-2.0-1.34","spark_pilot_norest","8340","5","15","Male","","","","","","","null","<div style=""font-size:60px;"">+</div>","null","fixation","","","","","","","","","69","","",""
"revaluation","191","940539","0.0-4.0-2.0-0.35","spark_pilot_norest","8340","5","15","Male","","","false","","","","[646.6000000238419,322.2999999523163]","./assets/img/canyon/memory/37.jpg","[""ArrowUp"",""ArrowLeft""]","value training","canyon","26","{""ArrowUp,ArrowLeft"":26,""ArrowUp,ArrowRight"":10,""ArrowDown,ArrowLeft"":5,""ArrowDown,ArrowRight"":17}","true","ArrowUp,ArrowLeft","false","original","1","70","","",""
"html-keyboard-response","192","941041","0.0-4.0-2.0-1.35","spark_pilot_norest","8340","5","15","Male","","","","","","","null","<div style=""font-size:60px;"">+</div>","null","fixation","","","","","","","","","71","","",""
"revaluation","193","945043","0.0-4.0-2.0-0.36","spark_pilot_norest","8340","5","15","Male","","","false","","","","[813.2000000476837]","./assets/img/canyon/catch/2.jpg","[""spaceBar""]","value training","canyon","0","{""ArrowUp,ArrowLeft"":26,""ArrowUp,ArrowRight"":10,""ArrowDown,ArrowLeft"":5,""ArrowDown,ArrowRight"":17}","true","spaceBar","true","original","1","72","","",""
"html-keyboard-response","194","945545","0.0-4.0-2.0-1.36","spark_pilot_norest","8340","5","15","Male","","","","","","","null","<div style=""font-size:60px;"">+</div>","null","fixation","","","","","","","","","73","","",""
"revaluation","195","951548","0.0-4.0-2.0-0.37","spark_pilot_norest","8340","5","15","Male","","","false","","","","[600.8999999761581,330.59999990463257]","./assets/img/canyon/memory/38.jpg","[""ArrowUp"",""ArrowLeft""]","value training","canyon","26","{""ArrowUp,ArrowLeft"":26,""ArrowUp,ArrowRight"":10,""ArrowDown,ArrowLeft"":5,""ArrowDown,ArrowRight"":17}","true","ArrowUp,ArrowLeft","false","original","1","74","","",""
"html-keyboard-response","196","952049","0.0-4.0-2.0-1.37","spark_pilot_norest","8340","5","15","Male","","","","","","","null","<div style=""font-size:60px;"">+</div>","null","fixation","","","","","","","","","75","","",""
"revaluation","197","958051","0.0-4.0-2.0-0.38","spark_pilot_norest","8340","5","15","Male","","","false","","","","[769.5,378.5]","./assets/img/canyon/memory/35.jpg","[""ArrowUp"",""ArrowLeft""]","value training","canyon","26","{""ArrowUp,ArrowLeft"":26,""ArrowUp,ArrowRight"":10,""ArrowDown,ArrowLeft"":5,""ArrowDown,ArrowRight"":17}","true","ArrowUp,ArrowLeft","false","original","1","76","","",""
"html-keyboard-response","198","958552","0.0-4.0-2.0-1.38","spark_pilot_norest","8340","5","15","Male","","","","","","","null","<div style=""font-size:60px;"">+</div>","null","fixation","","","","","","","","","77","","",""
"revaluation","199","964556","0.0-4.0-2.0-0.39","spark_pilot_norest","8340","5","15","Male","","","false","","","","[723.7999999523163,379.5]","./assets/img/canyon/memory/36.jpg","[""ArrowUp"",""ArrowLeft""]","value training","canyon","26","{""ArrowUp,ArrowLeft"":26,""ArrowUp,ArrowRight"":10,""ArrowDown,ArrowLeft"":5,""ArrowDown,ArrowRight"":17}","true","ArrowUp,ArrowLeft","false","original","1","78","","",""
"html-keyboard-response","200","965056","0.0-4.0-2.0-1.39","spark_pilot_norest","8340","5","15","Male","","","","","","","null","<div style=""font-size:60px;"">+</div>","null","fixation","","","","","","","","","79","","",""
"revaluation","201","971060","0.0-4.0-2.0-0.40","spark_pilot_norest","8340","5","15","Male","","","false","","","","[995.2000000476837,365.1999999284744]","./assets/img/canyon/memory/37.jpg","[""ArrowUp"",""ArrowLeft""]","value training","canyon","26","{""ArrowUp,ArrowLeft"":26,""ArrowUp,ArrowRight"":10,""ArrowDown,ArrowLeft"":5,""ArrowDown,ArrowRight"":17}","true","ArrowUp,ArrowLeft","false","original","1","80","","",""
"html-keyboard-response","202","971561","0.0-4.0-2.0-1.40","spark_pilot_norest","8340","5","15","Male","","","","","","","null","<div style=""font-size:60px;"">+</div>","null","fixation","","","","","","","","","81","","",""
"revaluation","203","975564","0.0-4.0-2.0-0.41","spark_pilot_norest","8340","5","15","Male","","","false","","","","[800.7999999523163]","./assets/img/canyon/catch/1.jpg","[""spaceBar""]","value training","canyon","0","{""ArrowUp,ArrowLeft"":26,""ArrowUp,ArrowRight"":10,""ArrowDown,ArrowLeft"":5,""ArrowDown,ArrowRight"":17}","true","spaceBar","true","original","1","82","","",""
"html-keyboard-response","204","976065","0.0-4.0-2.0-1.41","spark_pilot_norest","8340","5","15","Male","","","","","","","null","<div style=""font-size:60px;"">+</div>","null","fixation","","","","","","","","","83","","",""
"revaluation","205","982069","0.0-4.0-2.0-0.42","spark_pilot_norest","8340","5","15","Male","","","false","","","","[821.1000000238419,513.8000000715256]","./assets/img/canyon/memory/12.jpg","[""ArrowUp"",""ArrowLeft""]","value training","canyon","26","{""ArrowUp,ArrowLeft"":26,""ArrowUp,ArrowRight"":10,""ArrowDown,ArrowLeft"":5,""ArrowDown,ArrowRight"":17}","true","ArrowUp,ArrowLeft","false","original","1","84","","",""
"html-keyboard-response","206","982571","0.0-4.0-2.0-1.42","spark_pilot_norest","8340","5","15","Male","","","","","","","null","<div style=""font-size:60px;"">+</div>","null","fixation","","","","","","","","","85","","",""
"revaluation","207","988573","0.0-4.0-2.0-0.43","spark_pilot_norest","8340","5","15","Male","","","false","","","","[659.1000000238419,605.8999999761581]","./assets/img/canyon/memory/35.jpg","[""ArrowUp"",""ArrowLeft""]","value training","canyon","26","{""ArrowUp,ArrowLeft"":26,""ArrowUp,ArrowRight"":10,""ArrowDown,ArrowLeft"":5,""ArrowDown,ArrowRight"":17}","true","ArrowUp,ArrowLeft","false","original","1","86","","",""
"html-keyboard-response","208","989074","0.0-4.0-2.0-1.43","spark_pilot_norest","8340","5","15","Male","","","","","","","null","<div style=""font-size:60px;"">+</div>","null","fixation","","","","","","","","","87","","",""
"revaluation","209","995078","0.0-4.0-2.0-0.44","spark_pilot_norest","8340","5","15","Male","","","false","","","","[916.0999999046326,863]","./assets/img/canyon/memory/1.jpg","[""ArrowUp"",""ArrowLeft""]","value training","canyon","26","{""ArrowUp,ArrowLeft"":26,""ArrowUp,ArrowRight"":10,""ArrowDown,ArrowLeft"":5,""ArrowDown,ArrowRight"":17}","true","ArrowUp,ArrowLeft","false","original","1","88","","",""
"html-keyboard-response","210","995579","0.0-4.0-2.0-1.44","spark_pilot_norest","8340","5","15","Male","","","","","","","null","<div style=""font-size:60px;"">+</div>","null","fixation","","","","","","","","","89","","",""
"revaluation","211","999581","0.0-4.0-2.0-0.45","spark_pilot_norest","8340","5","15","Male","","","false","","","","[543.8000000715256]","./assets/img/canyon/catch/3.jpg","[""spaceBar""]","value training","canyon","0","{""ArrowUp,ArrowLeft"":26,""ArrowUp,ArrowRight"":10,""ArrowDown,ArrowLeft"":5,""ArrowDown,ArrowRight"":17}","true","spaceBar","true","original","1","90","","",""
"html-keyboard-response","212","1000082","0.0-4.0-2.0-1.45","spark_pilot_norest","8340","5","15","Male","","","","","","","null","<div style=""font-size:60px;"">+</div>","null","fixation","","","","","","","","","91","","",""
"revaluation","213","1006084","0.0-4.0-2.0-0.46","spark_pilot_norest","8340","5","15","Male","","","false","","","","[548.2000000476837,332.10000002384186]","./assets/img/canyon/memory/6.jpg","[""ArrowUp"",""ArrowLeft""]","value training","canyon","26","{""ArrowUp,ArrowLeft"":26,""ArrowUp,ArrowRight"":10,""ArrowDown,ArrowLeft"":5,""ArrowDown,ArrowRight"":17}","true","ArrowUp,ArrowLeft","false","original","1","92","","",""
"html-keyboard-response","214","1006585","0.0-4.0-2.0-1.46","spark_pilot_norest","8340","5","15","Male","","","","","","","null","<div style=""font-size:60px;"">+</div>","null","fixation","","","","","","","","","93","","",""
"revaluation","215","1012590","0.0-4.0-2.0-0.47","spark_pilot_norest","8340","5","15","Male","","","false","","","","[571.6000000238419,354.3000000715256]","./assets/img/canyon/memory/26.jpg","[""ArrowUp"",""ArrowLeft""]","value training","canyon","26","{""ArrowUp,ArrowLeft"":26,""ArrowUp,ArrowRight"":10,""ArrowDown,ArrowLeft"":5,""ArrowDown,ArrowRight"":17}","true","ArrowUp,ArrowLeft","false","original","1","94","","",""
"html-keyboard-response","216","1013091","0.0-4.0-2.0-1.47","spark_pilot_norest","8340","5","15","Male","","","","","","","null","<div style=""font-size:60px;"">+</div>","null","fixation","","","","","","","","","95","","",""
"revaluation","217","1019094","0.0-4.0-2.0-0.48","spark_pilot_norest","8340","5","15","Male","","","false","","","","[504.6999999284744,269.89999997615814]","./assets/img/canyon/memory/1.jpg","[""ArrowUp"",""ArrowLeft""]","value training","canyon","26","{""ArrowUp,ArrowLeft"":26,""ArrowUp,ArrowRight"":10,""ArrowDown,ArrowLeft"":5,""ArrowDown,ArrowRight"":17}","true","ArrowUp,ArrowLeft","false","original","1","96","","",""
"html-keyboard-response","218","1019595","0.0-4.0-2.0-1.48","spark_pilot_norest","8340","5","15","Male","","","","","","","null","<div style=""font-size:60px;"">+</div>","null","fixation","","","","","","","","","97","","",""
"revaluation","219","1025599","0.0-4.0-2.0-0.49","spark_pilot_norest","8340","5","15","Male","","","false","","","","[538.7999999523163,322.6999999284744]","./assets/img/canyon/memory/2.jpg","[""ArrowUp"",""ArrowLeft""]","value training","canyon","26","{""ArrowUp,ArrowLeft"":26,""ArrowUp,ArrowRight"":10,""ArrowDown,ArrowLeft"":5,""ArrowDown,ArrowRight"":17}","true","ArrowUp,ArrowLeft","false","original","1","98","","",""
"html-keyboard-response","220","1026101","0.0-4.0-2.0-1.49","spark_pilot_norest","8340","5","15","Male","[{""event"":""focus"",""trial"":0,""time"":1172},{""event"":""blur"",""trial"":1,""time"":4105},{""event"":""focus"",""trial"":2,""time"":15069},{""event"":""fullscreenenter"",""trial"":2,""time"":15143},{""event"":""blur"",""trial"":110,""time"":589840},{""event"":""focus"",""trial"":110,""time"":594677},{""event"":""blur"",""trial"":112,""time"":607486},{""event"":""focus"",""trial"":112,""time"":623097},{""event"":""blur"",""trial"":221,""time"":1044896},{""event"":""focus"",""trial"":221,""time"":1053025},{""event"":""blur"",""trial"":294,""time"":1206575},{""event"":""focus"",""trial"":294,""time"":1207230},{""event"":""blur"",""trial"":484,""time"":1783666},{""event"":""focus"",""trial"":484,""time"":1789485},{""event"":""blur"",""trial"":485,""time"":1791810},{""event"":""focus"",""trial"":485,""time"":1798723},{""event"":""fullscreenexit"",""trial"":488,""time"":1818858},{""event"":""blur"",""trial"":556,""time"":1915898},{""event"":""focus"",""trial"":558,""time"":1921829},{""event"":""blur"",""trial"":616,""time"":2010491},{""event"":""focus"",""trial"":616,""time"":2013334}]","","","","","","null","<div style=""font-size:60px;"">+</div>","null","fixation","","","","","","","","","99","","",""
"learning-instructions","221","1053770","0.0-4.0-3.0-0.0","spark_pilot_norest","8340","5","15","Male","","","","","","","14785.600000023842","<p> Now, you will travel with a friend who will choose whether you go up or down first. </p>
            <p> On these turns, you will just see the animal that they found. You will still get to choose which chest to search for treasure.</p>","","instructions","","","","","","","","","","","",""
"revaluation","222","1057772","0.0-4.0-4.0-0.0","spark_pilot_norest","8340","5","15","Male","","","false","","","","[980]","./assets/img/canyon/animals/lion.jpg","[""ArrowRight""]","revaluation","canyon","17","{""ArrowUp,ArrowLeft"":26,""ArrowUp,ArrowRight"":10,""ArrowDown,ArrowLeft"":5,""ArrowDown,ArrowRight"":17}","true","ArrowDown,ArrowRight","","original","1","0","","",""
"html-keyboard-response","223","1058276","0.0-4.0-4.0-1.0","spark_pilot_norest","8340","5","15","Male","","","","","","","null","<div style=""font-size:60px;"">+</div>","null","fixation","","","","","","","","","1","","",""
"revaluation","224","1062278","0.0-4.0-4.0-0.1","spark_pilot_norest","8340","5","15","Male","","","false","","","","[405.39999997615814]","./assets/img/canyon/animals/giraffe.jpg","[""ArrowLeft""]","revaluation","canyon","26","{""ArrowUp,ArrowLeft"":26,""ArrowUp,ArrowRight"":10,""ArrowDown,ArrowLeft"":5,""ArrowDown,ArrowRight"":17}","true","ArrowUp,ArrowLeft","","original","1","2","","",""
"html-keyboard-response","225","1062780","0.0-4.0-4.0-1.1","spark_pilot_norest","8340","5","15","Male","","","","","","","null","<div style=""font-size:60px;"">+</div>","null","fixation","","","","","","","","","3","","",""
"revaluation","226","1066783","0.0-4.0-4.0-0.2","spark_pilot_norest","8340","5","15","Male","","","false","","","","[518]","./assets/img/canyon/animals/giraffe.jpg","[""ArrowLeft""]","revaluation","canyon","26","{""ArrowUp,ArrowLeft"":26,""ArrowUp,ArrowRight"":10,""ArrowDown,ArrowLeft"":5,""ArrowDown,ArrowRight"":17}","true","ArrowUp,ArrowLeft","","original","1","4","","",""
"html-keyboard-response","227","1067285","0.0-4.0-4.0-1.2","spark_pilot_norest","8340","5","15","Male","","","","","","","null","<div style=""font-size:60px;"">+</div>","null","fixation","","","","","","","","","5","","",""
"revaluation","228","1071288","0.0-4.0-4.0-0.3","spark_pilot_norest","8340","5","15","Male","","","false","","","","[591.2999999523163]","./assets/img/canyon/animals/lion.jpg","[""ArrowRight""]","revaluation","canyon","17","{""ArrowUp,ArrowLeft"":26,""ArrowUp,ArrowRight"":10,""ArrowDown,ArrowLeft"":5,""ArrowDown,ArrowRight"":17}","true","ArrowDown,ArrowRight","","original","1","6","","",""
"html-keyboard-response","229","1071789","0.0-4.0-4.0-1.3","spark_pilot_norest","8340","5","15","Male","","","","","","","null","<div style=""font-size:60px;"">+</div>","null","fixation","","","","","","","","","7","","",""
"revaluation","230","1075792","0.0-4.0-4.0-0.4","spark_pilot_norest","8340","5","15","Male","","","false","","","","[900.2000000476837]","./assets/img/canyon/animals/lion.jpg","[""ArrowRight""]","revaluation","canyon","17","{""ArrowUp,ArrowLeft"":26,""ArrowUp,ArrowRight"":10,""ArrowDown,ArrowLeft"":5,""ArrowDown,ArrowRight"":17}","true","ArrowDown,ArrowRight","","original","1","8","","",""
"html-keyboard-response","231","1076293","0.0-4.0-4.0-1.4","spark_pilot_norest","8340","5","15","Male","","","","","","","null","<div style=""font-size:60px;"">+</div>","null","fixation","","","","","","","","","9","","",""
"revaluation","232","1080295","0.0-4.0-4.0-0.5","spark_pilot_norest","8340","5","15","Male","","","false","","","","[704.5]","./assets/img/canyon/animals/giraffe.jpg","[""ArrowLeft""]","revaluation","canyon","26","{""ArrowUp,ArrowLeft"":26,""ArrowUp,ArrowRight"":10,""ArrowDown,ArrowLeft"":5,""ArrowDown,ArrowRight"":17}","true","ArrowUp,ArrowLeft","","original","1","10","","",""
"html-keyboard-response","233","1080796","0.0-4.0-4.0-1.5","spark_pilot_norest","8340","5","15","Male","","","","","","","null","<div style=""font-size:60px;"">+</div>","null","fixation","","","","","","","","","11","","",""
"revaluation","234","1084797","0.0-4.0-4.0-0.6","spark_pilot_norest","8340","5","15","Male","","","false","","","","[778.2000000476837]","./assets/img/canyon/animals/giraffe.jpg","[""ArrowLeft""]","revaluation","canyon","26","{""ArrowUp,ArrowLeft"":26,""ArrowUp,ArrowRight"":10,""ArrowDown,ArrowLeft"":5,""ArrowDown,ArrowRight"":17}","true","ArrowUp,ArrowLeft","","original","1","12","","",""
"html-keyboard-response","235","1085298","0.0-4.0-4.0-1.6","spark_pilot_norest","8340","5","15","Male","","","","","","","null","<div style=""font-size:60px;"">+</div>","null","fixation","","","","","","","","","13","","",""
"revaluation","236","1089301","0.0-4.0-4.0-0.7","spark_pilot_norest","8340","5","15","Male","","","false","","","","[584]","./assets/img/canyon/animals/lion.jpg","[""ArrowRight""]","revaluation","canyon","17","{""ArrowUp,ArrowLeft"":26,""ArrowUp,ArrowRight"":10,""ArrowDown,ArrowLeft"":5,""ArrowDown,ArrowRight"":17}","true","ArrowDown,ArrowRight","","original","1","14","","",""
"html-keyboard-response","237","1089802","0.0-4.0-4.0-1.7","spark_pilot_norest","8340","5","15","Male","","","","","","","null","<div style=""font-size:60px;"">+</div>","null","fixation","","","","","","","","","15","","",""
"revaluation","238","1093805","0.0-4.0-4.0-0.8","spark_pilot_norest","8340","5","15","Male","","","false","","","","[388.60000002384186]","./assets/img/canyon/animals/lion.jpg","[""ArrowLeft""]","revaluation","canyon","5","{""ArrowUp,ArrowLeft"":26,""ArrowUp,ArrowRight"":10,""ArrowDown,ArrowLeft"":5,""ArrowDown,ArrowRight"":17}","false","ArrowDown,ArrowLeft","","original","1","16","","",""
"html-keyboard-response","239","1094306","0.0-4.0-4.0-1.8","spark_pilot_norest","8340","5","15","Male","","","","","","","null","<div style=""font-size:60px;"">+</div>","null","fixation","","","","","","","","","17","","",""
"revaluation","240","1098308","0.0-4.0-4.0-0.9","spark_pilot_norest","8340","5","15","Male","","","false","","","","[684.3999999761581]","./assets/img/canyon/animals/lion.jpg","[""ArrowRight""]","revaluation","canyon","17","{""ArrowUp,ArrowLeft"":26,""ArrowUp,ArrowRight"":10,""ArrowDown,ArrowLeft"":5,""ArrowDown,ArrowRight"":17}","true","ArrowDown,ArrowRight","","original","1","18","","",""
"html-keyboard-response","241","1098809","0.0-4.0-4.0-1.9","spark_pilot_norest","8340","5","15","Male","","","","","","","null","<div style=""font-size:60px;"">+</div>","null","fixation","","","","","","","","","19","","",""
"revaluation","242","1102812","0.0-4.0-4.0-0.10","spark_pilot_norest","8340","5","15","Male","","","false","","","","[519.5]","./assets/img/canyon/animals/giraffe.jpg","[""ArrowLeft""]","revaluation","canyon","26","{""ArrowUp,ArrowLeft"":26,""ArrowUp,ArrowRight"":10,""ArrowDown,ArrowLeft"":5,""ArrowDown,ArrowRight"":17}","true","ArrowUp,ArrowLeft","","original","1","20","","",""
"html-keyboard-response","243","1103314","0.0-4.0-4.0-1.10","spark_pilot_norest","8340","5","15","Male","","","","","","","null","<div style=""font-size:60px;"">+</div>","null","fixation","","","","","","","","","21","","",""
"revaluation","244","1107317","0.0-4.0-4.0-0.11","spark_pilot_norest","8340","5","15","Male","","","false","","","","[520.6000000238419]","./assets/img/canyon/animals/giraffe.jpg","[""ArrowLeft""]","revaluation","canyon","26","{""ArrowUp,ArrowLeft"":26,""ArrowUp,ArrowRight"":10,""ArrowDown,ArrowLeft"":5,""ArrowDown,ArrowRight"":17}","true","ArrowUp,ArrowLeft","","original","1","22","","",""
"html-keyboard-response","245","1107818","0.0-4.0-4.0-1.11","spark_pilot_norest","8340","5","15","Male","","","","","","","null","<div style=""font-size:60px;"">+</div>","null","fixation","","","","","","","","","23","","",""
"revaluation","246","1111821","0.0-4.0-4.0-0.12","spark_pilot_norest","8340","5","15","Male","","","false","","","","[454.40000009536743]","./assets/img/canyon/animals/lion.jpg","[""ArrowRight""]","revaluation","canyon","17","{""ArrowUp,ArrowLeft"":26,""ArrowUp,ArrowRight"":10,""ArrowDown,ArrowLeft"":5,""ArrowDown,ArrowRight"":17}","true","ArrowDown,ArrowRight","","original","1","24","","",""
"html-keyboard-response","247","1112322","0.0-4.0-4.0-1.12","spark_pilot_norest","8340","5","15","Male","","","","","","","null","<div style=""font-size:60px;"">+</div>","null","fixation","","","","","","","","","25","","",""
"revaluation","248","1116325","0.0-4.0-4.0-0.13","spark_pilot_norest","8340","5","15","Male","","","false","","","","[488.5]","./assets/img/canyon/animals/giraffe.jpg","[""ArrowLeft""]","revaluation","canyon","26","{""ArrowUp,ArrowLeft"":26,""ArrowUp,ArrowRight"":10,""ArrowDown,ArrowLeft"":5,""ArrowDown,ArrowRight"":17}","true","ArrowUp,ArrowLeft","","original","1","26","","",""
"html-keyboard-response","249","1116826","0.0-4.0-4.0-1.13","spark_pilot_norest","8340","5","15","Male","","","","","","","null","<div style=""font-size:60px;"">+</div>","null","fixation","","","","","","","","","27","","",""
"revaluation","250","1120829","0.0-4.0-4.0-0.14","spark_pilot_norest","8340","5","15","Male","","","false","","","","[615.5]","./assets/img/canyon/animals/giraffe.jpg","[""ArrowLeft""]","revaluation","canyon","26","{""ArrowUp,ArrowLeft"":26,""ArrowUp,ArrowRight"":10,""ArrowDown,ArrowLeft"":5,""ArrowDown,ArrowRight"":17}","true","ArrowUp,ArrowLeft","","original","1","28","","",""
"html-keyboard-response","251","1121330","0.0-4.0-4.0-1.14","spark_pilot_norest","8340","5","15","Male","","","","","","","null","<div style=""font-size:60px;"">+</div>","null","fixation","","","","","","","","","29","","",""
"revaluation","252","1125332","0.0-4.0-4.0-0.15","spark_pilot_norest","8340","5","15","Male","","","false","","","","[435.59999990463257]","./assets/img/canyon/animals/lion.jpg","[""ArrowRight""]","revaluation","canyon","17","{""ArrowUp,ArrowLeft"":26,""ArrowUp,ArrowRight"":10,""ArrowDown,ArrowLeft"":5,""ArrowDown,ArrowRight"":17}","true","ArrowDown,ArrowRight","","original","1","30","","",""
"html-keyboard-response","253","1125833","0.0-4.0-4.0-1.15","spark_pilot_norest","8340","5","15","Male","","","","","","","null","<div style=""font-size:60px;"">+</div>","null","fixation","","","","","","","","","31","","",""
"revaluation","254","1129835","0.0-4.0-4.0-0.16","spark_pilot_norest","8340","5","15","Male","","","false","","","","[568.5999999046326]","./assets/img/canyon/animals/giraffe.jpg","[""ArrowLeft""]","revaluation","canyon","26","{""ArrowUp,ArrowLeft"":26,""ArrowUp,ArrowRight"":10,""ArrowDown,ArrowLeft"":5,""ArrowDown,ArrowRight"":17}","true","ArrowUp,ArrowLeft","","original","1","32","","",""
"html-keyboard-response","255","1130336","0.0-4.0-4.0-1.16","spark_pilot_norest","8340","5","15","Male","","","","","","","null","<div style=""font-size:60px;"">+</div>","null","fixation","","","","","","","","","33","","",""
"revaluation","256","1134339","0.0-4.0-4.0-0.17","spark_pilot_norest","8340","5","15","Male","","","false","","","","[1022.6999999284744]","./assets/img/canyon/animals/lion.jpg","[""ArrowRight""]","revaluation","canyon","17","{""ArrowUp,ArrowLeft"":26,""ArrowUp,ArrowRight"":10,""ArrowDown,ArrowLeft"":5,""ArrowDown,ArrowRight"":17}","true","ArrowDown,ArrowRight","","original","1","34","","",""
"html-keyboard-response","257","1134840","0.0-4.0-4.0-1.17","spark_pilot_norest","8340","5","15","Male","","","","","","","null","<div style=""font-size:60px;"">+</div>","null","fixation","","","","","","","","","35","","",""
"learning-instructions","258","1142946","0.0-4.0-5.0-0.0","spark_pilot_norest","8340","5","15","Male","","","","","","","null","<p> You have almost finished this part of the game! </p>
            <p> We are going to ask you to make a few more choices. </p>","","instructions","","","","","","","","","","","",""
"learning-instructions","259","1158926","0.0-4.0-5.0-0.1","spark_pilot_norest","8340","5","15","Male","","","","","","","null","<p> First, you need to decide whether to go up or down. When you see each picture, use the arrow keys to make your choice. </p>
            <p><b>You will not see which animal you found, but try to get to the one that will give you the most treasure.</b></p>","","instructions","","","","","","","","","","","",""
"html-keyboard-response","260","1159927","0.0-4.0-6.0-0.0","spark_pilot_norest","8340","5","15","Male","","","","","","","null","<div style=""font-size:100px;color:red;"">Starting in...</div>","null","","","","","","","","","","","","",""
"html-keyboard-response","261","1160929","0.0-4.0-6.0-1.0","spark_pilot_norest","8340","5","15","Male","","","","","","","null","<div style=""font-size:200px;color:red;"">3</div>","null","","","","","","","","","","","","",""
"html-keyboard-response","262","1161930","0.0-4.0-6.0-2.0","spark_pilot_norest","8340","5","15","Male","","","","","","","null","<div style=""font-size:200px;color:red;"">2</div>","null","","","","","","","","","","","","",""
"html-keyboard-response","263","1162931","0.0-4.0-6.0-3.0","spark_pilot_norest","8340","5","15","Male","","","","","","","null","<div style=""font-size:200px;color:red;"">1</div>","null","","","","","","","","","","","","",""
"revaluation","264","1164282","0.0-4.0-7.0-0.0","spark_pilot_norest","8340","5","15","Male","","","false","","","","[1350.5]","./assets/img/canyon/test/3.jpg","[""ArrowUp""]","first stage test","canyon","0","{""ArrowUp,ArrowLeft"":26,""ArrowUp,ArrowRight"":10,""ArrowDown,ArrowLeft"":5,""ArrowDown,ArrowRight"":17}","true","ArrowUp","false","original","1","","","",""
"html-keyboard-response","265","1164783","0.0-4.0-7.0-1.0","spark_pilot_norest","8340","5","15","Male","","","","","","","null","<div style=""font-size:60px;"">+</div>","null","fixation","","","","","","","","","","","",""
"revaluation","266","1166499","0.0-4.0-7.0-0.1","spark_pilot_norest","8340","5","15","Male","","","false","","","","[1714.5999999046326]","./assets/img/canyon/test/1.jpg","[""ArrowUp""]","first stage test","canyon","0","{""ArrowUp,ArrowLeft"":26,""ArrowUp,ArrowRight"":10,""ArrowDown,ArrowLeft"":5,""ArrowDown,ArrowRight"":17}","true","ArrowUp","false","original","1","","","",""
"html-keyboard-response","267","1167000","0.0-4.0-7.0-1.1","spark_pilot_norest","8340","5","15","Male","","","","","","","null","<div style=""font-size:60px;"">+</div>","null","fixation","","","","","","","","","","","",""
"revaluation","268","1168533","0.0-4.0-7.0-0.2","spark_pilot_norest","8340","5","15","Male","","","false","","","","[1532.2999999523163]","./assets/img/canyon/test/0.jpg","[""ArrowUp""]","first stage test","canyon","0","{""ArrowUp,ArrowLeft"":26,""ArrowUp,ArrowRight"":10,""ArrowDown,ArrowLeft"":5,""ArrowDown,ArrowRight"":17}","true","ArrowUp","false","original","1","","","",""
"html-keyboard-response","269","1169034","0.0-4.0-7.0-1.2","spark_pilot_norest","8340","5","15","Male","","","","","","","null","<div style=""font-size:60px;"">+</div>","null","fixation","","","","","","","","","","","",""
"revaluation","270","1170336","0.0-4.0-7.0-0.3","spark_pilot_norest","8340","5","15","Male","","","false","","","","[1300.8999999761581]","./assets/img/canyon/test/2.jpg","[""ArrowUp""]","first stage test","canyon","0","{""ArrowUp,ArrowLeft"":26,""ArrowUp,ArrowRight"":10,""ArrowDown,ArrowLeft"":5,""ArrowDown,ArrowRight"":17}","true","ArrowUp","false","original","1","","","",""
"html-keyboard-response","271","1170837","0.0-4.0-7.0-1.3","spark_pilot_norest","8340","5","15","Male","","","","","","","null","<div style=""font-size:60px;"">+</div>","null","fixation","","","","","","","","","","","",""
"learning-instructions","272","1184175","0.0-4.0-8.0-0.0","spark_pilot_norest","8340","5","15","Male","","","","","","","null","<p> Now you will see the animals again and can search their chests for treasure. </p>
            <p> This time, you will not see how much treasure you earned, but you will earn more bonus money for making better choices. </p>","","instructions","","","","","","","","","","","",""
"html-keyboard-response","273","1185176","0.0-4.0-9.0-0.0","spark_pilot_norest","8340","5","15","Male","","","","","","","null","<div style=""font-size:100px;color:red;"">Starting in...</div>","null","","","","","","","","","","","","",""
"html-keyboard-response","274","1186177","0.0-4.0-9.0-1.0","spark_pilot_norest","8340","5","15","Male","","","","","","","null","<div style=""font-size:200px;color:red;"">3</div>","null","","","","","","","","","","","","",""
"html-keyboard-response","275","1187178","0.0-4.0-9.0-2.0","spark_pilot_norest","8340","5","15","Male","","","","","","","null","<div style=""font-size:200px;color:red;"">2</div>","null","","","","","","","","","","","","",""
"html-keyboard-response","276","1188179","0.0-4.0-9.0-3.0","spark_pilot_norest","8340","5","15","Male","","","","","","","null","<div style=""font-size:200px;color:red;"">1</div>","null","","","","","","","","","","","","",""
"revaluation","277","1188882","0.0-4.0-10.0-0.0","spark_pilot_norest","8340","5","15","Male","","","false","","","","[702.7999999523163]","./assets/img/canyon/animals/giraffe.jpg","[""ArrowLeft""]","second stage test","canyon","0","{""ArrowUp,ArrowLeft"":26,""ArrowUp,ArrowRight"":10,""ArrowDown,ArrowLeft"":5,""ArrowDown,ArrowRight"":17}","true","ArrowUp,ArrowLeft","","original","1","","","",""
"html-keyboard-response","278","1189383","0.0-4.0-10.0-1.0","spark_pilot_norest","8340","5","15","Male","","","","","","","null","<div style=""font-size:60px;"">+</div>","null","fixation","","","","","","","","","","","",""
"revaluation","279","1189912","0.0-4.0-10.0-0.1","spark_pilot_norest","8340","5","15","Male","","","false","","","","[527.1000000238419]","./assets/img/canyon/animals/giraffe.jpg","[""ArrowLeft""]","second stage test","canyon","0","{""ArrowUp,ArrowLeft"":26,""ArrowUp,ArrowRight"":10,""ArrowDown,ArrowLeft"":5,""ArrowDown,ArrowRight"":17}","true","ArrowUp,ArrowLeft","","original","1","","","",""
"html-keyboard-response","280","1190412","0.0-4.0-10.0-1.1","spark_pilot_norest","8340","5","15","Male","","","","","","","null","<div style=""font-size:60px;"">+</div>","null","fixation","","","","","","","","","","","",""
"revaluation","281","1190865","0.0-4.0-10.0-0.2","spark_pilot_norest","8340","5","15","Male","","","false","","","","[451.59999990463257]","./assets/img/canyon/animals/giraffe.jpg","[""ArrowLeft""]","second stage test","canyon","0","{""ArrowUp,ArrowLeft"":26,""ArrowUp,ArrowRight"":10,""ArrowDown,ArrowLeft"":5,""ArrowDown,ArrowRight"":17}","true","ArrowUp,ArrowLeft","","original","1","","","",""
"html-keyboard-response","282","1191365","0.0-4.0-10.0-1.2","spark_pilot_norest","8340","5","15","Male","","","","","","","null","<div style=""font-size:60px;"">+</div>","null","fixation","","","","","","","","","","","",""
"revaluation","283","1191785","0.0-4.0-10.0-0.3","spark_pilot_norest","8340","5","15","Male","","","false","","","","[418.5]","./assets/img/canyon/animals/giraffe.jpg","[""ArrowLeft""]","second stage test","canyon","0","{""ArrowUp,ArrowLeft"":26,""ArrowUp,ArrowRight"":10,""ArrowDown,ArrowLeft"":5,""ArrowDown,ArrowRight"":17}","true","ArrowUp,ArrowLeft","","original","1","","","",""
"html-keyboard-response","284","1192286","0.0-4.0-10.0-1.3","spark_pilot_norest","8340","5","15","Male","","","","","","","null","<div style=""font-size:60px;"">+</div>","null","fixation","","","","","","","","","","","",""
"revaluation","285","1192829","0.0-4.0-10.0-0.4","spark_pilot_norest","8340","5","15","Male","","","false","","","","[541.6000000238419]","./assets/img/canyon/animals/lion.jpg","[""ArrowRight""]","second stage test","canyon","0","{""ArrowUp,ArrowLeft"":26,""ArrowUp,ArrowRight"":10,""ArrowDown,ArrowLeft"":5,""ArrowDown,ArrowRight"":17}","true","ArrowDown,ArrowRight","","original","1","","","",""
"html-keyboard-response","286","1193330","0.0-4.0-10.0-1.4","spark_pilot_norest","8340","5","15","Male","","","","","","","null","<div style=""font-size:60px;"">+</div>","null","fixation","","","","","","","","","","","",""
"revaluation","287","1193785","0.0-4.0-10.0-0.5","spark_pilot_norest","8340","5","15","Male","","","false","","","","[454.09999990463257]","./assets/img/canyon/animals/lion.jpg","[""ArrowRight""]","second stage test","canyon","0","{""ArrowUp,ArrowLeft"":26,""ArrowUp,ArrowRight"":10,""ArrowDown,ArrowLeft"":5,""ArrowDown,ArrowRight"":17}","true","ArrowDown,ArrowRight","","original","1","","","",""
"html-keyboard-response","288","1194286","0.0-4.0-10.0-1.5","spark_pilot_norest","8340","5","15","Male","","","","","","","null","<div style=""font-size:60px;"">+</div>","null","fixation","","","","","","","","","","","",""
"revaluation","289","1194743","0.0-4.0-10.0-0.6","spark_pilot_norest","8340","5","15","Male","","","false","","","","[455.2999999523163]","./assets/img/canyon/animals/lion.jpg","[""ArrowRight""]","second stage test","canyon","0","{""ArrowUp,ArrowLeft"":26,""ArrowUp,ArrowRight"":10,""ArrowDown,ArrowLeft"":5,""ArrowDown,ArrowRight"":17}","true","ArrowDown,ArrowRight","","original","1","","","",""
"html-keyboard-response","290","1195243","0.0-4.0-10.0-1.6","spark_pilot_norest","8340","5","15","Male","","","","","","","null","<div style=""font-size:60px;"">+</div>","null","fixation","","","","","","","","","","","",""
"revaluation","291","1195695","0.0-4.0-10.0-0.7","spark_pilot_norest","8340","5","15","Male","","","false","","","","[451.10000002384186]","./assets/img/canyon/animals/lion.jpg","[""ArrowRight""]","second stage test","canyon","0","{""ArrowUp,ArrowLeft"":26,""ArrowUp,ArrowRight"":10,""ArrowDown,ArrowLeft"":5,""ArrowDown,ArrowRight"":17}","true","ArrowDown,ArrowRight","","original","1","","","",""
"html-keyboard-response","292","1196196","0.0-4.0-10.0-1.7","spark_pilot_norest","8340","5","15","Male","","","","","","","null","<div style=""font-size:60px;"">+</div>","null","fixation","","","","","","","","","","","",""
"learning-instructions","293","1202604","0.0-4.0-0.1-0.2","spark_pilot_norest","8340","5","15","Male","[{""event"":""focus"",""trial"":0,""time"":1172},{""event"":""blur"",""trial"":1,""time"":4105},{""event"":""focus"",""trial"":2,""time"":15069},{""event"":""fullscreenenter"",""trial"":2,""time"":15143},{""event"":""blur"",""trial"":110,""time"":589840},{""event"":""focus"",""trial"":110,""time"":594677},{""event"":""blur"",""trial"":112,""time"":607486},{""event"":""focus"",""trial"":112,""time"":623097},{""event"":""blur"",""trial"":221,""time"":1044896},{""event"":""focus"",""trial"":221,""time"":1053025},{""event"":""blur"",""trial"":294,""time"":1206575},{""event"":""focus"",""trial"":294,""time"":1207230},{""event"":""blur"",""trial"":484,""time"":1783666},{""event"":""focus"",""trial"":484,""time"":1789485},{""event"":""blur"",""trial"":485,""time"":1791810},{""event"":""focus"",""trial"":485,""time"":1798723},{""event"":""fullscreenexit"",""trial"":488,""time"":1818858},{""event"":""blur"",""trial"":556,""time"":1915898},{""event"":""focus"",""trial"":558,""time"":1921829},{""event"":""blur"",""trial"":616,""time"":2010491},{""event"":""focus"",""trial"":616,""time"":2013334}]","","","","","","3708.7999999523163","<p> This time you are searching for treasure in the <b>ocean</b>.</p>","","instructions","","","","","","","","","","","",""
"learning-instructions","294","1221208","0.0-4.0-0.1-0.3","spark_pilot_norest","8340","5","15","Male","","","","","","","1363.2999999523163","<p><b>New</b> animals with <b>new</b> treasure chests live here. You need to explore to discover where the animal with the best treasure chest is.</p>
                    <p> Like before, once you figure out which animal has the chest with the most treasure, you should try to get to that animal and select that chest! </p>","","instructions","","","","","","","","","","","",""
