"trial_type","trial_index","time_elapsed","internal_node_id","task_version","subject_id","assigned_condition","age","gender","success","timeout","failed_images","failed_audio","failed_video","browser_interaction","rt","stimulus","response","task_part","environment","score","rewardMap","correct","fullState","isCatch","condition","order","trial_num","key_press","ground_truth","bonus"
"pavlovia","0","1049","0.0-0.0","spark_pilot_norest","11452","1","9","Female","","","","","","","","","","","","","","","","","","","","","",""
"preload","1","10403","0.0-1.0","spark_pilot_norest","11452","1","9","Female","true","false","[]","[]","[]","[{""event"":""blur"",""trial"":0,""time"":608},{""event"":""focus"",""trial"":0,""time"":726},{""event"":""fullscreenenter"",""trial"":2,""time"":48408}]","","","","","","","","","","","","","","","",""
"fullscreen","2","49400","0.0-2.0","spark_pilot_norest","11452","1","9","Female","true","","","","","","","","","","","","","","","","","","","","",""
"audio-button-response","3","54871","0.0-3.0-0.0-0.0","spark_pilot_norest","11452","1","9","Female","","","","","","","5181","./assets/audio/audiotest/turtle.mp3","2","audio_test","","","","","","","","","","","",""
"learning-instructions","4","64192","0.0-3.0-1.0-0.0","spark_pilot_norest","11452","1","9","Female","","","","","","","1379.6000000238419","<p> Welcome! Please remember to stay in fullscreen mode and don't click away from the experiment. </p>","","instructions","","","","","","","","","","","",""
"learning-instructions","5","75993","0.0-3.0-1.0-0.1","spark_pilot_norest","11452","1","9","Female","","","","","","","2449.2999999523163","<p> Today you will be playing a game to earn treasure. </p>
            <p> At the end of the experiment, you will earn a bonus based on how much treasure you find. </p>
            <img src='./assets/img/instructions/treasure.jpg' class='instructions-image'>","","instructions","","","","","","","","","","","",""
"learning-instructions","6","87347","0.0-3.0-1.0-0.2","spark_pilot_norest","11452","1","9","Female","","","","","","","2174.100000023842","<p> Animals have hidden treasure in treasure chests. </p>
            <p> You need to first find an animal and then choose which of their treasure chests to search. </p>
            <img src='./assets/img/space/animals/cat.jpg' class='instructions-image'>","","instructions","","","","","","","","","","","",""
"learning-instructions","7","103237","0.0-3.0-1.0-0.3","spark_pilot_norest","11452","1","9","Female","","","","","","","1694","<p> In each round, you will search for treasure in a different place. In the real game, there will be two rounds. </p>
            <p> You will begin with a separate, practice round where you will search for treasure in outer space. </p>
            <img src='./assets/img/space/0.jpg' class='instructions-image'>","","instructions","","","","","","","","","","","",""
"learning-instructions","8","117766","0.0-3.0-1.0-0.4","spark_pilot_norest","11452","1","9","Female","","","","","","","2102.599999964237","<p> On every turn, you will see a picture of the place that you are in, but the specific image may be different each time. </p>
            <p> For example, both of these images mean you are in outer space. </p>
            <img src='./assets/img/instructions/outerspace.jpg' class='instructions-image'>","","instructions","","","","","","","","","","","",""
"learning-instructions","9","127551","0.0-3.0-1.0-0.5","spark_pilot_norest","11452","1","9","Female","","","","","","","1026.4000000357628","<p> You need to decide which direction to travel in. </p>
            <p> You can choose between going <b>up or down</b> by using the arrow keys. </p>
            <img src='./assets/img/instructions/updown.jpg' class='instructions-image'>","","instructions","","","","","","","","","","","",""
"learning-instructions","10","138508","0.0-3.0-1.0-0.6","spark_pilot_norest","11452","1","9","Female","","","","","","","1194.1000000238419","<p> You will have <b>2 seconds</b> to make your choice. </p>
            <p> If you do not make a choice within 2 seconds, you will not find an animal or earn treasure. </p>
            <img src='./assets/img/instructions/2seconds.jpg' class='instructions-image'>","","instructions","","","","","","","","","","","",""
"learning-instructions","11","147940","0.0-3.0-1.0-0.7","spark_pilot_norest","11452","1","9","Female","","","","","","","1485.800000011921","<p> Let’s try practicing that now! </p>
            <p> When you see a picture of the place you are in, press the <b>up</b> key to travel up. </p>
            <img src='./assets/img/instructions/pressUp.jpg' class='instructions-image'>","","instructions","","","","","","","","","","","",""
"revaluation","12","151964","0.0-3.0-2.0-0.0","spark_pilot_norest","11452","1","9","Female","","true","","","","","[]","./assets/img/space/0.jpg","[]","first stage practice","space","-5","null","null","","false","","","","","",""
"html-keyboard-response","13","152472","0.0-3.0-2.0-1.0","spark_pilot_norest","11452","1","9","Female","","","","","","","null","<div style=""font-size:60px;"">+</div>","null","fixation","","","","","","","","","","","",""
"revaluation","14","156511","0.0-3.0-2.0-0.1","spark_pilot_norest","11452","1","9","Female","","true","","","","","[]","./assets/img/space/1.jpg","[]","first stage practice","space","-5","null","null","","false","","","","","",""
"html-keyboard-response","15","157021","0.0-3.0-2.0-1.1","spark_pilot_norest","11452","1","9","Female","","","","","","","null","<div style=""font-size:60px;"">+</div>","null","fixation","","","","","","","","","","","",""
"revaluation","16","161073","0.0-3.0-2.0-0.2","spark_pilot_norest","11452","1","9","Female","","true","","","","","[]","./assets/img/space/2.jpg","[]","first stage practice","space","-5","null","null","","false","","","","","",""
"html-keyboard-response","17","161581","0.0-3.0-2.0-1.2","spark_pilot_norest","11452","1","9","Female","","","","","","","null","<div style=""font-size:60px;"">+</div>","null","fixation","","","","","","","","","","","",""
"learning-instructions","18","169747","0.0-3.0-3.0-0.0","spark_pilot_norest","11452","1","9","Female","","","","","","","2653.199999988079","<p> Great job! Now try pressing the <b>down</b> key to travel down. </p>
            <img src='./assets/img/instructions/pressDown.jpg' class='instructions-image'>","","instructions","","","","","","","","","","","",""
"revaluation","19","173782","0.0-3.0-4.0-0.0","spark_pilot_norest","11452","1","9","Female","","false","","","","","[748.8999999761581]","./assets/img/space/3.jpg","[""ArrowDown""]","first stage practice","space","0","null","null","ArrowDown","false","","","","","",""
"html-keyboard-response","20","174291","0.0-3.0-4.0-1.0","spark_pilot_norest","11452","1","9","Female","","","","","","","null","<div style=""font-size:60px;"">+</div>","null","fixation","","","","","","","","","","","",""
"revaluation","21","178331","0.0-3.0-4.0-0.1","spark_pilot_norest","11452","1","9","Female","","true","","","","","[]","./assets/img/space/4.jpg","[]","first stage practice","space","-5","null","null","","false","","","","","",""
"html-keyboard-response","22","178850","0.0-3.0-4.0-1.1","spark_pilot_norest","11452","1","9","Female","","","","","","","null","<div style=""font-size:60px;"">+</div>","null","fixation","","","","","","","","","","","",""
"revaluation","23","182900","0.0-3.0-4.0-0.2","spark_pilot_norest","11452","1","9","Female","","true","","","","","[]","./assets/img/space/5.jpg","[]","first stage practice","space","-5","null","null","","false","","","","","",""
"html-keyboard-response","24","183420","0.0-3.0-4.0-1.2","spark_pilot_norest","11452","1","9","Female","","","","","","","null","<div style=""font-size:60px;"">+</div>","null","fixation","","","","","","","","","","","",""
"learning-instructions","25","195282","0.0-3.0-5.0-0.0","spark_pilot_norest","11452","1","9","Female","","","","","","","1950.4000000357628","<p> The animals don’t move, so the animal in the upper part of a place will stay in the upper part of a place, and the animal in the lower part of a place will stay in the lower part of a place. </p>","","instructions","","","","","","","","","","","",""
"learning-instructions","26","205849","0.0-3.0-5.0-0.1","spark_pilot_norest","11452","1","9","Female","","","","","","","1437.0999999642372","<p> Each animal has two treasure chests for you to choose from. </p>
            <p> The amount of treasure in each chest can range from <b> 0 to 40 pieces.</b></p>","","instructions","","","","","","","","","","","",""
"learning-instructions","27","218601","0.0-3.0-5.0-0.2","spark_pilot_norest","11452","1","9","Female","","","","","","","1560","<p> You should decide which chest to search for treasure by using the <b>left</b> and <b>right</b> arrow keys. </p>
            <p><b> Pay attention to which animal is on the screen, as the animals have different treasure chests. </b></p>
            <img src='./assets/img/instructions/leftright.jpg' class='instructions-image'>","","instructions","","","","","","","","","","","",""
"learning-instructions","28","226162","0.0-3.0-5.0-0.3","spark_pilot_norest","11452","1","9","Female","","","","","","","1190","<p> Let’s try practicing that now. </p>
            <p> When you see an animal, choose which chest to search for treasure. </p>
            <img src='./assets/img/instructions/chooseChest.jpg' class='instructions-image'>","","instructions","","","","","","","","","","","",""
"revaluation","29","230183","0.0-3.0-6.0-0.0","spark_pilot_norest","11452","1","9","Female","","false","","","","","[814.1000000238419]","./assets/img/space/animals/cat.jpg","[""ArrowLeft""]","second stage practice","space","3","{""ArrowUp,ArrowLeft"":3,""ArrowUp,ArrowRight"":36,""ArrowDown,ArrowLeft"":15,""ArrowDown,ArrowRight"":23}","false","ArrowUp,ArrowLeft","","","","","","",""
"html-keyboard-response","30","230686","0.0-3.0-6.0-1.0","spark_pilot_norest","11452","1","9","Female","","","","","","","null","<div style=""font-size:60px;"">+</div>","null","fixation","","","","","","","","","","","",""
"revaluation","31","234705","0.0-3.0-6.0-0.1","spark_pilot_norest","11452","1","9","Female","","false","","","","","[550.7000000476837]","./assets/img/space/animals/cat.jpg","[""ArrowRight""]","second stage practice","space","36","{""ArrowUp,ArrowLeft"":3,""ArrowUp,ArrowRight"":36,""ArrowDown,ArrowLeft"":15,""ArrowDown,ArrowRight"":23}","true","ArrowUp,ArrowRight","","","","","","",""
"html-keyboard-response","32","235213","0.0-3.0-6.0-1.1","spark_pilot_norest","11452","1","9","Female","","","","","","","null","<div style=""font-size:60px;"">+</div>","null","fixation","","","","","","","","","","","",""
"revaluation","33","239251","0.0-3.0-6.0-0.2","spark_pilot_norest","11452","1","9","Female","","false","","","","","[526.4000000357628]","./assets/img/space/animals/rabbit.jpg","[""ArrowLeft""]","second stage practice","space","15","{""ArrowUp,ArrowLeft"":3,""ArrowUp,ArrowRight"":36,""ArrowDown,ArrowLeft"":15,""ArrowDown,ArrowRight"":23}","false","ArrowDown,ArrowLeft","","","","","","",""
"html-keyboard-response","34","239763","0.0-3.0-6.0-1.2","spark_pilot_norest","11452","1","9","Female","","","","","","","null","<div style=""font-size:60px;"">+</div>","null","fixation","","","","","","","","","","","",""
"revaluation","35","243787","0.0-3.0-6.0-0.3","spark_pilot_norest","11452","1","9","Female","","false","","","","","[439.39999997615814]","./assets/img/space/animals/rabbit.jpg","[""ArrowLeft""]","second stage practice","space","15","{""ArrowUp,ArrowLeft"":3,""ArrowUp,ArrowRight"":36,""ArrowDown,ArrowLeft"":15,""ArrowDown,ArrowRight"":23}","false","ArrowDown,ArrowLeft","","","","","","",""
"html-keyboard-response","36","244297","0.0-3.0-6.0-1.3","spark_pilot_norest","11452","1","9","Female","","","","","","","null","<div style=""font-size:60px;"">+</div>","null","fixation","","","","","","","","","","","",""
"learning-instructions","37","264846","0.0-3.0-7.0-0.0","spark_pilot_norest","11452","1","9","Female","","","","","","","2625","<p> Great job. Now let’s try putting it together. </p>
            <p> On each turn, you will first see a picture to remind you of the place you are in, and you need to choose whether to go up or down. </p>
            <p> Then you will see an animal and choose which of its chests to search for treasure. </p>","","instructions","","","","","","","","","","","",""
"learning-instructions","38","275078","0.0-3.0-7.0-0.1","spark_pilot_norest","11452","1","9","Female","","","","","","","1046.5","<p> When you choose whether to go up or down, try to go to the animal with the chest with the most treasure. </p>
            <p> Try practicing that now! </p>","","instructions","","","","","","","","","","","",""
"revaluation","39","281109","0.0-3.0-8.0-0.0","spark_pilot_norest","11452","1","9","Female","","false","","","","","[1061.6000000238419,1159.5]","./assets/img/space/6.jpg","[""ArrowUp"",""ArrowLeft""]","full practice","space","3","{""ArrowUp,ArrowLeft"":3,""ArrowUp,ArrowRight"":36,""ArrowDown,ArrowLeft"":15,""ArrowDown,ArrowRight"":23}","false","ArrowUp,ArrowLeft","false","","","","","",""
"html-keyboard-response","40","281619","0.0-3.0-8.0-1.0","spark_pilot_norest","11452","1","9","Female","","","","","","","null","<div style=""font-size:60px;"">+</div>","null","fixation","","","","","","","","","","","",""
"revaluation","41","287648","0.0-3.0-8.0-0.1","spark_pilot_norest","11452","1","9","Female","","false","","","","","[1093.199999988079,699.1999999880791]","./assets/img/space/7.jpg","[""ArrowUp"",""ArrowRight""]","full practice","space","36","{""ArrowUp,ArrowLeft"":3,""ArrowUp,ArrowRight"":36,""ArrowDown,ArrowLeft"":15,""ArrowDown,ArrowRight"":23}","true","ArrowUp,ArrowRight","false","","","","","",""
"html-keyboard-response","42","288161","0.0-3.0-8.0-1.1","spark_pilot_norest","11452","1","9","Female","","","","","","","null","<div style=""font-size:60px;"">+</div>","null","fixation","","","","","","","","","","","",""
"revaluation","43","294197","0.0-3.0-8.0-0.2","spark_pilot_norest","11452","1","9","Female","","false","","","","","[896.3000000119209,526.8999999761581]","./assets/img/space/8.jpg","[""ArrowDown"",""ArrowLeft""]","full practice","space","15","{""ArrowUp,ArrowLeft"":3,""ArrowUp,ArrowRight"":36,""ArrowDown,ArrowLeft"":15,""ArrowDown,ArrowRight"":23}","false","ArrowDown,ArrowLeft","false","","","","","",""
"html-keyboard-response","44","294706","0.0-3.0-8.0-1.2","spark_pilot_norest","11452","1","9","Female","","","","","","","null","<div style=""font-size:60px;"">+</div>","null","fixation","","","","","","","","","","","",""
"revaluation","45","300749","0.0-3.0-8.0-0.3","spark_pilot_norest","11452","1","9","Female","","false","","","","","[696.8000000119209,622.1000000238419]","./assets/img/space/9.jpg","[""ArrowDown"",""ArrowRight""]","full practice","space","23","{""ArrowUp,ArrowLeft"":3,""ArrowUp,ArrowRight"":36,""ArrowDown,ArrowLeft"":15,""ArrowDown,ArrowRight"":23}","false","ArrowDown,ArrowRight","false","","","","","",""
"html-keyboard-response","46","301260","0.0-3.0-8.0-1.3","spark_pilot_norest","11452","1","9","Female","","","","","","","null","<div style=""font-size:60px;"">+</div>","null","fixation","","","","","","","","","","","",""
"revaluation","47","307279","0.0-3.0-8.0-0.4","spark_pilot_norest","11452","1","9","Female","","false","","","","","[803.2000000476837,504.2999999523163]","./assets/img/space/10.jpg","[""ArrowUp"",""ArrowLeft""]","full practice","space","3","{""ArrowUp,ArrowLeft"":3,""ArrowUp,ArrowRight"":36,""ArrowDown,ArrowLeft"":15,""ArrowDown,ArrowRight"":23}","false","ArrowUp,ArrowLeft","false","","","","","",""
"html-keyboard-response","48","307782","0.0-3.0-8.0-1.4","spark_pilot_norest","11452","1","9","Female","","","","","","","null","<div style=""font-size:60px;"">+</div>","null","fixation","","","","","","","","","","","",""
"learning-instructions","49","320479","0.0-3.0-9.0-0.0","spark_pilot_norest","11452","1","9","Female","","","","","","","1308.699999988079","<p> One last thing: sometimes, you will see a robber. The robber can be anywhere in the picture. </p>
            <p> If you do not stop them, you will lose treasure. </p>
            <img src='./assets/img/instructions/robber.jpg' class='instructions-image'>","","instructions","","","","","","","","","","","",""
"learning-instructions","50","332054","0.0-3.0-9.0-0.1","spark_pilot_norest","11452","1","9","Female","","","","","","","3484.199999988079","<p> If you see the robber, you should <b>press the space bar</b> rather than using the arrow keys. </p>
            <p> Try practicing that now! </p>","","instructions","","","","","","","","","","","",""
"revaluation","51","336085","0.0-3.0-10.0-0.0","spark_pilot_norest","11452","1","9","Female","","false","","","","","[943.5]","./assets/img/space/catch/0.jpg","[""spaceBar""]","catch practice","space","0","{""ArrowUp,ArrowLeft"":3,""ArrowUp,ArrowRight"":36,""ArrowDown,ArrowLeft"":15,""ArrowDown,ArrowRight"":23}","true","spaceBar","true","","","","","",""
"html-keyboard-response","52","336592","0.0-3.0-10.0-1.0","spark_pilot_norest","11452","1","9","Female","","","","","","","null","<div style=""font-size:60px;"">+</div>","null","fixation","","","","","","","","","","","",""
"revaluation","53","340617","0.0-3.0-10.0-0.1","spark_pilot_norest","11452","1","9","Female","","false","","","","","[684]","./assets/img/space/catch/1.jpg","[""spaceBar""]","catch practice","space","0","{""ArrowUp,ArrowLeft"":3,""ArrowUp,ArrowRight"":36,""ArrowDown,ArrowLeft"":15,""ArrowDown,ArrowRight"":23}","true","spaceBar","true","","","","","",""
"html-keyboard-response","54","341126","0.0-3.0-10.0-1.1","spark_pilot_norest","11452","1","9","Female","","","","","","","null","<div style=""font-size:60px;"">+</div>","null","fixation","","","","","","","","","","","",""
"revaluation","55","345146","0.0-3.0-10.0-0.2","spark_pilot_norest","11452","1","9","Female","","false","","","","","[649.8000000119209]","./assets/img/space/catch/2.jpg","[""spaceBar""]","catch practice","space","0","{""ArrowUp,ArrowLeft"":3,""ArrowUp,ArrowRight"":36,""ArrowDown,ArrowLeft"":15,""ArrowDown,ArrowRight"":23}","true","spaceBar","true","","","","","",""
"html-keyboard-response","56","345654","0.0-3.0-10.0-1.2","spark_pilot_norest","11452","1","9","Female","","","","","","","null","<div style=""font-size:60px;"">+</div>","null","fixation","","","","","","","","","","","",""
"learning-instructions","57","353384","0.0-3.0-11.0-0.0-0.0","spark_pilot_norest","11452","1","9","Female","","","","","","","1504.800000011921","<p> Now, you will practice a shortened version of the game to get a sense of how it all fits together. </p>","","instructions","","","","","","","","","","","",""
"learning-instructions","58","358703","0.0-3.0-11.0-0.0-0.1","spark_pilot_norest","11452","1","9","Female","","","","","","","1333.5","<p>This time you are searching for treasure in outer space.</p>","","instructions","","","","","","","","","","","",""
"learning-instructions","59","376410","0.0-3.0-11.0-1.0-0.0","spark_pilot_norest","11452","1","9","Female","","","","","","","2930.800000011921","<p> Remember, when you see a picture of the place, use the up and down keys to <b>find an animal</b>.</p>
            <p> When you encounter an animal, you should use the left and right keys to <b>select a treasure chest</b>.</p>
            <p> Don't forget to look out for the robber! </p>","","instructions","","","","","","","","","","","",""
"revaluation","60","382431","0.0-3.0-11.0-2.0-0.0","spark_pilot_norest","11452","1","9","Female","","false","","","","","[1626,747.1999999880791]","./assets/img/space/11.jpg","[""ArrowUp"",""ArrowRight""]","practice block","space","36","{""ArrowUp,ArrowLeft"":3,""ArrowUp,ArrowRight"":36,""ArrowDown,ArrowLeft"":15,""ArrowDown,ArrowRight"":23}","true","ArrowUp,ArrowRight","false","","","","","",""
"html-keyboard-response","61","382942","0.0-3.0-11.0-2.0-1.0","spark_pilot_norest","11452","1","9","Female","","","","","","","null","<div style=""font-size:60px;"">+</div>","null","fixation","","","","","","","","","","","",""
"revaluation","62","388980","0.0-3.0-11.0-2.0-0.1","spark_pilot_norest","11452","1","9","Female","","false","","","","","[952.1999999880791,385.7999999523163]","./assets/img/space/12.jpg","[""ArrowUp"",""ArrowLeft""]","practice block","space","3","{""ArrowUp,ArrowLeft"":3,""ArrowUp,ArrowRight"":36,""ArrowDown,ArrowLeft"":15,""ArrowDown,ArrowRight"":23}","false","ArrowUp,ArrowLeft","false","","","","","",""
"html-keyboard-response","63","389490","0.0-3.0-11.0-2.0-1.1","spark_pilot_norest","11452","1","9","Female","","","","","","","null","<div style=""font-size:60px;"">+</div>","null","fixation","","","","","","","","","","","",""
"revaluation","64","395510","0.0-3.0-11.0-2.0-0.2","spark_pilot_norest","11452","1","9","Female","","false","","","","","[702.1000000238419,421]","./assets/img/space/13.jpg","[""ArrowDown"",""ArrowLeft""]","practice block","space","15","{""ArrowUp,ArrowLeft"":3,""ArrowUp,ArrowRight"":36,""ArrowDown,ArrowLeft"":15,""ArrowDown,ArrowRight"":23}","false","ArrowDown,ArrowLeft","false","","","","","",""
"html-keyboard-response","65","396024","0.0-3.0-11.0-2.0-1.2","spark_pilot_norest","11452","1","9","Female","","","","","","","null","<div style=""font-size:60px;"">+</div>","null","fixation","","","","","","","","","","","",""
"revaluation","66","402057","0.0-3.0-11.0-2.0-0.3","spark_pilot_norest","11452","1","9","Female","","false","","","","","[502.80000001192093,414]","./assets/img/space/14.jpg","[""ArrowUp"",""ArrowRight""]","practice block","space","36","{""ArrowUp,ArrowLeft"":3,""ArrowUp,ArrowRight"":36,""ArrowDown,ArrowLeft"":15,""ArrowDown,ArrowRight"":23}","true","ArrowUp,ArrowRight","false","","","","","",""
"html-keyboard-response","67","402569","0.0-3.0-11.0-2.0-1.3","spark_pilot_norest","11452","1","9","Female","","","","","","","null","<div style=""font-size:60px;"">+</div>","null","fixation","","","","","","","","","","","",""
"revaluation","68","408581","0.0-3.0-11.0-2.0-0.4","spark_pilot_norest","11452","1","9","Female","","false","","","","","[533.0999999642372,495.60000002384186]","./assets/img/space/11.jpg","[""ArrowDown"",""ArrowRight""]","practice block","space","23","{""ArrowUp,ArrowLeft"":3,""ArrowUp,ArrowRight"":36,""ArrowDown,ArrowLeft"":15,""ArrowDown,ArrowRight"":23}","false","ArrowDown,ArrowRight","false","","","","","",""
"html-keyboard-response","69","409098","0.0-3.0-11.0-2.0-1.4","spark_pilot_norest","11452","1","9","Female","","","","","","","null","<div style=""font-size:60px;"">+</div>","null","fixation","","","","","","","","","","","",""
"revaluation","70","415111","0.0-3.0-11.0-2.0-0.5","spark_pilot_norest","11452","1","9","Female","","false","","","","","[1803.1000000238419,494.60000002384186]","./assets/img/space/12.jpg","[""ArrowUp"",""ArrowRight""]","practice block","space","36","{""ArrowUp,ArrowLeft"":3,""ArrowUp,ArrowRight"":36,""ArrowDown,ArrowLeft"":15,""ArrowDown,ArrowRight"":23}","true","ArrowUp,ArrowRight","false","","","","","",""
"html-keyboard-response","71","415614","0.0-3.0-11.0-2.0-1.5","spark_pilot_norest","11452","1","9","Female","","","","","","","null","<div style=""font-size:60px;"">+</div>","null","fixation","","","","","","","","","","","",""
"revaluation","72","421625","0.0-3.0-11.0-2.0-0.6","spark_pilot_norest","11452","1","9","Female","","false","","","","","[1118.300000011921,387.19999998807907]","./assets/img/space/13.jpg","[""ArrowUp"",""ArrowLeft""]","practice block","space","3","{""ArrowUp,ArrowLeft"":3,""ArrowUp,ArrowRight"":36,""ArrowDown,ArrowLeft"":15,""ArrowDown,ArrowRight"":23}","false","ArrowUp,ArrowLeft","false","","","","","",""
"html-keyboard-response","73","422127","0.0-3.0-11.0-2.0-1.6","spark_pilot_norest","11452","1","9","Female","","","","","","","null","<div style=""font-size:60px;"">+</div>","null","fixation","","","","","","","","","","","",""
"revaluation","74","428138","0.0-3.0-11.0-2.0-0.7","spark_pilot_norest","11452","1","9","Female","","false","","","","","[429.69999998807907,588.4000000357628]","./assets/img/space/14.jpg","[""ArrowDown"",""ArrowRight""]","practice block","space","23","{""ArrowUp,ArrowLeft"":3,""ArrowUp,ArrowRight"":36,""ArrowDown,ArrowLeft"":15,""ArrowDown,ArrowRight"":23}","false","ArrowDown,ArrowRight","false","","","","","",""
"html-keyboard-response","75","428641","0.0-3.0-11.0-2.0-1.7","spark_pilot_norest","11452","1","9","Female","","","","","","","null","<div style=""font-size:60px;"">+</div>","null","fixation","","","","","","","","","","","",""
"revaluation","76","432651","0.0-3.0-11.0-2.0-0.8","spark_pilot_norest","11452","1","9","Female","","false","","","","","[1349.300000011921]","./assets/img/space/catch/3.jpg","[""spaceBar""]","practice block","space","0","{""ArrowUp,ArrowLeft"":3,""ArrowUp,ArrowRight"":36,""ArrowDown,ArrowLeft"":15,""ArrowDown,ArrowRight"":23}","true","spaceBar","true","","","","","",""
"html-keyboard-response","77","433160","0.0-3.0-11.0-2.0-1.8","spark_pilot_norest","11452","1","9","Female","","","","","","","null","<div style=""font-size:60px;"">+</div>","null","fixation","","","","","","","","","","","",""
"learning-instructions","78","450935","0.0-3.0-11.0-3.0-0.0","spark_pilot_norest","11452","1","9","Female","","","","","","","3656.899999976158","<p> Now, you will travel with a friend who will choose whether you go up or down first. </p>
            <p> On these turns, you will just see the animal that they found. You will still get to choose which chest to search for treasure.</p>","","instructions","","","","","","","","","","","",""
"revaluation","79","454958","0.0-3.0-11.0-4.0-0.0","spark_pilot_norest","11452","1","9","Female","","false","","","","","[925.1000000238419]","./assets/img/space/animals/cat.jpg","[""ArrowRight""]","practice block","space","36","{""ArrowUp,ArrowLeft"":3,""ArrowUp,ArrowRight"":36,""ArrowDown,ArrowLeft"":15,""ArrowDown,ArrowRight"":23}","true","ArrowUp,ArrowRight","","","","","","",""
"html-keyboard-response","80","455470","0.0-3.0-11.0-4.0-1.0","spark_pilot_norest","11452","1","9","Female","","","","","","","null","<div style=""font-size:60px;"">+</div>","null","fixation","","","","","","","","","","","",""
"revaluation","81","459484","0.0-3.0-11.0-4.0-0.1","spark_pilot_norest","11452","1","9","Female","","false","","","","","[566.3000000119209]","./assets/img/space/animals/cat.jpg","[""ArrowLeft""]","practice block","space","3","{""ArrowUp,ArrowLeft"":3,""ArrowUp,ArrowRight"":36,""ArrowDown,ArrowLeft"":15,""ArrowDown,ArrowRight"":23}","false","ArrowUp,ArrowLeft","","","","","","",""
"html-keyboard-response","82","459993","0.0-3.0-11.0-4.0-1.1","spark_pilot_norest","11452","1","9","Female","","","","","","","null","<div style=""font-size:60px;"">+</div>","null","fixation","","","","","","","","","","","",""
"revaluation","83","464014","0.0-3.0-11.0-4.0-0.2","spark_pilot_norest","11452","1","9","Female","","false","","","","","[551.6000000238419]","./assets/img/space/animals/rabbit.jpg","[""ArrowRight""]","practice block","space","23","{""ArrowUp,ArrowLeft"":3,""ArrowUp,ArrowRight"":36,""ArrowDown,ArrowLeft"":15,""ArrowDown,ArrowRight"":23}","true","ArrowDown,ArrowRight","","","","","","",""
"html-keyboard-response","84","464523","0.0-3.0-11.0-4.0-1.2","spark_pilot_norest","11452","1","9","Female","","","","","","","null","<div style=""font-size:60px;"">+</div>","null","fixation","","","","","","","","","","","",""
"revaluation","85","468552","0.0-3.0-11.0-4.0-0.3","spark_pilot_norest","11452","1","9","Female","","false","","","","","[459.19999998807907]","./assets/img/space/animals/rabbit.jpg","[""ArrowLeft""]","practice block","space","15","{""ArrowUp,ArrowLeft"":3,""ArrowUp,ArrowRight"":36,""ArrowDown,ArrowLeft"":15,""ArrowDown,ArrowRight"":23}","false","ArrowDown,ArrowLeft","","","","","","",""
"html-keyboard-response","86","469061","0.0-3.0-11.0-4.0-1.3","spark_pilot_norest","11452","1","9","Female","","","","","","","null","<div style=""font-size:60px;"">+</div>","null","fixation","","","","","","","","","","","",""
"learning-instructions","87","478118","0.0-3.0-11.0-5.0-0.0","spark_pilot_norest","11452","1","9","Female","","","","","","","null","<p> You have almost finished this part of the game! </p>
            <p> We are going to ask you to make a few more choices. </p>","","instructions","","","","","","","","","","","",""
"learning-instructions","88","495200","0.0-3.0-11.0-5.0-0.1","spark_pilot_norest","11452","1","9","Female","","","","","","","null","<p> First, you need to decide whether to go up or down. When you see each picture, use the arrow keys to make your choice. </p>
            <p><b>You will not see which animal you found, but try to get to the one that will give you the most treasure.</b></p>","","instructions","","","","","","","","","","","",""
"html-keyboard-response","89","496211","0.0-3.0-11.0-6.0-0.0","spark_pilot_norest","11452","1","9","Female","","","","","","","null","<div style=""font-size:100px;color:red;"">Starting in...</div>","null","","","","","","","","","","","","",""
"html-keyboard-response","90","497216","0.0-3.0-11.0-6.0-1.0","spark_pilot_norest","11452","1","9","Female","","","","","","","null","<div style=""font-size:200px;color:red;"">3</div>","null","","","","","","","","","","","","",""
"html-keyboard-response","91","498218","0.0-3.0-11.0-6.0-2.0","spark_pilot_norest","11452","1","9","Female","","","","","","","null","<div style=""font-size:200px;color:red;"">2</div>","null","","","","","","","","","","","","",""
"html-keyboard-response","92","499223","0.0-3.0-11.0-6.0-3.0","spark_pilot_norest","11452","1","9","Female","","","","","","","null","<div style=""font-size:200px;color:red;"">1</div>","null","","","","","","","","","","","","",""
"revaluation","93","500651","0.0-3.0-11.0-7.0","spark_pilot_norest","11452","1","9","Female","","false","","","","","[1418.5]","./assets/img/space/15.jpg","[""ArrowDown""]","practice block","space","0","{""ArrowUp,ArrowLeft"":3,""ArrowUp,ArrowRight"":36,""ArrowDown,ArrowLeft"":15,""ArrowDown,ArrowRight"":23}","false","ArrowDown","false","","","","","",""
"html-keyboard-response","94","501156","0.0-3.0-11.0-8.0","spark_pilot_norest","11452","1","9","Female","","","","","","","null","<div style=""font-size:60px;"">+</div>","null","fixation","","","","","","","","","","","",""
"learning-instructions","95","515594","0.0-3.0-11.0-9.0-0.0","spark_pilot_norest","11452","1","9","Female","","","","","","","null","<p> Now you will see the animals again and can search their chests for treasure. </p>
            <p> This time, you will not see how much treasure you earned, but you will earn more bonus money for making better choices. </p>","","instructions","","","","","","","","","","","",""
"html-keyboard-response","96","516606","0.0-3.0-11.0-10.0-0.0","spark_pilot_norest","11452","1","9","Female","","","","","","","null","<div style=""font-size:100px;color:red;"">Starting in...</div>","null","","","","","","","","","","","","",""
"html-keyboard-response","97","517611","0.0-3.0-11.0-10.0-1.0","spark_pilot_norest","11452","1","9","Female","","","","","","","null","<div style=""font-size:200px;color:red;"">3</div>","null","","","","","","","","","","","","",""
"html-keyboard-response","98","518615","0.0-3.0-11.0-10.0-2.0","spark_pilot_norest","11452","1","9","Female","","","","","","","null","<div style=""font-size:200px;color:red;"">2</div>","null","","","","","","","","","","","","",""
"html-keyboard-response","99","519631","0.0-3.0-11.0-10.0-3.0","spark_pilot_norest","11452","1","9","Female","","","","","","","null","<div style=""font-size:200px;color:red;"">1</div>","null","","","","","","","","","","","","",""
"revaluation","100","520388","0.0-3.0-11.0-11.0-0.0","spark_pilot_norest","11452","1","9","Female","","false","","","","","[747.5]","./assets/img/space/animals/cat.jpg","[""ArrowRight""]","practice block","space","0","{""ArrowUp,ArrowLeft"":3,""ArrowUp,ArrowRight"":36,""ArrowDown,ArrowLeft"":15,""ArrowDown,ArrowRight"":23}","true","ArrowUp,ArrowRight","","","","","","",""
"html-keyboard-response","101","520894","0.0-3.0-11.0-11.0-1.0","spark_pilot_norest","11452","1","9","Female","","","","","","","null","<div style=""font-size:60px;"">+</div>","null","fixation","","","","","","","","","","","",""
"revaluation","102","521706","0.0-3.0-11.0-11.0-0.1","spark_pilot_norest","11452","1","9","Female","","false","","","","","[801.9000000357628]","./assets/img/space/animals/rabbit.jpg","[""ArrowLeft""]","practice block","space","0","{""ArrowUp,ArrowLeft"":3,""ArrowUp,ArrowRight"":36,""ArrowDown,ArrowLeft"":15,""ArrowDown,ArrowRight"":23}","false","ArrowDown,ArrowLeft","","","","","","",""
"html-keyboard-response","103","522214","0.0-3.0-11.0-11.0-1.1","spark_pilot_norest","11452","1","9","Female","","","","","","","null","<div style=""font-size:60px;"">+</div>","null","fixation","","","","","","","","","","","",""
"learning-instructions","104","529175","0.0-3.0-12.0-0.0","spark_pilot_norest","11452","1","9","Female","","","","","","","1567.0999999642372","<p> Before you start, we're going to ask you a few questions about how the game works. </p>","","instructions","","","","","","","","","","","",""
"comp-q","105","539300","0.0-3.0-13.0-0.0-0.0","spark_pilot_norest","11452","1","9","Female","","","","","","","3623.300000011921","<p> <b> True or False? </b> </p>
            <p> There can be 50 pieces of treasure in a given animal's chest. </p>","1","comp_question","","","","true","","","","","","","",""
"comp-q","106","549655","0.0-3.0-13.0-0.0-1.0","spark_pilot_norest","11452","1","9","Female","","","","","","","2767.400000035763","<p> <b> That's right! </b> The amount of treasure in each chest can range from 0 to 40 pieces. </p>","0","comp_answer","","","","","","","","","","","",""
"comp-q","107","559848","0.0-3.0-13.0-0.1-0.1","spark_pilot_norest","11452","1","9","Female","","","","","","","2170.900000035763","<p> <b> True or False? </b> </p><p> In this game, all animals have the same amount of treasure in their left and right chests. </p>","1","comp_question","","","","true","","","","","","","",""
"comp-q","108","568218","0.0-3.0-13.0-0.1-1.1","spark_pilot_norest","11452","1","9","Female","","","","","","","2221.399999976158","<p> <b> That's right! </b> Animals have different amounts of treasure in their treasure chests. </p>","0","comp_answer","","","","","","","","","","","",""
"comp-q","109","576766","0.0-3.0-13.0-0.2-0.2","spark_pilot_norest","11452","1","9","Female","","","","","","","1818.6000000238419","<p> <b> True or False? </b> </p><p> The same animal will always be there if you go up in the same place. </p>","1","comp_question","","","","false","","","","","","","",""
"comp-q","110","584852","0.0-3.0-13.0-0.2-1.2","spark_pilot_norest","11452","1","9","Female","","","","","","","875.3000000119209","<p> <b>Incorrect.</b> One animal lives in the upper part and one lives in the lower part of every place. </p>","0","comp_answer","","","","","","","","","","","",""
"comp-q","111","591606","0.0-3.0-13.0-0.3-0.3","spark_pilot_norest","11452","1","9","Female","","","","","","","938.6999999880791","<p> <b> True or False? </b> </p><p> The same animal will always be there if you go up in the same place. </p>","0","comp_question","","","","true","","","","","","","",""
"comp-q","112","602959","0.0-3.0-13.0-0.3-1.3","spark_pilot_norest","11452","1","9","Female","","","","","","","3992.400000035763","<p> <b> That's right! </b> One animal lives in the upper part and one lives in the lower part of every place. </p>","0","comp_answer","","","","","","","","","","","",""
"comp-q","113","612408","0.0-3.0-13.0-0.4-0.4","spark_pilot_norest","11452","1","9","Female","","","","","","","2991.600000023842","<p> <b> True or False? </b> </p><p> If you see a different picture, it means you are in a new place. </p>","1","comp_question","","","","true","","","","","","","",""
"comp-q","114","625769","0.0-3.0-13.0-0.4-1.4","spark_pilot_norest","11452","1","9","Female","","","","","","","1121","<p> <b> That's right! </b> Lots of different images may show the same place. For example,  you may see three different images that all remind you that you are in outer space. </p>","0","comp_answer","","","","","","","","","","","",""
"learning-instructions","115","639614","0.0-3.0-14.0-0.0","spark_pilot_norest","11452","1","9","Female","","","","","","","3006.900000035763","<p> Good job. Remember to do your best because the amount of treasure you earn will be converted into bonus money. </p>
            <p> It’s time to start the real game! </p>","","instructions","","","","","","","","","","","",""
"learning-instructions","116","644491","0.0-4.0-0.0-0.0","spark_pilot_norest","11452","1","9","Female","","","","","","","1393.6000000238419","<p> This time you are searching for treasure in the <b>ocean</b>.</p>","","instructions","","","","","","","","","","","",""
"learning-instructions","117","664716","0.0-4.0-0.0-0.1","spark_pilot_norest","11452","1","9","Female","","","","","","","1769.7000000476837","<p><b>New</b> animals with <b>new</b> treasure chests live here. You need to explore to discover where the animal with the best treasure chest is.</p>
                    <p> Like before, once you figure out which animal has the chest with the most treasure, you should try to get to that animal and select that chest! </p>","","instructions","","","","","","","","","","","",""
"learning-instructions","118","681344","0.0-4.0-1.0-0.0","spark_pilot_norest","11452","1","9","Female","","","","","","","1887.0999999642372","<p> Remember, when you see a picture of the place, use the up and down keys to <b>find an animal</b>.</p>
            <p> When you encounter an animal, you should use the left and right keys to <b>select a treasure chest</b>.</p>
            <p> Don't forget to look out for the robber! </p>","","instructions","","","","","","","","","","","",""
"revaluation","119","685359","0.0-4.0-2.0-0.0","spark_pilot_norest","11452","1","9","Female","","false","","","","","[1347.199999988079]","./assets/img/ocean/catch/6.jpg","[""spaceBar""]","value training","ocean","0","{""ArrowUp,ArrowLeft"":26,""ArrowUp,ArrowRight"":10,""ArrowDown,ArrowLeft"":5,""ArrowDown,ArrowRight"":17}","true","spaceBar","true","original","1","0","","",""
"html-keyboard-response","120","685885","0.0-4.0-2.0-1.0","spark_pilot_norest","11452","1","9","Female","","","","","","","null","<div style=""font-size:60px;"">+</div>","null","fixation","","","","","","","","","1","","",""
"revaluation","121","689912","0.0-4.0-2.0-0.1","spark_pilot_norest","11452","1","9","Female","","false","","","","","[812.8000000119209]","./assets/img/ocean/catch/1.jpg","[""spaceBar""]","value training","ocean","0","{""ArrowUp,ArrowLeft"":26,""ArrowUp,ArrowRight"":10,""ArrowDown,ArrowLeft"":5,""ArrowDown,ArrowRight"":17}","true","spaceBar","true","original","1","2","","",""
"html-keyboard-response","122","690429","0.0-4.0-2.0-1.1","spark_pilot_norest","11452","1","9","Female","","","","","","","null","<div style=""font-size:60px;"">+</div>","null","fixation","","","","","","","","","3","","",""
"revaluation","123","696463","0.0-4.0-2.0-0.2","spark_pilot_norest","11452","1","9","Female","","false","","","","","[833.3000000119209,809.8999999761581]","./assets/img/ocean/memory/5.jpg","[""ArrowUp"",""ArrowLeft""]","value training","ocean","26","{""ArrowUp,ArrowLeft"":26,""ArrowUp,ArrowRight"":10,""ArrowDown,ArrowLeft"":5,""ArrowDown,ArrowRight"":17}","true","ArrowUp,ArrowLeft","false","original","1","4","","",""
"html-keyboard-response","124","696973","0.0-4.0-2.0-1.2","spark_pilot_norest","11452","1","9","Female","","","","","","","null","<div style=""font-size:60px;"">+</div>","null","fixation","","","","","","","","","5","","",""
"revaluation","125","703001","0.0-4.0-2.0-0.3","spark_pilot_norest","11452","1","9","Female","","false","","","","","[830.3000000119209,730.6000000238419]","./assets/img/ocean/memory/13.jpg","[""ArrowUp"",""ArrowRight""]","value training","ocean","10","{""ArrowUp,ArrowLeft"":26,""ArrowUp,ArrowRight"":10,""ArrowDown,ArrowLeft"":5,""ArrowDown,ArrowRight"":17}","false","ArrowUp,ArrowRight","false","original","1","6","","",""
"html-keyboard-response","126","703509","0.0-4.0-2.0-1.3","spark_pilot_norest","11452","1","9","Female","","","","","","","null","<div style=""font-size:60px;"">+</div>","null","fixation","","","","","","","","","7","","",""
"revaluation","127","709544","0.0-4.0-2.0-0.4","spark_pilot_norest","11452","1","9","Female","","false","","","","","[875.0999999642372,1125.7999999523163]","./assets/img/ocean/memory/26.jpg","[""ArrowDown"",""ArrowLeft""]","value training","ocean","5","{""ArrowUp,ArrowLeft"":26,""ArrowUp,ArrowRight"":10,""ArrowDown,ArrowLeft"":5,""ArrowDown,ArrowRight"":17}","false","ArrowDown,ArrowLeft","false","original","1","8","","",""
"html-keyboard-response","128","710046","0.0-4.0-2.0-1.4","spark_pilot_norest","11452","1","9","Female","","","","","","","null","<div style=""font-size:60px;"">+</div>","null","fixation","","","","","","","","","9","","",""
"revaluation","129","716058","0.0-4.0-2.0-0.5","spark_pilot_norest","11452","1","9","Female","","false","","","","","[818.8000000119209,1005.1999999880791]","./assets/img/ocean/memory/17.jpg","[""ArrowDown"",""ArrowRight""]","value training","ocean","17","{""ArrowUp,ArrowLeft"":26,""ArrowUp,ArrowRight"":10,""ArrowDown,ArrowLeft"":5,""ArrowDown,ArrowRight"":17}","false","ArrowDown,ArrowRight","false","original","1","10","","",""
"html-keyboard-response","130","716561","0.0-4.0-2.0-1.5","spark_pilot_norest","11452","1","9","Female","","","","","","","null","<div style=""font-size:60px;"">+</div>","null","fixation","","","","","","","","","11","","",""
"revaluation","131","722572","0.0-4.0-2.0-0.6","spark_pilot_norest","11452","1","9","Female","","false","","","","","[874.7999999523163,510.2000000476837]","./assets/img/ocean/memory/5.jpg","[""ArrowDown"",""ArrowRight""]","value training","ocean","17","{""ArrowUp,ArrowLeft"":26,""ArrowUp,ArrowRight"":10,""ArrowDown,ArrowLeft"":5,""ArrowDown,ArrowRight"":17}","false","ArrowDown,ArrowRight","false","original","1","12","","",""
"html-keyboard-response","132","723075","0.0-4.0-2.0-1.6","spark_pilot_norest","11452","1","9","Female","","","","","","","null","<div style=""font-size:60px;"">+</div>","null","fixation","","","","","","","","","13","","",""
"revaluation","133","729084","0.0-4.0-2.0-0.7","spark_pilot_norest","11452","1","9","Female","","false","","","","","[985.4000000357628,802.9000000357628]","./assets/img/ocean/memory/27.jpg","[""ArrowDown"",""ArrowRight""]","value training","ocean","17","{""ArrowUp,ArrowLeft"":26,""ArrowUp,ArrowRight"":10,""ArrowDown,ArrowLeft"":5,""ArrowDown,ArrowRight"":17}","false","ArrowDown,ArrowRight","false","original","1","14","","",""
"html-keyboard-response","134","729588","0.0-4.0-2.0-1.7","spark_pilot_norest","11452","1","9","Female","","","","","","","null","<div style=""font-size:60px;"">+</div>","null","fixation","","","","","","","","","15","","",""
"revaluation","135","735608","0.0-4.0-2.0-0.8","spark_pilot_norest","11452","1","9","Female","","false","","","","","[1005.2000000476837,577.4000000357628]","./assets/img/ocean/memory/16.jpg","[""ArrowDown"",""ArrowLeft""]","value training","ocean","5","{""ArrowUp,ArrowLeft"":26,""ArrowUp,ArrowRight"":10,""ArrowDown,ArrowLeft"":5,""ArrowDown,ArrowRight"":17}","false","ArrowDown,ArrowLeft","false","original","1","16","","",""
"html-keyboard-response","136","736110","0.0-4.0-2.0-1.8","spark_pilot_norest","11452","1","9","Female","","","","","","","null","<div style=""font-size:60px;"">+</div>","null","fixation","","","","","","","","","17","","",""
"revaluation","137","740120","0.0-4.0-2.0-0.9","spark_pilot_norest","11452","1","9","Female","","false","","","","","[835.6000000238419]","./assets/img/ocean/catch/7.jpg","[""ArrowDown""]","value training","ocean","-10","{""ArrowUp,ArrowLeft"":26,""ArrowUp,ArrowRight"":10,""ArrowDown,ArrowLeft"":5,""ArrowDown,ArrowRight"":17}","false","ArrowDown","true","original","1","18","","",""
"html-keyboard-response","138","740622","0.0-4.0-2.0-1.9","spark_pilot_norest","11452","1","9","Female","","","","","","","null","<div style=""font-size:60px;"">+</div>","null","fixation","","","","","","","","","19","","",""
"revaluation","139","746633","0.0-4.0-2.0-0.10","spark_pilot_norest","11452","1","9","Female","","false","","","","","[1391.5999999642372,817.9000000357628]","./assets/img/ocean/memory/11.jpg","[""ArrowUp"",""ArrowRight""]","value training","ocean","10","{""ArrowUp,ArrowLeft"":26,""ArrowUp,ArrowRight"":10,""ArrowDown,ArrowLeft"":5,""ArrowDown,ArrowRight"":17}","false","ArrowUp,ArrowRight","false","original","1","20","","",""
"html-keyboard-response","140","747136","0.0-4.0-2.0-1.10","spark_pilot_norest","11452","1","9","Female","","","","","","","null","<div style=""font-size:60px;"">+</div>","null","fixation","","","","","","","","","21","","",""
"revaluation","141","751146","0.0-4.0-2.0-0.11","spark_pilot_norest","11452","1","9","Female","","true","","","","","[]","./assets/img/ocean/memory/36.jpg","[]","value training","ocean","-5","{""ArrowUp,ArrowLeft"":26,""ArrowUp,ArrowRight"":10,""ArrowDown,ArrowLeft"":5,""ArrowDown,ArrowRight"":17}","false","","false","original","1","22","","",""
"html-keyboard-response","142","751648","0.0-4.0-2.0-1.11","spark_pilot_norest","11452","1","9","Female","","","","","","","null","<div style=""font-size:60px;"">+</div>","null","fixation","","","","","","","","","23","","",""
"revaluation","143","757660","0.0-4.0-2.0-0.12","spark_pilot_norest","11452","1","9","Female","","false","","","","","[528.1999999880791,659.1000000238419]","./assets/img/ocean/memory/37.jpg","[""ArrowDown"",""ArrowRight""]","value training","ocean","17","{""ArrowUp,ArrowLeft"":26,""ArrowUp,ArrowRight"":10,""ArrowDown,ArrowLeft"":5,""ArrowDown,ArrowRight"":17}","false","ArrowDown,ArrowRight","false","original","1","24","","",""
"html-keyboard-response","144","758163","0.0-4.0-2.0-1.12","spark_pilot_norest","11452","1","9","Female","","","","","","","null","<div style=""font-size:60px;"">+</div>","null","fixation","","","","","","","","","25","","",""
"revaluation","145","764173","0.0-4.0-2.0-0.13","spark_pilot_norest","11452","1","9","Female","","false","","","","","[960.8000000119209,429]","./assets/img/ocean/memory/27.jpg","[""ArrowDown"",""ArrowRight""]","value training","ocean","17","{""ArrowUp,ArrowLeft"":26,""ArrowUp,ArrowRight"":10,""ArrowDown,ArrowLeft"":5,""ArrowDown,ArrowRight"":17}","false","ArrowDown,ArrowRight","false","original","1","26","","",""
"html-keyboard-response","146","764675","0.0-4.0-2.0-1.13","spark_pilot_norest","11452","1","9","Female","","","","","","","null","<div style=""font-size:60px;"">+</div>","null","fixation","","","","","","","","","27","","",""
"revaluation","147","770687","0.0-4.0-2.0-0.14","spark_pilot_norest","11452","1","9","Female","","false","","","","","[1471.3999999761581,531.3999999761581]","./assets/img/ocean/memory/29.jpg","[""ArrowDown"",""ArrowRight""]","value training","ocean","17","{""ArrowUp,ArrowLeft"":26,""ArrowUp,ArrowRight"":10,""ArrowDown,ArrowLeft"":5,""ArrowDown,ArrowRight"":17}","false","ArrowDown,ArrowRight","false","original","1","28","","",""
"html-keyboard-response","148","771190","0.0-4.0-2.0-1.14","spark_pilot_norest","11452","1","9","Female","","","","","","","null","<div style=""font-size:60px;"">+</div>","null","fixation","","","","","","","","","29","","",""
"revaluation","149","777201","0.0-4.0-2.0-0.15","spark_pilot_norest","11452","1","9","Female","","false","","","","","[798.8999999761581,383.80000001192093]","./assets/img/ocean/memory/1.jpg","[""ArrowDown"",""ArrowRight""]","value training","ocean","17","{""ArrowUp,ArrowLeft"":26,""ArrowUp,ArrowRight"":10,""ArrowDown,ArrowLeft"":5,""ArrowDown,ArrowRight"":17}","false","ArrowDown,ArrowRight","false","original","1","30","","",""
"html-keyboard-response","150","777704","0.0-4.0-2.0-1.15","spark_pilot_norest","11452","1","9","Female","","","","","","","null","<div style=""font-size:60px;"">+</div>","null","fixation","","","","","","","","","31","","",""
"revaluation","151","781727","0.0-4.0-2.0-0.16","spark_pilot_norest","11452","1","9","Female","","false","","","","","[702.3000000119209]","./assets/img/ocean/catch/0.jpg","[""spaceBar""]","value training","ocean","0","{""ArrowUp,ArrowLeft"":26,""ArrowUp,ArrowRight"":10,""ArrowDown,ArrowLeft"":5,""ArrowDown,ArrowRight"":17}","true","spaceBar","true","original","1","32","","",""
"html-keyboard-response","152","782230","0.0-4.0-2.0-1.16","spark_pilot_norest","11452","1","9","Female","","","","","","","null","<div style=""font-size:60px;"">+</div>","null","fixation","","","","","","","","","33","","",""
"revaluation","153","788242","0.0-4.0-2.0-0.17","spark_pilot_norest","11452","1","9","Female","","false","","","","","[1158.4000000357628,394]","./assets/img/ocean/memory/40.jpg","[""ArrowDown"",""ArrowRight""]","value training","ocean","17","{""ArrowUp,ArrowLeft"":26,""ArrowUp,ArrowRight"":10,""ArrowDown,ArrowLeft"":5,""ArrowDown,ArrowRight"":17}","false","ArrowDown,ArrowRight","false","original","1","34","","",""
"html-keyboard-response","154","788745","0.0-4.0-2.0-1.17","spark_pilot_norest","11452","1","9","Female","","","","","","","null","<div style=""font-size:60px;"">+</div>","null","fixation","","","","","","","","","35","","",""
"revaluation","155","792754","0.0-4.0-2.0-0.18","spark_pilot_norest","11452","1","9","Female","","false","","","","","[933.3999999761581]","./assets/img/ocean/catch/3.jpg","[""spaceBar""]","value training","ocean","0","{""ArrowUp,ArrowLeft"":26,""ArrowUp,ArrowRight"":10,""ArrowDown,ArrowLeft"":5,""ArrowDown,ArrowRight"":17}","true","spaceBar","true","original","1","36","","",""
"html-keyboard-response","156","793256","0.0-4.0-2.0-1.18","spark_pilot_norest","11452","1","9","Female","","","","","","","null","<div style=""font-size:60px;"">+</div>","null","fixation","","","","","","","","","37","","",""
"revaluation","157","799266","0.0-4.0-2.0-0.19","spark_pilot_norest","11452","1","9","Female","","false","","","","","[802.8000000119209,398.69999998807907]","./assets/img/ocean/memory/25.jpg","[""ArrowDown"",""ArrowLeft""]","value training","ocean","5","{""ArrowUp,ArrowLeft"":26,""ArrowUp,ArrowRight"":10,""ArrowDown,ArrowLeft"":5,""ArrowDown,ArrowRight"":17}","false","ArrowDown,ArrowLeft","false","original","1","38","","",""
"html-keyboard-response","158","799769","0.0-4.0-2.0-1.19","spark_pilot_norest","11452","1","9","Female","","","","","","","null","<div style=""font-size:60px;"">+</div>","null","fixation","","","","","","","","","39","","",""
"revaluation","159","805790","0.0-4.0-2.0-0.20","spark_pilot_norest","11452","1","9","Female","","false","","","","","[1171,427.30000001192093]","./assets/img/ocean/memory/9.jpg","[""ArrowDown"",""ArrowRight""]","value training","ocean","17","{""ArrowUp,ArrowLeft"":26,""ArrowUp,ArrowRight"":10,""ArrowDown,ArrowLeft"":5,""ArrowDown,ArrowRight"":17}","false","ArrowDown,ArrowRight","false","original","1","40","","",""
"html-keyboard-response","160","806292","0.0-4.0-2.0-1.20","spark_pilot_norest","11452","1","9","Female","","","","","","","null","<div style=""font-size:60px;"">+</div>","null","fixation","","","","","","","","","41","","",""
"revaluation","161","812302","0.0-4.0-2.0-0.21","spark_pilot_norest","11452","1","9","Female","","false","","","","","[1436,664.8999999761581]","./assets/img/ocean/memory/24.jpg","[""ArrowDown"",""ArrowRight""]","value training","ocean","17","{""ArrowUp,ArrowLeft"":26,""ArrowUp,ArrowRight"":10,""ArrowDown,ArrowLeft"":5,""ArrowDown,ArrowRight"":17}","false","ArrowDown,ArrowRight","false","original","1","42","","",""
"html-keyboard-response","162","812806","0.0-4.0-2.0-1.21","spark_pilot_norest","11452","1","9","Female","","","","","","","null","<div style=""font-size:60px;"">+</div>","null","fixation","","","","","","","","","43","","",""
"revaluation","163","818817","0.0-4.0-2.0-0.22","spark_pilot_norest","11452","1","9","Female","","false","","","","","[1070,466.30000001192093]","./assets/img/ocean/memory/41.jpg","[""ArrowDown"",""ArrowLeft""]","value training","ocean","5","{""ArrowUp,ArrowLeft"":26,""ArrowUp,ArrowRight"":10,""ArrowDown,ArrowLeft"":5,""ArrowDown,ArrowRight"":17}","false","ArrowDown,ArrowLeft","false","original","1","44","","",""
"html-keyboard-response","164","819320","0.0-4.0-2.0-1.22","spark_pilot_norest","11452","1","9","Female","","","","","","","null","<div style=""font-size:60px;"">+</div>","null","fixation","","","","","","","","","45","","",""
"revaluation","165","825332","0.0-4.0-2.0-0.23","spark_pilot_norest","11452","1","9","Female","","false","","","","","[981.1999999880791,712.3999999761581]","./assets/img/ocean/memory/11.jpg","[""ArrowUp"",""ArrowRight""]","value training","ocean","10","{""ArrowUp,ArrowLeft"":26,""ArrowUp,ArrowRight"":10,""ArrowDown,ArrowLeft"":5,""ArrowDown,ArrowRight"":17}","false","ArrowUp,ArrowRight","false","original","1","46","","",""
"html-keyboard-response","166","825834","0.0-4.0-2.0-1.23","spark_pilot_norest","11452","1","9","Female","","","","","","","null","<div style=""font-size:60px;"">+</div>","null","fixation","","","","","","","","","47","","",""
"revaluation","167","831848","0.0-4.0-2.0-0.24","spark_pilot_norest","11452","1","9","Female","","false","","","","","[772.8000000119209,513.6000000238419]","./assets/img/ocean/memory/12.jpg","[""ArrowDown"",""ArrowLeft""]","value training","ocean","5","{""ArrowUp,ArrowLeft"":26,""ArrowUp,ArrowRight"":10,""ArrowDown,ArrowLeft"":5,""ArrowDown,ArrowRight"":17}","false","ArrowDown,ArrowLeft","false","original","1","48","","",""
"html-keyboard-response","168","832351","0.0-4.0-2.0-1.24","spark_pilot_norest","11452","1","9","Female","","","","","","","null","<div style=""font-size:60px;"">+</div>","null","fixation","","","","","","","","","49","","",""
"revaluation","169","838362","0.0-4.0-2.0-0.25","spark_pilot_norest","11452","1","9","Female","","false","","","","","[1068.1000000238419,510.5999999642372]","./assets/img/ocean/memory/1.jpg","[""ArrowUp"",""ArrowRight""]","value training","ocean","10","{""ArrowUp,ArrowLeft"":26,""ArrowUp,ArrowRight"":10,""ArrowDown,ArrowLeft"":5,""ArrowDown,ArrowRight"":17}","false","ArrowUp,ArrowRight","false","original","1","50","","",""
"html-keyboard-response","170","838866","0.0-4.0-2.0-1.25","spark_pilot_norest","11452","1","9","Female","","","","","","","null","<div style=""font-size:60px;"">+</div>","null","fixation","","","","","","","","","51","","",""
"revaluation","171","844878","0.0-4.0-2.0-0.26","spark_pilot_norest","11452","1","9","Female","","false","","","","","[786.6000000238419,696.4000000357628]","./assets/img/ocean/memory/22.jpg","[""ArrowDown"",""ArrowLeft""]","value training","ocean","5","{""ArrowUp,ArrowLeft"":26,""ArrowUp,ArrowRight"":10,""ArrowDown,ArrowLeft"":5,""ArrowDown,ArrowRight"":17}","false","ArrowDown,ArrowLeft","false","original","1","52","","",""
"html-keyboard-response","172","845380","0.0-4.0-2.0-1.26","spark_pilot_norest","11452","1","9","Female","","","","","","","null","<div style=""font-size:60px;"">+</div>","null","fixation","","","","","","","","","53","","",""
"revaluation","173","851390","0.0-4.0-2.0-0.27","spark_pilot_norest","11452","1","9","Female","","false","","","","","[859.8000000119209,431.2999999523163]","./assets/img/ocean/memory/25.jpg","[""ArrowDown"",""ArrowRight""]","value training","ocean","17","{""ArrowUp,ArrowLeft"":26,""ArrowUp,ArrowRight"":10,""ArrowDown,ArrowLeft"":5,""ArrowDown,ArrowRight"":17}","false","ArrowDown,ArrowRight","false","original","1","54","","",""
"html-keyboard-response","174","851893","0.0-4.0-2.0-1.27","spark_pilot_norest","11452","1","9","Female","","","","","","","null","<div style=""font-size:60px;"">+</div>","null","fixation","","","","","","","","","55","","",""
"revaluation","175","855904","0.0-4.0-2.0-0.28","spark_pilot_norest","11452","1","9","Female","","false","","","","","[560.3000000119209]","./assets/img/ocean/catch/2.jpg","[""spaceBar""]","value training","ocean","0","{""ArrowUp,ArrowLeft"":26,""ArrowUp,ArrowRight"":10,""ArrowDown,ArrowLeft"":5,""ArrowDown,ArrowRight"":17}","true","spaceBar","true","original","1","56","","",""
"html-keyboard-response","176","856407","0.0-4.0-2.0-1.28","spark_pilot_norest","11452","1","9","Female","","","","","","","null","<div style=""font-size:60px;"">+</div>","null","fixation","","","","","","","","","57","","",""
"revaluation","177","862417","0.0-4.0-2.0-0.29","spark_pilot_norest","11452","1","9","Female","","false","","","","","[814.4000000357628,467.4000000357628]","./assets/img/ocean/memory/38.jpg","[""ArrowDown"",""ArrowRight""]","value training","ocean","17","{""ArrowUp,ArrowLeft"":26,""ArrowUp,ArrowRight"":10,""ArrowDown,ArrowLeft"":5,""ArrowDown,ArrowRight"":17}","false","ArrowDown,ArrowRight","false","original","1","58","","",""
"html-keyboard-response","178","862919","0.0-4.0-2.0-1.29","spark_pilot_norest","11452","1","9","Female","","","","","","","null","<div style=""font-size:60px;"">+</div>","null","fixation","","","","","","","","","59","","",""
"revaluation","179","868930","0.0-4.0-2.0-0.30","spark_pilot_norest","11452","1","9","Female","","false","","","","","[847.0999999642372,587.3000000119209]","./assets/img/ocean/memory/17.jpg","[""ArrowUp"",""ArrowRight""]","value training","ocean","10","{""ArrowUp,ArrowLeft"":26,""ArrowUp,ArrowRight"":10,""ArrowDown,ArrowLeft"":5,""ArrowDown,ArrowRight"":17}","false","ArrowUp,ArrowRight","false","original","1","60","","",""
"html-keyboard-response","180","869433","0.0-4.0-2.0-1.30","spark_pilot_norest","11452","1","9","Female","","","","","","","null","<div style=""font-size:60px;"">+</div>","null","fixation","","","","","","","","","61","","",""
"revaluation","181","873448","0.0-4.0-2.0-0.31","spark_pilot_norest","11452","1","9","Female","","false","","","","","[1051.0999999642372]","./assets/img/ocean/catch/5.jpg","[""ArrowDown""]","value training","ocean","-10","{""ArrowUp,ArrowLeft"":26,""ArrowUp,ArrowRight"":10,""ArrowDown,ArrowLeft"":5,""ArrowDown,ArrowRight"":17}","false","ArrowDown","true","original","1","62","","",""
"html-keyboard-response","182","873951","0.0-4.0-2.0-1.31","spark_pilot_norest","11452","1","9","Female","","","","","","","null","<div style=""font-size:60px;"">+</div>","null","fixation","","","","","","","","","63","","",""
"revaluation","183","879960","0.0-4.0-2.0-0.32","spark_pilot_norest","11452","1","9","Female","","false","","","","","[1685.8999999761581,1089.699999988079]","./assets/img/ocean/memory/16.jpg","[""ArrowDown"",""ArrowRight""]","value training","ocean","17","{""ArrowUp,ArrowLeft"":26,""ArrowUp,ArrowRight"":10,""ArrowDown,ArrowLeft"":5,""ArrowDown,ArrowRight"":17}","false","ArrowDown,ArrowRight","false","original","1","64","","",""
"html-keyboard-response","184","880464","0.0-4.0-2.0-1.32","spark_pilot_norest","11452","1","9","Female","","","","","","","null","<div style=""font-size:60px;"">+</div>","null","fixation","","","","","","","","","65","","",""
"revaluation","185","886476","0.0-4.0-2.0-0.33","spark_pilot_norest","11452","1","9","Female","","false","","","","","[1109.800000011921,817.8000000119209]","./assets/img/ocean/memory/12.jpg","[""ArrowDown"",""ArrowRight""]","value training","ocean","17","{""ArrowUp,ArrowLeft"":26,""ArrowUp,ArrowRight"":10,""ArrowDown,ArrowLeft"":5,""ArrowDown,ArrowRight"":17}","false","ArrowDown,ArrowRight","false","original","1","66","","",""
"html-keyboard-response","186","886977","0.0-4.0-2.0-1.33","spark_pilot_norest","11452","1","9","Female","","","","","","","null","<div style=""font-size:60px;"">+</div>","null","fixation","","","","","","","","","67","","",""
"revaluation","187","892989","0.0-4.0-2.0-0.34","spark_pilot_norest","11452","1","9","Female","","false","","","","","[661.1999999880791,416.5]","./assets/img/ocean/memory/37.jpg","[""ArrowDown"",""ArrowRight""]","value training","ocean","17","{""ArrowUp,ArrowLeft"":26,""ArrowUp,ArrowRight"":10,""ArrowDown,ArrowLeft"":5,""ArrowDown,ArrowRight"":17}","false","ArrowDown,ArrowRight","false","original","1","68","","",""
"html-keyboard-response","188","893492","0.0-4.0-2.0-1.34","spark_pilot_norest","11452","1","9","Female","","","","","","","null","<div style=""font-size:60px;"">+</div>","null","fixation","","","","","","","","","69","","",""
"revaluation","189","899499","0.0-4.0-2.0-0.35","spark_pilot_norest","11452","1","9","Female","","false","","","","","[1206.3999999761581,744.8000000119209]","./assets/img/ocean/memory/41.jpg","[""ArrowDown"",""ArrowRight""]","value training","ocean","17","{""ArrowUp,ArrowLeft"":26,""ArrowUp,ArrowRight"":10,""ArrowDown,ArrowLeft"":5,""ArrowDown,ArrowRight"":17}","false","ArrowDown,ArrowRight","false","original","1","70","","",""
"html-keyboard-response","190","900001","0.0-4.0-2.0-1.35","spark_pilot_norest","11452","1","9","Female","","","","","","","null","<div style=""font-size:60px;"">+</div>","null","fixation","","","","","","","","","71","","",""
"revaluation","191","906012","0.0-4.0-2.0-0.36","spark_pilot_norest","11452","1","9","Female","","false","","","","","[1007.1999999880791,785.1999999880791]","./assets/img/ocean/memory/38.jpg","[""ArrowUp"",""ArrowRight""]","value training","ocean","10","{""ArrowUp,ArrowLeft"":26,""ArrowUp,ArrowRight"":10,""ArrowDown,ArrowLeft"":5,""ArrowDown,ArrowRight"":17}","false","ArrowUp,ArrowRight","false","original","1","72","","",""
"html-keyboard-response","192","906515","0.0-4.0-2.0-1.36","spark_pilot_norest","11452","1","9","Female","","","","","","","null","<div style=""font-size:60px;"">+</div>","null","fixation","","","","","","","","","73","","",""
"revaluation","193","912525","0.0-4.0-2.0-0.37","spark_pilot_norest","11452","1","9","Female","","false","","","","","[845.6999999880791,640.8000000119209]","./assets/img/ocean/memory/2.jpg","[""ArrowDown"",""ArrowRight""]","value training","ocean","17","{""ArrowUp,ArrowLeft"":26,""ArrowUp,ArrowRight"":10,""ArrowDown,ArrowLeft"":5,""ArrowDown,ArrowRight"":17}","false","ArrowDown,ArrowRight","false","original","1","74","","",""
"html-keyboard-response","194","913028","0.0-4.0-2.0-1.37","spark_pilot_norest","11452","1","9","Female","","","","","","","null","<div style=""font-size:60px;"">+</div>","null","fixation","","","","","","","","","75","","",""
"revaluation","195","919046","0.0-4.0-2.0-0.38","spark_pilot_norest","11452","1","9","Female","","false","","","","","[716.5999999642372,407]","./assets/img/ocean/memory/26.jpg","[""ArrowDown"",""ArrowLeft""]","value training","ocean","5","{""ArrowUp,ArrowLeft"":26,""ArrowUp,ArrowRight"":10,""ArrowDown,ArrowLeft"":5,""ArrowDown,ArrowRight"":17}","false","ArrowDown,ArrowLeft","false","original","1","76","","",""
"html-keyboard-response","196","919548","0.0-4.0-2.0-1.38","spark_pilot_norest","11452","1","9","Female","","","","","","","null","<div style=""font-size:60px;"">+</div>","null","fixation","","","","","","","","","77","","",""
"revaluation","197","925560","0.0-4.0-2.0-0.39","spark_pilot_norest","11452","1","9","Female","","false","","","","","[1086.4000000357628,435.2000000476837]","./assets/img/ocean/memory/40.jpg","[""ArrowDown"",""ArrowRight""]","value training","ocean","17","{""ArrowUp,ArrowLeft"":26,""ArrowUp,ArrowRight"":10,""ArrowDown,ArrowLeft"":5,""ArrowDown,ArrowRight"":17}","false","ArrowDown,ArrowRight","false","original","1","78","","",""
"html-keyboard-response","198","926063","0.0-4.0-2.0-1.39","spark_pilot_norest","11452","1","9","Female","","","","","","","null","<div style=""font-size:60px;"">+</div>","null","fixation","","","","","","","","","79","","",""
"revaluation","199","932077","0.0-4.0-2.0-0.40","spark_pilot_norest","11452","1","9","Female","","false","","","","","[907.9000000357628,803.8999999761581]","./assets/img/ocean/memory/34.jpg","[""ArrowDown"",""ArrowRight""]","value training","ocean","17","{""ArrowUp,ArrowLeft"":26,""ArrowUp,ArrowRight"":10,""ArrowDown,ArrowLeft"":5,""ArrowDown,ArrowRight"":17}","false","ArrowDown,ArrowRight","false","original","1","80","","",""
"html-keyboard-response","200","932580","0.0-4.0-2.0-1.40","spark_pilot_norest","11452","1","9","Female","","","","","","","null","<div style=""font-size:60px;"">+</div>","null","fixation","","","","","","","","","81","","",""
"revaluation","201","936590","0.0-4.0-2.0-0.41","spark_pilot_norest","11452","1","9","Female","","false","","","","","[1014.1000000238419]","./assets/img/ocean/catch/4.jpg","[""spaceBar""]","value training","ocean","0","{""ArrowUp,ArrowLeft"":26,""ArrowUp,ArrowRight"":10,""ArrowDown,ArrowLeft"":5,""ArrowDown,ArrowRight"":17}","true","spaceBar","true","original","1","82","","",""
"html-keyboard-response","202","937092","0.0-4.0-2.0-1.41","spark_pilot_norest","11452","1","9","Female","","","","","","","null","<div style=""font-size:60px;"">+</div>","null","fixation","","","","","","","","","83","","",""
"revaluation","203","943102","0.0-4.0-2.0-0.42","spark_pilot_norest","11452","1","9","Female","","false","","","","","[756.8000000119209,360]","./assets/img/ocean/memory/34.jpg","[""ArrowDown"",""ArrowRight""]","value training","ocean","17","{""ArrowUp,ArrowLeft"":26,""ArrowUp,ArrowRight"":10,""ArrowDown,ArrowLeft"":5,""ArrowDown,ArrowRight"":17}","false","ArrowDown,ArrowRight","false","original","1","84","","",""
"html-keyboard-response","204","943605","0.0-4.0-2.0-1.42","spark_pilot_norest","11452","1","9","Female","","","","","","","null","<div style=""font-size:60px;"">+</div>","null","fixation","","","","","","","","","85","","",""
"revaluation","205","949616","0.0-4.0-2.0-0.43","spark_pilot_norest","11452","1","9","Female","","false","","","","","[1564,567]","./assets/img/ocean/memory/2.jpg","[""ArrowUp"",""ArrowRight""]","value training","ocean","10","{""ArrowUp,ArrowLeft"":26,""ArrowUp,ArrowRight"":10,""ArrowDown,ArrowLeft"":5,""ArrowDown,ArrowRight"":17}","false","ArrowUp,ArrowRight","false","original","1","86","","",""
"html-keyboard-response","206","950119","0.0-4.0-2.0-1.43","spark_pilot_norest","11452","1","9","Female","","","","","","","null","<div style=""font-size:60px;"">+</div>","null","fixation","","","","","","","","","87","","",""
"revaluation","207","956130","0.0-4.0-2.0-0.44","spark_pilot_norest","11452","1","9","Female","","false","","","","","[751.4000000357628,559.0999999642372]","./assets/img/ocean/memory/29.jpg","[""ArrowDown"",""ArrowRight""]","value training","ocean","17","{""ArrowUp,ArrowLeft"":26,""ArrowUp,ArrowRight"":10,""ArrowDown,ArrowLeft"":5,""ArrowDown,ArrowRight"":17}","false","ArrowDown,ArrowRight","false","original","1","88","","",""
"html-keyboard-response","208","956633","0.0-4.0-2.0-1.44","spark_pilot_norest","11452","1","9","Female","","","","","","","null","<div style=""font-size:60px;"">+</div>","null","fixation","","","","","","","","","89","","",""
"revaluation","209","962644","0.0-4.0-2.0-0.45","spark_pilot_norest","11452","1","9","Female","","false","","","","","[1833.199999988079,765.6999999880791]","./assets/img/ocean/memory/22.jpg","[""ArrowDown"",""ArrowRight""]","value training","ocean","17","{""ArrowUp,ArrowLeft"":26,""ArrowUp,ArrowRight"":10,""ArrowDown,ArrowLeft"":5,""ArrowDown,ArrowRight"":17}","false","ArrowDown,ArrowRight","false","original","1","90","","",""
"html-keyboard-response","210","963147","0.0-4.0-2.0-1.45","spark_pilot_norest","11452","1","9","Female","","","","","","","null","<div style=""font-size:60px;"">+</div>","null","fixation","","","","","","","","","91","","",""
"revaluation","211","969158","0.0-4.0-2.0-0.46","spark_pilot_norest","11452","1","9","Female","","false","","","","","[1712.300000011921,643.5]","./assets/img/ocean/memory/9.jpg","[""ArrowUp"",""ArrowRight""]","value training","ocean","10","{""ArrowUp,ArrowLeft"":26,""ArrowUp,ArrowRight"":10,""ArrowDown,ArrowLeft"":5,""ArrowDown,ArrowRight"":17}","false","ArrowUp,ArrowRight","false","original","1","92","","",""
"html-keyboard-response","212","969661","0.0-4.0-2.0-1.46","spark_pilot_norest","11452","1","9","Female","","","","","","","null","<div style=""font-size:60px;"">+</div>","null","fixation","","","","","","","","","93","","",""
"revaluation","213","975687","0.0-4.0-2.0-0.47","spark_pilot_norest","11452","1","9","Female","","false","","","","","[1500.6000000238419,925.6999999880791]","./assets/img/ocean/memory/24.jpg","[""ArrowDown"",""ArrowRight""]","value training","ocean","17","{""ArrowUp,ArrowLeft"":26,""ArrowUp,ArrowRight"":10,""ArrowDown,ArrowLeft"":5,""ArrowDown,ArrowRight"":17}","false","ArrowDown,ArrowRight","false","original","1","94","","",""
"html-keyboard-response","214","976189","0.0-4.0-2.0-1.47","spark_pilot_norest","11452","1","9","Female","","","","","","","null","<div style=""font-size:60px;"">+</div>","null","fixation","","","","","","","","","95","","",""
"revaluation","215","982200","0.0-4.0-2.0-0.48","spark_pilot_norest","11452","1","9","Female","","false","","","","","[1131.4000000357628,679.8000000119209]","./assets/img/ocean/memory/13.jpg","[""ArrowDown"",""ArrowRight""]","value training","ocean","17","{""ArrowUp,ArrowLeft"":26,""ArrowUp,ArrowRight"":10,""ArrowDown,ArrowLeft"":5,""ArrowDown,ArrowRight"":17}","false","ArrowDown,ArrowRight","false","original","1","96","","",""
"html-keyboard-response","216","982702","0.0-4.0-2.0-1.48","spark_pilot_norest","11452","1","9","Female","","","","","","","null","<div style=""font-size:60px;"">+</div>","null","fixation","","","","","","","","","97","","",""
"revaluation","217","988713","0.0-4.0-2.0-0.49","spark_pilot_norest","11452","1","9","Female","","false","","","","","[915.7000000476837,696]","./assets/img/ocean/memory/36.jpg","[""ArrowDown"",""ArrowRight""]","value training","ocean","17","{""ArrowUp,ArrowLeft"":26,""ArrowUp,ArrowRight"":10,""ArrowDown,ArrowLeft"":5,""ArrowDown,ArrowRight"":17}","false","ArrowDown,ArrowRight","false","original","1","98","","",""
"html-keyboard-response","218","989216","0.0-4.0-2.0-1.49","spark_pilot_norest","11452","1","9","Female","","","","","","","null","<div style=""font-size:60px;"">+</div>","null","fixation","","","","","","","","","99","","",""
"learning-instructions","219","1005655","0.0-4.0-3.0-0.0","spark_pilot_norest","11452","1","9","Female","","","","","","","3360.5","<p> Now, you will travel with a friend who will choose whether you go up or down first. </p>
            <p> On these turns, you will just see the animal that they found. You will still get to choose which chest to search for treasure.</p>","","instructions","","","","","","","","","","","",""
"revaluation","220","1009685","0.0-4.0-4.0-0.0","spark_pilot_norest","11452","1","9","Female","","false","","","","","[1318.3999999761581]","./assets/img/ocean/animals/seahorse.jpg","[""ArrowRight""]","revaluation","ocean","10","{""ArrowUp,ArrowLeft"":26,""ArrowUp,ArrowRight"":10,""ArrowDown,ArrowLeft"":5,""ArrowDown,ArrowRight"":17}","false","ArrowUp,ArrowRight","","original","1","0","","",""
"html-keyboard-response","221","1010197","0.0-4.0-4.0-1.0","spark_pilot_norest","11452","1","9","Female","","","","","","","null","<div style=""font-size:60px;"">+</div>","null","fixation","","","","","","","","","1","","",""
"revaluation","222","1014214","0.0-4.0-4.0-0.1","spark_pilot_norest","11452","1","9","Female","","false","","","","","[716.7000000476837]","./assets/img/ocean/animals/octopus.jpg","[""ArrowRight""]","revaluation","ocean","17","{""ArrowUp,ArrowLeft"":26,""ArrowUp,ArrowRight"":10,""ArrowDown,ArrowLeft"":5,""ArrowDown,ArrowRight"":17}","true","ArrowDown,ArrowRight","","original","1","2","","",""
"html-keyboard-response","223","1014724","0.0-4.0-4.0-1.1","spark_pilot_norest","11452","1","9","Female","","","","","","","null","<div style=""font-size:60px;"">+</div>","null","fixation","","","","","","","","","3","","",""
"revaluation","224","1018758","0.0-4.0-4.0-0.2","spark_pilot_norest","11452","1","9","Female","","false","","","","","[406.10000002384186]","./assets/img/ocean/animals/octopus.jpg","[""ArrowLeft""]","revaluation","ocean","5","{""ArrowUp,ArrowLeft"":26,""ArrowUp,ArrowRight"":10,""ArrowDown,ArrowLeft"":5,""ArrowDown,ArrowRight"":17}","false","ArrowDown,ArrowLeft","","original","1","4","","",""
"html-keyboard-response","225","1019269","0.0-4.0-4.0-1.2","spark_pilot_norest","11452","1","9","Female","","","","","","","null","<div style=""font-size:60px;"">+</div>","null","fixation","","","","","","","","","5","","",""
"revaluation","226","1023291","0.0-4.0-4.0-0.3","spark_pilot_norest","11452","1","9","Female","","false","","","","","[1023.7999999523163]","./assets/img/ocean/animals/octopus.jpg","[""ArrowRight""]","revaluation","ocean","17","{""ArrowUp,ArrowLeft"":26,""ArrowUp,ArrowRight"":10,""ArrowDown,ArrowLeft"":5,""ArrowDown,ArrowRight"":17}","true","ArrowDown,ArrowRight","","original","1","6","","",""
"html-keyboard-response","227","1023802","0.0-4.0-4.0-1.3","spark_pilot_norest","11452","1","9","Female","","","","","","","null","<div style=""font-size:60px;"">+</div>","null","fixation","","","","","","","","","7","","",""
"revaluation","228","1027822","0.0-4.0-4.0-0.4","spark_pilot_norest","11452","1","9","Female","","false","","","","","[788]","./assets/img/ocean/animals/seahorse.jpg","[""ArrowLeft""]","revaluation","ocean","26","{""ArrowUp,ArrowLeft"":26,""ArrowUp,ArrowRight"":10,""ArrowDown,ArrowLeft"":5,""ArrowDown,ArrowRight"":17}","true","ArrowUp,ArrowLeft","","original","1","8","","",""
"html-keyboard-response","229","1028334","0.0-4.0-4.0-1.4","spark_pilot_norest","11452","1","9","Female","","","","","","","null","<div style=""font-size:60px;"">+</div>","null","fixation","","","","","","","","","9","","",""
"revaluation","230","1032362","0.0-4.0-4.0-0.5","spark_pilot_norest","11452","1","9","Female","","false","","","","","[812.8000000119209]","./assets/img/ocean/animals/octopus.jpg","[""ArrowRight""]","revaluation","ocean","17","{""ArrowUp,ArrowLeft"":26,""ArrowUp,ArrowRight"":10,""ArrowDown,ArrowLeft"":5,""ArrowDown,ArrowRight"":17}","true","ArrowDown,ArrowRight","","original","1","10","","",""
"html-keyboard-response","231","1032864","0.0-4.0-4.0-1.5","spark_pilot_norest","11452","1","9","Female","","","","","","","null","<div style=""font-size:60px;"">+</div>","null","fixation","","","","","","","","","11","","",""
"revaluation","232","1036876","0.0-4.0-4.0-0.6","spark_pilot_norest","11452","1","9","Female","","false","","","","","[653.9000000357628]","./assets/img/ocean/animals/octopus.jpg","[""ArrowLeft""]","revaluation","ocean","5","{""ArrowUp,ArrowLeft"":26,""ArrowUp,ArrowRight"":10,""ArrowDown,ArrowLeft"":5,""ArrowDown,ArrowRight"":17}","false","ArrowDown,ArrowLeft","","original","1","12","","",""
"html-keyboard-response","233","1037379","0.0-4.0-4.0-1.6","spark_pilot_norest","11452","1","9","Female","","","","","","","null","<div style=""font-size:60px;"">+</div>","null","fixation","","","","","","","","","13","","",""
"revaluation","234","1041391","0.0-4.0-4.0-0.7","spark_pilot_norest","11452","1","9","Female","","false","","","","","[616.8999999761581]","./assets/img/ocean/animals/seahorse.jpg","[""ArrowRight""]","revaluation","ocean","10","{""ArrowUp,ArrowLeft"":26,""ArrowUp,ArrowRight"":10,""ArrowDown,ArrowLeft"":5,""ArrowDown,ArrowRight"":17}","false","ArrowUp,ArrowRight","","original","1","14","","",""
"html-keyboard-response","235","1041902","0.0-4.0-4.0-1.7","spark_pilot_norest","11452","1","9","Female","","","","","","","null","<div style=""font-size:60px;"">+</div>","null","fixation","","","","","","","","","15","","",""
"revaluation","236","1045912","0.0-4.0-4.0-0.8","spark_pilot_norest","11452","1","9","Female","","false","","","","","[826.8000000119209]","./assets/img/ocean/animals/seahorse.jpg","[""ArrowRight""]","revaluation","ocean","10","{""ArrowUp,ArrowLeft"":26,""ArrowUp,ArrowRight"":10,""ArrowDown,ArrowLeft"":5,""ArrowDown,ArrowRight"":17}","false","ArrowUp,ArrowRight","","original","1","16","","",""
"html-keyboard-response","237","1046414","0.0-4.0-4.0-1.8","spark_pilot_norest","11452","1","9","Female","","","","","","","null","<div style=""font-size:60px;"">+</div>","null","fixation","","","","","","","","","17","","",""
"revaluation","238","1050424","0.0-4.0-4.0-0.9","spark_pilot_norest","11452","1","9","Female","","false","","","","","[633.1999999880791]","./assets/img/ocean/animals/seahorse.jpg","[""ArrowLeft""]","revaluation","ocean","26","{""ArrowUp,ArrowLeft"":26,""ArrowUp,ArrowRight"":10,""ArrowDown,ArrowLeft"":5,""ArrowDown,ArrowRight"":17}","true","ArrowUp,ArrowLeft","","original","1","18","","",""
"html-keyboard-response","239","1050941","0.0-4.0-4.0-1.9","spark_pilot_norest","11452","1","9","Female","","","","","","","null","<div style=""font-size:60px;"">+</div>","null","fixation","","","","","","","","","19","","",""
"revaluation","240","1054951","0.0-4.0-4.0-0.10","spark_pilot_norest","11452","1","9","Female","","false","","","","","[395.2000000476837]","./assets/img/ocean/animals/octopus.jpg","[""ArrowRight""]","revaluation","ocean","17","{""ArrowUp,ArrowLeft"":26,""ArrowUp,ArrowRight"":10,""ArrowDown,ArrowLeft"":5,""ArrowDown,ArrowRight"":17}","true","ArrowDown,ArrowRight","","original","1","20","","",""
"html-keyboard-response","241","1055454","0.0-4.0-4.0-1.10","spark_pilot_norest","11452","1","9","Female","","","","","","","null","<div style=""font-size:60px;"">+</div>","null","fixation","","","","","","","","","21","","",""
"revaluation","242","1059459","0.0-4.0-4.0-0.11","spark_pilot_norest","11452","1","9","Female","","false","","","","","[699.5999999642372]","./assets/img/ocean/animals/seahorse.jpg","[""ArrowRight""]","revaluation","ocean","10","{""ArrowUp,ArrowLeft"":26,""ArrowUp,ArrowRight"":10,""ArrowDown,ArrowLeft"":5,""ArrowDown,ArrowRight"":17}","false","ArrowUp,ArrowRight","","original","1","22","","",""
"html-keyboard-response","243","1059962","0.0-4.0-4.0-1.11","spark_pilot_norest","11452","1","9","Female","","","","","","","null","<div style=""font-size:60px;"">+</div>","null","fixation","","","","","","","","","23","","",""
"revaluation","244","1063971","0.0-4.0-4.0-0.12","spark_pilot_norest","11452","1","9","Female","","false","","","","","[744.6000000238419]","./assets/img/ocean/animals/octopus.jpg","[""ArrowRight""]","revaluation","ocean","17","{""ArrowUp,ArrowLeft"":26,""ArrowUp,ArrowRight"":10,""ArrowDown,ArrowLeft"":5,""ArrowDown,ArrowRight"":17}","true","ArrowDown,ArrowRight","","original","1","24","","",""
"html-keyboard-response","245","1064474","0.0-4.0-4.0-1.12","spark_pilot_norest","11452","1","9","Female","","","","","","","null","<div style=""font-size:60px;"">+</div>","null","fixation","","","","","","","","","25","","",""
"revaluation","246","1068484","0.0-4.0-4.0-0.13","spark_pilot_norest","11452","1","9","Female","","false","","","","","[938.9000000357628]","./assets/img/ocean/animals/seahorse.jpg","[""ArrowLeft""]","revaluation","ocean","26","{""ArrowUp,ArrowLeft"":26,""ArrowUp,ArrowRight"":10,""ArrowDown,ArrowLeft"":5,""ArrowDown,ArrowRight"":17}","true","ArrowUp,ArrowLeft","","original","1","26","","",""
"html-keyboard-response","247","1068987","0.0-4.0-4.0-1.13","spark_pilot_norest","11452","1","9","Female","","","","","","","null","<div style=""font-size:60px;"">+</div>","null","fixation","","","","","","","","","27","","",""
"revaluation","248","1072997","0.0-4.0-4.0-0.14","spark_pilot_norest","11452","1","9","Female","","false","","","","","[904]","./assets/img/ocean/animals/octopus.jpg","[""ArrowRight""]","revaluation","ocean","17","{""ArrowUp,ArrowLeft"":26,""ArrowUp,ArrowRight"":10,""ArrowDown,ArrowLeft"":5,""ArrowDown,ArrowRight"":17}","true","ArrowDown,ArrowRight","","original","1","28","","",""
"html-keyboard-response","249","1073500","0.0-4.0-4.0-1.14","spark_pilot_norest","11452","1","9","Female","","","","","","","null","<div style=""font-size:60px;"">+</div>","null","fixation","","","","","","","","","29","","",""
"revaluation","250","1077505","0.0-4.0-4.0-0.15","spark_pilot_norest","11452","1","9","Female","","false","","","","","[1937.699999988079]","./assets/img/ocean/animals/octopus.jpg","[""ArrowLeft""]","revaluation","ocean","5","{""ArrowUp,ArrowLeft"":26,""ArrowUp,ArrowRight"":10,""ArrowDown,ArrowLeft"":5,""ArrowDown,ArrowRight"":17}","false","ArrowDown,ArrowLeft","","original","1","30","","",""
"html-keyboard-response","251","1078008","0.0-4.0-4.0-1.15","spark_pilot_norest","11452","1","9","Female","","","","","","","null","<div style=""font-size:60px;"">+</div>","null","fixation","","","","","","","","","31","","",""
"revaluation","252","1082017","0.0-4.0-4.0-0.16","spark_pilot_norest","11452","1","9","Female","","false","","","","","[555.5]","./assets/img/ocean/animals/seahorse.jpg","[""ArrowRight""]","revaluation","ocean","10","{""ArrowUp,ArrowLeft"":26,""ArrowUp,ArrowRight"":10,""ArrowDown,ArrowLeft"":5,""ArrowDown,ArrowRight"":17}","false","ArrowUp,ArrowRight","","original","1","32","","",""
"html-keyboard-response","253","1082520","0.0-4.0-4.0-1.16","spark_pilot_norest","11452","1","9","Female","","","","","","","null","<div style=""font-size:60px;"">+</div>","null","fixation","","","","","","","","","33","","",""
"revaluation","254","1086531","0.0-4.0-4.0-0.17","spark_pilot_norest","11452","1","9","Female","","false","","","","","[504.10000002384186]","./assets/img/ocean/animals/seahorse.jpg","[""ArrowLeft""]","revaluation","ocean","26","{""ArrowUp,ArrowLeft"":26,""ArrowUp,ArrowRight"":10,""ArrowDown,ArrowLeft"":5,""ArrowDown,ArrowRight"":17}","true","ArrowUp,ArrowLeft","","original","1","34","","",""
"html-keyboard-response","255","1087033","0.0-4.0-4.0-1.17","spark_pilot_norest","11452","1","9","Female","","","","","","","null","<div style=""font-size:60px;"">+</div>","null","fixation","","","","","","","","","35","","",""
"learning-instructions","256","1095319","0.0-4.0-5.0-0.0","spark_pilot_norest","11452","1","9","Female","","","","","","","null","<p> You have almost finished this part of the game! </p>
            <p> We are going to ask you to make a few more choices. </p>","","instructions","","","","","","","","","","","",""
"learning-instructions","257","1111307","0.0-4.0-5.0-0.1","spark_pilot_norest","11452","1","9","Female","","","","","","","null","<p> First, you need to decide whether to go up or down. When you see each picture, use the arrow keys to make your choice. </p>
            <p><b>You will not see which animal you found, but try to get to the one that will give you the most treasure.</b></p>","","instructions","","","","","","","","","","","",""
"html-keyboard-response","258","1112313","0.0-4.0-6.0-0.0","spark_pilot_norest","11452","1","9","Female","","","","","","","null","<div style=""font-size:100px;color:red;"">Starting in...</div>","null","","","","","","","","","","","","",""
"html-keyboard-response","259","1113328","0.0-4.0-6.0-1.0","spark_pilot_norest","11452","1","9","Female","","","","","","","null","<div style=""font-size:200px;color:red;"">3</div>","null","","","","","","","","","","","","",""
"html-keyboard-response","260","1114338","0.0-4.0-6.0-2.0","spark_pilot_norest","11452","1","9","Female","","","","","","","null","<div style=""font-size:200px;color:red;"">2</div>","null","","","","","","","","","","","","",""
"html-keyboard-response","261","1115344","0.0-4.0-6.0-3.0","spark_pilot_norest","11452","1","9","Female","","","","","","","null","<div style=""font-size:200px;color:red;"">1</div>","null","","","","","","","","","","","","",""
"revaluation","262","1116347","0.0-4.0-7.0-0.0","spark_pilot_norest","11452","1","9","Female","","false","","","","","[993.8999999761581]","./assets/img/ocean/test/2.jpg","[""ArrowDown""]","first stage test","ocean","0","{""ArrowUp,ArrowLeft"":26,""ArrowUp,ArrowRight"":10,""ArrowDown,ArrowLeft"":5,""ArrowDown,ArrowRight"":17}","false","ArrowDown","false","original","1","","","",""
"html-keyboard-response","263","1116859","0.0-4.0-7.0-1.0","spark_pilot_norest","11452","1","9","Female","","","","","","","null","<div style=""font-size:60px;"">+</div>","null","fixation","","","","","","","","","","","",""
"revaluation","264","1117844","0.0-4.0-7.0-0.1","spark_pilot_norest","11452","1","9","Female","","false","","","","","[976.1999999880791]","./assets/img/ocean/test/1.jpg","[""ArrowDown""]","first stage test","ocean","0","{""ArrowUp,ArrowLeft"":26,""ArrowUp,ArrowRight"":10,""ArrowDown,ArrowLeft"":5,""ArrowDown,ArrowRight"":17}","false","ArrowDown","false","original","1","","","",""
"html-keyboard-response","265","1118356","0.0-4.0-7.0-1.1","spark_pilot_norest","11452","1","9","Female","","","","","","","null","<div style=""font-size:60px;"">+</div>","null","fixation","","","","","","","","","","","",""
"revaluation","266","1118972","0.0-4.0-7.0-0.2","spark_pilot_norest","11452","1","9","Female","","false","","","","","[606.8000000119209]","./assets/img/ocean/test/3.jpg","[""ArrowUp""]","first stage test","ocean","0","{""ArrowUp,ArrowLeft"":26,""ArrowUp,ArrowRight"":10,""ArrowDown,ArrowLeft"":5,""ArrowDown,ArrowRight"":17}","true","ArrowUp","false","original","1","","","",""
"html-keyboard-response","267","1119486","0.0-4.0-7.0-1.2","spark_pilot_norest","11452","1","9","Female","","","","","","","null","<div style=""font-size:60px;"">+</div>","null","fixation","","","","","","","","","","","",""
"revaluation","268","1120041","0.0-4.0-7.0-0.3","spark_pilot_norest","11452","1","9","Female","","false","","","","","[542.9000000357628]","./assets/img/ocean/test/0.jpg","[""ArrowDown""]","first stage test","ocean","0","{""ArrowUp,ArrowLeft"":26,""ArrowUp,ArrowRight"":10,""ArrowDown,ArrowLeft"":5,""ArrowDown,ArrowRight"":17}","false","ArrowDown","false","original","1","","","",""
"html-keyboard-response","269","1120550","0.0-4.0-7.0-1.3","spark_pilot_norest","11452","1","9","Female","","","","","","","null","<div style=""font-size:60px;"">+</div>","null","fixation","","","","","","","","","","","",""
"learning-instructions","270","1133908","0.0-4.0-8.0-0.0","spark_pilot_norest","11452","1","9","Female","","","","","","","null","<p> Now you will see the animals again and can search their chests for treasure. </p>
            <p> This time, you will not see how much treasure you earned, but you will earn more bonus money for making better choices. </p>","","instructions","","","","","","","","","","","",""
"html-keyboard-response","271","1134919","0.0-4.0-9.0-0.0","spark_pilot_norest","11452","1","9","Female","","","","","","","null","<div style=""font-size:100px;color:red;"">Starting in...</div>","null","","","","","","","","","","","","",""
"html-keyboard-response","272","1135926","0.0-4.0-9.0-1.0","spark_pilot_norest","11452","1","9","Female","","","","","","","null","<div style=""font-size:200px;color:red;"">3</div>","null","","","","","","","","","","","","",""
"html-keyboard-response","273","1136928","0.0-4.0-9.0-2.0","spark_pilot_norest","11452","1","9","Female","","","","","","","null","<div style=""font-size:200px;color:red;"">2</div>","null","","","","","","","","","","","","",""
"html-keyboard-response","274","1137934","0.0-4.0-9.0-3.0","spark_pilot_norest","11452","1","9","Female","","","","","","","null","<div style=""font-size:200px;color:red;"">1</div>","null","","","","","","","","","","","","",""
"revaluation","275","1138674","0.0-4.0-10.0-0.0","spark_pilot_norest","11452","1","9","Female","","false","","","","","[731.0999999642372]","./assets/img/ocean/animals/seahorse.jpg","[""ArrowRight""]","second stage test","ocean","0","{""ArrowUp,ArrowLeft"":26,""ArrowUp,ArrowRight"":10,""ArrowDown,ArrowLeft"":5,""ArrowDown,ArrowRight"":17}","false","ArrowUp,ArrowRight","","original","1","","","",""
"html-keyboard-response","276","1139186","0.0-4.0-10.0-1.0","spark_pilot_norest","11452","1","9","Female","","","","","","","null","<div style=""font-size:60px;"">+</div>","null","fixation","","","","","","","","","","","",""
"revaluation","277","1139608","0.0-4.0-10.0-0.1","spark_pilot_norest","11452","1","9","Female","","false","","","","","[413.5]","./assets/img/ocean/animals/seahorse.jpg","[""ArrowLeft""]","second stage test","ocean","0","{""ArrowUp,ArrowLeft"":26,""ArrowUp,ArrowRight"":10,""ArrowDown,ArrowLeft"":5,""ArrowDown,ArrowRight"":17}","true","ArrowUp,ArrowLeft","","original","1","","","",""
"html-keyboard-response","278","1140114","0.0-4.0-10.0-1.1","spark_pilot_norest","11452","1","9","Female","","","","","","","null","<div style=""font-size:60px;"">+</div>","null","fixation","","","","","","","","","","","",""
"revaluation","279","1140485","0.0-4.0-10.0-0.2","spark_pilot_norest","11452","1","9","Female","","false","","","","","[362.69999998807907]","./assets/img/ocean/animals/seahorse.jpg","[""ArrowRight""]","second stage test","ocean","0","{""ArrowUp,ArrowLeft"":26,""ArrowUp,ArrowRight"":10,""ArrowDown,ArrowLeft"":5,""ArrowDown,ArrowRight"":17}","false","ArrowUp,ArrowRight","","original","1","","","",""
"html-keyboard-response","280","1140994","0.0-4.0-10.0-1.2","spark_pilot_norest","11452","1","9","Female","","","","","","","null","<div style=""font-size:60px;"">+</div>","null","fixation","","","","","","","","","","","",""
"revaluation","281","1141436","0.0-4.0-10.0-0.3","spark_pilot_norest","11452","1","9","Female","","false","","","","","[433.0999999642372]","./assets/img/ocean/animals/seahorse.jpg","[""ArrowLeft""]","second stage test","ocean","0","{""ArrowUp,ArrowLeft"":26,""ArrowUp,ArrowRight"":10,""ArrowDown,ArrowLeft"":5,""ArrowDown,ArrowRight"":17}","true","ArrowUp,ArrowLeft","","original","1","","","",""
"html-keyboard-response","282","1141951","0.0-4.0-10.0-1.3","spark_pilot_norest","11452","1","9","Female","","","","","","","null","<div style=""font-size:60px;"">+</div>","null","fixation","","","","","","","","","","","",""
"revaluation","283","1142570","0.0-4.0-10.0-0.4","spark_pilot_norest","11452","1","9","Female","","false","","","","","[610.5999999642372]","./assets/img/ocean/animals/octopus.jpg","[""ArrowLeft""]","second stage test","ocean","0","{""ArrowUp,ArrowLeft"":26,""ArrowUp,ArrowRight"":10,""ArrowDown,ArrowLeft"":5,""ArrowDown,ArrowRight"":17}","false","ArrowDown,ArrowLeft","","original","1","","","",""
"html-keyboard-response","284","1143075","0.0-4.0-10.0-1.4","spark_pilot_norest","11452","1","9","Female","","","","","","","null","<div style=""font-size:60px;"">+</div>","null","fixation","","","","","","","","","","","",""
"revaluation","285","1143448","0.0-4.0-10.0-0.5","spark_pilot_norest","11452","1","9","Female","","false","","","","","[363.89999997615814]","./assets/img/ocean/animals/octopus.jpg","[""ArrowLeft""]","second stage test","ocean","0","{""ArrowUp,ArrowLeft"":26,""ArrowUp,ArrowRight"":10,""ArrowDown,ArrowLeft"":5,""ArrowDown,ArrowRight"":17}","false","ArrowDown,ArrowLeft","","original","1","","","",""
"html-keyboard-response","286","1143961","0.0-4.0-10.0-1.5","spark_pilot_norest","11452","1","9","Female","","","","","","","null","<div style=""font-size:60px;"">+</div>","null","fixation","","","","","","","","","","","",""
"revaluation","287","1144291","0.0-4.0-10.0-0.6","spark_pilot_norest","11452","1","9","Female","","false","","","","","[321.89999997615814]","./assets/img/ocean/animals/octopus.jpg","[""ArrowRight""]","second stage test","ocean","0","{""ArrowUp,ArrowLeft"":26,""ArrowUp,ArrowRight"":10,""ArrowDown,ArrowLeft"":5,""ArrowDown,ArrowRight"":17}","true","ArrowDown,ArrowRight","","original","1","","","",""
"html-keyboard-response","288","1144796","0.0-4.0-10.0-1.6","spark_pilot_norest","11452","1","9","Female","","","","","","","null","<div style=""font-size:60px;"">+</div>","null","fixation","","","","","","","","","","","",""
"revaluation","289","1145163","0.0-4.0-10.0-0.7","spark_pilot_norest","11452","1","9","Female","","false","","","","","[358.39999997615814]","./assets/img/ocean/animals/octopus.jpg","[""ArrowLeft""]","second stage test","ocean","0","{""ArrowUp,ArrowLeft"":26,""ArrowUp,ArrowRight"":10,""ArrowDown,ArrowLeft"":5,""ArrowDown,ArrowRight"":17}","false","ArrowDown,ArrowLeft","","original","1","","","",""
"html-keyboard-response","290","1145676","0.0-4.0-10.0-1.7","spark_pilot_norest","11452","1","9","Female","","","","","","","null","<div style=""font-size:60px;"">+</div>","null","fixation","","","","","","","","","","","",""
"learning-instructions","291","1151254","0.0-4.0-0.1-0.2","spark_pilot_norest","11452","1","9","Female","","","","","","","1655","<p> This time you are searching for treasure in the <b>canyon</b>.</p>","","instructions","","","","","","","","","","","",""
"learning-instructions","292","1170532","0.0-4.0-0.1-0.3","spark_pilot_norest","11452","1","9","Female","","","","","","","2033.3999999761581","<p><b>New</b> animals with <b>new</b> treasure chests live here. You need to explore to discover where the animal with the best treasure chest is.</p>
                    <p> Like before, once you figure out which animal has the chest with the most treasure, you should try to get to that animal and select that chest! </p>","","instructions","","","","","","","","","","","",""
"learning-instructions","293","1186919","0.0-4.0-1.1-0.1","spark_pilot_norest","11452","1","9","Female","","","","","","","1662.5","<p> Remember, when you see a picture of the place, use the up and down keys to <b>find an animal</b>.</p>
            <p> When you encounter an animal, you should use the left and right keys to <b>select a treasure chest</b>.</p>
            <p> Don't forget to look out for the robber! </p>","","instructions","","","","","","","","","","","",""
"revaluation","294","1190946","0.0-4.0-2.1-0.50","spark_pilot_norest","11452","1","9","Female","","false","","","","","[1427.300000011921]","./assets/img/canyon/catch/3.jpg","[""spaceBar""]","value training","canyon","0","{""ArrowUp,ArrowLeft"":23,""ArrowUp,ArrowRight"":10,""ArrowDown,ArrowLeft"":8,""ArrowDown,ArrowRight"":30}","true","spaceBar","true","revaluation","2","0","","",""
"html-keyboard-response","295","1191456","0.0-4.0-2.1-1.50","spark_pilot_norest","11452","1","9","Female","","","","","","","null","<div style=""font-size:60px;"">+</div>","null","fixation","","","","","","","","","1","","",""
"revaluation","296","1197503","0.0-4.0-2.1-0.51","spark_pilot_norest","11452","1","9","Female","","false","","","","","[982.1999999880791,1068]","./assets/img/canyon/memory/34.jpg","[""ArrowDown"",""ArrowLeft""]","value training","canyon","8","{""ArrowUp,ArrowLeft"":23,""ArrowUp,ArrowRight"":10,""ArrowDown,ArrowLeft"":8,""ArrowDown,ArrowRight"":30}","false","ArrowDown,ArrowLeft","false","revaluation","2","2","","",""
"html-keyboard-response","297","1198012","0.0-4.0-2.1-1.51","spark_pilot_norest","11452","1","9","Female","","","","","","","null","<div style=""font-size:60px;"">+</div>","null","fixation","","","","","","","","","3","","",""
"revaluation","298","1204049","0.0-4.0-2.1-0.52","spark_pilot_norest","11452","1","9","Female","","false","","","","","[931.8999999761581,774.6999999880791]","./assets/img/canyon/memory/37.jpg","[""ArrowDown"",""ArrowRight""]","value training","canyon","30","{""ArrowUp,ArrowLeft"":23,""ArrowUp,ArrowRight"":10,""ArrowDown,ArrowLeft"":8,""ArrowDown,ArrowRight"":30}","true","ArrowDown,ArrowRight","false","revaluation","2","4","","",""
"html-keyboard-response","299","1204559","0.0-4.0-2.1-1.52","spark_pilot_norest","11452","1","9","Female","","","","","","","null","<div style=""font-size:60px;"">+</div>","null","fixation","","","","","","","","","5","","",""
"revaluation","300","1208575","0.0-4.0-2.1-0.53","spark_pilot_norest","11452","1","9","Female","","false","","","","","[1448.8999999761581]","./assets/img/canyon/catch/5.jpg","[""spaceBar""]","value training","canyon","0","{""ArrowUp,ArrowLeft"":23,""ArrowUp,ArrowRight"":10,""ArrowDown,ArrowLeft"":8,""ArrowDown,ArrowRight"":30}","true","spaceBar","true","revaluation","2","6","","",""
"html-keyboard-response","301","1209083","0.0-4.0-2.1-1.53","spark_pilot_norest","11452","1","9","Female","","","","","","","null","<div style=""font-size:60px;"">+</div>","null","fixation","","","","","","","","","7","","",""
"revaluation","302","1215121","0.0-4.0-2.1-0.54","spark_pilot_norest","11452","1","9","Female","","false","","","","","[1213,1090.800000011921]","./assets/img/canyon/memory/26.jpg","[""ArrowUp"",""ArrowLeft""]","value training","canyon","23","{""ArrowUp,ArrowLeft"":23,""ArrowUp,ArrowRight"":10,""ArrowDown,ArrowLeft"":8,""ArrowDown,ArrowRight"":30}","false","ArrowUp,ArrowLeft","false","revaluation","2","8","","",""
"html-keyboard-response","303","1215623","0.0-4.0-2.1-1.54","spark_pilot_norest","11452","1","9","Female","","","","","","","null","<div style=""font-size:60px;"">+</div>","null","fixation","","","","","","","","","9","","",""
"revaluation","304","1221630","0.0-4.0-2.1-0.55","spark_pilot_norest","11452","1","9","Female","","false","","","","","[757.6999999880791,763.0999999642372]","./assets/img/canyon/memory/40.jpg","[""ArrowDown"",""ArrowLeft""]","value training","canyon","8","{""ArrowUp,ArrowLeft"":23,""ArrowUp,ArrowRight"":10,""ArrowDown,ArrowLeft"":8,""ArrowDown,ArrowRight"":30}","false","ArrowDown,ArrowLeft","false","revaluation","2","10","","",""
"html-keyboard-response","305","1222133","0.0-4.0-2.1-1.55","spark_pilot_norest","11452","1","9","Female","","","","","","","null","<div style=""font-size:60px;"">+</div>","null","fixation","","","","","","","","","11","","",""
"revaluation","306","1226143","0.0-4.0-2.1-0.56","spark_pilot_norest","11452","1","9","Female","","false","","","","","[1190.5]","./assets/img/canyon/catch/2.jpg","[""ArrowDown""]","value training","canyon","-10","{""ArrowUp,ArrowLeft"":23,""ArrowUp,ArrowRight"":10,""ArrowDown,ArrowLeft"":8,""ArrowDown,ArrowRight"":30}","false","ArrowDown","true","revaluation","2","12","","",""
"html-keyboard-response","307","1226646","0.0-4.0-2.1-1.56","spark_pilot_norest","11452","1","9","Female","","","","","","","null","<div style=""font-size:60px;"">+</div>","null","fixation","","","","","","","","","13","","",""
"revaluation","308","1232660","0.0-4.0-2.1-0.57","spark_pilot_norest","11452","1","9","Female","","true","","","","","[1248.1000000238419]","./assets/img/canyon/memory/25.jpg","[""ArrowUp""]","value training","canyon","-5","{""ArrowUp,ArrowLeft"":23,""ArrowUp,ArrowRight"":10,""ArrowDown,ArrowLeft"":8,""ArrowDown,ArrowRight"":30}","false","ArrowUp","false","revaluation","2","14","","",""
"html-keyboard-response","309","1233162","0.0-4.0-2.1-1.57","spark_pilot_norest","11452","1","9","Female","","","","","","","null","<div style=""font-size:60px;"">+</div>","null","fixation","","","","","","","","","15","","",""
"revaluation","310","1239173","0.0-4.0-2.1-0.58","spark_pilot_norest","11452","1","9","Female","","false","","","","","[1343.800000011921,801.8000000119209]","./assets/img/canyon/memory/25.jpg","[""ArrowUp"",""ArrowRight""]","value training","canyon","10","{""ArrowUp,ArrowLeft"":23,""ArrowUp,ArrowRight"":10,""ArrowDown,ArrowLeft"":8,""ArrowDown,ArrowRight"":30}","false","ArrowUp,ArrowRight","false","revaluation","2","16","","",""
"html-keyboard-response","311","1239675","0.0-4.0-2.1-1.58","spark_pilot_norest","11452","1","9","Female","","","","","","","null","<div style=""font-size:60px;"">+</div>","null","fixation","","","","","","","","","17","","",""
