"trial_type","trial_index","time_elapsed","internal_node_id","task_version","subject_id","assigned_condition","age","gender","success","timeout","failed_images","failed_audio","failed_video","browser_interaction","rt","stimulus","response","task_part","environment","score","rewardMap","correct","fullState","isCatch","condition","order","trial_num","key_press","ground_truth","bonus"
"pavlovia","0","1163","0.0-0.0","spark_pilot_norest","8624","5","14","Male","","","","","","","","","","","","","","","","","","","","","",""
"preload","1","51555","0.0-1.0","spark_pilot_norest","8624","5","14","Male","true","false","[]","[]","[]","[{""event"":""fullscreenenter"",""trial"":2,""time"":56971}]","","","","","","","","","","","","","","","",""
"fullscreen","2","57966","0.0-2.0","spark_pilot_norest","8624","5","14","Male","true","","","","","","","","","","","","","","","","","","","","",""
"audio-button-response","3","60819","0.0-3.0-0.0-0.0","spark_pilot_norest","8624","5","14","Male","","","","","","","2827","./assets/audio/audiotest/turtle.mp3","2","audio_test","","","","","","","","","","","",""
"learning-instructions","4","69234","0.0-3.0-1.0-0.0","spark_pilot_norest","8624","5","14","Male","","","","","","","1412.5999999642372","<p> Welcome! Please remember to stay in fullscreen mode and don't click away from the experiment. </p>","","instructions","","","","","","","","","","","",""
"learning-instructions","5","78759","0.0-3.0-1.0-0.1","spark_pilot_norest","8624","5","14","Male","","","","","","","1089.7000000476837","<p> Today you will be playing a game to earn treasure. </p>
            <p> At the end of the experiment, you will earn a bonus based on how much treasure you find. </p>
            <img src='./assets/img/instructions/treasure.jpg' class='instructions-image'>","","instructions","","","","","","","","","","","",""
"learning-instructions","6","101848","0.0-3.0-1.0-0.2","spark_pilot_norest","8624","5","14","Male","","","","","","","14813.199999988079","<p> Animals have hidden treasure in treasure chests. </p>
            <p> You need to first find an animal and then choose which of their treasure chests to search. </p>
            <img src='./assets/img/space/animals/cat.jpg' class='instructions-image'>","","instructions","","","","","","","","","","","",""
"learning-instructions","7","116027","0.0-3.0-1.0-0.3","spark_pilot_norest","8624","5","14","Male","","","","","","","990.7999999523163","<p> In each round, you will search for treasure in a different place. In the real game, there will be two rounds. </p>
            <p> You will begin with a separate, practice round where you will search for treasure in outer space. </p>
            <img src='./assets/img/space/0.jpg' class='instructions-image'>","","instructions","","","","","","","","","","","",""
"learning-instructions","8","129776","0.0-3.0-1.0-0.4","spark_pilot_norest","8624","5","14","Male","","","","","","","2314.5","<p> On every turn, you will see a picture of the place that you are in, but the specific image may be different each time. </p>
            <p> For example, both of these images mean you are in outer space. </p>
            <img src='./assets/img/instructions/outerspace.jpg' class='instructions-image'>","","instructions","","","","","","","","","","","",""
"learning-instructions","9","139092","0.0-3.0-1.0-0.5","spark_pilot_norest","8624","5","14","Male","","","","","","","1453.699999988079","<p> You need to decide which direction to travel in. </p>
            <p> You can choose between going <b>up or down</b> by using the arrow keys. </p>
            <img src='./assets/img/instructions/updown.jpg' class='instructions-image'>","","instructions","","","","","","","","","","","",""
"learning-instructions","10","148854","0.0-3.0-1.0-0.6","spark_pilot_norest","8624","5","14","Male","","","","","","","933.1000000238419","<p> You will have <b>2 seconds</b> to make your choice. </p>
            <p> If you do not make a choice within 2 seconds, you will not find an animal or earn treasure. </p>
            <img src='./assets/img/instructions/2seconds.jpg' class='instructions-image'>","","instructions","","","","","","","","","","","",""
"learning-instructions","11","156692","0.0-3.0-1.0-0.7","spark_pilot_norest","8624","5","14","Male","","","","","","","781.0999999642372","<p> Let’s try practicing that now! </p>
            <p> When you see a picture of the place you are in, press the <b>up</b> key to travel up. </p>
            <img src='./assets/img/instructions/pressUp.jpg' class='instructions-image'>","","instructions","","","","","","","","","","","",""
"revaluation","12","160733","0.0-3.0-2.0-0.0","spark_pilot_norest","8624","5","14","Male","","false","","","","","[622.5999999642372]","./assets/img/space/0.jpg","[""ArrowUp""]","first stage practice","space","0","null","null","ArrowUp","false","","","","","",""
"html-keyboard-response","13","161235","0.0-3.0-2.0-1.0","spark_pilot_norest","8624","5","14","Male","","","","","","","null","<div style=""font-size:60px;"">+</div>","null","fixation","","","","","","","","","","","",""
"revaluation","14","165244","0.0-3.0-2.0-0.1","spark_pilot_norest","8624","5","14","Male","","true","","","","","[]","./assets/img/space/1.jpg","[]","first stage practice","space","-5","null","null","","false","","","","","",""
"html-keyboard-response","15","165746","0.0-3.0-2.0-1.1","spark_pilot_norest","8624","5","14","Male","","","","","","","null","<div style=""font-size:60px;"">+</div>","null","fixation","","","","","","","","","","","",""
"revaluation","16","169758","0.0-3.0-2.0-0.2","spark_pilot_norest","8624","5","14","Male","","false","","","","","[445.0999999642372]","./assets/img/space/2.jpg","[""ArrowUp""]","first stage practice","space","0","null","null","ArrowUp","false","","","","","",""
"html-keyboard-response","17","170260","0.0-3.0-2.0-1.2","spark_pilot_norest","8624","5","14","Male","","","","","","","null","<div style=""font-size:60px;"">+</div>","null","fixation","","","","","","","","","","","",""
"learning-instructions","18","176538","0.0-3.0-3.0-0.0","spark_pilot_norest","8624","5","14","Male","","","","","","","1566.699999988079","<p> Great job! Now try pressing the <b>down</b> key to travel down. </p>
            <img src='./assets/img/instructions/pressDown.jpg' class='instructions-image'>","","instructions","","","","","","","","","","","",""
"revaluation","19","180546","0.0-3.0-4.0-0.0","spark_pilot_norest","8624","5","14","Male","","false","","","","","[332.7000000476837]","./assets/img/space/3.jpg","[""ArrowDown""]","first stage practice","space","0","null","null","ArrowDown","false","","","","","",""
"html-keyboard-response","20","181048","0.0-3.0-4.0-1.0","spark_pilot_norest","8624","5","14","Male","","","","","","","null","<div style=""font-size:60px;"">+</div>","null","fixation","","","","","","","","","","","",""
"revaluation","21","185057","0.0-3.0-4.0-0.1","spark_pilot_norest","8624","5","14","Male","","false","","","","","[173.89999997615814]","./assets/img/space/4.jpg","[""ArrowDown""]","first stage practice","space","0","null","null","ArrowDown","false","","","","","",""
"html-keyboard-response","22","185559","0.0-3.0-4.0-1.1","spark_pilot_norest","8624","5","14","Male","","","","","","","null","<div style=""font-size:60px;"">+</div>","null","fixation","","","","","","","","","","","",""
"revaluation","23","189580","0.0-3.0-4.0-0.2","spark_pilot_norest","8624","5","14","Male","","false","","","","","[342.19999998807907]","./assets/img/space/5.jpg","[""ArrowDown""]","first stage practice","space","0","null","null","ArrowDown","false","","","","","",""
"html-keyboard-response","24","190082","0.0-3.0-4.0-1.2","spark_pilot_norest","8624","5","14","Male","","","","","","","null","<div style=""font-size:60px;"">+</div>","null","fixation","","","","","","","","","","","",""
"learning-instructions","25","201599","0.0-3.0-5.0-0.0","spark_pilot_norest","8624","5","14","Male","","","","","","","1646.6000000238419","<p> The animals don’t move, so the animal in the upper part of a place will stay in the upper part of a place, and the animal in the lower part of a place will stay in the lower part of a place. </p>","","instructions","","","","","","","","","","","",""
"learning-instructions","26","211618","0.0-3.0-5.0-0.1","spark_pilot_norest","8624","5","14","Male","","","","","","","870.6000000238419","<p> Each animal has two treasure chests for you to choose from. </p>
            <p> The amount of treasure in each chest can range from <b> 0 to 40 pieces.</b></p>","","instructions","","","","","","","","","","","",""
"learning-instructions","27","223416","0.0-3.0-5.0-0.2","spark_pilot_norest","8624","5","14","Male","","","","","","","582.8000000119209","<p> You should decide which chest to search for treasure by using the <b>left</b> and <b>right</b> arrow keys. </p>
            <p><b> Pay attention to which animal is on the screen, as the animals have different treasure chests. </b></p>
            <img src='./assets/img/instructions/leftright.jpg' class='instructions-image'>","","instructions","","","","","","","","","","","",""
"learning-instructions","28","230223","0.0-3.0-5.0-0.3","spark_pilot_norest","8624","5","14","Male","","","","","","","424.39999997615814","<p> Let’s try practicing that now. </p>
            <p> When you see an animal, choose which chest to search for treasure. </p>
            <img src='./assets/img/instructions/chooseChest.jpg' class='instructions-image'>","","instructions","","","","","","","","","","","",""
"revaluation","29","234235","0.0-3.0-6.0-0.0","spark_pilot_norest","8624","5","14","Male","","false","","","","","[1019.2000000476837]","./assets/img/space/animals/cat.jpg","[""ArrowRight""]","second stage practice","space","36","{""ArrowUp,ArrowLeft"":3,""ArrowUp,ArrowRight"":36,""ArrowDown,ArrowLeft"":15,""ArrowDown,ArrowRight"":23}","true","ArrowUp,ArrowRight","","","","","","",""
"html-keyboard-response","30","234737","0.0-3.0-6.0-1.0","spark_pilot_norest","8624","5","14","Male","","","","","","","null","<div style=""font-size:60px;"">+</div>","null","fixation","","","","","","","","","","","",""
"revaluation","31","238746","0.0-3.0-6.0-0.1","spark_pilot_norest","8624","5","14","Male","","false","","","","","[917.6000000238419]","./assets/img/space/animals/rabbit.jpg","[""ArrowLeft""]","second stage practice","space","15","{""ArrowUp,ArrowLeft"":3,""ArrowUp,ArrowRight"":36,""ArrowDown,ArrowLeft"":15,""ArrowDown,ArrowRight"":23}","false","ArrowDown,ArrowLeft","","","","","","",""
"html-keyboard-response","32","239248","0.0-3.0-6.0-1.1","spark_pilot_norest","8624","5","14","Male","","","","","","","null","<div style=""font-size:60px;"">+</div>","null","fixation","","","","","","","","","","","",""
"revaluation","33","243255","0.0-3.0-6.0-0.2","spark_pilot_norest","8624","5","14","Male","","false","","","","","[939]","./assets/img/space/animals/rabbit.jpg","[""ArrowRight""]","second stage practice","space","23","{""ArrowUp,ArrowLeft"":3,""ArrowUp,ArrowRight"":36,""ArrowDown,ArrowLeft"":15,""ArrowDown,ArrowRight"":23}","true","ArrowDown,ArrowRight","","","","","","",""
"html-keyboard-response","34","243756","0.0-3.0-6.0-1.2","spark_pilot_norest","8624","5","14","Male","","","","","","","null","<div style=""font-size:60px;"">+</div>","null","fixation","","","","","","","","","","","",""
"revaluation","35","247763","0.0-3.0-6.0-0.3","spark_pilot_norest","8624","5","14","Male","","false","","","","","[364.30000001192093]","./assets/img/space/animals/cat.jpg","[""ArrowRight""]","second stage practice","space","36","{""ArrowUp,ArrowLeft"":3,""ArrowUp,ArrowRight"":36,""ArrowDown,ArrowLeft"":15,""ArrowDown,ArrowRight"":23}","true","ArrowUp,ArrowRight","","","","","","",""
"html-keyboard-response","36","248265","0.0-3.0-6.0-1.3","spark_pilot_norest","8624","5","14","Male","","","","","","","null","<div style=""font-size:60px;"">+</div>","null","fixation","","","","","","","","","","","",""
"learning-instructions","37","267968","0.0-3.0-7.0-0.0","spark_pilot_norest","8624","5","14","Male","","","","","","","2853.199999988079","<p> Great job. Now let’s try putting it together. </p>
            <p> On each turn, you will first see a picture to remind you of the place you are in, and you need to choose whether to go up or down. </p>
            <p> Then you will see an animal and choose which of its chests to search for treasure. </p>","","instructions","","","","","","","","","","","",""
"learning-instructions","38","277280","0.0-3.0-7.0-0.1","spark_pilot_norest","8624","5","14","Male","","","","","","","1029.4000000357628","<p> When you choose whether to go up or down, try to go to the animal with the chest with the most treasure. </p>
            <p> Try practicing that now! </p>","","instructions","","","","","","","","","","","",""
"revaluation","39","283288","0.0-3.0-8.0-0.0","spark_pilot_norest","8624","5","14","Male","","false","","","","","[1250.7000000476837,624.2999999523163]","./assets/img/space/6.jpg","[""ArrowUp"",""ArrowLeft""]","full practice","space","3","{""ArrowUp,ArrowLeft"":3,""ArrowUp,ArrowRight"":36,""ArrowDown,ArrowLeft"":15,""ArrowDown,ArrowRight"":23}","false","ArrowUp,ArrowLeft","false","","","","","",""
"html-keyboard-response","40","283790","0.0-3.0-8.0-1.0","spark_pilot_norest","8624","5","14","Male","","","","","","","null","<div style=""font-size:60px;"">+</div>","null","fixation","","","","","","","","","","","",""
"revaluation","41","289799","0.0-3.0-8.0-0.1","spark_pilot_norest","8624","5","14","Male","","false","","","","","[56.19999998807907,278.5]","./assets/img/space/7.jpg","[""ArrowDown"",""ArrowRight""]","full practice","space","23","{""ArrowUp,ArrowLeft"":3,""ArrowUp,ArrowRight"":36,""ArrowDown,ArrowLeft"":15,""ArrowDown,ArrowRight"":23}","false","ArrowDown,ArrowRight","false","","","","","",""
"html-keyboard-response","42","290301","0.0-3.0-8.0-1.1","spark_pilot_norest","8624","5","14","Male","","","","","","","null","<div style=""font-size:60px;"">+</div>","null","fixation","","","","","","","","","","","",""
"revaluation","43","296309","0.0-3.0-8.0-0.2","spark_pilot_norest","8624","5","14","Male","","false","","","","","[152.10000002384186,507.69999998807907]","./assets/img/space/8.jpg","[""ArrowUp"",""ArrowRight""]","full practice","space","36","{""ArrowUp,ArrowLeft"":3,""ArrowUp,ArrowRight"":36,""ArrowDown,ArrowLeft"":15,""ArrowDown,ArrowRight"":23}","true","ArrowUp,ArrowRight","false","","","","","",""
"html-keyboard-response","44","296811","0.0-3.0-8.0-1.2","spark_pilot_norest","8624","5","14","Male","","","","","","","null","<div style=""font-size:60px;"">+</div>","null","fixation","","","","","","","","","","","",""
"revaluation","45","302819","0.0-3.0-8.0-0.3","spark_pilot_norest","8624","5","14","Male","","false","","","","","[591.8000000119209,558]","./assets/img/space/9.jpg","[""ArrowDown"",""ArrowRight""]","full practice","space","23","{""ArrowUp,ArrowLeft"":3,""ArrowUp,ArrowRight"":36,""ArrowDown,ArrowLeft"":15,""ArrowDown,ArrowRight"":23}","false","ArrowDown,ArrowRight","false","","","","","",""
"html-keyboard-response","46","303322","0.0-3.0-8.0-1.3","spark_pilot_norest","8624","5","14","Male","","","","","","","null","<div style=""font-size:60px;"">+</div>","null","fixation","","","","","","","","","","","",""
"revaluation","47","309331","0.0-3.0-8.0-0.4","spark_pilot_norest","8624","5","14","Male","","false","","","","","[234.5999999642372,249.69999998807907]","./assets/img/space/10.jpg","[""ArrowUp"",""ArrowLeft""]","full practice","space","3","{""ArrowUp,ArrowLeft"":3,""ArrowUp,ArrowRight"":36,""ArrowDown,ArrowLeft"":15,""ArrowDown,ArrowRight"":23}","false","ArrowUp,ArrowLeft","false","","","","","",""
"html-keyboard-response","48","309833","0.0-3.0-8.0-1.4","spark_pilot_norest","8624","5","14","Male","","","","","","","null","<div style=""font-size:60px;"">+</div>","null","fixation","","","","","","","","","","","",""
"learning-instructions","49","321204","0.0-3.0-9.0-0.0","spark_pilot_norest","8624","5","14","Male","","","","","","","1044.199999988079","<p> One last thing: sometimes, you will see a robber. The robber can be anywhere in the picture. </p>
            <p> If you do not stop them, you will lose treasure. </p>
            <img src='./assets/img/instructions/robber.jpg' class='instructions-image'>","","instructions","","","","","","","","","","","",""
"learning-instructions","50","328809","0.0-3.0-9.0-0.1","spark_pilot_norest","8624","5","14","Male","","","","","","","415.10000002384186","<p> If you see the robber, you should <b>press the space bar</b> rather than using the arrow keys. </p>
            <p> Try practicing that now! </p>","","instructions","","","","","","","","","","","",""
"revaluation","51","332817","0.0-3.0-10.0-0.0","spark_pilot_norest","8624","5","14","Male","","false","","","","","[811.8999999761581]","./assets/img/space/catch/0.jpg","[""spaceBar""]","catch practice","space","0","{""ArrowUp,ArrowLeft"":3,""ArrowUp,ArrowRight"":36,""ArrowDown,ArrowLeft"":15,""ArrowDown,ArrowRight"":23}","true","spaceBar","true","","","","","",""
"html-keyboard-response","52","333320","0.0-3.0-10.0-1.0","spark_pilot_norest","8624","5","14","Male","","","","","","","null","<div style=""font-size:60px;"">+</div>","null","fixation","","","","","","","","","","","",""
"revaluation","53","337328","0.0-3.0-10.0-0.1","spark_pilot_norest","8624","5","14","Male","","false","","","","","[848]","./assets/img/space/catch/1.jpg","[""spaceBar""]","catch practice","space","0","{""ArrowUp,ArrowLeft"":3,""ArrowUp,ArrowRight"":36,""ArrowDown,ArrowLeft"":15,""ArrowDown,ArrowRight"":23}","true","spaceBar","true","","","","","",""
"html-keyboard-response","54","337829","0.0-3.0-10.0-1.1","spark_pilot_norest","8624","5","14","Male","","","","","","","null","<div style=""font-size:60px;"">+</div>","null","fixation","","","","","","","","","","","",""
"revaluation","55","341838","0.0-3.0-10.0-0.2","spark_pilot_norest","8624","5","14","Male","","false","","","","","[186.29999995231628]","./assets/img/space/catch/2.jpg","[""spaceBar""]","catch practice","space","0","{""ArrowUp,ArrowLeft"":3,""ArrowUp,ArrowRight"":36,""ArrowDown,ArrowLeft"":15,""ArrowDown,ArrowRight"":23}","true","spaceBar","true","","","","","",""
"html-keyboard-response","56","342340","0.0-3.0-10.0-1.2","spark_pilot_norest","8624","5","14","Male","","","","","","","null","<div style=""font-size:60px;"">+</div>","null","fixation","","","","","","","","","","","",""
"learning-instructions","57","350458","0.0-3.0-11.0-0.0-0.0","spark_pilot_norest","8624","5","14","Male","","","","","","","2833","<p> Now, you will practice a shortened version of the game to get a sense of how it all fits together. </p>","","instructions","","","","","","","","","","","",""
"learning-instructions","58","355169","0.0-3.0-11.0-0.0-0.1","spark_pilot_norest","8624","5","14","Male","","","","","","","1506.300000011921","<p>This time you are searching for treasure in outer space.</p>","","instructions","","","","","","","","","","","",""
"learning-instructions","59","370772","0.0-3.0-11.0-1.0-0.0","spark_pilot_norest","8624","5","14","Male","","","","","","","800.1000000238419","<p> Remember, when you see a picture of the place, use the up and down keys to <b>find an animal</b>.</p>
            <p> When you encounter an animal, you should use the left and right keys to <b>select a treasure chest</b>.</p>
            <p> Don't forget to look out for the robber! </p>","","instructions","","","","","","","","","","","",""
"revaluation","60","376777","0.0-3.0-11.0-2.0-0.0","spark_pilot_norest","8624","5","14","Male","","false","","","","","[1470,1154.800000011921]","./assets/img/space/11.jpg","[""ArrowDown"",""ArrowLeft""]","practice block","space","15","{""ArrowUp,ArrowLeft"":3,""ArrowUp,ArrowRight"":36,""ArrowDown,ArrowLeft"":15,""ArrowDown,ArrowRight"":23}","false","ArrowDown,ArrowLeft","false","","","","","",""
"html-keyboard-response","61","377279","0.0-3.0-11.0-2.0-1.0","spark_pilot_norest","8624","5","14","Male","","","","","","","null","<div style=""font-size:60px;"">+</div>","null","fixation","","","","","","","","","","","",""
"revaluation","62","383286","0.0-3.0-11.0-2.0-0.1","spark_pilot_norest","8624","5","14","Male","","false","","","","","[717.8000000119209,806]","./assets/img/space/12.jpg","[""ArrowUp"",""ArrowRight""]","practice block","space","36","{""ArrowUp,ArrowLeft"":3,""ArrowUp,ArrowRight"":36,""ArrowDown,ArrowLeft"":15,""ArrowDown,ArrowRight"":23}","true","ArrowUp,ArrowRight","false","","","","","",""
"html-keyboard-response","63","383788","0.0-3.0-11.0-2.0-1.1","spark_pilot_norest","8624","5","14","Male","","","","","","","null","<div style=""font-size:60px;"">+</div>","null","fixation","","","","","","","","","","","",""
"revaluation","64","389797","0.0-3.0-11.0-2.0-0.2","spark_pilot_norest","8624","5","14","Male","","false","","","","","[812.5,1382.5999999642372]","./assets/img/space/13.jpg","[""ArrowUp"",""ArrowRight""]","practice block","space","36","{""ArrowUp,ArrowLeft"":3,""ArrowUp,ArrowRight"":36,""ArrowDown,ArrowLeft"":15,""ArrowDown,ArrowRight"":23}","true","ArrowUp,ArrowRight","false","","","","","",""
"html-keyboard-response","65","390299","0.0-3.0-11.0-2.0-1.2","spark_pilot_norest","8624","5","14","Male","","","","","","","null","<div style=""font-size:60px;"">+</div>","null","fixation","","","","","","","","","","","",""
"revaluation","66","396309","0.0-3.0-11.0-2.0-0.3","spark_pilot_norest","8624","5","14","Male","","false","","","","","[564.8000000119209,914.1999999880791]","./assets/img/space/14.jpg","[""ArrowDown"",""ArrowRight""]","practice block","space","23","{""ArrowUp,ArrowLeft"":3,""ArrowUp,ArrowRight"":36,""ArrowDown,ArrowLeft"":15,""ArrowDown,ArrowRight"":23}","false","ArrowDown,ArrowRight","false","","","","","",""
"html-keyboard-response","67","396811","0.0-3.0-11.0-2.0-1.3","spark_pilot_norest","8624","5","14","Male","","","","","","","null","<div style=""font-size:60px;"">+</div>","null","fixation","","","","","","","","","","","",""
"revaluation","68","402820","0.0-3.0-11.0-2.0-0.4","spark_pilot_norest","8624","5","14","Male","","false","","","","","[1421.699999988079,817.1999999880791]","./assets/img/space/11.jpg","[""ArrowDown"",""ArrowLeft""]","practice block","space","15","{""ArrowUp,ArrowLeft"":3,""ArrowUp,ArrowRight"":36,""ArrowDown,ArrowLeft"":15,""ArrowDown,ArrowRight"":23}","false","ArrowDown,ArrowLeft","false","","","","","",""
"html-keyboard-response","69","403322","0.0-3.0-11.0-2.0-1.4","spark_pilot_norest","8624","5","14","Male","","","","","","","null","<div style=""font-size:60px;"">+</div>","null","fixation","","","","","","","","","","","",""
"revaluation","70","409332","0.0-3.0-11.0-2.0-0.5","spark_pilot_norest","8624","5","14","Male","","false","","","","","[644,510.5]","./assets/img/space/12.jpg","[""ArrowUp"",""ArrowLeft""]","practice block","space","3","{""ArrowUp,ArrowLeft"":3,""ArrowUp,ArrowRight"":36,""ArrowDown,ArrowLeft"":15,""ArrowDown,ArrowRight"":23}","false","ArrowUp,ArrowLeft","false","","","","","",""
"html-keyboard-response","71","409834","0.0-3.0-11.0-2.0-1.5","spark_pilot_norest","8624","5","14","Male","","","","","","","null","<div style=""font-size:60px;"">+</div>","null","fixation","","","","","","","","","","","",""
"revaluation","72","415843","0.0-3.0-11.0-2.0-0.6","spark_pilot_norest","8624","5","14","Male","","false","","","","","[495.60000002384186,265.89999997615814]","./assets/img/space/13.jpg","[""ArrowUp"",""ArrowRight""]","practice block","space","36","{""ArrowUp,ArrowLeft"":3,""ArrowUp,ArrowRight"":36,""ArrowDown,ArrowLeft"":15,""ArrowDown,ArrowRight"":23}","true","ArrowUp,ArrowRight","false","","","","","",""
"html-keyboard-response","73","416345","0.0-3.0-11.0-2.0-1.6","spark_pilot_norest","8624","5","14","Male","","","","","","","null","<div style=""font-size:60px;"">+</div>","null","fixation","","","","","","","","","","","",""
"revaluation","74","422354","0.0-3.0-11.0-2.0-0.7","spark_pilot_norest","8624","5","14","Male","","false","","","","","[504,508.2000000476837]","./assets/img/space/14.jpg","[""ArrowUp"",""ArrowRight""]","practice block","space","36","{""ArrowUp,ArrowLeft"":3,""ArrowUp,ArrowRight"":36,""ArrowDown,ArrowLeft"":15,""ArrowDown,ArrowRight"":23}","true","ArrowUp,ArrowRight","false","","","","","",""
"html-keyboard-response","75","422856","0.0-3.0-11.0-2.0-1.7","spark_pilot_norest","8624","5","14","Male","","","","","","","null","<div style=""font-size:60px;"">+</div>","null","fixation","","","","","","","","","","","",""
"revaluation","76","426861","0.0-3.0-11.0-2.0-0.8","spark_pilot_norest","8624","5","14","Male","","false","","","","","[667.8999999761581]","./assets/img/space/catch/3.jpg","[""spaceBar""]","practice block","space","0","{""ArrowUp,ArrowLeft"":3,""ArrowUp,ArrowRight"":36,""ArrowDown,ArrowLeft"":15,""ArrowDown,ArrowRight"":23}","true","spaceBar","true","","","","","",""
"html-keyboard-response","77","427364","0.0-3.0-11.0-2.0-1.8","spark_pilot_norest","8624","5","14","Male","","","","","","","null","<div style=""font-size:60px;"">+</div>","null","fixation","","","","","","","","","","","",""
"learning-instructions","78","442363","0.0-3.0-11.0-3.0-0.0","spark_pilot_norest","8624","5","14","Male","","","","","","","2061.800000011921","<p> Now, you will travel with a friend who will choose whether you go up or down first. </p>
            <p> On these turns, you will just see the animal that they found. You will still get to choose which chest to search for treasure.</p>","","instructions","","","","","","","","","","","",""
"revaluation","79","446371","0.0-3.0-11.0-4.0-0.0","spark_pilot_norest","8624","5","14","Male","","false","","","","","[857.3000000119209]","./assets/img/space/animals/rabbit.jpg","[""ArrowRight""]","practice block","space","23","{""ArrowUp,ArrowLeft"":3,""ArrowUp,ArrowRight"":36,""ArrowDown,ArrowLeft"":15,""ArrowDown,ArrowRight"":23}","true","ArrowDown,ArrowRight","","","","","","",""
"html-keyboard-response","80","446873","0.0-3.0-11.0-4.0-1.0","spark_pilot_norest","8624","5","14","Male","","","","","","","null","<div style=""font-size:60px;"">+</div>","null","fixation","","","","","","","","","","","",""
"revaluation","81","450882","0.0-3.0-11.0-4.0-0.1","spark_pilot_norest","8624","5","14","Male","","false","","","","","[1712.199999988079]","./assets/img/space/animals/cat.jpg","[""ArrowRight""]","practice block","space","36","{""ArrowUp,ArrowLeft"":3,""ArrowUp,ArrowRight"":36,""ArrowDown,ArrowLeft"":15,""ArrowDown,ArrowRight"":23}","true","ArrowUp,ArrowRight","","","","","","",""
"html-keyboard-response","82","451384","0.0-3.0-11.0-4.0-1.1","spark_pilot_norest","8624","5","14","Male","","","","","","","null","<div style=""font-size:60px;"">+</div>","null","fixation","","","","","","","","","","","",""
"revaluation","83","455390","0.0-3.0-11.0-4.0-0.2","spark_pilot_norest","8624","5","14","Male","","false","","","","","[691.9000000357628]","./assets/img/space/animals/rabbit.jpg","[""ArrowLeft""]","practice block","space","15","{""ArrowUp,ArrowLeft"":3,""ArrowUp,ArrowRight"":36,""ArrowDown,ArrowLeft"":15,""ArrowDown,ArrowRight"":23}","false","ArrowDown,ArrowLeft","","","","","","",""
"html-keyboard-response","84","455892","0.0-3.0-11.0-4.0-1.2","spark_pilot_norest","8624","5","14","Male","","","","","","","null","<div style=""font-size:60px;"">+</div>","null","fixation","","","","","","","","","","","",""
"revaluation","85","459902","0.0-3.0-11.0-4.0-0.3","spark_pilot_norest","8624","5","14","Male","","false","","","","","[378.5999999642372]","./assets/img/space/animals/cat.jpg","[""ArrowRight""]","practice block","space","36","{""ArrowUp,ArrowLeft"":3,""ArrowUp,ArrowRight"":36,""ArrowDown,ArrowLeft"":15,""ArrowDown,ArrowRight"":23}","true","ArrowUp,ArrowRight","","","","","","",""
"html-keyboard-response","86","460404","0.0-3.0-11.0-4.0-1.3","spark_pilot_norest","8624","5","14","Male","","","","","","","null","<div style=""font-size:60px;"">+</div>","null","fixation","","","","","","","","","","","",""
"learning-instructions","87","468540","0.0-3.0-11.0-5.0-0.0","spark_pilot_norest","8624","5","14","Male","","","","","","","null","<p> You have almost finished this part of the game! </p>
            <p> We are going to ask you to make a few more choices. </p>","","instructions","","","","","","","","","","","",""
"learning-instructions","88","484572","0.0-3.0-11.0-5.0-0.1","spark_pilot_norest","8624","5","14","Male","","","","","","","null","<p> First, you need to decide whether to go up or down. When you see each picture, use the arrow keys to make your choice. </p>
            <p><b>You will not see which animal you found, but try to get to the one that will give you the most treasure.</b></p>","","instructions","","","","","","","","","","","",""
"html-keyboard-response","89","485575","0.0-3.0-11.0-6.0-0.0","spark_pilot_norest","8624","5","14","Male","","","","","","","null","<div style=""font-size:100px;color:red;"">Starting in...</div>","null","","","","","","","","","","","","",""
"html-keyboard-response","90","486577","0.0-3.0-11.0-6.0-1.0","spark_pilot_norest","8624","5","14","Male","","","","","","","null","<div style=""font-size:200px;color:red;"">3</div>","null","","","","","","","","","","","","",""
"html-keyboard-response","91","487578","0.0-3.0-11.0-6.0-2.0","spark_pilot_norest","8624","5","14","Male","","","","","","","null","<div style=""font-size:200px;color:red;"">2</div>","null","","","","","","","","","","","","",""
"html-keyboard-response","92","488580","0.0-3.0-11.0-6.0-3.0","spark_pilot_norest","8624","5","14","Male","","","","","","","null","<div style=""font-size:200px;color:red;"">1</div>","null","","","","","","","","","","","","",""
"revaluation","93","489177","0.0-3.0-11.0-7.0","spark_pilot_norest","8624","5","14","Male","","false","","","","","[590.0999999642372]","./assets/img/space/15.jpg","[""ArrowUp""]","practice block","space","0","{""ArrowUp,ArrowLeft"":3,""ArrowUp,ArrowRight"":36,""ArrowDown,ArrowLeft"":15,""ArrowDown,ArrowRight"":23}","true","ArrowUp","false","","","","","",""
"html-keyboard-response","94","489679","0.0-3.0-11.0-8.0","spark_pilot_norest","8624","5","14","Male","","","","","","","null","<div style=""font-size:60px;"">+</div>","null","fixation","","","","","","","","","","","",""
"learning-instructions","95","503090","0.0-3.0-11.0-9.0-0.0","spark_pilot_norest","8624","5","14","Male","","","","","","","null","<p> Now you will see the animals again and can search their chests for treasure. </p>
            <p> This time, you will not see how much treasure you earned, but you will earn more bonus money for making better choices. </p>","","instructions","","","","","","","","","","","",""
"html-keyboard-response","96","504092","0.0-3.0-11.0-10.0-0.0","spark_pilot_norest","8624","5","14","Male","","","","","","","null","<div style=""font-size:100px;color:red;"">Starting in...</div>","null","","","","","","","","","","","","",""
"html-keyboard-response","97","505094","0.0-3.0-11.0-10.0-1.0","spark_pilot_norest","8624","5","14","Male","","","","","","","null","<div style=""font-size:200px;color:red;"">3</div>","null","","","","","","","","","","","","",""
"html-keyboard-response","98","506095","0.0-3.0-11.0-10.0-2.0","spark_pilot_norest","8624","5","14","Male","","","","","","","null","<div style=""font-size:200px;color:red;"">2</div>","null","","","","","","","","","","","","",""
"html-keyboard-response","99","507097","0.0-3.0-11.0-10.0-3.0","spark_pilot_norest","8624","5","14","Male","","","","","","","null","<div style=""font-size:200px;color:red;"">1</div>","null","","","","","","","","","","","","",""
"revaluation","100","507670","0.0-3.0-11.0-11.0-0.0","spark_pilot_norest","8624","5","14","Male","","false","","","","","[565.3000000119209]","./assets/img/space/animals/cat.jpg","[""ArrowRight""]","practice block","space","0","{""ArrowUp,ArrowLeft"":3,""ArrowUp,ArrowRight"":36,""ArrowDown,ArrowLeft"":15,""ArrowDown,ArrowRight"":23}","true","ArrowUp,ArrowRight","","","","","","",""
"html-keyboard-response","101","508172","0.0-3.0-11.0-11.0-1.0","spark_pilot_norest","8624","5","14","Male","","","","","","","null","<div style=""font-size:60px;"">+</div>","null","fixation","","","","","","","","","","","",""
"revaluation","102","508939","0.0-3.0-11.0-11.0-0.1","spark_pilot_norest","8624","5","14","Male","","false","","","","","[757.8999999761581]","./assets/img/space/animals/rabbit.jpg","[""ArrowLeft""]","practice block","space","0","{""ArrowUp,ArrowLeft"":3,""ArrowUp,ArrowRight"":36,""ArrowDown,ArrowLeft"":15,""ArrowDown,ArrowRight"":23}","false","ArrowDown,ArrowLeft","","","","","","",""
"html-keyboard-response","103","509442","0.0-3.0-11.0-11.0-1.1","spark_pilot_norest","8624","5","14","Male","","","","","","","null","<div style=""font-size:60px;"">+</div>","null","fixation","","","","","","","","","","","",""
"learning-instructions","104","515721","0.0-3.0-12.0-0.0","spark_pilot_norest","8624","5","14","Male","","","","","","","1680.8999999761581","<p> Before you start, we're going to ask you a few questions about how the game works. </p>","","instructions","","","","","","","","","","","",""
"comp-q","105","522413","0.0-3.0-13.0-0.0-0.0","spark_pilot_norest","8624","5","14","Male","","","","","","","1078.8999999761581","<p> <b> True or False? </b> </p>
            <p> There can be 50 pieces of treasure in a given animal's chest. </p>","1","comp_question","","","","true","","","","","","","",""
"comp-q","106","529923","0.0-3.0-13.0-0.0-1.0","spark_pilot_norest","8624","5","14","Male","","","","","","","830.3000000119209","<p> <b> That's right! </b> The amount of treasure in each chest can range from 0 to 40 pieces. </p>","0","comp_answer","","","","","","","","","","","",""
"comp-q","107","538973","0.0-3.0-13.0-0.1-0.1","spark_pilot_norest","8624","5","14","Male","","","","","","","1913.1000000238419","<p> <b> True or False? </b> </p><p> In this game, all animals have the same amount of treasure in their left and right chests. </p>","1","comp_question","","","","true","","","","","","","",""
"comp-q","108","544901","0.0-3.0-13.0-0.1-1.1","spark_pilot_norest","8624","5","14","Male","","","","","","","684.3000000119209","<p> <b> That's right! </b> Animals have different amounts of treasure in their treasure chests. </p>","0","comp_answer","","","","","","","","","","","",""
"comp-q","109","551669","0.0-3.0-13.0-0.2-0.2","spark_pilot_norest","8624","5","14","Male","","","","","","","902.1000000238419","<p> <b> True or False? </b> </p><p> The same animal will always be there if you go up in the same place. </p>","0","comp_question","","","","true","","","","","","","",""
"comp-q","110","559665","0.0-3.0-13.0-0.2-1.2","spark_pilot_norest","8624","5","14","Male","","","","","","","1539.300000011921","<p> <b> That's right! </b> One animal lives in the upper part and one lives in the lower part of every place. </p>","0","comp_answer","","","","","","","","","","","",""
"comp-q","111","566444","0.0-3.0-13.0-0.3-0.3","spark_pilot_norest","8624","5","14","Male","","","","","","","1234.1000000238419","<p> <b> True or False? </b> </p><p> If you see a different picture, it means you are in a new place. </p>","0","comp_question","","","","false","","","","","","","",""
"comp-q","112","580836","0.0-3.0-13.0-0.3-1.3","spark_pilot_norest","8624","5","14","Male","","","","","","","3274.899999976158","<p> <b>Incorrect.</b> Lots of different images may show the same place. For example,  you may see three different images that all remind you that you are in outer space. </p>","0","comp_answer","","","","","","","","","","","",""
"comp-q","113","587946","0.0-3.0-13.0-0.4-0.4","spark_pilot_norest","8624","5","14","Male","","","","","","","1606.6000000238419","<p> <b> True or False? </b> </p><p> If you see a different picture, it means you are in a new place. </p>","1","comp_question","","","","true","","","","","","","",""
"comp-q","114","600411","0.0-3.0-13.0-0.4-1.4","spark_pilot_norest","8624","5","14","Male","","","","","","","1217.4000000357628","<p> <b> That's right! </b> Lots of different images may show the same place. For example,  you may see three different images that all remind you that you are in outer space. </p>","0","comp_answer","","","","","","","","","","","",""
"learning-instructions","115","611556","0.0-3.0-14.0-0.0","spark_pilot_norest","8624","5","14","Male","","","","","","","1269.300000011921","<p> Good job. Remember to do your best because the amount of treasure you earn will be converted into bonus money. </p>
            <p> It’s time to start the real game! </p>","","instructions","","","","","","","","","","","",""
"learning-instructions","116","615710","0.0-4.0-0.0-0.0","spark_pilot_norest","8624","5","14","Male","","","","","","","1379.8999999761581","<p> This time you are searching for treasure in the <b>canyon</b>.</p>","","instructions","","","","","","","","","","","",""
"learning-instructions","117","633740","0.0-4.0-0.0-0.1","spark_pilot_norest","8624","5","14","Male","","","","","","","690.5","<p><b>New</b> animals with <b>new</b> treasure chests live here. You need to explore to discover where the animal with the best treasure chest is.</p>
                    <p> Like before, once you figure out which animal has the chest with the most treasure, you should try to get to that animal and select that chest! </p>","","instructions","","","","","","","","","","","",""
"learning-instructions","118","648935","0.0-4.0-1.0-0.0","spark_pilot_norest","8624","5","14","Male","","","","","","","461.30000001192093","<p> Remember, when you see a picture of the place, use the up and down keys to <b>find an animal</b>.</p>
            <p> When you encounter an animal, you should use the left and right keys to <b>select a treasure chest</b>.</p>
            <p> Don't forget to look out for the robber! </p>","","instructions","","","","","","","","","","","",""
"revaluation","119","654943","0.0-4.0-2.0-0.0","spark_pilot_norest","8624","5","14","Male","","false","","","","","[549.3000000119209,1463.300000011921]","./assets/img/canyon/memory/23.jpg","[""ArrowDown"",""ArrowRight""]","value training","canyon","17","{""ArrowUp,ArrowLeft"":26,""ArrowUp,ArrowRight"":10,""ArrowDown,ArrowLeft"":5,""ArrowDown,ArrowRight"":17}","false","ArrowDown,ArrowRight","false","original","1","0","","",""
"html-keyboard-response","120","655453","0.0-4.0-2.0-1.0","spark_pilot_norest","8624","5","14","Male","","","","","","","null","<div style=""font-size:60px;"">+</div>","null","fixation","","","","","","","","","1","","",""
"revaluation","121","661461","0.0-4.0-2.0-0.1","spark_pilot_norest","8624","5","14","Male","","false","","","","","[542.5,510.9000000357628]","./assets/img/canyon/memory/8.jpg","[""ArrowDown"",""ArrowLeft""]","value training","canyon","5","{""ArrowUp,ArrowLeft"":26,""ArrowUp,ArrowRight"":10,""ArrowDown,ArrowLeft"":5,""ArrowDown,ArrowRight"":17}","false","ArrowDown,ArrowLeft","false","original","1","2","","",""
"html-keyboard-response","122","661964","0.0-4.0-2.0-1.1","spark_pilot_norest","8624","5","14","Male","","","","","","","null","<div style=""font-size:60px;"">+</div>","null","fixation","","","","","","","","","3","","",""
"revaluation","123","665970","0.0-4.0-2.0-0.2","spark_pilot_norest","8624","5","14","Male","","false","","","","","[108.89999997615814]","./assets/img/canyon/catch/4.jpg","[""ArrowUp""]","value training","canyon","-10","{""ArrowUp,ArrowLeft"":26,""ArrowUp,ArrowRight"":10,""ArrowDown,ArrowLeft"":5,""ArrowDown,ArrowRight"":17}","false","ArrowUp","true","original","1","4","","",""
"html-keyboard-response","124","666473","0.0-4.0-2.0-1.2","spark_pilot_norest","8624","5","14","Male","","","","","","","null","<div style=""font-size:60px;"">+</div>","null","fixation","","","","","","","","","5","","",""
"revaluation","125","672481","0.0-4.0-2.0-0.3","spark_pilot_norest","8624","5","14","Male","","false","","","","","[783.8000000119209,595.8000000119209]","./assets/img/canyon/memory/28.jpg","[""ArrowUp"",""ArrowRight""]","value training","canyon","10","{""ArrowUp,ArrowLeft"":26,""ArrowUp,ArrowRight"":10,""ArrowDown,ArrowLeft"":5,""ArrowDown,ArrowRight"":17}","false","ArrowUp,ArrowRight","false","original","1","6","","",""
"html-keyboard-response","126","672983","0.0-4.0-2.0-1.3","spark_pilot_norest","8624","5","14","Male","","","","","","","null","<div style=""font-size:60px;"">+</div>","null","fixation","","","","","","","","","7","","",""
"revaluation","127","678989","0.0-4.0-2.0-0.4","spark_pilot_norest","8624","5","14","Male","","false","","","","","[490.80000001192093,497]","./assets/img/canyon/memory/18.jpg","[""ArrowUp"",""ArrowRight""]","value training","canyon","10","{""ArrowUp,ArrowLeft"":26,""ArrowUp,ArrowRight"":10,""ArrowDown,ArrowLeft"":5,""ArrowDown,ArrowRight"":17}","false","ArrowUp,ArrowRight","false","original","1","8","","",""
"html-keyboard-response","128","679492","0.0-4.0-2.0-1.4","spark_pilot_norest","8624","5","14","Male","","","","","","","null","<div style=""font-size:60px;"">+</div>","null","fixation","","","","","","","","","9","","",""
"revaluation","129","685504","0.0-4.0-2.0-0.5","spark_pilot_norest","8624","5","14","Male","","false","","","","","[278,1494.199999988079]","./assets/img/canyon/memory/35.jpg","[""ArrowDown"",""ArrowLeft""]","value training","canyon","5","{""ArrowUp,ArrowLeft"":26,""ArrowUp,ArrowRight"":10,""ArrowDown,ArrowLeft"":5,""ArrowDown,ArrowRight"":17}","false","ArrowDown,ArrowLeft","false","original","1","10","","",""
"html-keyboard-response","130","686007","0.0-4.0-2.0-1.5","spark_pilot_norest","8624","5","14","Male","","","","","","","null","<div style=""font-size:60px;"">+</div>","null","fixation","","","","","","","","","11","","",""
"revaluation","131","690014","0.0-4.0-2.0-0.6","spark_pilot_norest","8624","5","14","Male","","false","","","","","[250.30000001192093]","./assets/img/canyon/catch/1.jpg","[""ArrowDown""]","value training","canyon","-10","{""ArrowUp,ArrowLeft"":26,""ArrowUp,ArrowRight"":10,""ArrowDown,ArrowLeft"":5,""ArrowDown,ArrowRight"":17}","false","ArrowDown","true","original","1","12","","",""
"html-keyboard-response","132","690517","0.0-4.0-2.0-1.6","spark_pilot_norest","8624","5","14","Male","","","","","","","null","<div style=""font-size:60px;"">+</div>","null","fixation","","","","","","","","","13","","",""
"revaluation","133","696526","0.0-4.0-2.0-0.7","spark_pilot_norest","8624","5","14","Male","","false","","","","","[658.1000000238419,735.1000000238419]","./assets/img/canyon/memory/8.jpg","[""ArrowUp"",""ArrowRight""]","value training","canyon","10","{""ArrowUp,ArrowLeft"":26,""ArrowUp,ArrowRight"":10,""ArrowDown,ArrowLeft"":5,""ArrowDown,ArrowRight"":17}","false","ArrowUp,ArrowRight","false","original","1","14","","",""
"html-keyboard-response","134","697029","0.0-4.0-2.0-1.7","spark_pilot_norest","8624","5","14","Male","","","","","","","null","<div style=""font-size:60px;"">+</div>","null","fixation","","","","","","","","","15","","",""
"revaluation","135","703036","0.0-4.0-2.0-0.8","spark_pilot_norest","8624","5","14","Male","","false","","","","","[356.5,477.10000002384186]","./assets/img/canyon/memory/30.jpg","[""ArrowUp"",""ArrowRight""]","value training","canyon","10","{""ArrowUp,ArrowLeft"":26,""ArrowUp,ArrowRight"":10,""ArrowDown,ArrowLeft"":5,""ArrowDown,ArrowRight"":17}","false","ArrowUp,ArrowRight","false","original","1","16","","",""
"html-keyboard-response","136","703538","0.0-4.0-2.0-1.8","spark_pilot_norest","8624","5","14","Male","","","","","","","null","<div style=""font-size:60px;"">+</div>","null","fixation","","","","","","","","","17","","",""
"revaluation","137","709547","0.0-4.0-2.0-0.9","spark_pilot_norest","8624","5","14","Male","","false","","","","","[601.6999999880791,340]","./assets/img/canyon/memory/40.jpg","[""ArrowUp"",""ArrowRight""]","value training","canyon","10","{""ArrowUp,ArrowLeft"":26,""ArrowUp,ArrowRight"":10,""ArrowDown,ArrowLeft"":5,""ArrowDown,ArrowRight"":17}","false","ArrowUp,ArrowRight","false","original","1","18","","",""
"html-keyboard-response","138","710049","0.0-4.0-2.0-1.9","spark_pilot_norest","8624","5","14","Male","","","","","","","null","<div style=""font-size:60px;"">+</div>","null","fixation","","","","","","","","","19","","",""
"revaluation","139","716062","0.0-4.0-2.0-0.10","spark_pilot_norest","8624","5","14","Male","","false","","","","","[411.7000000476837,363]","./assets/img/canyon/memory/1.jpg","[""ArrowDown"",""ArrowRight""]","value training","canyon","17","{""ArrowUp,ArrowLeft"":26,""ArrowUp,ArrowRight"":10,""ArrowDown,ArrowLeft"":5,""ArrowDown,ArrowRight"":17}","false","ArrowDown,ArrowRight","false","original","1","20","","",""
"html-keyboard-response","140","716564","0.0-4.0-2.0-1.10","spark_pilot_norest","8624","5","14","Male","","","","","","","null","<div style=""font-size:60px;"">+</div>","null","fixation","","","","","","","","","21","","",""
"revaluation","141","722574","0.0-4.0-2.0-0.11","spark_pilot_norest","8624","5","14","Male","","false","","","","","[698.8000000119209,1048.6000000238419]","./assets/img/canyon/memory/13.jpg","[""ArrowUp"",""ArrowRight""]","value training","canyon","10","{""ArrowUp,ArrowLeft"":26,""ArrowUp,ArrowRight"":10,""ArrowDown,ArrowLeft"":5,""ArrowDown,ArrowRight"":17}","false","ArrowUp,ArrowRight","false","original","1","22","","",""
"html-keyboard-response","142","723076","0.0-4.0-2.0-1.11","spark_pilot_norest","8624","5","14","Male","","","","","","","null","<div style=""font-size:60px;"">+</div>","null","fixation","","","","","","","","","23","","",""
"revaluation","143","729087","0.0-4.0-2.0-0.12","spark_pilot_norest","8624","5","14","Male","","false","","","","","[385.9000000357628,608.5]","./assets/img/canyon/memory/23.jpg","[""ArrowDown"",""ArrowLeft""]","value training","canyon","5","{""ArrowUp,ArrowLeft"":26,""ArrowUp,ArrowRight"":10,""ArrowDown,ArrowLeft"":5,""ArrowDown,ArrowRight"":17}","false","ArrowDown,ArrowLeft","false","original","1","24","","",""
"html-keyboard-response","144","729590","0.0-4.0-2.0-1.12","spark_pilot_norest","8624","5","14","Male","","","","","","","null","<div style=""font-size:60px;"">+</div>","null","fixation","","","","","","","","","25","","",""
"revaluation","145","735599","0.0-4.0-2.0-0.13","spark_pilot_norest","8624","5","14","Male","","false","","","","","[694.3000000119209,306.19999998807907]","./assets/img/canyon/memory/21.jpg","[""ArrowDown"",""ArrowLeft""]","value training","canyon","5","{""ArrowUp,ArrowLeft"":26,""ArrowUp,ArrowRight"":10,""ArrowDown,ArrowLeft"":5,""ArrowDown,ArrowRight"":17}","false","ArrowDown,ArrowLeft","false","original","1","26","","",""
"html-keyboard-response","146","736102","0.0-4.0-2.0-1.13","spark_pilot_norest","8624","5","14","Male","","","","","","","null","<div style=""font-size:60px;"">+</div>","null","fixation","","","","","","","","","27","","",""
"revaluation","147","742109","0.0-4.0-2.0-0.14","spark_pilot_norest","8624","5","14","Male","","false","","","","","[398.39999997615814,332]","./assets/img/canyon/memory/30.jpg","[""ArrowUp"",""ArrowRight""]","value training","canyon","10","{""ArrowUp,ArrowLeft"":26,""ArrowUp,ArrowRight"":10,""ArrowDown,ArrowLeft"":5,""ArrowDown,ArrowRight"":17}","false","ArrowUp,ArrowRight","false","original","1","28","","",""
"html-keyboard-response","148","742611","0.0-4.0-2.0-1.14","spark_pilot_norest","8624","5","14","Male","","","","","","","null","<div style=""font-size:60px;"">+</div>","null","fixation","","","","","","","","","29","","",""
"revaluation","149","748618","0.0-4.0-2.0-0.15","spark_pilot_norest","8624","5","14","Male","","false","","","","","[29.900000035762787,509.19999998807907]","./assets/img/canyon/memory/18.jpg","[""ArrowUp"",""ArrowLeft""]","value training","canyon","26","{""ArrowUp,ArrowLeft"":26,""ArrowUp,ArrowRight"":10,""ArrowDown,ArrowLeft"":5,""ArrowDown,ArrowRight"":17}","true","ArrowUp,ArrowLeft","false","original","1","30","","",""
"html-keyboard-response","150","749121","0.0-4.0-2.0-1.15","spark_pilot_norest","8624","5","14","Male","","","","","","","null","<div style=""font-size:60px;"">+</div>","null","fixation","","","","","","","","","31","","",""
"revaluation","151","755130","0.0-4.0-2.0-0.16","spark_pilot_norest","8624","5","14","Male","","false","","","","","[1136.3999999761581,299.60000002384186]","./assets/img/canyon/memory/4.jpg","[""ArrowUp"",""ArrowLeft""]","value training","canyon","26","{""ArrowUp,ArrowLeft"":26,""ArrowUp,ArrowRight"":10,""ArrowDown,ArrowLeft"":5,""ArrowDown,ArrowRight"":17}","true","ArrowUp,ArrowLeft","false","original","1","32","","",""
"html-keyboard-response","152","755632","0.0-4.0-2.0-1.16","spark_pilot_norest","8624","5","14","Male","","","","","","","null","<div style=""font-size:60px;"">+</div>","null","fixation","","","","","","","","","33","","",""
"revaluation","153","761643","0.0-4.0-2.0-0.17","spark_pilot_norest","8624","5","14","Male","","false","","","","","[268.19999998807907,314.5999999642372]","./assets/img/canyon/memory/34.jpg","[""ArrowUp"",""ArrowLeft""]","value training","canyon","26","{""ArrowUp,ArrowLeft"":26,""ArrowUp,ArrowRight"":10,""ArrowDown,ArrowLeft"":5,""ArrowDown,ArrowRight"":17}","true","ArrowUp,ArrowLeft","false","original","1","34","","",""
"html-keyboard-response","154","762145","0.0-4.0-2.0-1.17","spark_pilot_norest","8624","5","14","Male","","","","","","","null","<div style=""font-size:60px;"">+</div>","null","fixation","","","","","","","","","35","","",""
"revaluation","155","768154","0.0-4.0-2.0-0.18","spark_pilot_norest","8624","5","14","Male","","false","","","","","[405.9000000357628,413.60000002384186]","./assets/img/canyon/memory/31.jpg","[""ArrowDown"",""ArrowLeft""]","value training","canyon","5","{""ArrowUp,ArrowLeft"":26,""ArrowUp,ArrowRight"":10,""ArrowDown,ArrowLeft"":5,""ArrowDown,ArrowRight"":17}","false","ArrowDown,ArrowLeft","false","original","1","36","","",""
"html-keyboard-response","156","768657","0.0-4.0-2.0-1.18","spark_pilot_norest","8624","5","14","Male","","","","","","","null","<div style=""font-size:60px;"">+</div>","null","fixation","","","","","","","","","37","","",""
"revaluation","157","774666","0.0-4.0-2.0-0.19","spark_pilot_norest","8624","5","14","Male","","false","","","","","[295.2000000476837,270.4000000357628]","./assets/img/canyon/memory/6.jpg","[""ArrowDown"",""ArrowRight""]","value training","canyon","17","{""ArrowUp,ArrowLeft"":26,""ArrowUp,ArrowRight"":10,""ArrowDown,ArrowLeft"":5,""ArrowDown,ArrowRight"":17}","false","ArrowDown,ArrowRight","false","original","1","38","","",""
"html-keyboard-response","158","775168","0.0-4.0-2.0-1.19","spark_pilot_norest","8624","5","14","Male","","","","","","","null","<div style=""font-size:60px;"">+</div>","null","fixation","","","","","","","","","39","","",""
"revaluation","159","781176","0.0-4.0-2.0-0.20","spark_pilot_norest","8624","5","14","Male","","false","","","","","[558.8000000119209,822.5]","./assets/img/canyon/memory/40.jpg","[""ArrowUp"",""ArrowRight""]","value training","canyon","10","{""ArrowUp,ArrowLeft"":26,""ArrowUp,ArrowRight"":10,""ArrowDown,ArrowLeft"":5,""ArrowDown,ArrowRight"":17}","false","ArrowUp,ArrowRight","false","original","1","40","","",""
"html-keyboard-response","160","781679","0.0-4.0-2.0-1.20","spark_pilot_norest","8624","5","14","Male","","","","","","","null","<div style=""font-size:60px;"">+</div>","null","fixation","","","","","","","","","41","","",""
"revaluation","161","787687","0.0-4.0-2.0-0.21","spark_pilot_norest","8624","5","14","Male","","false","","","","","[716.6999999880791,1578.9000000357628]","./assets/img/canyon/memory/7.jpg","[""ArrowDown"",""ArrowRight""]","value training","canyon","17","{""ArrowUp,ArrowLeft"":26,""ArrowUp,ArrowRight"":10,""ArrowDown,ArrowLeft"":5,""ArrowDown,ArrowRight"":17}","false","ArrowDown,ArrowRight","false","original","1","42","","",""
"html-keyboard-response","162","788190","0.0-4.0-2.0-1.21","spark_pilot_norest","8624","5","14","Male","","","","","","","null","<div style=""font-size:60px;"">+</div>","null","fixation","","","","","","","","","43","","",""
"revaluation","163","794199","0.0-4.0-2.0-0.22","spark_pilot_norest","8624","5","14","Male","","false","","","","","[251.60000002384186,358.19999998807907]","./assets/img/canyon/memory/31.jpg","[""ArrowUp"",""ArrowLeft""]","value training","canyon","26","{""ArrowUp,ArrowLeft"":26,""ArrowUp,ArrowRight"":10,""ArrowDown,ArrowLeft"":5,""ArrowDown,ArrowRight"":17}","true","ArrowUp,ArrowLeft","false","original","1","44","","",""
"html-keyboard-response","164","794702","0.0-4.0-2.0-1.22","spark_pilot_norest","8624","5","14","Male","","","","","","","null","<div style=""font-size:60px;"">+</div>","null","fixation","","","","","","","","","45","","",""
"revaluation","165","798709","0.0-4.0-2.0-0.23","spark_pilot_norest","8624","5","14","Male","","false","","","","","[909.5]","./assets/img/canyon/catch/3.jpg","[""spaceBar""]","value training","canyon","0","{""ArrowUp,ArrowLeft"":26,""ArrowUp,ArrowRight"":10,""ArrowDown,ArrowLeft"":5,""ArrowDown,ArrowRight"":17}","true","spaceBar","true","original","1","46","","",""
"html-keyboard-response","166","799212","0.0-4.0-2.0-1.23","spark_pilot_norest","8624","5","14","Male","","","","","","","null","<div style=""font-size:60px;"">+</div>","null","fixation","","","","","","","","","47","","",""
"revaluation","167","805221","0.0-4.0-2.0-0.24","spark_pilot_norest","8624","5","14","Male","","false","","","","","[286.7999999523163,420.4000000357628]","./assets/img/canyon/memory/14.jpg","[""ArrowDown"",""ArrowLeft""]","value training","canyon","5","{""ArrowUp,ArrowLeft"":26,""ArrowUp,ArrowRight"":10,""ArrowDown,ArrowLeft"":5,""ArrowDown,ArrowRight"":17}","false","ArrowDown,ArrowLeft","false","original","1","48","","",""
"html-keyboard-response","168","805724","0.0-4.0-2.0-1.24","spark_pilot_norest","8624","5","14","Male","","","","","","","null","<div style=""font-size:60px;"">+</div>","null","fixation","","","","","","","","","49","","",""
"revaluation","169","811733","0.0-4.0-2.0-0.25","spark_pilot_norest","8624","5","14","Male","","false","","","","","[479.60000002384186,429.60000002384186]","./assets/img/canyon/memory/21.jpg","[""ArrowUp"",""ArrowLeft""]","value training","canyon","26","{""ArrowUp,ArrowLeft"":26,""ArrowUp,ArrowRight"":10,""ArrowDown,ArrowLeft"":5,""ArrowDown,ArrowRight"":17}","true","ArrowUp,ArrowLeft","false","original","1","50","","",""
"html-keyboard-response","170","812236","0.0-4.0-2.0-1.25","spark_pilot_norest","8624","5","14","Male","","","","","","","null","<div style=""font-size:60px;"">+</div>","null","fixation","","","","","","","","","51","","",""
"revaluation","171","818245","0.0-4.0-2.0-0.26","spark_pilot_norest","8624","5","14","Male","","false","","","","","[697.3999999761581,841.8000000119209]","./assets/img/canyon/memory/13.jpg","[""ArrowDown"",""ArrowRight""]","value training","canyon","17","{""ArrowUp,ArrowLeft"":26,""ArrowUp,ArrowRight"":10,""ArrowDown,ArrowLeft"":5,""ArrowDown,ArrowRight"":17}","false","ArrowDown,ArrowRight","false","original","1","52","","",""
"html-keyboard-response","172","818747","0.0-4.0-2.0-1.26","spark_pilot_norest","8624","5","14","Male","","","","","","","null","<div style=""font-size:60px;"">+</div>","null","fixation","","","","","","","","","53","","",""
"revaluation","173","824757","0.0-4.0-2.0-0.27","spark_pilot_norest","8624","5","14","Male","","false","","","","","[257.89999997615814,421.30000001192093]","./assets/img/canyon/memory/3.jpg","[""ArrowUp"",""ArrowLeft""]","value training","canyon","26","{""ArrowUp,ArrowLeft"":26,""ArrowUp,ArrowRight"":10,""ArrowDown,ArrowLeft"":5,""ArrowDown,ArrowRight"":17}","true","ArrowUp,ArrowLeft","false","original","1","54","","",""
"html-keyboard-response","174","825260","0.0-4.0-2.0-1.27","spark_pilot_norest","8624","5","14","Male","","","","","","","null","<div style=""font-size:60px;"">+</div>","null","fixation","","","","","","","","","55","","",""
"revaluation","175","831269","0.0-4.0-2.0-0.28","spark_pilot_norest","8624","5","14","Male","","false","","","","","[541.1999999880791,538.5999999642372]","./assets/img/canyon/memory/2.jpg","[""ArrowUp"",""ArrowLeft""]","value training","canyon","26","{""ArrowUp,ArrowLeft"":26,""ArrowUp,ArrowRight"":10,""ArrowDown,ArrowLeft"":5,""ArrowDown,ArrowRight"":17}","true","ArrowUp,ArrowLeft","false","original","1","56","","",""
"html-keyboard-response","176","831772","0.0-4.0-2.0-1.28","spark_pilot_norest","8624","5","14","Male","","","","","","","null","<div style=""font-size:60px;"">+</div>","null","fixation","","","","","","","","","57","","",""
"revaluation","177","837781","0.0-4.0-2.0-0.29","spark_pilot_norest","8624","5","14","Male","","false","","","","","[252.9000000357628,1065.800000011921]","./assets/img/canyon/memory/41.jpg","[""ArrowDown"",""ArrowRight""]","value training","canyon","17","{""ArrowUp,ArrowLeft"":26,""ArrowUp,ArrowRight"":10,""ArrowDown,ArrowLeft"":5,""ArrowDown,ArrowRight"":17}","false","ArrowDown,ArrowRight","false","original","1","58","","",""
"html-keyboard-response","178","838283","0.0-4.0-2.0-1.29","spark_pilot_norest","8624","5","14","Male","","","","","","","null","<div style=""font-size:60px;"">+</div>","null","fixation","","","","","","","","","59","","",""
"revaluation","179","844290","0.0-4.0-2.0-0.30","spark_pilot_norest","8624","5","14","Male","","false","","","","","[743.6999999880791,796.6000000238419]","./assets/img/canyon/memory/28.jpg","[""ArrowUp"",""ArrowRight""]","value training","canyon","10","{""ArrowUp,ArrowLeft"":26,""ArrowUp,ArrowRight"":10,""ArrowDown,ArrowLeft"":5,""ArrowDown,ArrowRight"":17}","false","ArrowUp,ArrowRight","false","original","1","60","","",""
"html-keyboard-response","180","844793","0.0-4.0-2.0-1.30","spark_pilot_norest","8624","5","14","Male","","","","","","","null","<div style=""font-size:60px;"">+</div>","null","fixation","","","","","","","","","61","","",""
"revaluation","181","850799","0.0-4.0-2.0-0.31","spark_pilot_norest","8624","5","14","Male","","false","","","","","[482.60000002384186,311.69999998807907]","./assets/img/canyon/memory/3.jpg","[""ArrowUp"",""ArrowLeft""]","value training","canyon","26","{""ArrowUp,ArrowLeft"":26,""ArrowUp,ArrowRight"":10,""ArrowDown,ArrowLeft"":5,""ArrowDown,ArrowRight"":17}","true","ArrowUp,ArrowLeft","false","original","1","62","","",""
"html-keyboard-response","182","851302","0.0-4.0-2.0-1.31","spark_pilot_norest","8624","5","14","Male","","","","","","","null","<div style=""font-size:60px;"">+</div>","null","fixation","","","","","","","","","63","","",""
"revaluation","183","857312","0.0-4.0-2.0-0.32","spark_pilot_norest","8624","5","14","Male","","false","","","","","[567,364.89999997615814]","./assets/img/canyon/memory/16.jpg","[""ArrowUp"",""ArrowLeft""]","value training","canyon","26","{""ArrowUp,ArrowLeft"":26,""ArrowUp,ArrowRight"":10,""ArrowDown,ArrowLeft"":5,""ArrowDown,ArrowRight"":17}","true","ArrowUp,ArrowLeft","false","original","1","64","","",""
"html-keyboard-response","184","857814","0.0-4.0-2.0-1.32","spark_pilot_norest","8624","5","14","Male","","","","","","","null","<div style=""font-size:60px;"">+</div>","null","fixation","","","","","","","","","65","","",""
"revaluation","185","861820","0.0-4.0-2.0-0.33","spark_pilot_norest","8624","5","14","Male","","false","","","","","[881]","./assets/img/canyon/catch/5.jpg","[""spaceBar""]","value training","canyon","0","{""ArrowUp,ArrowLeft"":26,""ArrowUp,ArrowRight"":10,""ArrowDown,ArrowLeft"":5,""ArrowDown,ArrowRight"":17}","true","spaceBar","true","original","1","66","","",""
"html-keyboard-response","186","862323","0.0-4.0-2.0-1.33","spark_pilot_norest","8624","5","14","Male","","","","","","","null","<div style=""font-size:60px;"">+</div>","null","fixation","","","","","","","","","67","","",""
"revaluation","187","866330","0.0-4.0-2.0-0.34","spark_pilot_norest","8624","5","14","Male","","false","","","","","[335.30000001192093]","./assets/img/canyon/catch/2.jpg","[""ArrowUp""]","value training","canyon","-10","{""ArrowUp,ArrowLeft"":26,""ArrowUp,ArrowRight"":10,""ArrowDown,ArrowLeft"":5,""ArrowDown,ArrowRight"":17}","false","ArrowUp","true","original","1","68","","",""
"html-keyboard-response","188","866832","0.0-4.0-2.0-1.34","spark_pilot_norest","8624","5","14","Male","","","","","","","null","<div style=""font-size:60px;"">+</div>","null","fixation","","","","","","","","","69","","",""
"revaluation","189","872840","0.0-4.0-2.0-0.35","spark_pilot_norest","8624","5","14","Male","","false","","","","","[613.5,270.5]","./assets/img/canyon/memory/1.jpg","[""ArrowUp"",""ArrowLeft""]","value training","canyon","26","{""ArrowUp,ArrowLeft"":26,""ArrowUp,ArrowRight"":10,""ArrowDown,ArrowLeft"":5,""ArrowDown,ArrowRight"":17}","true","ArrowUp,ArrowLeft","false","original","1","70","","",""
"html-keyboard-response","190","873343","0.0-4.0-2.0-1.35","spark_pilot_norest","8624","5","14","Male","","","","","","","null","<div style=""font-size:60px;"">+</div>","null","fixation","","","","","","","","","71","","",""
"revaluation","191","879352","0.0-4.0-2.0-0.36","spark_pilot_norest","8624","5","14","Male","","false","","","","","[530.6999999880791,363.4000000357628]","./assets/img/canyon/memory/6.jpg","[""ArrowUp"",""ArrowLeft""]","value training","canyon","26","{""ArrowUp,ArrowLeft"":26,""ArrowUp,ArrowRight"":10,""ArrowDown,ArrowLeft"":5,""ArrowDown,ArrowRight"":17}","true","ArrowUp,ArrowLeft","false","original","1","72","","",""
"html-keyboard-response","192","879854","0.0-4.0-2.0-1.36","spark_pilot_norest","8624","5","14","Male","","","","","","","null","<div style=""font-size:60px;"">+</div>","null","fixation","","","","","","","","","73","","",""
"revaluation","193","885862","0.0-4.0-2.0-0.37","spark_pilot_norest","8624","5","14","Male","","false","","","","","[440.0999999642372,225.9000000357628]","./assets/img/canyon/memory/4.jpg","[""ArrowUp"",""ArrowLeft""]","value training","canyon","26","{""ArrowUp,ArrowLeft"":26,""ArrowUp,ArrowRight"":10,""ArrowDown,ArrowLeft"":5,""ArrowDown,ArrowRight"":17}","true","ArrowUp,ArrowLeft","false","original","1","74","","",""
"html-keyboard-response","194","886365","0.0-4.0-2.0-1.37","spark_pilot_norest","8624","5","14","Male","","","","","","","null","<div style=""font-size:60px;"">+</div>","null","fixation","","","","","","","","","75","","",""
"revaluation","195","892372","0.0-4.0-2.0-0.38","spark_pilot_norest","8624","5","14","Male","","false","","","","","[415.0999999642372,294.7999999523163]","./assets/img/canyon/memory/35.jpg","[""ArrowDown"",""ArrowRight""]","value training","canyon","17","{""ArrowUp,ArrowLeft"":26,""ArrowUp,ArrowRight"":10,""ArrowDown,ArrowLeft"":5,""ArrowDown,ArrowRight"":17}","false","ArrowDown,ArrowRight","false","original","1","76","","",""
"html-keyboard-response","196","892874","0.0-4.0-2.0-1.38","spark_pilot_norest","8624","5","14","Male","","","","","","","null","<div style=""font-size:60px;"">+</div>","null","fixation","","","","","","","","","77","","",""
"revaluation","197","898883","0.0-4.0-2.0-0.39","spark_pilot_norest","8624","5","14","Male","","false","","","","","[482,386.9000000357628]","./assets/img/canyon/memory/19.jpg","[""ArrowUp"",""ArrowLeft""]","value training","canyon","26","{""ArrowUp,ArrowLeft"":26,""ArrowUp,ArrowRight"":10,""ArrowDown,ArrowLeft"":5,""ArrowDown,ArrowRight"":17}","true","ArrowUp,ArrowLeft","false","original","1","78","","",""
"html-keyboard-response","198","899386","0.0-4.0-2.0-1.39","spark_pilot_norest","8624","5","14","Male","","","","","","","null","<div style=""font-size:60px;"">+</div>","null","fixation","","","","","","","","","79","","",""
"revaluation","199","905395","0.0-4.0-2.0-0.40","spark_pilot_norest","8624","5","14","Male","","false","","","","","[477.69999998807907,437.9000000357628]","./assets/img/canyon/memory/34.jpg","[""ArrowUp"",""ArrowLeft""]","value training","canyon","26","{""ArrowUp,ArrowLeft"":26,""ArrowUp,ArrowRight"":10,""ArrowDown,ArrowLeft"":5,""ArrowDown,ArrowRight"":17}","true","ArrowUp,ArrowLeft","false","original","1","80","","",""
"html-keyboard-response","200","905897","0.0-4.0-2.0-1.40","spark_pilot_norest","8624","5","14","Male","","","","","","","null","<div style=""font-size:60px;"">+</div>","null","fixation","","","","","","","","","81","","",""
"revaluation","201","911905","0.0-4.0-2.0-0.41","spark_pilot_norest","8624","5","14","Male","","false","","","","","[930.6000000238419,412.80000001192093]","./assets/img/canyon/memory/2.jpg","[""ArrowUp"",""ArrowLeft""]","value training","canyon","26","{""ArrowUp,ArrowLeft"":26,""ArrowUp,ArrowRight"":10,""ArrowDown,ArrowLeft"":5,""ArrowDown,ArrowRight"":17}","true","ArrowUp,ArrowLeft","false","original","1","82","","",""
"html-keyboard-response","202","912408","0.0-4.0-2.0-1.41","spark_pilot_norest","8624","5","14","Male","","","","","","","null","<div style=""font-size:60px;"">+</div>","null","fixation","","","","","","","","","83","","",""
"revaluation","203","918417","0.0-4.0-2.0-0.42","spark_pilot_norest","8624","5","14","Male","","false","","","","","[438.5,303.60000002384186]","./assets/img/canyon/memory/41.jpg","[""ArrowUp"",""ArrowLeft""]","value training","canyon","26","{""ArrowUp,ArrowLeft"":26,""ArrowUp,ArrowRight"":10,""ArrowDown,ArrowLeft"":5,""ArrowDown,ArrowRight"":17}","true","ArrowUp,ArrowLeft","false","original","1","84","","",""
"html-keyboard-response","204","918920","0.0-4.0-2.0-1.42","spark_pilot_norest","8624","5","14","Male","","","","","","","null","<div style=""font-size:60px;"">+</div>","null","fixation","","","","","","","","","85","","",""
"revaluation","205","924929","0.0-4.0-2.0-0.43","spark_pilot_norest","8624","5","14","Male","","false","","","","","[617.6000000238419,376.4000000357628]","./assets/img/canyon/memory/19.jpg","[""ArrowUp"",""ArrowLeft""]","value training","canyon","26","{""ArrowUp,ArrowLeft"":26,""ArrowUp,ArrowRight"":10,""ArrowDown,ArrowLeft"":5,""ArrowDown,ArrowRight"":17}","true","ArrowUp,ArrowLeft","false","original","1","86","","",""
"html-keyboard-response","206","925431","0.0-4.0-2.0-1.43","spark_pilot_norest","8624","5","14","Male","","","","","","","null","<div style=""font-size:60px;"">+</div>","null","fixation","","","","","","","","","87","","",""
"revaluation","207","929440","0.0-4.0-2.0-0.44","spark_pilot_norest","8624","5","14","Male","","false","","","","","[829]","./assets/img/canyon/catch/6.jpg","[""spaceBar""]","value training","canyon","0","{""ArrowUp,ArrowLeft"":26,""ArrowUp,ArrowRight"":10,""ArrowDown,ArrowLeft"":5,""ArrowDown,ArrowRight"":17}","true","spaceBar","true","original","1","88","","",""
"html-keyboard-response","208","929943","0.0-4.0-2.0-1.44","spark_pilot_norest","8624","5","14","Male","","","","","","","null","<div style=""font-size:60px;"">+</div>","null","fixation","","","","","","","","","89","","",""
"revaluation","209","933952","0.0-4.0-2.0-0.45","spark_pilot_norest","8624","5","14","Male","","false","","","","","[1063.7999999523163]","./assets/img/canyon/catch/7.jpg","[""spaceBar""]","value training","canyon","0","{""ArrowUp,ArrowLeft"":26,""ArrowUp,ArrowRight"":10,""ArrowDown,ArrowLeft"":5,""ArrowDown,ArrowRight"":17}","true","spaceBar","true","original","1","90","","",""
"html-keyboard-response","210","934454","0.0-4.0-2.0-1.45","spark_pilot_norest","8624","5","14","Male","","","","","","","null","<div style=""font-size:60px;"">+</div>","null","fixation","","","","","","","","","91","","",""
"revaluation","211","940460","0.0-4.0-2.0-0.46","spark_pilot_norest","8624","5","14","Male","","false","","","","","[756.3000000119209,364.10000002384186]","./assets/img/canyon/memory/14.jpg","[""ArrowUp"",""ArrowLeft""]","value training","canyon","26","{""ArrowUp,ArrowLeft"":26,""ArrowUp,ArrowRight"":10,""ArrowDown,ArrowLeft"":5,""ArrowDown,ArrowRight"":17}","true","ArrowUp,ArrowLeft","false","original","1","92","","",""
"html-keyboard-response","212","940963","0.0-4.0-2.0-1.46","spark_pilot_norest","8624","5","14","Male","","","","","","","null","<div style=""font-size:60px;"">+</div>","null","fixation","","","","","","","","","93","","",""
"revaluation","213","946970","0.0-4.0-2.0-0.47","spark_pilot_norest","8624","5","14","Male","","false","","","","","[438.0999999642372,690]","./assets/img/canyon/memory/7.jpg","[""ArrowUp"",""ArrowLeft""]","value training","canyon","26","{""ArrowUp,ArrowLeft"":26,""ArrowUp,ArrowRight"":10,""ArrowDown,ArrowLeft"":5,""ArrowDown,ArrowRight"":17}","true","ArrowUp,ArrowLeft","false","original","1","94","","",""
"html-keyboard-response","214","947473","0.0-4.0-2.0-1.47","spark_pilot_norest","8624","5","14","Male","","","","","","","null","<div style=""font-size:60px;"">+</div>","null","fixation","","","","","","","","","95","","",""
"revaluation","215","951481","0.0-4.0-2.0-0.48","spark_pilot_norest","8624","5","14","Male","","false","","","","","[770.6000000238419]","./assets/img/canyon/catch/0.jpg","[""spaceBar""]","value training","canyon","0","{""ArrowUp,ArrowLeft"":26,""ArrowUp,ArrowRight"":10,""ArrowDown,ArrowLeft"":5,""ArrowDown,ArrowRight"":17}","true","spaceBar","true","original","1","96","","",""
"html-keyboard-response","216","951984","0.0-4.0-2.0-1.48","spark_pilot_norest","8624","5","14","Male","","","","","","","null","<div style=""font-size:60px;"">+</div>","null","fixation","","","","","","","","","97","","",""
"revaluation","217","957993","0.0-4.0-2.0-0.49","spark_pilot_norest","8624","5","14","Male","","false","","","","","[606.5,363.60000002384186]","./assets/img/canyon/memory/16.jpg","[""ArrowUp"",""ArrowLeft""]","value training","canyon","26","{""ArrowUp,ArrowLeft"":26,""ArrowUp,ArrowRight"":10,""ArrowDown,ArrowLeft"":5,""ArrowDown,ArrowRight"":17}","true","ArrowUp,ArrowLeft","false","original","1","98","","",""
"html-keyboard-response","218","958496","0.0-4.0-2.0-1.49","spark_pilot_norest","8624","5","14","Male","","","","","","","null","<div style=""font-size:60px;"">+</div>","null","fixation","","","","","","","","","99","","",""
"learning-instructions","219","973729","0.0-4.0-3.0-0.0","spark_pilot_norest","8624","5","14","Male","","","","","","","2348.800000011921","<p> Now, you will travel with a friend who will choose whether you go up or down first. </p>
            <p> On these turns, you will just see the animal that they found. You will still get to choose which chest to search for treasure.</p>","","instructions","","","","","","","","","","","",""
"revaluation","220","977737","0.0-4.0-4.0-0.0","spark_pilot_norest","8624","5","14","Male","","false","","","","","[1281.6000000238419]","./assets/img/canyon/animals/giraffe.jpg","[""ArrowLeft""]","revaluation","canyon","26","{""ArrowUp,ArrowLeft"":26,""ArrowUp,ArrowRight"":10,""ArrowDown,ArrowLeft"":5,""ArrowDown,ArrowRight"":17}","true","ArrowUp,ArrowLeft","","original","1","0","","",""
"html-keyboard-response","221","978246","0.0-4.0-4.0-1.0","spark_pilot_norest","8624","5","14","Male","","","","","","","null","<div style=""font-size:60px;"">+</div>","null","fixation","","","","","","","","","1","","",""
"revaluation","222","982254","0.0-4.0-4.0-0.1","spark_pilot_norest","8624","5","14","Male","","false","","","","","[705.6999999880791]","./assets/img/canyon/animals/lion.jpg","[""ArrowLeft""]","revaluation","canyon","5","{""ArrowUp,ArrowLeft"":26,""ArrowUp,ArrowRight"":10,""ArrowDown,ArrowLeft"":5,""ArrowDown,ArrowRight"":17}","false","ArrowDown,ArrowLeft","","original","1","2","","",""
"html-keyboard-response","223","982756","0.0-4.0-4.0-1.1","spark_pilot_norest","8624","5","14","Male","","","","","","","null","<div style=""font-size:60px;"">+</div>","null","fixation","","","","","","","","","3","","",""
"revaluation","224","986764","0.0-4.0-4.0-0.2","spark_pilot_norest","8624","5","14","Male","","false","","","","","[864.1999999880791]","./assets/img/canyon/animals/lion.jpg","[""ArrowRight""]","revaluation","canyon","17","{""ArrowUp,ArrowLeft"":26,""ArrowUp,ArrowRight"":10,""ArrowDown,ArrowLeft"":5,""ArrowDown,ArrowRight"":17}","true","ArrowDown,ArrowRight","","original","1","4","","",""
"html-keyboard-response","225","987266","0.0-4.0-4.0-1.2","spark_pilot_norest","8624","5","14","Male","","","","","","","null","<div style=""font-size:60px;"">+</div>","null","fixation","","","","","","","","","5","","",""
"revaluation","226","991274","0.0-4.0-4.0-0.3","spark_pilot_norest","8624","5","14","Male","","false","","","","","[1110.199999988079]","./assets/img/canyon/animals/giraffe.jpg","[""ArrowLeft""]","revaluation","canyon","26","{""ArrowUp,ArrowLeft"":26,""ArrowUp,ArrowRight"":10,""ArrowDown,ArrowLeft"":5,""ArrowDown,ArrowRight"":17}","true","ArrowUp,ArrowLeft","","original","1","6","","",""
"html-keyboard-response","227","991775","0.0-4.0-4.0-1.3","spark_pilot_norest","8624","5","14","Male","","","","","","","null","<div style=""font-size:60px;"">+</div>","null","fixation","","","","","","","","","7","","",""
"revaluation","228","995778","0.0-4.0-4.0-0.4","spark_pilot_norest","8624","5","14","Male","","false","","","","","[919.1999999880791]","./assets/img/canyon/animals/lion.jpg","[""ArrowRight""]","revaluation","canyon","17","{""ArrowUp,ArrowLeft"":26,""ArrowUp,ArrowRight"":10,""ArrowDown,ArrowLeft"":5,""ArrowDown,ArrowRight"":17}","true","ArrowDown,ArrowRight","","original","1","8","","",""
"html-keyboard-response","229","996280","0.0-4.0-4.0-1.4","spark_pilot_norest","8624","5","14","Male","","","","","","","null","<div style=""font-size:60px;"">+</div>","null","fixation","","","","","","","","","9","","",""
"revaluation","230","1000288","0.0-4.0-4.0-0.5","spark_pilot_norest","8624","5","14","Male","","false","","","","","[1018.0999999642372]","./assets/img/canyon/animals/lion.jpg","[""ArrowRight""]","revaluation","canyon","17","{""ArrowUp,ArrowLeft"":26,""ArrowUp,ArrowRight"":10,""ArrowDown,ArrowLeft"":5,""ArrowDown,ArrowRight"":17}","true","ArrowDown,ArrowRight","","original","1","10","","",""
"html-keyboard-response","231","1000790","0.0-4.0-4.0-1.5","spark_pilot_norest","8624","5","14","Male","","","","","","","null","<div style=""font-size:60px;"">+</div>","null","fixation","","","","","","","","","11","","",""
"revaluation","232","1004797","0.0-4.0-4.0-0.6","spark_pilot_norest","8624","5","14","Male","","false","","","","","[758.8000000119209]","./assets/img/canyon/animals/lion.jpg","[""ArrowLeft""]","revaluation","canyon","5","{""ArrowUp,ArrowLeft"":26,""ArrowUp,ArrowRight"":10,""ArrowDown,ArrowLeft"":5,""ArrowDown,ArrowRight"":17}","false","ArrowDown,ArrowLeft","","original","1","12","","",""
"html-keyboard-response","233","1005298","0.0-4.0-4.0-1.6","spark_pilot_norest","8624","5","14","Male","","","","","","","null","<div style=""font-size:60px;"">+</div>","null","fixation","","","","","","","","","13","","",""
"revaluation","234","1009307","0.0-4.0-4.0-0.7","spark_pilot_norest","8624","5","14","Male","","false","","","","","[903]","./assets/img/canyon/animals/lion.jpg","[""ArrowRight""]","revaluation","canyon","17","{""ArrowUp,ArrowLeft"":26,""ArrowUp,ArrowRight"":10,""ArrowDown,ArrowLeft"":5,""ArrowDown,ArrowRight"":17}","true","ArrowDown,ArrowRight","","original","1","14","","",""
"html-keyboard-response","235","1009809","0.0-4.0-4.0-1.7","spark_pilot_norest","8624","5","14","Male","","","","","","","null","<div style=""font-size:60px;"">+</div>","null","fixation","","","","","","","","","15","","",""
"revaluation","236","1013818","0.0-4.0-4.0-0.8","spark_pilot_norest","8624","5","14","Male","","false","","","","","[667.6999999880791]","./assets/img/canyon/animals/giraffe.jpg","[""ArrowLeft""]","revaluation","canyon","26","{""ArrowUp,ArrowLeft"":26,""ArrowUp,ArrowRight"":10,""ArrowDown,ArrowLeft"":5,""ArrowDown,ArrowRight"":17}","true","ArrowUp,ArrowLeft","","original","1","16","","",""
"html-keyboard-response","237","1014322","0.0-4.0-4.0-1.8","spark_pilot_norest","8624","5","14","Male","","","","","","","null","<div style=""font-size:60px;"">+</div>","null","fixation","","","","","","","","","17","","",""
"revaluation","238","1018331","0.0-4.0-4.0-0.9","spark_pilot_norest","8624","5","14","Male","","false","","","","","[553.6000000238419]","./assets/img/canyon/animals/giraffe.jpg","[""ArrowLeft""]","revaluation","canyon","26","{""ArrowUp,ArrowLeft"":26,""ArrowUp,ArrowRight"":10,""ArrowDown,ArrowLeft"":5,""ArrowDown,ArrowRight"":17}","true","ArrowUp,ArrowLeft","","original","1","18","","",""
"html-keyboard-response","239","1018832","0.0-4.0-4.0-1.9","spark_pilot_norest","8624","5","14","Male","","","","","","","null","<div style=""font-size:60px;"">+</div>","null","fixation","","","","","","","","","19","","",""
"revaluation","240","1022839","0.0-4.0-4.0-0.10","spark_pilot_norest","8624","5","14","Male","","false","","","","","[777.6000000238419]","./assets/img/canyon/animals/lion.jpg","[""ArrowRight""]","revaluation","canyon","17","{""ArrowUp,ArrowLeft"":26,""ArrowUp,ArrowRight"":10,""ArrowDown,ArrowLeft"":5,""ArrowDown,ArrowRight"":17}","true","ArrowDown,ArrowRight","","original","1","20","","",""
"html-keyboard-response","241","1023341","0.0-4.0-4.0-1.10","spark_pilot_norest","8624","5","14","Male","","","","","","","null","<div style=""font-size:60px;"">+</div>","null","fixation","","","","","","","","","21","","",""
"revaluation","242","1027346","0.0-4.0-4.0-0.11","spark_pilot_norest","8624","5","14","Male","","false","","","","","[496.9000000357628]","./assets/img/canyon/animals/giraffe.jpg","[""ArrowLeft""]","revaluation","canyon","26","{""ArrowUp,ArrowLeft"":26,""ArrowUp,ArrowRight"":10,""ArrowDown,ArrowLeft"":5,""ArrowDown,ArrowRight"":17}","true","ArrowUp,ArrowLeft","","original","1","22","","",""
"html-keyboard-response","243","1027848","0.0-4.0-4.0-1.11","spark_pilot_norest","8624","5","14","Male","","","","","","","null","<div style=""font-size:60px;"">+</div>","null","fixation","","","","","","","","","23","","",""
"revaluation","244","1031856","0.0-4.0-4.0-0.12","spark_pilot_norest","8624","5","14","Male","","false","","","","","[637.4000000357628]","./assets/img/canyon/animals/giraffe.jpg","[""ArrowLeft""]","revaluation","canyon","26","{""ArrowUp,ArrowLeft"":26,""ArrowUp,ArrowRight"":10,""ArrowDown,ArrowLeft"":5,""ArrowDown,ArrowRight"":17}","true","ArrowUp,ArrowLeft","","original","1","24","","",""
"html-keyboard-response","245","1032357","0.0-4.0-4.0-1.12","spark_pilot_norest","8624","5","14","Male","","","","","","","null","<div style=""font-size:60px;"">+</div>","null","fixation","","","","","","","","","25","","",""
"revaluation","246","1036364","0.0-4.0-4.0-0.13","spark_pilot_norest","8624","5","14","Male","","false","","","","","[587.1999999880791]","./assets/img/canyon/animals/giraffe.jpg","[""ArrowLeft""]","revaluation","canyon","26","{""ArrowUp,ArrowLeft"":26,""ArrowUp,ArrowRight"":10,""ArrowDown,ArrowLeft"":5,""ArrowDown,ArrowRight"":17}","true","ArrowUp,ArrowLeft","","original","1","26","","",""
"html-keyboard-response","247","1036866","0.0-4.0-4.0-1.13","spark_pilot_norest","8624","5","14","Male","","","","","","","null","<div style=""font-size:60px;"">+</div>","null","fixation","","","","","","","","","27","","",""
"revaluation","248","1040872","0.0-4.0-4.0-0.14","spark_pilot_norest","8624","5","14","Male","","false","","","","","[759.1999999880791]","./assets/img/canyon/animals/lion.jpg","[""ArrowRight""]","revaluation","canyon","17","{""ArrowUp,ArrowLeft"":26,""ArrowUp,ArrowRight"":10,""ArrowDown,ArrowLeft"":5,""ArrowDown,ArrowRight"":17}","true","ArrowDown,ArrowRight","","original","1","28","","",""
"html-keyboard-response","249","1041373","0.0-4.0-4.0-1.14","spark_pilot_norest","8624","5","14","Male","","","","","","","null","<div style=""font-size:60px;"">+</div>","null","fixation","","","","","","","","","29","","",""
"revaluation","250","1045380","0.0-4.0-4.0-0.15","spark_pilot_norest","8624","5","14","Male","","false","","","","","[442.0999999642372]","./assets/img/canyon/animals/giraffe.jpg","[""ArrowLeft""]","revaluation","canyon","26","{""ArrowUp,ArrowLeft"":26,""ArrowUp,ArrowRight"":10,""ArrowDown,ArrowLeft"":5,""ArrowDown,ArrowRight"":17}","true","ArrowUp,ArrowLeft","","original","1","30","","",""
"html-keyboard-response","251","1045882","0.0-4.0-4.0-1.15","spark_pilot_norest","8624","5","14","Male","","","","","","","null","<div style=""font-size:60px;"">+</div>","null","fixation","","","","","","","","","31","","",""
"revaluation","252","1049890","0.0-4.0-4.0-0.16","spark_pilot_norest","8624","5","14","Male","","false","","","","","[806.6000000238419]","./assets/img/canyon/animals/lion.jpg","[""ArrowRight""]","revaluation","canyon","17","{""ArrowUp,ArrowLeft"":26,""ArrowUp,ArrowRight"":10,""ArrowDown,ArrowLeft"":5,""ArrowDown,ArrowRight"":17}","true","ArrowDown,ArrowRight","","original","1","32","","",""
"html-keyboard-response","253","1050392","0.0-4.0-4.0-1.16","spark_pilot_norest","8624","5","14","Male","","","","","","","null","<div style=""font-size:60px;"">+</div>","null","fixation","","","","","","","","","33","","",""
"revaluation","254","1054400","0.0-4.0-4.0-0.17","spark_pilot_norest","8624","5","14","Male","","false","","","","","[548.1000000238419]","./assets/img/canyon/animals/giraffe.jpg","[""ArrowLeft""]","revaluation","canyon","26","{""ArrowUp,ArrowLeft"":26,""ArrowUp,ArrowRight"":10,""ArrowDown,ArrowLeft"":5,""ArrowDown,ArrowRight"":17}","true","ArrowUp,ArrowLeft","","original","1","34","","",""
"html-keyboard-response","255","1054902","0.0-4.0-4.0-1.17","spark_pilot_norest","8624","5","14","Male","","","","","","","null","<div style=""font-size:60px;"">+</div>","null","fixation","","","","","","","","","35","","",""
"learning-instructions","256","1063005","0.0-4.0-5.0-0.0","spark_pilot_norest","8624","5","14","Male","","","","","","","null","<p> You have almost finished this part of the game! </p>
            <p> We are going to ask you to make a few more choices. </p>","","instructions","","","","","","","","","","","",""
"learning-instructions","257","1078973","0.0-4.0-5.0-0.1","spark_pilot_norest","8624","5","14","Male","","","","","","","null","<p> First, you need to decide whether to go up or down. When you see each picture, use the arrow keys to make your choice. </p>
            <p><b>You will not see which animal you found, but try to get to the one that will give you the most treasure.</b></p>","","instructions","","","","","","","","","","","",""
"html-keyboard-response","258","1079975","0.0-4.0-6.0-0.0","spark_pilot_norest","8624","5","14","Male","","","","","","","null","<div style=""font-size:100px;color:red;"">Starting in...</div>","null","","","","","","","","","","","","",""
"html-keyboard-response","259","1080976","0.0-4.0-6.0-1.0","spark_pilot_norest","8624","5","14","Male","","","","","","","null","<div style=""font-size:200px;color:red;"">3</div>","null","","","","","","","","","","","","",""
"html-keyboard-response","260","1081977","0.0-4.0-6.0-2.0","spark_pilot_norest","8624","5","14","Male","","","","","","","null","<div style=""font-size:200px;color:red;"">2</div>","null","","","","","","","","","","","","",""
"html-keyboard-response","261","1082979","0.0-4.0-6.0-3.0","spark_pilot_norest","8624","5","14","Male","","","","","","","null","<div style=""font-size:200px;color:red;"">1</div>","null","","","","","","","","","","","","",""
"revaluation","262","1083274","0.0-4.0-7.0-0.0","spark_pilot_norest","8624","5","14","Male","","false","","","","","[289.39999997615814]","./assets/img/canyon/test/2.jpg","[""ArrowUp""]","first stage test","canyon","0","{""ArrowUp,ArrowLeft"":26,""ArrowUp,ArrowRight"":10,""ArrowDown,ArrowLeft"":5,""ArrowDown,ArrowRight"":17}","true","ArrowUp","false","original","1","","","",""
"html-keyboard-response","263","1083775","0.0-4.0-7.0-1.0","spark_pilot_norest","8624","5","14","Male","","","","","","","null","<div style=""font-size:60px;"">+</div>","null","fixation","","","","","","","","","","","",""
"revaluation","264","1084371","0.0-4.0-7.0-0.1","spark_pilot_norest","8624","5","14","Male","","false","","","","","[592.8999999761581]","./assets/img/canyon/test/3.jpg","[""ArrowUp""]","first stage test","canyon","0","{""ArrowUp,ArrowLeft"":26,""ArrowUp,ArrowRight"":10,""ArrowDown,ArrowLeft"":5,""ArrowDown,ArrowRight"":17}","true","ArrowUp","false","original","1","","","",""
"html-keyboard-response","265","1084873","0.0-4.0-7.0-1.1","spark_pilot_norest","8624","5","14","Male","","","","","","","null","<div style=""font-size:60px;"">+</div>","null","fixation","","","","","","","","","","","",""
"revaluation","266","1085405","0.0-4.0-7.0-0.2","spark_pilot_norest","8624","5","14","Male","","false","","","","","[525]","./assets/img/canyon/test/1.jpg","[""ArrowUp""]","first stage test","canyon","0","{""ArrowUp,ArrowLeft"":26,""ArrowUp,ArrowRight"":10,""ArrowDown,ArrowLeft"":5,""ArrowDown,ArrowRight"":17}","true","ArrowUp","false","original","1","","","",""
"html-keyboard-response","267","1085907","0.0-4.0-7.0-1.2","spark_pilot_norest","8624","5","14","Male","","","","","","","null","<div style=""font-size:60px;"">+</div>","null","fixation","","","","","","","","","","","",""
"revaluation","268","1086319","0.0-4.0-7.0-0.3","spark_pilot_norest","8624","5","14","Male","","false","","","","","[404.80000001192093]","./assets/img/canyon/test/0.jpg","[""ArrowUp""]","first stage test","canyon","0","{""ArrowUp,ArrowLeft"":26,""ArrowUp,ArrowRight"":10,""ArrowDown,ArrowLeft"":5,""ArrowDown,ArrowRight"":17}","true","ArrowUp","false","original","1","","","",""
"html-keyboard-response","269","1086821","0.0-4.0-7.0-1.3","spark_pilot_norest","8624","5","14","Male","","","","","","","null","<div style=""font-size:60px;"">+</div>","null","fixation","","","","","","","","","","","",""
"learning-instructions","270","1100167","0.0-4.0-8.0-0.0","spark_pilot_norest","8624","5","14","Male","","","","","","","null","<p> Now you will see the animals again and can search their chests for treasure. </p>
            <p> This time, you will not see how much treasure you earned, but you will earn more bonus money for making better choices. </p>","","instructions","","","","","","","","","","","",""
"html-keyboard-response","271","1101169","0.0-4.0-9.0-0.0","spark_pilot_norest","8624","5","14","Male","","","","","","","null","<div style=""font-size:100px;color:red;"">Starting in...</div>","null","","","","","","","","","","","","",""
"html-keyboard-response","272","1102171","0.0-4.0-9.0-1.0","spark_pilot_norest","8624","5","14","Male","","","","","","","null","<div style=""font-size:200px;color:red;"">3</div>","null","","","","","","","","","","","","",""
"html-keyboard-response","273","1103175","0.0-4.0-9.0-2.0","spark_pilot_norest","8624","5","14","Male","","","","","","","null","<div style=""font-size:200px;color:red;"">2</div>","null","","","","","","","","","","","","",""
"html-keyboard-response","274","1104176","0.0-4.0-9.0-3.0","spark_pilot_norest","8624","5","14","Male","","","","","","","null","<div style=""font-size:200px;color:red;"">1</div>","null","","","","","","","","","","","","",""
"revaluation","275","1105420","0.0-4.0-10.0-0.0","spark_pilot_norest","8624","5","14","Male","","false","","","","","[1237.1000000238419]","./assets/img/canyon/animals/giraffe.jpg","[""ArrowLeft""]","second stage test","canyon","0","{""ArrowUp,ArrowLeft"":26,""ArrowUp,ArrowRight"":10,""ArrowDown,ArrowLeft"":5,""ArrowDown,ArrowRight"":17}","true","ArrowUp,ArrowLeft","","original","1","","","",""
"html-keyboard-response","276","1105922","0.0-4.0-10.0-1.0","spark_pilot_norest","8624","5","14","Male","","","","","","","null","<div style=""font-size:60px;"">+</div>","null","fixation","","","","","","","","","","","",""
"revaluation","277","1107698","0.0-4.0-10.0-0.1","spark_pilot_norest","8624","5","14","Male","","false","","","","","[1769.9000000357628]","./assets/img/canyon/animals/giraffe.jpg","[""ArrowRight""]","second stage test","canyon","0","{""ArrowUp,ArrowLeft"":26,""ArrowUp,ArrowRight"":10,""ArrowDown,ArrowLeft"":5,""ArrowDown,ArrowRight"":17}","false","ArrowUp,ArrowRight","","original","1","","","",""
"html-keyboard-response","278","1108200","0.0-4.0-10.0-1.1","spark_pilot_norest","8624","5","14","Male","","","","","","","null","<div style=""font-size:60px;"">+</div>","null","fixation","","","","","","","","","","","",""
"revaluation","279","1109308","0.0-4.0-10.0-0.2","spark_pilot_norest","8624","5","14","Male","","false","","","","","[1100.699999988079]","./assets/img/canyon/animals/giraffe.jpg","[""ArrowRight""]","second stage test","canyon","0","{""ArrowUp,ArrowLeft"":26,""ArrowUp,ArrowRight"":10,""ArrowDown,ArrowLeft"":5,""ArrowDown,ArrowRight"":17}","false","ArrowUp,ArrowRight","","original","1","","","",""
"html-keyboard-response","280","1109810","0.0-4.0-10.0-1.2","spark_pilot_norest","8624","5","14","Male","","","","","","","null","<div style=""font-size:60px;"">+</div>","null","fixation","","","","","","","","","","","",""
"revaluation","281","1110715","0.0-4.0-10.0-0.3","spark_pilot_norest","8624","5","14","Male","","false","","","","","[900.8000000119209]","./assets/img/canyon/animals/giraffe.jpg","[""ArrowRight""]","second stage test","canyon","0","{""ArrowUp,ArrowLeft"":26,""ArrowUp,ArrowRight"":10,""ArrowDown,ArrowLeft"":5,""ArrowDown,ArrowRight"":17}","false","ArrowUp,ArrowRight","","original","1","","","",""
"html-keyboard-response","282","1111218","0.0-4.0-10.0-1.3","spark_pilot_norest","8624","5","14","Male","","","","","","","null","<div style=""font-size:60px;"">+</div>","null","fixation","","","","","","","","","","","",""
"revaluation","283","1112071","0.0-4.0-10.0-0.4","spark_pilot_norest","8624","5","14","Male","","false","","","","","[846.0999999642372]","./assets/img/canyon/animals/lion.jpg","[""ArrowLeft""]","second stage test","canyon","0","{""ArrowUp,ArrowLeft"":26,""ArrowUp,ArrowRight"":10,""ArrowDown,ArrowLeft"":5,""ArrowDown,ArrowRight"":17}","false","ArrowDown,ArrowLeft","","original","1","","","",""
"html-keyboard-response","284","1112573","0.0-4.0-10.0-1.4","spark_pilot_norest","8624","5","14","Male","","","","","","","null","<div style=""font-size:60px;"">+</div>","null","fixation","","","","","","","","","","","",""
"revaluation","285","1113448","0.0-4.0-10.0-0.5","spark_pilot_norest","8624","5","14","Male","","false","","","","","[868.1999999880791]","./assets/img/canyon/animals/lion.jpg","[""ArrowLeft""]","second stage test","canyon","0","{""ArrowUp,ArrowLeft"":26,""ArrowUp,ArrowRight"":10,""ArrowDown,ArrowLeft"":5,""ArrowDown,ArrowRight"":17}","false","ArrowDown,ArrowLeft","","original","1","","","",""
"html-keyboard-response","286","1113949","0.0-4.0-10.0-1.5","spark_pilot_norest","8624","5","14","Male","","","","","","","null","<div style=""font-size:60px;"">+</div>","null","fixation","","","","","","","","","","","",""
"revaluation","287","1116293","0.0-4.0-10.0-0.6","spark_pilot_norest","8624","5","14","Male","","false","","","","","[2336.899999976158]","./assets/img/canyon/animals/lion.jpg","[""ArrowRight""]","second stage test","canyon","0","{""ArrowUp,ArrowLeft"":26,""ArrowUp,ArrowRight"":10,""ArrowDown,ArrowLeft"":5,""ArrowDown,ArrowRight"":17}","true","ArrowDown,ArrowRight","","original","1","","","",""
"html-keyboard-response","288","1116795","0.0-4.0-10.0-1.6","spark_pilot_norest","8624","5","14","Male","","","","","","","null","<div style=""font-size:60px;"">+</div>","null","fixation","","","","","","","","","","","",""
"revaluation","289","1117209","0.0-4.0-10.0-0.7","spark_pilot_norest","8624","5","14","Male","","false","","","","","[406.89999997615814]","./assets/img/canyon/animals/lion.jpg","[""ArrowRight""]","second stage test","canyon","0","{""ArrowUp,ArrowLeft"":26,""ArrowUp,ArrowRight"":10,""ArrowDown,ArrowLeft"":5,""ArrowDown,ArrowRight"":17}","true","ArrowDown,ArrowRight","","original","1","","","",""
"html-keyboard-response","290","1117711","0.0-4.0-10.0-1.7","spark_pilot_norest","8624","5","14","Male","","","","","","","null","<div style=""font-size:60px;"">+</div>","null","fixation","","","","","","","","","","","",""
"learning-instructions","291","1123910","0.0-4.0-0.1-0.2","spark_pilot_norest","8624","5","14","Male","","","","","","","3480.099999964237","<p> This time you are searching for treasure in the <b>ocean</b>.</p>","","instructions","","","","","","","","","","","",""
"learning-instructions","292","1142181","0.0-4.0-0.1-0.3","spark_pilot_norest","8624","5","14","Male","","","","","","","1014.8000000119209","<p><b>New</b> animals with <b>new</b> treasure chests live here. You need to explore to discover where the animal with the best treasure chest is.</p>
                    <p> Like before, once you figure out which animal has the chest with the most treasure, you should try to get to that animal and select that chest! </p>","","instructions","","","","","","","","","","","",""
"learning-instructions","293","1157519","0.0-4.0-1.1-0.1","spark_pilot_norest","8624","5","14","Male","","","","","","","609.4000000357628","<p> Remember, when you see a picture of the place, use the up and down keys to <b>find an animal</b>.</p>
            <p> When you encounter an animal, you should use the left and right keys to <b>select a treasure chest</b>.</p>
            <p> Don't forget to look out for the robber! </p>","","instructions","","","","","","","","","","","",""
"revaluation","294","1163525","0.0-4.0-2.1-0.50","spark_pilot_norest","8624","5","14","Male","","false","","","","","[812.5,802.7999999523163]","./assets/img/ocean/memory/30.jpg","[""ArrowUp"",""ArrowLeft""]","value training","ocean","23","{""ArrowUp,ArrowLeft"":23,""ArrowUp,ArrowRight"":10,""ArrowDown,ArrowLeft"":8,""ArrowDown,ArrowRight"":30}","false","ArrowUp,ArrowLeft","false","revaluation","2","0","","",""
"html-keyboard-response","295","1164027","0.0-4.0-2.1-1.50","spark_pilot_norest","8624","5","14","Male","","","","","","","null","<div style=""font-size:60px;"">+</div>","null","fixation","","","","","","","","","1","","",""
"revaluation","296","1170035","0.0-4.0-2.1-0.51","spark_pilot_norest","8624","5","14","Male","","false","","","","","[294.5,539.3999999761581]","./assets/img/ocean/memory/19.jpg","[""ArrowDown"",""ArrowRight""]","value training","ocean","30","{""ArrowUp,ArrowLeft"":23,""ArrowUp,ArrowRight"":10,""ArrowDown,ArrowLeft"":8,""ArrowDown,ArrowRight"":30}","true","ArrowDown,ArrowRight","false","revaluation","2","2","","",""
"html-keyboard-response","297","1170537","0.0-4.0-2.1-1.51","spark_pilot_norest","8624","5","14","Male","","","","","","","null","<div style=""font-size:60px;"">+</div>","null","fixation","","","","","","","","","3","","",""
"revaluation","298","1176546","0.0-4.0-2.1-0.52","spark_pilot_norest","8624","5","14","Male","","false","","","","","[608.0999999642372,400]","./assets/img/ocean/memory/16.jpg","[""ArrowUp"",""ArrowLeft""]","value training","ocean","23","{""ArrowUp,ArrowLeft"":23,""ArrowUp,ArrowRight"":10,""ArrowDown,ArrowLeft"":8,""ArrowDown,ArrowRight"":30}","false","ArrowUp,ArrowLeft","false","revaluation","2","4","","",""
"html-keyboard-response","299","1177048","0.0-4.0-2.1-1.52","spark_pilot_norest","8624","5","14","Male","","","","","","","null","<div style=""font-size:60px;"">+</div>","null","fixation","","","","","","","","","5","","",""
"revaluation","300","1181053","0.0-4.0-2.1-0.53","spark_pilot_norest","8624","5","14","Male","","false","","","","","[240.70000004768372]","./assets/img/ocean/catch/3.jpg","[""ArrowUp""]","value training","ocean","-10","{""ArrowUp,ArrowLeft"":23,""ArrowUp,ArrowRight"":10,""ArrowDown,ArrowLeft"":8,""ArrowDown,ArrowRight"":30}","false","ArrowUp","true","revaluation","2","6","","",""
"html-keyboard-response","301","1181555","0.0-4.0-2.1-1.53","spark_pilot_norest","8624","5","14","Male","","","","","","","null","<div style=""font-size:60px;"">+</div>","null","fixation","","","","","","","","","7","","",""
"revaluation","302","1185562","0.0-4.0-2.1-0.54","spark_pilot_norest","8624","5","14","Male","","false","","","","","[764]","./assets/img/ocean/catch/1.jpg","[""spaceBar""]","value training","ocean","0","{""ArrowUp,ArrowLeft"":23,""ArrowUp,ArrowRight"":10,""ArrowDown,ArrowLeft"":8,""ArrowDown,ArrowRight"":30}","true","spaceBar","true","revaluation","2","8","","",""
"html-keyboard-response","303","1186064","0.0-4.0-2.1-1.54","spark_pilot_norest","8624","5","14","Male","","","","","","","null","<div style=""font-size:60px;"">+</div>","null","fixation","","","","","","","","","9","","",""
"revaluation","304","1192071","0.0-4.0-2.1-0.55","spark_pilot_norest","8624","5","14","Male","","false","","","","","[484.0999999642372,890.6000000238419]","./assets/img/ocean/memory/8.jpg","[""ArrowUp"",""ArrowRight""]","value training","ocean","10","{""ArrowUp,ArrowLeft"":23,""ArrowUp,ArrowRight"":10,""ArrowDown,ArrowLeft"":8,""ArrowDown,ArrowRight"":30}","false","ArrowUp,ArrowRight","false","revaluation","2","10","","",""
"html-keyboard-response","305","1192573","0.0-4.0-2.1-1.55","spark_pilot_norest","8624","5","14","Male","","","","","","","null","<div style=""font-size:60px;"">+</div>","null","fixation","","","","","","","","","11","","",""
"revaluation","306","1196581","0.0-4.0-2.1-0.56","spark_pilot_norest","8624","5","14","Male","","false","","","","","[485.2999999523163]","./assets/img/ocean/catch/0.jpg","[""spaceBar""]","value training","ocean","0","{""ArrowUp,ArrowLeft"":23,""ArrowUp,ArrowRight"":10,""ArrowDown,ArrowLeft"":8,""ArrowDown,ArrowRight"":30}","true","spaceBar","true","revaluation","2","12","","",""
"html-keyboard-response","307","1197082","0.0-4.0-2.1-1.56","spark_pilot_norest","8624","5","14","Male","","","","","","","null","<div style=""font-size:60px;"">+</div>","null","fixation","","","","","","","","","13","","",""
"revaluation","308","1203088","0.0-4.0-2.1-0.57","spark_pilot_norest","8624","5","14","Male","","false","","","","","[583.0999999642372,485.5999999642372]","./assets/img/ocean/memory/21.jpg","[""ArrowDown"",""ArrowLeft""]","value training","ocean","8","{""ArrowUp,ArrowLeft"":23,""ArrowUp,ArrowRight"":10,""ArrowDown,ArrowLeft"":8,""ArrowDown,ArrowRight"":30}","false","ArrowDown,ArrowLeft","false","revaluation","2","14","","",""
"html-keyboard-response","309","1203590","0.0-4.0-2.1-1.57","spark_pilot_norest","8624","5","14","Male","","","","","","","null","<div style=""font-size:60px;"">+</div>","null","fixation","","","","","","","","","15","","",""
"revaluation","310","1209597","0.0-4.0-2.1-0.58","spark_pilot_norest","8624","5","14","Male","","false","","","","","[522.1000000238419,272.5]","./assets/img/ocean/memory/6.jpg","[""ArrowDown"",""ArrowRight""]","value training","ocean","30","{""ArrowUp,ArrowLeft"":23,""ArrowUp,ArrowRight"":10,""ArrowDown,ArrowLeft"":8,""ArrowDown,ArrowRight"":30}","true","ArrowDown,ArrowRight","false","revaluation","2","16","","",""
"html-keyboard-response","311","1210099","0.0-4.0-2.1-1.58","spark_pilot_norest","8624","5","14","Male","","","","","","","null","<div style=""font-size:60px;"">+</div>","null","fixation","","","","","","","","","17","","",""
"revaluation","312","1216105","0.0-4.0-2.1-0.59","spark_pilot_norest","8624","5","14","Male","","false","","","","","[433,300.30000001192093]","./assets/img/ocean/memory/18.jpg","[""ArrowUp"",""ArrowLeft""]","value training","ocean","23","{""ArrowUp,ArrowLeft"":23,""ArrowUp,ArrowRight"":10,""ArrowDown,ArrowLeft"":8,""ArrowDown,ArrowRight"":30}","false","ArrowUp,ArrowLeft","false","revaluation","2","18","","",""
"html-keyboard-response","313","1216607","0.0-4.0-2.1-1.59","spark_pilot_norest","8624","5","14","Male","","","","","","","null","<div style=""font-size:60px;"">+</div>","null","fixation","","","","","","","","","19","","",""
