"trial_type","trial_index","time_elapsed","internal_node_id","task_version","subject_id","assigned_condition","age","gender","success","timeout","failed_images","failed_audio","failed_video","browser_interaction","rt","stimulus","response","task_part","environment","score","rewardMap","correct","fullState","isCatch","condition","order","trial_num","key_press","ground_truth","bonus"
"pavlovia","0","1171","0.0-0.0","spark_pilot_norest","10642","2","8","Female","","","","","","","","","","","","","","","","","","","","","",""
"preload","1","130589","0.0-1.0","spark_pilot_norest","10642","2","8","Female","true","false","[]","[]","[]","[{""event"":""fullscreenenter"",""trial"":2,""time"":141006}]","","","","","","","","","","","","","","","",""
"fullscreen","2","141971","0.0-2.0","spark_pilot_norest","10642","2","8","Female","true","","","","","","","","","","","","","","","","","","","","",""
"audio-button-response","3","147049","0.0-3.0-0.0-0.0","spark_pilot_norest","10642","2","8","Female","","","","","","","4880","./assets/audio/audiotest/turtle.mp3","2","audio_test","","","","","","","","","","","",""
"learning-instructions","4","156273","0.0-3.0-1.0-0.0","spark_pilot_norest","10642","2","8","Female","","","","","","","2202","<p> Welcome! Please remember to stay in fullscreen mode and don't click away from the experiment. </p>","","instructions","","","","","","","","","","","",""
"learning-instructions","5","167141","0.0-3.0-1.0-0.1","spark_pilot_norest","10642","2","8","Female","","","","","","","2416.4000000059605","<p> Today you will be playing a game to earn treasure. </p>
            <p> At the end of the experiment, you will earn a bonus based on how much treasure you find. </p>
            <img src='./assets/img/instructions/treasure.jpg' class='instructions-image'>","","instructions","","","","","","","","","","","",""
"learning-instructions","6","176864","0.0-3.0-1.0-0.2","spark_pilot_norest","10642","2","8","Female","","","","","","","1439.300000011921","<p> Animals have hidden treasure in treasure chests. </p>
            <p> You need to first find an animal and then choose which of their treasure chests to search. </p>
            <img src='./assets/img/space/animals/cat.jpg' class='instructions-image'>","","instructions","","","","","","","","","","","",""
"learning-instructions","7","192465","0.0-3.0-1.0-0.3","spark_pilot_norest","10642","2","8","Female","","","","","","","2379.2000000029802","<p> In each round, you will search for treasure in a different place. In the real game, there will be two rounds. </p>
            <p> You will begin with a separate, practice round where you will search for treasure in outer space. </p>
            <img src='./assets/img/space/0.jpg' class='instructions-image'>","","instructions","","","","","","","","","","","",""
"learning-instructions","8","206028","0.0-3.0-1.0-0.4","spark_pilot_norest","10642","2","8","Female","","","","","","","2082.5","<p> On every turn, you will see a picture of the place that you are in, but the specific image may be different each time. </p>
            <p> For example, both of these images mean you are in outer space. </p>
            <img src='./assets/img/instructions/outerspace.jpg' class='instructions-image'>","","instructions","","","","","","","","","","","",""
"learning-instructions","9","216034","0.0-3.0-1.0-0.5","spark_pilot_norest","10642","2","8","Female","","","","","","","2178","<p> You need to decide which direction to travel in. </p>
            <p> You can choose between going <b>up or down</b> by using the arrow keys. </p>
            <img src='./assets/img/instructions/updown.jpg' class='instructions-image'>","","instructions","","","","","","","","","","","",""
"learning-instructions","10","226406","0.0-3.0-1.0-0.6","spark_pilot_norest","10642","2","8","Female","","","","","","","1540.7999999970198","<p> You will have <b>2 seconds</b> to make your choice. </p>
            <p> If you do not make a choice within 2 seconds, you will not find an animal or earn treasure. </p>
            <img src='./assets/img/instructions/2seconds.jpg' class='instructions-image'>","","instructions","","","","","","","","","","","",""
"learning-instructions","11","234749","0.0-3.0-1.0-0.7","spark_pilot_norest","10642","2","8","Female","","","","","","","1303.5","<p> Let’s try practicing that now! </p>
            <p> When you see a picture of the place you are in, press the <b>up</b> key to travel up. </p>
            <img src='./assets/img/instructions/pressUp.jpg' class='instructions-image'>","","instructions","","","","","","","","","","","",""
"revaluation","12","238800","0.0-3.0-2.0-0.0","spark_pilot_norest","10642","2","8","Female","","true","","","","","[]","./assets/img/space/0.jpg","[]","first stage practice","space","-5","null","null","","false","","","","","",""
"html-keyboard-response","13","239317","0.0-3.0-2.0-1.0","spark_pilot_norest","10642","2","8","Female","","","","","","","null","<div style=""font-size:60px;"">+</div>","null","fixation","","","","","","","","","","","",""
"revaluation","14","243347","0.0-3.0-2.0-0.1","spark_pilot_norest","10642","2","8","Female","","false","","","","","[819.3999999910593]","./assets/img/space/1.jpg","[""ArrowUp""]","first stage practice","space","0","null","null","ArrowUp","false","","","","","",""
"html-keyboard-response","15","243863","0.0-3.0-2.0-1.1","spark_pilot_norest","10642","2","8","Female","","","","","","","null","<div style=""font-size:60px;"">+</div>","null","fixation","","","","","","","","","","","",""
"revaluation","16","247878","0.0-3.0-2.0-0.2","spark_pilot_norest","10642","2","8","Female","","false","","","","","[1052.5]","./assets/img/space/2.jpg","[""ArrowUp""]","first stage practice","space","0","null","null","ArrowUp","false","","","","","",""
"html-keyboard-response","17","248395","0.0-3.0-2.0-1.2","spark_pilot_norest","10642","2","8","Female","","","","","","","null","<div style=""font-size:60px;"">+</div>","null","fixation","","","","","","","","","","","",""
"learning-instructions","18","255087","0.0-3.0-3.0-0.0","spark_pilot_norest","10642","2","8","Female","","","","","","","1972.2999999970198","<p> Great job! Now try pressing the <b>down</b> key to travel down. </p>
            <img src='./assets/img/instructions/pressDown.jpg' class='instructions-image'>","","instructions","","","","","","","","","","","",""
"revaluation","19","259103","0.0-3.0-4.0-0.0","spark_pilot_norest","10642","2","8","Female","","false","","","","","[1142.2000000029802]","./assets/img/space/3.jpg","[""ArrowDown""]","first stage practice","space","0","null","null","ArrowDown","false","","","","","",""
"html-keyboard-response","20","259608","0.0-3.0-4.0-1.0","spark_pilot_norest","10642","2","8","Female","","","","","","","null","<div style=""font-size:60px;"">+</div>","null","fixation","","","","","","","","","","","",""
"revaluation","21","263628","0.0-3.0-4.0-0.1","spark_pilot_norest","10642","2","8","Female","","false","","","","","[528.5]","./assets/img/space/4.jpg","[""ArrowDown""]","first stage practice","space","0","null","null","ArrowDown","false","","","","","",""
"html-keyboard-response","22","264144","0.0-3.0-4.0-1.1","spark_pilot_norest","10642","2","8","Female","","","","","","","null","<div style=""font-size:60px;"">+</div>","null","fixation","","","","","","","","","","","",""
"revaluation","23","268162","0.0-3.0-4.0-0.2","spark_pilot_norest","10642","2","8","Female","","false","","","","","[735.2000000029802]","./assets/img/space/5.jpg","[""ArrowDown""]","first stage practice","space","0","null","null","ArrowDown","false","","","","","",""
"html-keyboard-response","24","268673","0.0-3.0-4.0-1.2","spark_pilot_norest","10642","2","8","Female","","","","","","","null","<div style=""font-size:60px;"">+</div>","null","fixation","","","","","","","","","","","",""
"learning-instructions","25","280034","0.0-3.0-5.0-0.0","spark_pilot_norest","10642","2","8","Female","","","","","","","1460.7999999970198","<p> The animals don’t move, so the animal in the upper part of a place will stay in the upper part of a place, and the animal in the lower part of a place will stay in the lower part of a place. </p>","","instructions","","","","","","","","","","","",""
"learning-instructions","26","291088","0.0-3.0-5.0-0.1","spark_pilot_norest","10642","2","8","Female","","","","","","","1883.8999999910593","<p> Each animal has two treasure chests for you to choose from. </p>
            <p> The amount of treasure in each chest can range from <b> 0 to 40 pieces.</b></p>","","instructions","","","","","","","","","","","",""
"learning-instructions","27","303416","0.0-3.0-5.0-0.2","spark_pilot_norest","10642","2","8","Female","","","","","","","1110.699999988079","<p> You should decide which chest to search for treasure by using the <b>left</b> and <b>right</b> arrow keys. </p>
            <p><b> Pay attention to which animal is on the screen, as the animals have different treasure chests. </b></p>
            <img src='./assets/img/instructions/leftright.jpg' class='instructions-image'>","","instructions","","","","","","","","","","","",""
"learning-instructions","28","311044","0.0-3.0-5.0-0.3","spark_pilot_norest","10642","2","8","Female","","","","","","","1238.9000000059605","<p> Let’s try practicing that now. </p>
            <p> When you see an animal, choose which chest to search for treasure. </p>
            <img src='./assets/img/instructions/chooseChest.jpg' class='instructions-image'>","","instructions","","","","","","","","","","","",""
"revaluation","29","315077","0.0-3.0-6.0-0.0","spark_pilot_norest","10642","2","8","Female","","false","","","","","[1132.4000000059605]","./assets/img/space/animals/rabbit.jpg","[""ArrowRight""]","second stage practice","space","23","{""ArrowUp,ArrowLeft"":3,""ArrowUp,ArrowRight"":36,""ArrowDown,ArrowLeft"":15,""ArrowDown,ArrowRight"":23}","true","ArrowDown,ArrowRight","","","","","","",""
"html-keyboard-response","30","315587","0.0-3.0-6.0-1.0","spark_pilot_norest","10642","2","8","Female","","","","","","","null","<div style=""font-size:60px;"">+</div>","null","fixation","","","","","","","","","","","",""
"revaluation","31","319600","0.0-3.0-6.0-0.1","spark_pilot_norest","10642","2","8","Female","","false","","","","","[1014.4000000059605]","./assets/img/space/animals/rabbit.jpg","[""ArrowLeft""]","second stage practice","space","15","{""ArrowUp,ArrowLeft"":3,""ArrowUp,ArrowRight"":36,""ArrowDown,ArrowLeft"":15,""ArrowDown,ArrowRight"":23}","false","ArrowDown,ArrowLeft","","","","","","",""
"html-keyboard-response","32","320113","0.0-3.0-6.0-1.1","spark_pilot_norest","10642","2","8","Female","","","","","","","null","<div style=""font-size:60px;"">+</div>","null","fixation","","","","","","","","","","","",""
"revaluation","33","324124","0.0-3.0-6.0-0.2","spark_pilot_norest","10642","2","8","Female","","false","","","","","[1068]","./assets/img/space/animals/cat.jpg","[""ArrowRight""]","second stage practice","space","36","{""ArrowUp,ArrowLeft"":3,""ArrowUp,ArrowRight"":36,""ArrowDown,ArrowLeft"":15,""ArrowDown,ArrowRight"":23}","true","ArrowUp,ArrowRight","","","","","","",""
"html-keyboard-response","34","324635","0.0-3.0-6.0-1.2","spark_pilot_norest","10642","2","8","Female","","","","","","","null","<div style=""font-size:60px;"">+</div>","null","fixation","","","","","","","","","","","",""
"revaluation","35","328661","0.0-3.0-6.0-0.3","spark_pilot_norest","10642","2","8","Female","","false","","","","","[947.7000000029802]","./assets/img/space/animals/cat.jpg","[""ArrowLeft""]","second stage practice","space","3","{""ArrowUp,ArrowLeft"":3,""ArrowUp,ArrowRight"":36,""ArrowDown,ArrowLeft"":15,""ArrowDown,ArrowRight"":23}","false","ArrowUp,ArrowLeft","","","","","","",""
"html-keyboard-response","36","329173","0.0-3.0-6.0-1.3","spark_pilot_norest","10642","2","8","Female","","","","","","","null","<div style=""font-size:60px;"">+</div>","null","fixation","","","","","","","","","","","",""
"learning-instructions","37","347377","0.0-3.0-7.0-0.0","spark_pilot_norest","10642","2","8","Female","","","","","","","1351.7999999970198","<p> Great job. Now let’s try putting it together. </p>
            <p> On each turn, you will first see a picture to remind you of the place you are in, and you need to choose whether to go up or down. </p>
            <p> Then you will see an animal and choose which of its chests to search for treasure. </p>","","instructions","","","","","","","","","","","",""
"learning-instructions","38","356844","0.0-3.0-7.0-0.1","spark_pilot_norest","10642","2","8","Female","","","","","","","1199","<p> When you choose whether to go up or down, try to go to the animal with the chest with the most treasure. </p>
            <p> Try practicing that now! </p>","","instructions","","","","","","","","","","","",""
"revaluation","39","362867","0.0-3.0-8.0-0.0","spark_pilot_norest","10642","2","8","Female","","false","","","","","[1301.5,1265.5999999940395]","./assets/img/space/6.jpg","[""ArrowUp"",""ArrowRight""]","full practice","space","36","{""ArrowUp,ArrowLeft"":3,""ArrowUp,ArrowRight"":36,""ArrowDown,ArrowLeft"":15,""ArrowDown,ArrowRight"":23}","true","ArrowUp,ArrowRight","false","","","","","",""
"html-keyboard-response","40","363369","0.0-3.0-8.0-1.0","spark_pilot_norest","10642","2","8","Female","","","","","","","null","<div style=""font-size:60px;"">+</div>","null","fixation","","","","","","","","","","","",""
"revaluation","41","369391","0.0-3.0-8.0-0.1","spark_pilot_norest","10642","2","8","Female","","false","","","","","[1038.5999999940395,1457.7999999970198]","./assets/img/space/7.jpg","[""ArrowDown"",""ArrowLeft""]","full practice","space","15","{""ArrowUp,ArrowLeft"":3,""ArrowUp,ArrowRight"":36,""ArrowDown,ArrowLeft"":15,""ArrowDown,ArrowRight"":23}","false","ArrowDown,ArrowLeft","false","","","","","",""
"html-keyboard-response","42","369908","0.0-3.0-8.0-1.1","spark_pilot_norest","10642","2","8","Female","","","","","","","null","<div style=""font-size:60px;"">+</div>","null","fixation","","","","","","","","","","","",""
"revaluation","43","375938","0.0-3.0-8.0-0.2","spark_pilot_norest","10642","2","8","Female","","false","","","","","[2002,1382.5]","./assets/img/space/8.jpg","[""ArrowDown"",""ArrowRight""]","full practice","space","23","{""ArrowUp,ArrowLeft"":3,""ArrowUp,ArrowRight"":36,""ArrowDown,ArrowLeft"":15,""ArrowDown,ArrowRight"":23}","false","ArrowDown,ArrowRight","false","","","","","",""
"html-keyboard-response","44","376452","0.0-3.0-8.0-1.2","spark_pilot_norest","10642","2","8","Female","","","","","","","null","<div style=""font-size:60px;"">+</div>","null","fixation","","","","","","","","","","","",""
"revaluation","45","382493","0.0-3.0-8.0-0.3","spark_pilot_norest","10642","2","8","Female","","false","","","","","[1685.2000000029802,1349]","./assets/img/space/9.jpg","[""ArrowDown"",""ArrowLeft""]","full practice","space","15","{""ArrowUp,ArrowLeft"":3,""ArrowUp,ArrowRight"":36,""ArrowDown,ArrowLeft"":15,""ArrowDown,ArrowRight"":23}","false","ArrowDown,ArrowLeft","false","","","","","",""
"html-keyboard-response","46","383005","0.0-3.0-8.0-1.3","spark_pilot_norest","10642","2","8","Female","","","","","","","null","<div style=""font-size:60px;"">+</div>","null","fixation","","","","","","","","","","","",""
"revaluation","47","389055","0.0-3.0-8.0-0.4","spark_pilot_norest","10642","2","8","Female","","false","","","","","[520.7000000029802,782.7999999970198]","./assets/img/space/10.jpg","[""ArrowUp"",""ArrowRight""]","full practice","space","36","{""ArrowUp,ArrowLeft"":3,""ArrowUp,ArrowRight"":36,""ArrowDown,ArrowLeft"":15,""ArrowDown,ArrowRight"":23}","true","ArrowUp,ArrowRight","false","","","","","",""
"html-keyboard-response","48","389565","0.0-3.0-8.0-1.4","spark_pilot_norest","10642","2","8","Female","","","","","","","null","<div style=""font-size:60px;"">+</div>","null","fixation","","","","","","","","","","","",""
"learning-instructions","49","401709","0.0-3.0-9.0-0.0","spark_pilot_norest","10642","2","8","Female","","","","","","","1819","<p> One last thing: sometimes, you will see a robber. The robber can be anywhere in the picture. </p>
            <p> If you do not stop them, you will lose treasure. </p>
            <img src='./assets/img/instructions/robber.jpg' class='instructions-image'>","","instructions","","","","","","","","","","","",""
"learning-instructions","50","409971","0.0-3.0-9.0-0.1","spark_pilot_norest","10642","2","8","Female","","","","","","","1091.5","<p> If you see the robber, you should <b>press the space bar</b> rather than using the arrow keys. </p>
            <p> Try practicing that now! </p>","","instructions","","","","","","","","","","","",""
"revaluation","51","413992","0.0-3.0-10.0-0.0","spark_pilot_norest","10642","2","8","Female","","false","","","","","[983.5]","./assets/img/space/catch/0.jpg","[""spaceBar""]","catch practice","space","0","{""ArrowUp,ArrowLeft"":3,""ArrowUp,ArrowRight"":36,""ArrowDown,ArrowLeft"":15,""ArrowDown,ArrowRight"":23}","true","spaceBar","true","","","","","",""
"html-keyboard-response","52","414505","0.0-3.0-10.0-1.0","spark_pilot_norest","10642","2","8","Female","","","","","","","null","<div style=""font-size:60px;"">+</div>","null","fixation","","","","","","","","","","","",""
"revaluation","53","418520","0.0-3.0-10.0-0.1","spark_pilot_norest","10642","2","8","Female","","false","","","","","[579.7000000029802]","./assets/img/space/catch/1.jpg","[""spaceBar""]","catch practice","space","0","{""ArrowUp,ArrowLeft"":3,""ArrowUp,ArrowRight"":36,""ArrowDown,ArrowLeft"":15,""ArrowDown,ArrowRight"":23}","true","spaceBar","true","","","","","",""
"html-keyboard-response","54","419025","0.0-3.0-10.0-1.1","spark_pilot_norest","10642","2","8","Female","","","","","","","null","<div style=""font-size:60px;"">+</div>","null","fixation","","","","","","","","","","","",""
"revaluation","55","423047","0.0-3.0-10.0-0.2","spark_pilot_norest","10642","2","8","Female","","false","","","","","[404.09999999403954]","./assets/img/space/catch/2.jpg","[""spaceBar""]","catch practice","space","0","{""ArrowUp,ArrowLeft"":3,""ArrowUp,ArrowRight"":36,""ArrowDown,ArrowLeft"":15,""ArrowDown,ArrowRight"":23}","true","spaceBar","true","","","","","",""
"html-keyboard-response","56","423564","0.0-3.0-10.0-1.2","spark_pilot_norest","10642","2","8","Female","","","","","","","null","<div style=""font-size:60px;"">+</div>","null","fixation","","","","","","","","","","","",""
"learning-instructions","57","429899","0.0-3.0-11.0-0.0-0.0","spark_pilot_norest","10642","2","8","Female","","","","","","","1058.5","<p> Now, you will practice a shortened version of the game to get a sense of how it all fits together. </p>","","instructions","","","","","","","","","","","",""
"learning-instructions","58","434281","0.0-3.0-11.0-0.0-0.1","spark_pilot_norest","10642","2","8","Female","","","","","","","1170.3999999910593","<p>This time you are searching for treasure in outer space.</p>","","instructions","","","","","","","","","","","",""
"learning-instructions","59","450246","0.0-3.0-11.0-1.0-0.0","spark_pilot_norest","10642","2","8","Female","","","","","","","1175.7000000029802","<p> Remember, when you see a picture of the place, use the up and down keys to <b>find an animal</b>.</p>
            <p> When you encounter an animal, you should use the left and right keys to <b>select a treasure chest</b>.</p>
            <p> Don't forget to look out for the robber! </p>","","instructions","","","","","","","","","","","",""
"revaluation","60","456276","0.0-3.0-11.0-2.0-0.0","spark_pilot_norest","10642","2","8","Female","","false","","","","","[1269.1000000089407,1281.2999999970198]","./assets/img/space/11.jpg","[""ArrowUp"",""ArrowLeft""]","practice block","space","3","{""ArrowUp,ArrowLeft"":3,""ArrowUp,ArrowRight"":36,""ArrowDown,ArrowLeft"":15,""ArrowDown,ArrowRight"":23}","false","ArrowUp,ArrowLeft","false","","","","","",""
"html-keyboard-response","61","456788","0.0-3.0-11.0-2.0-1.0","spark_pilot_norest","10642","2","8","Female","","","","","","","null","<div style=""font-size:60px;"">+</div>","null","fixation","","","","","","","","","","","",""
"revaluation","62","460817","0.0-3.0-11.0-2.0-0.1","spark_pilot_norest","10642","2","8","Female","","true","","","","","[]","./assets/img/space/12.jpg","[]","practice block","space","-5","{""ArrowUp,ArrowLeft"":3,""ArrowUp,ArrowRight"":36,""ArrowDown,ArrowLeft"":15,""ArrowDown,ArrowRight"":23}","false","","false","","","","","",""
"html-keyboard-response","63","461320","0.0-3.0-11.0-2.0-1.1","spark_pilot_norest","10642","2","8","Female","","","","","","","null","<div style=""font-size:60px;"">+</div>","null","fixation","","","","","","","","","","","",""
"revaluation","64","467363","0.0-3.0-11.0-2.0-0.2","spark_pilot_norest","10642","2","8","Female","","false","","","","","[743.2999999970198,1205.3999999910593]","./assets/img/space/13.jpg","[""ArrowUp"",""ArrowLeft""]","practice block","space","3","{""ArrowUp,ArrowLeft"":3,""ArrowUp,ArrowRight"":36,""ArrowDown,ArrowLeft"":15,""ArrowDown,ArrowRight"":23}","false","ArrowUp,ArrowLeft","false","","","","","",""
"html-keyboard-response","65","467866","0.0-3.0-11.0-2.0-1.2","spark_pilot_norest","10642","2","8","Female","","","","","","","null","<div style=""font-size:60px;"">+</div>","null","fixation","","","","","","","","","","","",""
"revaluation","66","473889","0.0-3.0-11.0-2.0-0.3","spark_pilot_norest","10642","2","8","Female","","false","","","","","[596.1000000089407,1423.4000000059605]","./assets/img/space/14.jpg","[""ArrowDown"",""ArrowRight""]","practice block","space","23","{""ArrowUp,ArrowLeft"":3,""ArrowUp,ArrowRight"":36,""ArrowDown,ArrowLeft"":15,""ArrowDown,ArrowRight"":23}","false","ArrowDown,ArrowRight","false","","","","","",""
"html-keyboard-response","67","474400","0.0-3.0-11.0-2.0-1.3","spark_pilot_norest","10642","2","8","Female","","","","","","","null","<div style=""font-size:60px;"">+</div>","null","fixation","","","","","","","","","","","",""
"revaluation","68","480420","0.0-3.0-11.0-2.0-0.4","spark_pilot_norest","10642","2","8","Female","","false","","","","","[1208.5,1136.7000000029802]","./assets/img/space/11.jpg","[""ArrowDown"",""ArrowLeft""]","practice block","space","15","{""ArrowUp,ArrowLeft"":3,""ArrowUp,ArrowRight"":36,""ArrowDown,ArrowLeft"":15,""ArrowDown,ArrowRight"":23}","false","ArrowDown,ArrowLeft","false","","","","","",""
"html-keyboard-response","69","480930","0.0-3.0-11.0-2.0-1.4","spark_pilot_norest","10642","2","8","Female","","","","","","","null","<div style=""font-size:60px;"">+</div>","null","fixation","","","","","","","","","","","",""
"revaluation","70","486958","0.0-3.0-11.0-2.0-0.5","spark_pilot_norest","10642","2","8","Female","","false","","","","","[1621.7999999970198,1233.5999999940395]","./assets/img/space/12.jpg","[""ArrowDown"",""ArrowLeft""]","practice block","space","15","{""ArrowUp,ArrowLeft"":3,""ArrowUp,ArrowRight"":36,""ArrowDown,ArrowLeft"":15,""ArrowDown,ArrowRight"":23}","false","ArrowDown,ArrowLeft","false","","","","","",""
"html-keyboard-response","71","487470","0.0-3.0-11.0-2.0-1.5","spark_pilot_norest","10642","2","8","Female","","","","","","","null","<div style=""font-size:60px;"">+</div>","null","fixation","","","","","","","","","","","",""
"revaluation","72","493493","0.0-3.0-11.0-2.0-0.6","spark_pilot_norest","10642","2","8","Female","","false","","","","","[1446.6000000089407,1041.8999999910593]","./assets/img/space/13.jpg","[""ArrowDown"",""ArrowLeft""]","practice block","space","15","{""ArrowUp,ArrowLeft"":3,""ArrowUp,ArrowRight"":36,""ArrowDown,ArrowLeft"":15,""ArrowDown,ArrowRight"":23}","false","ArrowDown,ArrowLeft","false","","","","","",""
"html-keyboard-response","73","494029","0.0-3.0-11.0-2.0-1.6","spark_pilot_norest","10642","2","8","Female","","","","","","","null","<div style=""font-size:60px;"">+</div>","null","fixation","","","","","","","","","","","",""
"revaluation","74","500046","0.0-3.0-11.0-2.0-0.7","spark_pilot_norest","10642","2","8","Female","","false","","","","","[1120.5,772.7000000029802]","./assets/img/space/14.jpg","[""ArrowUp"",""ArrowRight""]","practice block","space","36","{""ArrowUp,ArrowLeft"":3,""ArrowUp,ArrowRight"":36,""ArrowDown,ArrowLeft"":15,""ArrowDown,ArrowRight"":23}","true","ArrowUp,ArrowRight","false","","","","","",""
"html-keyboard-response","75","500570","0.0-3.0-11.0-2.0-1.7","spark_pilot_norest","10642","2","8","Female","","","","","","","null","<div style=""font-size:60px;"">+</div>","null","fixation","","","","","","","","","","","",""
"revaluation","76","504591","0.0-3.0-11.0-2.0-0.8","spark_pilot_norest","10642","2","8","Female","","false","","","","","[863.9000000059605]","./assets/img/space/catch/3.jpg","[""spaceBar""]","practice block","space","0","{""ArrowUp,ArrowLeft"":3,""ArrowUp,ArrowRight"":36,""ArrowDown,ArrowLeft"":15,""ArrowDown,ArrowRight"":23}","true","spaceBar","true","","","","","",""
"html-keyboard-response","77","505102","0.0-3.0-11.0-2.0-1.8","spark_pilot_norest","10642","2","8","Female","","","","","","","null","<div style=""font-size:60px;"">+</div>","null","fixation","","","","","","","","","","","",""
"learning-instructions","78","519468","0.0-3.0-11.0-3.0-0.0","spark_pilot_norest","10642","2","8","Female","","","","","","","1165.7999999970198","<p> Now, you will travel with a friend who will choose whether you go up or down first. </p>
            <p> On these turns, you will just see the animal that they found. You will still get to choose which chest to search for treasure.</p>","","instructions","","","","","","","","","","","",""
"revaluation","79","523494","0.0-3.0-11.0-4.0-0.0","spark_pilot_norest","10642","2","8","Female","","false","","","","","[1547.1000000089407]","./assets/img/space/animals/cat.jpg","[""ArrowRight""]","practice block","space","36","{""ArrowUp,ArrowLeft"":3,""ArrowUp,ArrowRight"":36,""ArrowDown,ArrowLeft"":15,""ArrowDown,ArrowRight"":23}","true","ArrowUp,ArrowRight","","","","","","",""
"html-keyboard-response","80","524011","0.0-3.0-11.0-4.0-1.0","spark_pilot_norest","10642","2","8","Female","","","","","","","null","<div style=""font-size:60px;"">+</div>","null","fixation","","","","","","","","","","","",""
"revaluation","81","528037","0.0-3.0-11.0-4.0-0.1","spark_pilot_norest","10642","2","8","Female","","false","","","","","[1075.7999999970198]","./assets/img/space/animals/rabbit.jpg","[""ArrowLeft""]","practice block","space","15","{""ArrowUp,ArrowLeft"":3,""ArrowUp,ArrowRight"":36,""ArrowDown,ArrowLeft"":15,""ArrowDown,ArrowRight"":23}","false","ArrowDown,ArrowLeft","","","","","","",""
"html-keyboard-response","82","528547","0.0-3.0-11.0-4.0-1.1","spark_pilot_norest","10642","2","8","Female","","","","","","","null","<div style=""font-size:60px;"">+</div>","null","fixation","","","","","","","","","","","",""
"revaluation","83","532566","0.0-3.0-11.0-4.0-0.2","spark_pilot_norest","10642","2","8","Female","","false","","","","","[821.2999999970198]","./assets/img/space/animals/rabbit.jpg","[""ArrowRight""]","practice block","space","23","{""ArrowUp,ArrowLeft"":3,""ArrowUp,ArrowRight"":36,""ArrowDown,ArrowLeft"":15,""ArrowDown,ArrowRight"":23}","true","ArrowDown,ArrowRight","","","","","","",""
"html-keyboard-response","84","533073","0.0-3.0-11.0-4.0-1.2","spark_pilot_norest","10642","2","8","Female","","","","","","","null","<div style=""font-size:60px;"">+</div>","null","fixation","","","","","","","","","","","",""
"revaluation","85","537104","0.0-3.0-11.0-4.0-0.3","spark_pilot_norest","10642","2","8","Female","","false","","","","","[467.20000000298023]","./assets/img/space/animals/cat.jpg","[""ArrowRight""]","practice block","space","36","{""ArrowUp,ArrowLeft"":3,""ArrowUp,ArrowRight"":36,""ArrowDown,ArrowLeft"":15,""ArrowDown,ArrowRight"":23}","true","ArrowUp,ArrowRight","","","","","","",""
"html-keyboard-response","86","537606","0.0-3.0-11.0-4.0-1.3","spark_pilot_norest","10642","2","8","Female","","","","","","","null","<div style=""font-size:60px;"">+</div>","null","fixation","","","","","","","","","","","",""
"learning-instructions","87","545780","0.0-3.0-11.0-5.0-0.0","spark_pilot_norest","10642","2","8","Female","","","","","","","null","<p> You have almost finished this part of the game! </p>
            <p> We are going to ask you to make a few more choices. </p>","","instructions","","","","","","","","","","","",""
"learning-instructions","88","561846","0.0-3.0-11.0-5.0-0.1","spark_pilot_norest","10642","2","8","Female","","","","","","","null","<p> First, you need to decide whether to go up or down. When you see each picture, use the arrow keys to make your choice. </p>
            <p><b>You will not see which animal you found, but try to get to the one that will give you the most treasure.</b></p>","","instructions","","","","","","","","","","","",""
"html-keyboard-response","89","562849","0.0-3.0-11.0-6.0-0.0","spark_pilot_norest","10642","2","8","Female","","","","","","","null","<div style=""font-size:100px;color:red;"">Starting in...</div>","null","","","","","","","","","","","","",""
"html-keyboard-response","90","563863","0.0-3.0-11.0-6.0-1.0","spark_pilot_norest","10642","2","8","Female","","","","","","","null","<div style=""font-size:200px;color:red;"">3</div>","null","","","","","","","","","","","","",""
"html-keyboard-response","91","564878","0.0-3.0-11.0-6.0-2.0","spark_pilot_norest","10642","2","8","Female","","","","","","","null","<div style=""font-size:200px;color:red;"">2</div>","null","","","","","","","","","","","","",""
"html-keyboard-response","92","565885","0.0-3.0-11.0-6.0-3.0","spark_pilot_norest","10642","2","8","Female","","","","","","","null","<div style=""font-size:200px;color:red;"">1</div>","null","","","","","","","","","","","","",""
"revaluation","93","566328","0.0-3.0-11.0-7.0","spark_pilot_norest","10642","2","8","Female","","false","","","","","[438.1000000089407]","./assets/img/space/15.jpg","[""ArrowUp""]","practice block","space","0","{""ArrowUp,ArrowLeft"":3,""ArrowUp,ArrowRight"":36,""ArrowDown,ArrowLeft"":15,""ArrowDown,ArrowRight"":23}","true","ArrowUp","false","","","","","",""
"html-keyboard-response","94","566833","0.0-3.0-11.0-8.0","spark_pilot_norest","10642","2","8","Female","","","","","","","null","<div style=""font-size:60px;"">+</div>","null","fixation","","","","","","","","","","","",""
"learning-instructions","95","580258","0.0-3.0-11.0-9.0-0.0","spark_pilot_norest","10642","2","8","Female","","","","","","","null","<p> Now you will see the animals again and can search their chests for treasure. </p>
            <p> This time, you will not see how much treasure you earned, but you will earn more bonus money for making better choices. </p>","","instructions","","","","","","","","","","","",""
"html-keyboard-response","96","581262","0.0-3.0-11.0-10.0-0.0","spark_pilot_norest","10642","2","8","Female","","","","","","","null","<div style=""font-size:100px;color:red;"">Starting in...</div>","null","","","","","","","","","","","","",""
"html-keyboard-response","97","582264","0.0-3.0-11.0-10.0-1.0","spark_pilot_norest","10642","2","8","Female","","","","","","","null","<div style=""font-size:200px;color:red;"">3</div>","null","","","","","","","","","","","","",""
"html-keyboard-response","98","583276","0.0-3.0-11.0-10.0-2.0","spark_pilot_norest","10642","2","8","Female","","","","","","","null","<div style=""font-size:200px;color:red;"">2</div>","null","","","","","","","","","","","","",""
"html-keyboard-response","99","584286","0.0-3.0-11.0-10.0-3.0","spark_pilot_norest","10642","2","8","Female","","","","","","","null","<div style=""font-size:200px;color:red;"">1</div>","null","","","","","","","","","","","","",""
"revaluation","100","585957","0.0-3.0-11.0-11.0-0.0","spark_pilot_norest","10642","2","8","Female","","false","","","","","[1667.4000000059605]","./assets/img/space/animals/cat.jpg","[""ArrowRight""]","practice block","space","0","{""ArrowUp,ArrowLeft"":3,""ArrowUp,ArrowRight"":36,""ArrowDown,ArrowLeft"":15,""ArrowDown,ArrowRight"":23}","true","ArrowUp,ArrowRight","","","","","","",""
"html-keyboard-response","101","586472","0.0-3.0-11.0-11.0-1.0","spark_pilot_norest","10642","2","8","Female","","","","","","","null","<div style=""font-size:60px;"">+</div>","null","fixation","","","","","","","","","","","",""
"revaluation","102","587571","0.0-3.0-11.0-11.0-0.1","spark_pilot_norest","10642","2","8","Female","","false","","","","","[1093.5999999940395]","./assets/img/space/animals/rabbit.jpg","[""ArrowRight""]","practice block","space","0","{""ArrowUp,ArrowLeft"":3,""ArrowUp,ArrowRight"":36,""ArrowDown,ArrowLeft"":15,""ArrowDown,ArrowRight"":23}","true","ArrowDown,ArrowRight","","","","","","",""
"html-keyboard-response","103","588076","0.0-3.0-11.0-11.0-1.1","spark_pilot_norest","10642","2","8","Female","","","","","","","null","<div style=""font-size:60px;"">+</div>","null","fixation","","","","","","","","","","","",""
"learning-instructions","104","593930","0.0-3.0-12.0-0.0","spark_pilot_norest","10642","2","8","Female","","","","","","","1247.3999999910593","<p> Before you start, we're going to ask you a few questions about how the game works. </p>","","instructions","","","","","","","","","","","",""
"comp-q","105","601567","0.0-3.0-13.0-0.0-0.0","spark_pilot_norest","10642","2","8","Female","","","","","","","2046.699999988079","<p> <b> True or False? </b> </p>
            <p> There can be 50 pieces of treasure in a given animal's chest. </p>","1","comp_question","","","","true","","","","","","","",""
"comp-q","106","610059","0.0-3.0-13.0-0.0-1.0","spark_pilot_norest","10642","2","8","Female","","","","","","","1796","<p> <b> That's right! </b> The amount of treasure in each chest can range from 0 to 40 pieces. </p>","0","comp_answer","","","","","","","","","","","",""
"comp-q","107","618745","0.0-3.0-13.0-0.1-0.1","spark_pilot_norest","10642","2","8","Female","","","","","","","1531.5","<p> <b> True or False? </b> </p><p> In this game, all animals have the same amount of treasure in their left and right chests. </p>","1","comp_question","","","","true","","","","","","","",""
"comp-q","108","625435","0.0-3.0-13.0-0.1-1.1","spark_pilot_norest","10642","2","8","Female","","","","","","","1422.2000000029802","<p> <b> That's right! </b> Animals have different amounts of treasure in their treasure chests. </p>","0","comp_answer","","","","","","","","","","","",""
"comp-q","109","632544","0.0-3.0-13.0-0.2-0.2","spark_pilot_norest","10642","2","8","Female","","","","","","","1240.4000000059605","<p> <b> True or False? </b> </p><p> The same animal will always be there if you go up in the same place. </p>","1","comp_question","","","","false","","","","","","","",""
"comp-q","110","640040","0.0-3.0-13.0-0.2-1.2","spark_pilot_norest","10642","2","8","Female","","","","","","","1167","<p> <b>Incorrect.</b> One animal lives in the upper part and one lives in the lower part of every place. </p>","0","comp_answer","","","","","","","","","","","",""
"comp-q","111","648282","0.0-3.0-13.0-0.3-0.3","spark_pilot_norest","10642","2","8","Female","","","","","","","2419","<p> <b> True or False? </b> </p><p> The same animal will always be there if you go up in the same place. </p>","0","comp_question","","","","true","","","","","","","",""
"comp-q","112","656003","0.0-3.0-13.0-0.3-1.3","spark_pilot_norest","10642","2","8","Female","","","","","","","1229.8999999910593","<p> <b> That's right! </b> One animal lives in the upper part and one lives in the lower part of every place. </p>","0","comp_answer","","","","","","","","","","","",""
"comp-q","113","667862","0.0-3.0-13.0-0.4-0.4","spark_pilot_norest","10642","2","8","Female","","","","","","","6309.29999999702","<p> <b> True or False? </b> </p><p> If you see a different picture, it means you are in a new place. </p>","0","comp_question","","","","false","","","","","","","",""
"comp-q","114","680587","0.0-3.0-13.0-0.4-1.4","spark_pilot_norest","10642","2","8","Female","","","","","","","1604.199999988079","<p> <b>Incorrect.</b> Lots of different images may show the same place. For example,  you may see three different images that all remind you that you are in outer space. </p>","0","comp_answer","","","","","","","","","","","",""
"comp-q","115","687974","0.0-3.0-13.0-0.5-0.5","spark_pilot_norest","10642","2","8","Female","","","","","","","1880.7999999970198","<p> <b> True or False? </b> </p><p> If you see a different picture, it means you are in a new place. </p>","1","comp_question","","","","true","","","","","","","",""
"comp-q","116","701067","0.0-3.0-13.0-0.5-1.5","spark_pilot_norest","10642","2","8","Female","","","","","","","1844.5","<p> <b> That's right! </b> Lots of different images may show the same place. For example,  you may see three different images that all remind you that you are in outer space. </p>","0","comp_answer","","","","","","","","","","","",""
"learning-instructions","117","714717","0.0-3.0-14.0-0.0","spark_pilot_norest","10642","2","8","Female","","","","","","","3773.2999999970198","<p> Good job. Remember to do your best because the amount of treasure you earn will be converted into bonus money. </p>
            <p> It’s time to start the real game! </p>","","instructions","","","","","","","","","","","",""
"learning-instructions","118","719207","0.0-4.0-0.0-0.0","spark_pilot_norest","10642","2","8","Female","","","","","","","1754.2000000029802","<p> This time you are searching for treasure in the <b>ocean</b>.</p>","","instructions","","","","","","","","","","","",""
"learning-instructions","119","738027","0.0-4.0-0.0-0.1","spark_pilot_norest","10642","2","8","Female","","","","","","","1493.7000000029802","<p><b>New</b> animals with <b>new</b> treasure chests live here. You need to explore to discover where the animal with the best treasure chest is.</p>
                    <p> Like before, once you figure out which animal has the chest with the most treasure, you should try to get to that animal and select that chest! </p>","","instructions","","","","","","","","","","","",""
"learning-instructions","120","753940","0.0-4.0-1.0-0.0","spark_pilot_norest","10642","2","8","Female","","","","","","","1177.4000000059605","<p> Remember, when you see a picture of the place, use the up and down keys to <b>find an animal</b>.</p>
            <p> When you encounter an animal, you should use the left and right keys to <b>select a treasure chest</b>.</p>
            <p> Don't forget to look out for the robber! </p>","","instructions","","","","","","","","","","","",""
"revaluation","121","759980","0.0-4.0-2.0-0.0","spark_pilot_norest","10642","2","8","Female","","false","","","","","[1344.2999999970198,1290.3999999910593]","./assets/img/ocean/memory/36.jpg","[""ArrowUp"",""ArrowRight""]","value training","ocean","10","{""ArrowUp,ArrowLeft"":23,""ArrowUp,ArrowRight"":10,""ArrowDown,ArrowLeft"":8,""ArrowDown,ArrowRight"":30}","false","ArrowUp,ArrowRight","false","revaluation","1","0","","",""
"html-keyboard-response","122","760492","0.0-4.0-2.0-1.0","spark_pilot_norest","10642","2","8","Female","","","","","","","null","<div style=""font-size:60px;"">+</div>","null","fixation","","","","","","","","","1","","",""
"revaluation","123","764521","0.0-4.0-2.0-0.1","spark_pilot_norest","10642","2","8","Female","","true","","","","","[]","./assets/img/ocean/memory/21.jpg","[]","value training","ocean","-5","{""ArrowUp,ArrowLeft"":23,""ArrowUp,ArrowRight"":10,""ArrowDown,ArrowLeft"":8,""ArrowDown,ArrowRight"":30}","false","","false","revaluation","1","2","","",""
"html-keyboard-response","124","765032","0.0-4.0-2.0-1.1","spark_pilot_norest","10642","2","8","Female","","","","","","","null","<div style=""font-size:60px;"">+</div>","null","fixation","","","","","","","","","3","","",""
"revaluation","125","771055","0.0-4.0-2.0-0.2","spark_pilot_norest","10642","2","8","Female","","false","","","","","[807,954.8000000119209]","./assets/img/ocean/memory/41.jpg","[""ArrowUp"",""ArrowRight""]","value training","ocean","10","{""ArrowUp,ArrowLeft"":23,""ArrowUp,ArrowRight"":10,""ArrowDown,ArrowLeft"":8,""ArrowDown,ArrowRight"":30}","false","ArrowUp,ArrowRight","false","revaluation","1","4","","",""
"html-keyboard-response","126","771563","0.0-4.0-2.0-1.2","spark_pilot_norest","10642","2","8","Female","","","","","","","null","<div style=""font-size:60px;"">+</div>","null","fixation","","","","","","","","","5","","",""
"revaluation","127","777580","0.0-4.0-2.0-0.3","spark_pilot_norest","10642","2","8","Female","","false","","","","","[1088.4000000059605,743.6999999880791]","./assets/img/ocean/memory/27.jpg","[""ArrowUp"",""ArrowRight""]","value training","ocean","10","{""ArrowUp,ArrowLeft"":23,""ArrowUp,ArrowRight"":10,""ArrowDown,ArrowLeft"":8,""ArrowDown,ArrowRight"":30}","false","ArrowUp,ArrowRight","false","revaluation","1","6","","",""
"html-keyboard-response","128","778091","0.0-4.0-2.0-1.3","spark_pilot_norest","10642","2","8","Female","","","","","","","null","<div style=""font-size:60px;"">+</div>","null","fixation","","","","","","","","","7","","",""
"revaluation","129","784131","0.0-4.0-2.0-0.4","spark_pilot_norest","10642","2","8","Female","","false","","","","","[601.3999999910593,633.2000000029802]","./assets/img/ocean/memory/39.jpg","[""ArrowUp"",""ArrowLeft""]","value training","ocean","23","{""ArrowUp,ArrowLeft"":23,""ArrowUp,ArrowRight"":10,""ArrowDown,ArrowLeft"":8,""ArrowDown,ArrowRight"":30}","false","ArrowUp,ArrowLeft","false","revaluation","1","8","","",""
"html-keyboard-response","130","784664","0.0-4.0-2.0-1.4","spark_pilot_norest","10642","2","8","Female","","","","","","","null","<div style=""font-size:60px;"">+</div>","null","fixation","","","","","","","","","9","","",""
"revaluation","131","790707","0.0-4.0-2.0-0.5","spark_pilot_norest","10642","2","8","Female","","false","","","","","[796.8999999910593,487.59999999403954]","./assets/img/ocean/memory/14.jpg","[""ArrowUp"",""ArrowLeft""]","value training","ocean","23","{""ArrowUp,ArrowLeft"":23,""ArrowUp,ArrowRight"":10,""ArrowDown,ArrowLeft"":8,""ArrowDown,ArrowRight"":30}","false","ArrowUp,ArrowLeft","false","revaluation","1","10","","",""
"html-keyboard-response","132","791234","0.0-4.0-2.0-1.5","spark_pilot_norest","10642","2","8","Female","","","","","","","null","<div style=""font-size:60px;"">+</div>","null","fixation","","","","","","","","","11","","",""
"revaluation","133","797266","0.0-4.0-2.0-0.6","spark_pilot_norest","10642","2","8","Female","","false","","","","","[1312,727.1000000089407]","./assets/img/ocean/memory/7.jpg","[""ArrowUp"",""ArrowLeft""]","value training","ocean","23","{""ArrowUp,ArrowLeft"":23,""ArrowUp,ArrowRight"":10,""ArrowDown,ArrowLeft"":8,""ArrowDown,ArrowRight"":30}","false","ArrowUp,ArrowLeft","false","revaluation","1","12","","",""
"html-keyboard-response","134","797781","0.0-4.0-2.0-1.6","spark_pilot_norest","10642","2","8","Female","","","","","","","null","<div style=""font-size:60px;"">+</div>","null","fixation","","","","","","","","","13","","",""
"revaluation","135","803809","0.0-4.0-2.0-0.7","spark_pilot_norest","10642","2","8","Female","","false","","","","","[542.4000000059605,368.69999998807907]","./assets/img/ocean/memory/40.jpg","[""ArrowUp"",""ArrowLeft""]","value training","ocean","23","{""ArrowUp,ArrowLeft"":23,""ArrowUp,ArrowRight"":10,""ArrowDown,ArrowLeft"":8,""ArrowDown,ArrowRight"":30}","false","ArrowUp,ArrowLeft","false","revaluation","1","14","","",""
"html-keyboard-response","136","804322","0.0-4.0-2.0-1.7","spark_pilot_norest","10642","2","8","Female","","","","","","","null","<div style=""font-size:60px;"">+</div>","null","fixation","","","","","","","","","15","","",""
"revaluation","137","810353","0.0-4.0-2.0-0.8","spark_pilot_norest","10642","2","8","Female","","false","","","","","[878.7000000029802,364.19999998807907]","./assets/img/ocean/memory/37.jpg","[""ArrowUp"",""ArrowLeft""]","value training","ocean","23","{""ArrowUp,ArrowLeft"":23,""ArrowUp,ArrowRight"":10,""ArrowDown,ArrowLeft"":8,""ArrowDown,ArrowRight"":30}","false","ArrowUp,ArrowLeft","false","revaluation","1","16","","",""
"html-keyboard-response","138","810898","0.0-4.0-2.0-1.8","spark_pilot_norest","10642","2","8","Female","","","","","","","null","<div style=""font-size:60px;"">+</div>","null","fixation","","","","","","","","","17","","",""
"revaluation","139","816949","0.0-4.0-2.0-0.9","spark_pilot_norest","10642","2","8","Female","","false","","","","","[790.0999999940395,624.7999999970198]","./assets/img/ocean/memory/38.jpg","[""ArrowUp"",""ArrowLeft""]","value training","ocean","23","{""ArrowUp,ArrowLeft"":23,""ArrowUp,ArrowRight"":10,""ArrowDown,ArrowLeft"":8,""ArrowDown,ArrowRight"":30}","false","ArrowUp,ArrowLeft","false","revaluation","1","18","","",""
"html-keyboard-response","140","817454","0.0-4.0-2.0-1.9","spark_pilot_norest","10642","2","8","Female","","","","","","","null","<div style=""font-size:60px;"">+</div>","null","fixation","","","","","","","","","19","","",""
"revaluation","141","823493","0.0-4.0-2.0-0.10","spark_pilot_norest","10642","2","8","Female","","false","","","","","[735.2000000029802,721.5999999940395]","./assets/img/ocean/memory/22.jpg","[""ArrowUp"",""ArrowLeft""]","value training","ocean","23","{""ArrowUp,ArrowLeft"":23,""ArrowUp,ArrowRight"":10,""ArrowDown,ArrowLeft"":8,""ArrowDown,ArrowRight"":30}","false","ArrowUp,ArrowLeft","false","revaluation","1","20","","",""
"html-keyboard-response","142","824032","0.0-4.0-2.0-1.10","spark_pilot_norest","10642","2","8","Female","","","","","","","null","<div style=""font-size:60px;"">+</div>","null","fixation","","","","","","","","","21","","",""
"revaluation","143","830069","0.0-4.0-2.0-0.11","spark_pilot_norest","10642","2","8","Female","","false","","","","","[451.59999999403954,698.2999999970198]","./assets/img/ocean/memory/7.jpg","[""ArrowUp"",""ArrowLeft""]","value training","ocean","23","{""ArrowUp,ArrowLeft"":23,""ArrowUp,ArrowRight"":10,""ArrowDown,ArrowLeft"":8,""ArrowDown,ArrowRight"":30}","false","ArrowUp,ArrowLeft","false","revaluation","1","22","","",""
"html-keyboard-response","144","830603","0.0-4.0-2.0-1.11","spark_pilot_norest","10642","2","8","Female","","","","","","","null","<div style=""font-size:60px;"">+</div>","null","fixation","","","","","","","","","23","","",""
"revaluation","145","836660","0.0-4.0-2.0-0.12","spark_pilot_norest","10642","2","8","Female","","false","","","","","[351.70000000298023,711.8000000119209]","./assets/img/ocean/memory/2.jpg","[""ArrowUp"",""ArrowLeft""]","value training","ocean","23","{""ArrowUp,ArrowLeft"":23,""ArrowUp,ArrowRight"":10,""ArrowDown,ArrowLeft"":8,""ArrowDown,ArrowRight"":30}","false","ArrowUp,ArrowLeft","false","revaluation","1","24","","",""
"html-keyboard-response","146","837167","0.0-4.0-2.0-1.12","spark_pilot_norest","10642","2","8","Female","","","","","","","null","<div style=""font-size:60px;"">+</div>","null","fixation","","","","","","","","","25","","",""
"revaluation","147","843203","0.0-4.0-2.0-0.13","spark_pilot_norest","10642","2","8","Female","","false","","","","","[864,830.1000000089407]","./assets/img/ocean/memory/17.jpg","[""ArrowUp"",""ArrowLeft""]","value training","ocean","23","{""ArrowUp,ArrowLeft"":23,""ArrowUp,ArrowRight"":10,""ArrowDown,ArrowLeft"":8,""ArrowDown,ArrowRight"":30}","false","ArrowUp,ArrowLeft","false","revaluation","1","26","","",""
"html-keyboard-response","148","843736","0.0-4.0-2.0-1.13","spark_pilot_norest","10642","2","8","Female","","","","","","","null","<div style=""font-size:60px;"">+</div>","null","fixation","","","","","","","","","27","","",""
"revaluation","149","849760","0.0-4.0-2.0-0.14","spark_pilot_norest","10642","2","8","Female","","false","","","","","[1331,1112.2999999970198]","./assets/img/ocean/memory/11.jpg","[""ArrowUp"",""ArrowLeft""]","value training","ocean","23","{""ArrowUp,ArrowLeft"":23,""ArrowUp,ArrowRight"":10,""ArrowDown,ArrowLeft"":8,""ArrowDown,ArrowRight"":30}","false","ArrowUp,ArrowLeft","false","revaluation","1","28","","",""
"html-keyboard-response","150","850282","0.0-4.0-2.0-1.14","spark_pilot_norest","10642","2","8","Female","","","","","","","null","<div style=""font-size:60px;"">+</div>","null","fixation","","","","","","","","","29","","",""
"revaluation","151","856343","0.0-4.0-2.0-0.15","spark_pilot_norest","10642","2","8","Female","","false","","","","","[725.0999999940395,1046.2000000029802]","./assets/img/ocean/memory/26.jpg","[""ArrowUp"",""ArrowLeft""]","value training","ocean","23","{""ArrowUp,ArrowLeft"":23,""ArrowUp,ArrowRight"":10,""ArrowDown,ArrowLeft"":8,""ArrowDown,ArrowRight"":30}","false","ArrowUp,ArrowLeft","false","revaluation","1","30","","",""
"html-keyboard-response","152","856881","0.0-4.0-2.0-1.15","spark_pilot_norest","10642","2","8","Female","","","","","","","null","<div style=""font-size:60px;"">+</div>","null","fixation","","","","","","","","","31","","",""
"revaluation","153","862920","0.0-4.0-2.0-0.16","spark_pilot_norest","10642","2","8","Female","","false","","","","","[809.5,451.1000000089407]","./assets/img/ocean/memory/38.jpg","[""ArrowUp"",""ArrowLeft""]","value training","ocean","23","{""ArrowUp,ArrowLeft"":23,""ArrowUp,ArrowRight"":10,""ArrowDown,ArrowLeft"":8,""ArrowDown,ArrowRight"":30}","false","ArrowUp,ArrowLeft","false","revaluation","1","32","","",""
"html-keyboard-response","154","863449","0.0-4.0-2.0-1.16","spark_pilot_norest","10642","2","8","Female","","","","","","","null","<div style=""font-size:60px;"">+</div>","null","fixation","","","","","","","","","33","","",""
"revaluation","155","869486","0.0-4.0-2.0-0.17","spark_pilot_norest","10642","2","8","Female","","false","","","","","[1004.2000000029802,816.5999999940395]","./assets/img/ocean/memory/3.jpg","[""ArrowUp"",""ArrowLeft""]","value training","ocean","23","{""ArrowUp,ArrowLeft"":23,""ArrowUp,ArrowRight"":10,""ArrowDown,ArrowLeft"":8,""ArrowDown,ArrowRight"":30}","false","ArrowUp,ArrowLeft","false","revaluation","1","34","","",""
"html-keyboard-response","156","870014","0.0-4.0-2.0-1.17","spark_pilot_norest","10642","2","8","Female","","","","","","","null","<div style=""font-size:60px;"">+</div>","null","fixation","","","","","","","","","35","","",""
"revaluation","157","874035","0.0-4.0-2.0-0.18","spark_pilot_norest","10642","2","8","Female","","false","","","","","[751.5]","./assets/img/ocean/catch/5.jpg","[""ArrowUp""]","value training","ocean","-10","{""ArrowUp,ArrowLeft"":23,""ArrowUp,ArrowRight"":10,""ArrowDown,ArrowLeft"":8,""ArrowDown,ArrowRight"":30}","false","ArrowUp","true","revaluation","1","36","","",""
"html-keyboard-response","158","874537","0.0-4.0-2.0-1.18","spark_pilot_norest","10642","2","8","Female","","","","","","","null","<div style=""font-size:60px;"">+</div>","null","fixation","","","","","","","","","37","","",""
"revaluation","159","878548","0.0-4.0-2.0-0.19","spark_pilot_norest","10642","2","8","Female","","false","","","","","[1412.2999999970198]","./assets/img/ocean/catch/6.jpg","[""spaceBar""]","value training","ocean","0","{""ArrowUp,ArrowLeft"":23,""ArrowUp,ArrowRight"":10,""ArrowDown,ArrowLeft"":8,""ArrowDown,ArrowRight"":30}","true","spaceBar","true","revaluation","1","38","","",""
"html-keyboard-response","160","879051","0.0-4.0-2.0-1.19","spark_pilot_norest","10642","2","8","Female","","","","","","","null","<div style=""font-size:60px;"">+</div>","null","fixation","","","","","","","","","39","","",""
"revaluation","161","885092","0.0-4.0-2.0-0.20","spark_pilot_norest","10642","2","8","Female","","false","","","","","[1361.2999999970198,933.8000000119209]","./assets/img/ocean/memory/1.jpg","[""ArrowUp"",""ArrowLeft""]","value training","ocean","23","{""ArrowUp,ArrowLeft"":23,""ArrowUp,ArrowRight"":10,""ArrowDown,ArrowLeft"":8,""ArrowDown,ArrowRight"":30}","false","ArrowUp,ArrowLeft","false","revaluation","1","40","","",""
"html-keyboard-response","162","885607","0.0-4.0-2.0-1.20","spark_pilot_norest","10642","2","8","Female","","","","","","","null","<div style=""font-size:60px;"">+</div>","null","fixation","","","","","","","","","41","","",""
"revaluation","163","891620","0.0-4.0-2.0-0.21","spark_pilot_norest","10642","2","8","Female","","false","","","","","[1766.8999999910593,937]","./assets/img/ocean/memory/19.jpg","[""ArrowUp"",""ArrowLeft""]","value training","ocean","23","{""ArrowUp,ArrowLeft"":23,""ArrowUp,ArrowRight"":10,""ArrowDown,ArrowLeft"":8,""ArrowDown,ArrowRight"":30}","false","ArrowUp,ArrowLeft","false","revaluation","1","42","","",""
"html-keyboard-response","164","892122","0.0-4.0-2.0-1.21","spark_pilot_norest","10642","2","8","Female","","","","","","","null","<div style=""font-size:60px;"">+</div>","null","fixation","","","","","","","","","43","","",""
"revaluation","165","898158","0.0-4.0-2.0-0.22","spark_pilot_norest","10642","2","8","Female","","false","","","","","[648.2000000029802,855.7999999970198]","./assets/img/ocean/memory/39.jpg","[""ArrowUp"",""ArrowLeft""]","value training","ocean","23","{""ArrowUp,ArrowLeft"":23,""ArrowUp,ArrowRight"":10,""ArrowDown,ArrowLeft"":8,""ArrowDown,ArrowRight"":30}","false","ArrowUp,ArrowLeft","false","revaluation","1","44","","",""
"html-keyboard-response","166","898671","0.0-4.0-2.0-1.22","spark_pilot_norest","10642","2","8","Female","","","","","","","null","<div style=""font-size:60px;"">+</div>","null","fixation","","","","","","","","","45","","",""
"revaluation","167","904694","0.0-4.0-2.0-0.23","spark_pilot_norest","10642","2","8","Female","","false","","","","","[956.7999999970198,732.9000000059605]","./assets/img/ocean/memory/16.jpg","[""ArrowUp"",""ArrowLeft""]","value training","ocean","23","{""ArrowUp,ArrowLeft"":23,""ArrowUp,ArrowRight"":10,""ArrowDown,ArrowLeft"":8,""ArrowDown,ArrowRight"":30}","false","ArrowUp,ArrowLeft","false","revaluation","1","46","","",""
"html-keyboard-response","168","905213","0.0-4.0-2.0-1.23","spark_pilot_norest","10642","2","8","Female","","","","","","","null","<div style=""font-size:60px;"">+</div>","null","fixation","","","","","","","","","47","","",""
"revaluation","169","911237","0.0-4.0-2.0-0.24","spark_pilot_norest","10642","2","8","Female","","false","","","","","[586,825.4000000059605]","./assets/img/ocean/memory/27.jpg","[""ArrowUp"",""ArrowLeft""]","value training","ocean","23","{""ArrowUp,ArrowLeft"":23,""ArrowUp,ArrowRight"":10,""ArrowDown,ArrowLeft"":8,""ArrowDown,ArrowRight"":30}","false","ArrowUp,ArrowLeft","false","revaluation","1","48","","",""
"html-keyboard-response","170","911748","0.0-4.0-2.0-1.24","spark_pilot_norest","10642","2","8","Female","","","","","","","null","<div style=""font-size:60px;"">+</div>","null","fixation","","","","","","","","","49","","",""
"revaluation","171","917780","0.0-4.0-2.0-0.25","spark_pilot_norest","10642","2","8","Female","","false","","","","","[570.3999999910593,557.2999999970198]","./assets/img/ocean/memory/37.jpg","[""ArrowUp"",""ArrowLeft""]","value training","ocean","23","{""ArrowUp,ArrowLeft"":23,""ArrowUp,ArrowRight"":10,""ArrowDown,ArrowLeft"":8,""ArrowDown,ArrowRight"":30}","false","ArrowUp,ArrowLeft","false","revaluation","1","50","","",""
"html-keyboard-response","172","918289","0.0-4.0-2.0-1.25","spark_pilot_norest","10642","2","8","Female","","","","","","","null","<div style=""font-size:60px;"">+</div>","null","fixation","","","","","","","","","51","","",""
"revaluation","173","924321","0.0-4.0-2.0-0.26","spark_pilot_norest","10642","2","8","Female","","false","","","","","[1275.7999999970198,460.6000000089407]","./assets/img/ocean/memory/2.jpg","[""ArrowUp"",""ArrowLeft""]","value training","ocean","23","{""ArrowUp,ArrowLeft"":23,""ArrowUp,ArrowRight"":10,""ArrowDown,ArrowLeft"":8,""ArrowDown,ArrowRight"":30}","false","ArrowUp,ArrowLeft","false","revaluation","1","52","","",""
"html-keyboard-response","174","924832","0.0-4.0-2.0-1.26","spark_pilot_norest","10642","2","8","Female","","","","","","","null","<div style=""font-size:60px;"">+</div>","null","fixation","","","","","","","","","53","","",""
"revaluation","175","930860","0.0-4.0-2.0-0.27","spark_pilot_norest","10642","2","8","Female","","false","","","","","[631,570.5999999940395]","./assets/img/ocean/memory/26.jpg","[""ArrowUp"",""ArrowLeft""]","value training","ocean","23","{""ArrowUp,ArrowLeft"":23,""ArrowUp,ArrowRight"":10,""ArrowDown,ArrowLeft"":8,""ArrowDown,ArrowRight"":30}","false","ArrowUp,ArrowLeft","false","revaluation","1","54","","",""
"html-keyboard-response","176","931377","0.0-4.0-2.0-1.27","spark_pilot_norest","10642","2","8","Female","","","","","","","null","<div style=""font-size:60px;"">+</div>","null","fixation","","","","","","","","","55","","",""
"revaluation","177","937433","0.0-4.0-2.0-0.28","spark_pilot_norest","10642","2","8","Female","","false","","","","","[842.5999999940395,966.5]","./assets/img/ocean/memory/1.jpg","[""ArrowUp"",""ArrowLeft""]","value training","ocean","23","{""ArrowUp,ArrowLeft"":23,""ArrowUp,ArrowRight"":10,""ArrowDown,ArrowLeft"":8,""ArrowDown,ArrowRight"":30}","false","ArrowUp,ArrowLeft","false","revaluation","1","56","","",""
"html-keyboard-response","178","937973","0.0-4.0-2.0-1.28","spark_pilot_norest","10642","2","8","Female","","","","","","","null","<div style=""font-size:60px;"">+</div>","null","fixation","","","","","","","","","57","","",""
"revaluation","179","941998","0.0-4.0-2.0-0.29","spark_pilot_norest","10642","2","8","Female","","false","","","","","[1024.5]","./assets/img/ocean/catch/7.jpg","[""ArrowUp""]","value training","ocean","-10","{""ArrowUp,ArrowLeft"":23,""ArrowUp,ArrowRight"":10,""ArrowDown,ArrowLeft"":8,""ArrowDown,ArrowRight"":30}","false","ArrowUp","true","revaluation","1","58","","",""
"html-keyboard-response","180","942503","0.0-4.0-2.0-1.29","spark_pilot_norest","10642","2","8","Female","","","","","","","null","<div style=""font-size:60px;"">+</div>","null","fixation","","","","","","","","","59","","",""
"revaluation","181","946538","0.0-4.0-2.0-0.30","spark_pilot_norest","10642","2","8","Female","","true","","","","","[]","./assets/img/ocean/memory/21.jpg","[]","value training","ocean","-5","{""ArrowUp,ArrowLeft"":23,""ArrowUp,ArrowRight"":10,""ArrowDown,ArrowLeft"":8,""ArrowDown,ArrowRight"":30}","false","","false","revaluation","1","60","","",""
"html-keyboard-response","182","947050","0.0-4.0-2.0-1.30","spark_pilot_norest","10642","2","8","Female","","","","","","","null","<div style=""font-size:60px;"">+</div>","null","fixation","","","","","","","","","61","","",""
"revaluation","183","953077","0.0-4.0-2.0-0.31","spark_pilot_norest","10642","2","8","Female","","false","","","","","[440.5,674.0999999940395]","./assets/img/ocean/memory/8.jpg","[""ArrowUp"",""ArrowLeft""]","value training","ocean","23","{""ArrowUp,ArrowLeft"":23,""ArrowUp,ArrowRight"":10,""ArrowDown,ArrowLeft"":8,""ArrowDown,ArrowRight"":30}","false","ArrowUp,ArrowLeft","false","revaluation","1","62","","",""
"html-keyboard-response","184","953580","0.0-4.0-2.0-1.31","spark_pilot_norest","10642","2","8","Female","","","","","","","null","<div style=""font-size:60px;"">+</div>","null","fixation","","","","","","","","","63","","",""
"revaluation","185","957621","0.0-4.0-2.0-0.32","spark_pilot_norest","10642","2","8","Female","","false","","","","","[664.6000000089407]","./assets/img/ocean/catch/4.jpg","[""ArrowUp""]","value training","ocean","-10","{""ArrowUp,ArrowLeft"":23,""ArrowUp,ArrowRight"":10,""ArrowDown,ArrowLeft"":8,""ArrowDown,ArrowRight"":30}","false","ArrowUp","true","revaluation","1","64","","",""
"html-keyboard-response","186","958124","0.0-4.0-2.0-1.32","spark_pilot_norest","10642","2","8","Female","","","","","","","null","<div style=""font-size:60px;"">+</div>","null","fixation","","","","","","","","","65","","",""
"revaluation","187","964143","0.0-4.0-2.0-0.33","spark_pilot_norest","10642","2","8","Female","","false","","","","","[1342.3999999910593,1175.7999999970198]","./assets/img/ocean/memory/14.jpg","[""ArrowUp"",""ArrowLeft""]","value training","ocean","23","{""ArrowUp,ArrowLeft"":23,""ArrowUp,ArrowRight"":10,""ArrowDown,ArrowLeft"":8,""ArrowDown,ArrowRight"":30}","false","ArrowUp,ArrowLeft","false","revaluation","1","66","","",""
"html-keyboard-response","188","964667","0.0-4.0-2.0-1.33","spark_pilot_norest","10642","2","8","Female","","","","","","","null","<div style=""font-size:60px;"">+</div>","null","fixation","","","","","","","","","67","","",""
"revaluation","189","970696","0.0-4.0-2.0-0.34","spark_pilot_norest","10642","2","8","Female","","false","","","","","[984.5,806.5]","./assets/img/ocean/memory/22.jpg","[""ArrowUp"",""ArrowLeft""]","value training","ocean","23","{""ArrowUp,ArrowLeft"":23,""ArrowUp,ArrowRight"":10,""ArrowDown,ArrowLeft"":8,""ArrowDown,ArrowRight"":30}","false","ArrowUp,ArrowLeft","false","revaluation","1","68","","",""
"html-keyboard-response","190","971203","0.0-4.0-2.0-1.34","spark_pilot_norest","10642","2","8","Female","","","","","","","null","<div style=""font-size:60px;"">+</div>","null","fixation","","","","","","","","","69","","",""
"revaluation","191","977235","0.0-4.0-2.0-0.35","spark_pilot_norest","10642","2","8","Female","","false","","","","","[715.7000000029802,807.6000000089407]","./assets/img/ocean/memory/16.jpg","[""ArrowUp"",""ArrowLeft""]","value training","ocean","23","{""ArrowUp,ArrowLeft"":23,""ArrowUp,ArrowRight"":10,""ArrowDown,ArrowLeft"":8,""ArrowDown,ArrowRight"":30}","false","ArrowUp,ArrowLeft","false","revaluation","1","70","","",""
"html-keyboard-response","192","977749","0.0-4.0-2.0-1.35","spark_pilot_norest","10642","2","8","Female","","","","","","","null","<div style=""font-size:60px;"">+</div>","null","fixation","","","","","","","","","71","","",""
"revaluation","193","983809","0.0-4.0-2.0-0.36","spark_pilot_norest","10642","2","8","Female","","false","","","","","[547.3999999910593,613.2999999970198]","./assets/img/ocean/memory/8.jpg","[""ArrowUp"",""ArrowLeft""]","value training","ocean","23","{""ArrowUp,ArrowLeft"":23,""ArrowUp,ArrowRight"":10,""ArrowDown,ArrowLeft"":8,""ArrowDown,ArrowRight"":30}","false","ArrowUp,ArrowLeft","false","revaluation","1","72","","",""
"html-keyboard-response","194","984314","0.0-4.0-2.0-1.36","spark_pilot_norest","10642","2","8","Female","","","","","","","null","<div style=""font-size:60px;"">+</div>","null","fixation","","","","","","","","","73","","",""
"revaluation","195","988338","0.0-4.0-2.0-0.37","spark_pilot_norest","10642","2","8","Female","","false","","","","","[530.9000000059605]","./assets/img/ocean/catch/2.jpg","[""spaceBar""]","value training","ocean","0","{""ArrowUp,ArrowLeft"":23,""ArrowUp,ArrowRight"":10,""ArrowDown,ArrowLeft"":8,""ArrowDown,ArrowRight"":30}","true","spaceBar","true","revaluation","1","74","","",""
"html-keyboard-response","196","988849","0.0-4.0-2.0-1.37","spark_pilot_norest","10642","2","8","Female","","","","","","","null","<div style=""font-size:60px;"">+</div>","null","fixation","","","","","","","","","75","","",""
"revaluation","197","994873","0.0-4.0-2.0-0.38","spark_pilot_norest","10642","2","8","Female","","false","","","","","[856.2999999970198,659]","./assets/img/ocean/memory/40.jpg","[""ArrowUp"",""ArrowLeft""]","value training","ocean","23","{""ArrowUp,ArrowLeft"":23,""ArrowUp,ArrowRight"":10,""ArrowDown,ArrowLeft"":8,""ArrowDown,ArrowRight"":30}","false","ArrowUp,ArrowLeft","false","revaluation","1","76","","",""
"html-keyboard-response","198","995387","0.0-4.0-2.0-1.38","spark_pilot_norest","10642","2","8","Female","","","","","","","null","<div style=""font-size:60px;"">+</div>","null","fixation","","","","","","","","","77","","",""
"revaluation","199","1001424","0.0-4.0-2.0-0.39","spark_pilot_norest","10642","2","8","Female","","false","","","","","[887.5,706.2000000029802]","./assets/img/ocean/memory/25.jpg","[""ArrowUp"",""ArrowLeft""]","value training","ocean","23","{""ArrowUp,ArrowLeft"":23,""ArrowUp,ArrowRight"":10,""ArrowDown,ArrowLeft"":8,""ArrowDown,ArrowRight"":30}","false","ArrowUp,ArrowLeft","false","revaluation","1","78","","",""
"html-keyboard-response","200","1001961","0.0-4.0-2.0-1.39","spark_pilot_norest","10642","2","8","Female","","","","","","","null","<div style=""font-size:60px;"">+</div>","null","fixation","","","","","","","","","79","","",""
"revaluation","201","1007986","0.0-4.0-2.0-0.40","spark_pilot_norest","10642","2","8","Female","","false","","","","","[383.6000000089407,663.0999999940395]","./assets/img/ocean/memory/36.jpg","[""ArrowUp"",""ArrowLeft""]","value training","ocean","23","{""ArrowUp,ArrowLeft"":23,""ArrowUp,ArrowRight"":10,""ArrowDown,ArrowLeft"":8,""ArrowDown,ArrowRight"":30}","false","ArrowUp,ArrowLeft","false","revaluation","1","80","","",""
"html-keyboard-response","202","1008494","0.0-4.0-2.0-1.40","spark_pilot_norest","10642","2","8","Female","","","","","","","null","<div style=""font-size:60px;"">+</div>","null","fixation","","","","","","","","","81","","",""
"revaluation","203","1012512","0.0-4.0-2.0-0.41","spark_pilot_norest","10642","2","8","Female","","false","","","","","[589.9000000059605]","./assets/img/ocean/catch/0.jpg","[""spaceBar""]","value training","ocean","0","{""ArrowUp,ArrowLeft"":23,""ArrowUp,ArrowRight"":10,""ArrowDown,ArrowLeft"":8,""ArrowDown,ArrowRight"":30}","true","spaceBar","true","revaluation","1","82","","",""
"html-keyboard-response","204","1013017","0.0-4.0-2.0-1.41","spark_pilot_norest","10642","2","8","Female","","","","","","","null","<div style=""font-size:60px;"">+</div>","null","fixation","","","","","","","","","83","","",""
"revaluation","205","1019043","0.0-4.0-2.0-0.42","spark_pilot_norest","10642","2","8","Female","","false","","","","","[698,581.7000000029802]","./assets/img/ocean/memory/41.jpg","[""ArrowUp"",""ArrowLeft""]","value training","ocean","23","{""ArrowUp,ArrowLeft"":23,""ArrowUp,ArrowRight"":10,""ArrowDown,ArrowLeft"":8,""ArrowDown,ArrowRight"":30}","false","ArrowUp,ArrowLeft","false","revaluation","1","84","","",""
"html-keyboard-response","206","1019544","0.0-4.0-2.0-1.42","spark_pilot_norest","10642","2","8","Female","","","","","","","null","<div style=""font-size:60px;"">+</div>","null","fixation","","","","","","","","","85","","",""
"revaluation","207","1023563","0.0-4.0-2.0-0.43","spark_pilot_norest","10642","2","8","Female","","false","","","","","[1065.5999999940395]","./assets/img/ocean/catch/1.jpg","[""spaceBar""]","value training","ocean","0","{""ArrowUp,ArrowLeft"":23,""ArrowUp,ArrowRight"":10,""ArrowDown,ArrowLeft"":8,""ArrowDown,ArrowRight"":30}","true","spaceBar","true","revaluation","1","86","","",""
"html-keyboard-response","208","1024073","0.0-4.0-2.0-1.43","spark_pilot_norest","10642","2","8","Female","","","","","","","null","<div style=""font-size:60px;"">+</div>","null","fixation","","","","","","","","","87","","",""
"revaluation","209","1030117","0.0-4.0-2.0-0.44","spark_pilot_norest","10642","2","8","Female","","false","","","","","[1353.7999999970198,742.6000000089407]","./assets/img/ocean/memory/19.jpg","[""ArrowUp"",""ArrowLeft""]","value training","ocean","23","{""ArrowUp,ArrowLeft"":23,""ArrowUp,ArrowRight"":10,""ArrowDown,ArrowLeft"":8,""ArrowDown,ArrowRight"":30}","false","ArrowUp,ArrowLeft","false","revaluation","1","88","","",""
"html-keyboard-response","210","1030621","0.0-4.0-2.0-1.44","spark_pilot_norest","10642","2","8","Female","","","","","","","null","<div style=""font-size:60px;"">+</div>","null","fixation","","","","","","","","","89","","",""
"revaluation","211","1036657","0.0-4.0-2.0-0.45","spark_pilot_norest","10642","2","8","Female","","false","","","","","[883.0999999940395,825.3999999910593]","./assets/img/ocean/memory/11.jpg","[""ArrowUp"",""ArrowLeft""]","value training","ocean","23","{""ArrowUp,ArrowLeft"":23,""ArrowUp,ArrowRight"":10,""ArrowDown,ArrowLeft"":8,""ArrowDown,ArrowRight"":30}","false","ArrowUp,ArrowLeft","false","revaluation","1","90","","",""
"html-keyboard-response","212","1037160","0.0-4.0-2.0-1.45","spark_pilot_norest","10642","2","8","Female","","","","","","","null","<div style=""font-size:60px;"">+</div>","null","fixation","","","","","","","","","91","","",""
"revaluation","213","1041203","0.0-4.0-2.0-0.46","spark_pilot_norest","10642","2","8","Female","","false","","","","","[822.2000000029802]","./assets/img/ocean/catch/3.jpg","[""spaceBar""]","value training","ocean","0","{""ArrowUp,ArrowLeft"":23,""ArrowUp,ArrowRight"":10,""ArrowDown,ArrowLeft"":8,""ArrowDown,ArrowRight"":30}","true","spaceBar","true","revaluation","1","92","","",""
"html-keyboard-response","214","1041734","0.0-4.0-2.0-1.46","spark_pilot_norest","10642","2","8","Female","","","","","","","null","<div style=""font-size:60px;"">+</div>","null","fixation","","","","","","","","","93","","",""
"revaluation","215","1047769","0.0-4.0-2.0-0.47","spark_pilot_norest","10642","2","8","Female","","true","","","","","[480.20000000298023]","./assets/img/ocean/memory/17.jpg","[""ArrowUp""]","value training","ocean","-5","{""ArrowUp,ArrowLeft"":23,""ArrowUp,ArrowRight"":10,""ArrowDown,ArrowLeft"":8,""ArrowDown,ArrowRight"":30}","false","ArrowUp","false","revaluation","1","94","","",""
"html-keyboard-response","216","1048289","0.0-4.0-2.0-1.47","spark_pilot_norest","10642","2","8","Female","","","","","","","null","<div style=""font-size:60px;"">+</div>","null","fixation","","","","","","","","","95","","",""
"revaluation","217","1054313","0.0-4.0-2.0-0.48","spark_pilot_norest","10642","2","8","Female","","false","","","","","[1186.4000000059605,703.7999999970198]","./assets/img/ocean/memory/25.jpg","[""ArrowUp"",""ArrowLeft""]","value training","ocean","23","{""ArrowUp,ArrowLeft"":23,""ArrowUp,ArrowRight"":10,""ArrowDown,ArrowLeft"":8,""ArrowDown,ArrowRight"":30}","false","ArrowUp,ArrowLeft","false","revaluation","1","96","","",""
"html-keyboard-response","218","1054846","0.0-4.0-2.0-1.48","spark_pilot_norest","10642","2","8","Female","","","","","","","null","<div style=""font-size:60px;"">+</div>","null","fixation","","","","","","","","","97","","",""
"revaluation","219","1060881","0.0-4.0-2.0-0.49","spark_pilot_norest","10642","2","8","Female","","false","","","","","[964.5,707.8000000119209]","./assets/img/ocean/memory/3.jpg","[""ArrowUp"",""ArrowLeft""]","value training","ocean","23","{""ArrowUp,ArrowLeft"":23,""ArrowUp,ArrowRight"":10,""ArrowDown,ArrowLeft"":8,""ArrowDown,ArrowRight"":30}","false","ArrowUp,ArrowLeft","false","revaluation","1","98","","",""
"html-keyboard-response","220","1061396","0.0-4.0-2.0-1.49","spark_pilot_norest","10642","2","8","Female","","","","","","","null","<div style=""font-size:60px;"">+</div>","null","fixation","","","","","","","","","99","","",""
"learning-instructions","221","1075786","0.0-4.0-3.0-0.0","spark_pilot_norest","10642","2","8","Female","","","","","","","1224.6000000089407","<p> Now, you will travel with a friend who will choose whether you go up or down first. </p>
            <p> On these turns, you will just see the animal that they found. You will still get to choose which chest to search for treasure.</p>","","instructions","","","","","","","","","","","",""
"revaluation","222","1079803","0.0-4.0-4.0-0.0","spark_pilot_norest","10642","2","8","Female","","false","","","","","[1448.8999999910593]","./assets/img/ocean/animals/seahorse.jpg","[""ArrowLeft""]","revaluation","ocean","27","{""ArrowUp,ArrowLeft"":27,""ArrowUp,ArrowRight"":15,""ArrowDown,ArrowLeft"":21,""ArrowDown,ArrowRight"":7}","true","ArrowUp,ArrowLeft","","revaluation","1","0","","",""
"html-keyboard-response","223","1080311","0.0-4.0-4.0-1.0","spark_pilot_norest","10642","2","8","Female","","","","","","","null","<div style=""font-size:60px;"">+</div>","null","fixation","","","","","","","","","1","","",""
"revaluation","224","1084334","0.0-4.0-4.0-0.1","spark_pilot_norest","10642","2","8","Female","","false","","","","","[876.4000000059605]","./assets/img/ocean/animals/octopus.jpg","[""ArrowLeft""]","revaluation","ocean","21","{""ArrowUp,ArrowLeft"":27,""ArrowUp,ArrowRight"":15,""ArrowDown,ArrowLeft"":21,""ArrowDown,ArrowRight"":7}","true","ArrowDown,ArrowLeft","","revaluation","1","2","","",""
"html-keyboard-response","225","1084850","0.0-4.0-4.0-1.1","spark_pilot_norest","10642","2","8","Female","","","","","","","null","<div style=""font-size:60px;"">+</div>","null","fixation","","","","","","","","","3","","",""
"revaluation","226","1088878","0.0-4.0-4.0-0.2","spark_pilot_norest","10642","2","8","Female","","false","","","","","[893.2999999970198]","./assets/img/ocean/animals/octopus.jpg","[""ArrowRight""]","revaluation","ocean","7","{""ArrowUp,ArrowLeft"":27,""ArrowUp,ArrowRight"":15,""ArrowDown,ArrowLeft"":21,""ArrowDown,ArrowRight"":7}","false","ArrowDown,ArrowRight","","revaluation","1","4","","",""
"html-keyboard-response","227","1089395","0.0-4.0-4.0-1.2","spark_pilot_norest","10642","2","8","Female","","","","","","","null","<div style=""font-size:60px;"">+</div>","null","fixation","","","","","","","","","5","","",""
"revaluation","228","1093413","0.0-4.0-4.0-0.3","spark_pilot_norest","10642","2","8","Female","","false","","","","","[1450.5]","./assets/img/ocean/animals/seahorse.jpg","[""ArrowLeft""]","revaluation","ocean","27","{""ArrowUp,ArrowLeft"":27,""ArrowUp,ArrowRight"":15,""ArrowDown,ArrowLeft"":21,""ArrowDown,ArrowRight"":7}","true","ArrowUp,ArrowLeft","","revaluation","1","6","","",""
"html-keyboard-response","229","1093931","0.0-4.0-4.0-1.3","spark_pilot_norest","10642","2","8","Female","","","","","","","null","<div style=""font-size:60px;"">+</div>","null","fixation","","","","","","","","","7","","",""
"revaluation","230","1097952","0.0-4.0-4.0-0.4","spark_pilot_norest","10642","2","8","Female","","false","","","","","[396.3999999910593]","./assets/img/ocean/animals/seahorse.jpg","[""ArrowLeft""]","revaluation","ocean","27","{""ArrowUp,ArrowLeft"":27,""ArrowUp,ArrowRight"":15,""ArrowDown,ArrowLeft"":21,""ArrowDown,ArrowRight"":7}","true","ArrowUp,ArrowLeft","","revaluation","1","8","","",""
"html-keyboard-response","231","1098456","0.0-4.0-4.0-1.4","spark_pilot_norest","10642","2","8","Female","","","","","","","null","<div style=""font-size:60px;"">+</div>","null","fixation","","","","","","","","","9","","",""
"revaluation","232","1102486","0.0-4.0-4.0-0.5","spark_pilot_norest","10642","2","8","Female","","false","","","","","[829.7999999970198]","./assets/img/ocean/animals/octopus.jpg","[""ArrowLeft""]","revaluation","ocean","21","{""ArrowUp,ArrowLeft"":27,""ArrowUp,ArrowRight"":15,""ArrowDown,ArrowLeft"":21,""ArrowDown,ArrowRight"":7}","true","ArrowDown,ArrowLeft","","revaluation","1","10","","",""
"html-keyboard-response","233","1103001","0.0-4.0-4.0-1.5","spark_pilot_norest","10642","2","8","Female","","","","","","","null","<div style=""font-size:60px;"">+</div>","null","fixation","","","","","","","","","11","","",""
"revaluation","234","1107051","0.0-4.0-4.0-0.6","spark_pilot_norest","10642","2","8","Female","","false","","","","","[823.8999999910593]","./assets/img/ocean/animals/seahorse.jpg","[""ArrowLeft""]","revaluation","ocean","27","{""ArrowUp,ArrowLeft"":27,""ArrowUp,ArrowRight"":15,""ArrowDown,ArrowLeft"":21,""ArrowDown,ArrowRight"":7}","true","ArrowUp,ArrowLeft","","revaluation","1","12","","",""
"html-keyboard-response","235","1107562","0.0-4.0-4.0-1.6","spark_pilot_norest","10642","2","8","Female","","","","","","","null","<div style=""font-size:60px;"">+</div>","null","fixation","","","","","","","","","13","","",""
"revaluation","236","1111585","0.0-4.0-4.0-0.7","spark_pilot_norest","10642","2","8","Female","","false","","","","","[648.9000000059605]","./assets/img/ocean/animals/octopus.jpg","[""ArrowLeft""]","revaluation","ocean","21","{""ArrowUp,ArrowLeft"":27,""ArrowUp,ArrowRight"":15,""ArrowDown,ArrowLeft"":21,""ArrowDown,ArrowRight"":7}","true","ArrowDown,ArrowLeft","","revaluation","1","14","","",""
"html-keyboard-response","237","1112089","0.0-4.0-4.0-1.7","spark_pilot_norest","10642","2","8","Female","","","","","","","null","<div style=""font-size:60px;"">+</div>","null","fixation","","","","","","","","","15","","",""
"revaluation","238","1116137","0.0-4.0-4.0-0.8","spark_pilot_norest","10642","2","8","Female","","false","","","","","[706]","./assets/img/ocean/animals/octopus.jpg","[""ArrowLeft""]","revaluation","ocean","21","{""ArrowUp,ArrowLeft"":27,""ArrowUp,ArrowRight"":15,""ArrowDown,ArrowLeft"":21,""ArrowDown,ArrowRight"":7}","true","ArrowDown,ArrowLeft","","revaluation","1","16","","",""
"html-keyboard-response","239","1116651","0.0-4.0-4.0-1.8","spark_pilot_norest","10642","2","8","Female","","","","","","","null","<div style=""font-size:60px;"">+</div>","null","fixation","","","","","","","","","17","","",""
"revaluation","240","1120680","0.0-4.0-4.0-0.9","spark_pilot_norest","10642","2","8","Female","","false","","","","","[496.09999999403954]","./assets/img/ocean/animals/seahorse.jpg","[""ArrowLeft""]","revaluation","ocean","27","{""ArrowUp,ArrowLeft"":27,""ArrowUp,ArrowRight"":15,""ArrowDown,ArrowLeft"":21,""ArrowDown,ArrowRight"":7}","true","ArrowUp,ArrowLeft","","revaluation","1","18","","",""
"html-keyboard-response","241","1121187","0.0-4.0-4.0-1.9","spark_pilot_norest","10642","2","8","Female","","","","","","","null","<div style=""font-size:60px;"">+</div>","null","fixation","","","","","","","","","19","","",""
"revaluation","242","1125232","0.0-4.0-4.0-0.10","spark_pilot_norest","10642","2","8","Female","","false","","","","","[437.70000000298023]","./assets/img/ocean/animals/seahorse.jpg","[""ArrowLeft""]","revaluation","ocean","27","{""ArrowUp,ArrowLeft"":27,""ArrowUp,ArrowRight"":15,""ArrowDown,ArrowLeft"":21,""ArrowDown,ArrowRight"":7}","true","ArrowUp,ArrowLeft","","revaluation","1","20","","",""
"html-keyboard-response","243","1125778","0.0-4.0-4.0-1.10","spark_pilot_norest","10642","2","8","Female","","","","","","","null","<div style=""font-size:60px;"">+</div>","null","fixation","","","","","","","","","21","","",""
"revaluation","244","1129798","0.0-4.0-4.0-0.11","spark_pilot_norest","10642","2","8","Female","","false","","","","","[574.4000000059605]","./assets/img/ocean/animals/octopus.jpg","[""ArrowLeft""]","revaluation","ocean","21","{""ArrowUp,ArrowLeft"":27,""ArrowUp,ArrowRight"":15,""ArrowDown,ArrowLeft"":21,""ArrowDown,ArrowRight"":7}","true","ArrowDown,ArrowLeft","","revaluation","1","22","","",""
"html-keyboard-response","245","1130308","0.0-4.0-4.0-1.11","spark_pilot_norest","10642","2","8","Female","","","","","","","null","<div style=""font-size:60px;"">+</div>","null","fixation","","","","","","","","","23","","",""
"revaluation","246","1134350","0.0-4.0-4.0-0.12","spark_pilot_norest","10642","2","8","Female","","false","","","","","[641.7000000029802]","./assets/img/ocean/animals/octopus.jpg","[""ArrowLeft""]","revaluation","ocean","21","{""ArrowUp,ArrowLeft"":27,""ArrowUp,ArrowRight"":15,""ArrowDown,ArrowLeft"":21,""ArrowDown,ArrowRight"":7}","true","ArrowDown,ArrowLeft","","revaluation","1","24","","",""
"html-keyboard-response","247","1134858","0.0-4.0-4.0-1.12","spark_pilot_norest","10642","2","8","Female","","","","","","","null","<div style=""font-size:60px;"">+</div>","null","fixation","","","","","","","","","25","","",""
"revaluation","248","1138871","0.0-4.0-4.0-0.13","spark_pilot_norest","10642","2","8","Female","","false","","","","","[411.90000000596046]","./assets/img/ocean/animals/seahorse.jpg","[""ArrowLeft""]","revaluation","ocean","27","{""ArrowUp,ArrowLeft"":27,""ArrowUp,ArrowRight"":15,""ArrowDown,ArrowLeft"":21,""ArrowDown,ArrowRight"":7}","true","ArrowUp,ArrowLeft","","revaluation","1","26","","",""
"html-keyboard-response","249","1139381","0.0-4.0-4.0-1.13","spark_pilot_norest","10642","2","8","Female","","","","","","","null","<div style=""font-size:60px;"">+</div>","null","fixation","","","","","","","","","27","","",""
"revaluation","250","1143408","0.0-4.0-4.0-0.14","spark_pilot_norest","10642","2","8","Female","","false","","","","","[569.3999999910593]","./assets/img/ocean/animals/octopus.jpg","[""ArrowLeft""]","revaluation","ocean","21","{""ArrowUp,ArrowLeft"":27,""ArrowUp,ArrowRight"":15,""ArrowDown,ArrowLeft"":21,""ArrowDown,ArrowRight"":7}","true","ArrowDown,ArrowLeft","","revaluation","1","28","","",""
"html-keyboard-response","251","1143918","0.0-4.0-4.0-1.14","spark_pilot_norest","10642","2","8","Female","","","","","","","null","<div style=""font-size:60px;"">+</div>","null","fixation","","","","","","","","","29","","",""
"revaluation","252","1147938","0.0-4.0-4.0-0.15","spark_pilot_norest","10642","2","8","Female","","false","","","","","[579]","./assets/img/ocean/animals/seahorse.jpg","[""ArrowLeft""]","revaluation","ocean","27","{""ArrowUp,ArrowLeft"":27,""ArrowUp,ArrowRight"":15,""ArrowDown,ArrowLeft"":21,""ArrowDown,ArrowRight"":7}","true","ArrowUp,ArrowLeft","","revaluation","1","30","","",""
"html-keyboard-response","253","1148439","0.0-4.0-4.0-1.15","spark_pilot_norest","10642","2","8","Female","","","","","","","null","<div style=""font-size:60px;"">+</div>","null","fixation","","","","","","","","","31","","",""
"revaluation","254","1152471","0.0-4.0-4.0-0.16","spark_pilot_norest","10642","2","8","Female","","false","","","","","[726.7999999970198]","./assets/img/ocean/animals/octopus.jpg","[""ArrowLeft""]","revaluation","ocean","21","{""ArrowUp,ArrowLeft"":27,""ArrowUp,ArrowRight"":15,""ArrowDown,ArrowLeft"":21,""ArrowDown,ArrowRight"":7}","true","ArrowDown,ArrowLeft","","revaluation","1","32","","",""
"html-keyboard-response","255","1152979","0.0-4.0-4.0-1.16","spark_pilot_norest","10642","2","8","Female","","","","","","","null","<div style=""font-size:60px;"">+</div>","null","fixation","","","","","","","","","33","","",""
"revaluation","256","1156995","0.0-4.0-4.0-0.17","spark_pilot_norest","10642","2","8","Female","","false","","","","","[427]","./assets/img/ocean/animals/seahorse.jpg","[""ArrowLeft""]","revaluation","ocean","27","{""ArrowUp,ArrowLeft"":27,""ArrowUp,ArrowRight"":15,""ArrowDown,ArrowLeft"":21,""ArrowDown,ArrowRight"":7}","true","ArrowUp,ArrowLeft","","revaluation","1","34","","",""
"html-keyboard-response","257","1157505","0.0-4.0-4.0-1.17","spark_pilot_norest","10642","2","8","Female","","","","","","","null","<div style=""font-size:60px;"">+</div>","null","fixation","","","","","","","","","35","","",""
"learning-instructions","258","1165912","0.0-4.0-5.0-0.0","spark_pilot_norest","10642","2","8","Female","","","","","","","null","<p> You have almost finished this part of the game! </p>
            <p> We are going to ask you to make a few more choices. </p>","","instructions","","","","","","","","","","","",""
"learning-instructions","259","1181897","0.0-4.0-5.0-0.1","spark_pilot_norest","10642","2","8","Female","","","","","","","null","<p> First, you need to decide whether to go up or down. When you see each picture, use the arrow keys to make your choice. </p>
            <p><b>You will not see which animal you found, but try to get to the one that will give you the most treasure.</b></p>","","instructions","","","","","","","","","","","",""
"html-keyboard-response","260","1182903","0.0-4.0-6.0-0.0","spark_pilot_norest","10642","2","8","Female","","","","","","","null","<div style=""font-size:100px;color:red;"">Starting in...</div>","null","","","","","","","","","","","","",""
"html-keyboard-response","261","1183917","0.0-4.0-6.0-1.0","spark_pilot_norest","10642","2","8","Female","","","","","","","null","<div style=""font-size:200px;color:red;"">3</div>","null","","","","","","","","","","","","",""
"html-keyboard-response","262","1184931","0.0-4.0-6.0-2.0","spark_pilot_norest","10642","2","8","Female","","","","","","","null","<div style=""font-size:200px;color:red;"">2</div>","null","","","","","","","","","","","","",""
"html-keyboard-response","263","1185941","0.0-4.0-6.0-3.0","spark_pilot_norest","10642","2","8","Female","","","","","","","null","<div style=""font-size:200px;color:red;"">1</div>","null","","","","","","","","","","","","",""
"revaluation","264","1186458","0.0-4.0-7.0-0.0","spark_pilot_norest","10642","2","8","Female","","false","","","","","[512.1999999880791]","./assets/img/ocean/test/1.jpg","[""ArrowUp""]","first stage test","ocean","0","{""ArrowUp,ArrowLeft"":27,""ArrowUp,ArrowRight"":15,""ArrowDown,ArrowLeft"":21,""ArrowDown,ArrowRight"":7}","true","ArrowUp","false","revaluation","1","","","",""
"html-keyboard-response","265","1186966","0.0-4.0-7.0-1.0","spark_pilot_norest","10642","2","8","Female","","","","","","","null","<div style=""font-size:60px;"">+</div>","null","fixation","","","","","","","","","","","",""
"revaluation","266","1187834","0.0-4.0-7.0-0.1","spark_pilot_norest","10642","2","8","Female","","false","","","","","[862.0999999940395]","./assets/img/ocean/test/0.jpg","[""ArrowUp""]","first stage test","ocean","0","{""ArrowUp,ArrowLeft"":27,""ArrowUp,ArrowRight"":15,""ArrowDown,ArrowLeft"":21,""ArrowDown,ArrowRight"":7}","true","ArrowUp","false","revaluation","1","","","",""
"html-keyboard-response","267","1188347","0.0-4.0-7.0-1.1","spark_pilot_norest","10642","2","8","Female","","","","","","","null","<div style=""font-size:60px;"">+</div>","null","fixation","","","","","","","","","","","",""
"revaluation","268","1188873","0.0-4.0-7.0-0.2","spark_pilot_norest","10642","2","8","Female","","false","","","","","[521]","./assets/img/ocean/test/3.jpg","[""ArrowUp""]","first stage test","ocean","0","{""ArrowUp,ArrowLeft"":27,""ArrowUp,ArrowRight"":15,""ArrowDown,ArrowLeft"":21,""ArrowDown,ArrowRight"":7}","true","ArrowUp","false","revaluation","1","","","",""
"html-keyboard-response","269","1189378","0.0-4.0-7.0-1.2","spark_pilot_norest","10642","2","8","Female","","","","","","","null","<div style=""font-size:60px;"">+</div>","null","fixation","","","","","","","","","","","",""
"revaluation","270","1189841","0.0-4.0-7.0-0.3","spark_pilot_norest","10642","2","8","Female","","false","","","","","[458]","./assets/img/ocean/test/2.jpg","[""ArrowUp""]","first stage test","ocean","0","{""ArrowUp,ArrowLeft"":27,""ArrowUp,ArrowRight"":15,""ArrowDown,ArrowLeft"":21,""ArrowDown,ArrowRight"":7}","true","ArrowUp","false","revaluation","1","","","",""
"html-keyboard-response","271","1190355","0.0-4.0-7.0-1.3","spark_pilot_norest","10642","2","8","Female","","","","","","","null","<div style=""font-size:60px;"">+</div>","null","fixation","","","","","","","","","","","",""
"learning-instructions","272","1203714","0.0-4.0-8.0-0.0","spark_pilot_norest","10642","2","8","Female","","","","","","","null","<p> Now you will see the animals again and can search their chests for treasure. </p>
            <p> This time, you will not see how much treasure you earned, but you will earn more bonus money for making better choices. </p>","","instructions","","","","","","","","","","","",""
"html-keyboard-response","273","1204723","0.0-4.0-9.0-0.0","spark_pilot_norest","10642","2","8","Female","","","","","","","null","<div style=""font-size:100px;color:red;"">Starting in...</div>","null","","","","","","","","","","","","",""
"html-keyboard-response","274","1205739","0.0-4.0-9.0-1.0","spark_pilot_norest","10642","2","8","Female","","","","","","","null","<div style=""font-size:200px;color:red;"">3</div>","null","","","","","","","","","","","","",""
"html-keyboard-response","275","1206752","0.0-4.0-9.0-2.0","spark_pilot_norest","10642","2","8","Female","","","","","","","null","<div style=""font-size:200px;color:red;"">2</div>","null","","","","","","","","","","","","",""
"html-keyboard-response","276","1207753","0.0-4.0-9.0-3.0","spark_pilot_norest","10642","2","8","Female","","","","","","","null","<div style=""font-size:200px;color:red;"">1</div>","null","","","","","","","","","","","","",""
"revaluation","277","1208574","0.0-4.0-10.0-0.0","spark_pilot_norest","10642","2","8","Female","","false","","","","","[814.7999999970198]","./assets/img/ocean/animals/seahorse.jpg","[""ArrowLeft""]","second stage test","ocean","0","{""ArrowUp,ArrowLeft"":27,""ArrowUp,ArrowRight"":15,""ArrowDown,ArrowLeft"":21,""ArrowDown,ArrowRight"":7}","true","ArrowUp,ArrowLeft","","revaluation","1","","","",""
"html-keyboard-response","278","1209082","0.0-4.0-10.0-1.0","spark_pilot_norest","10642","2","8","Female","","","","","","","null","<div style=""font-size:60px;"">+</div>","null","fixation","","","","","","","","","","","",""
"revaluation","279","1209681","0.0-4.0-10.0-0.1","spark_pilot_norest","10642","2","8","Female","","false","","","","","[593.2999999970198]","./assets/img/ocean/animals/seahorse.jpg","[""ArrowLeft""]","second stage test","ocean","0","{""ArrowUp,ArrowLeft"":27,""ArrowUp,ArrowRight"":15,""ArrowDown,ArrowLeft"":21,""ArrowDown,ArrowRight"":7}","true","ArrowUp,ArrowLeft","","revaluation","1","","","",""
"html-keyboard-response","280","1210186","0.0-4.0-10.0-1.1","spark_pilot_norest","10642","2","8","Female","","","","","","","null","<div style=""font-size:60px;"">+</div>","null","fixation","","","","","","","","","","","",""
"revaluation","281","1210595","0.0-4.0-10.0-0.2","spark_pilot_norest","10642","2","8","Female","","false","","","","","[403.1000000089407]","./assets/img/ocean/animals/seahorse.jpg","[""ArrowLeft""]","second stage test","ocean","0","{""ArrowUp,ArrowLeft"":27,""ArrowUp,ArrowRight"":15,""ArrowDown,ArrowLeft"":21,""ArrowDown,ArrowRight"":7}","true","ArrowUp,ArrowLeft","","revaluation","1","","","",""
"html-keyboard-response","282","1211100","0.0-4.0-10.0-1.2","spark_pilot_norest","10642","2","8","Female","","","","","","","null","<div style=""font-size:60px;"">+</div>","null","fixation","","","","","","","","","","","",""
"revaluation","283","1211490","0.0-4.0-10.0-0.3","spark_pilot_norest","10642","2","8","Female","","false","","","","","[383.79999999701977]","./assets/img/ocean/animals/seahorse.jpg","[""ArrowLeft""]","second stage test","ocean","0","{""ArrowUp,ArrowLeft"":27,""ArrowUp,ArrowRight"":15,""ArrowDown,ArrowLeft"":21,""ArrowDown,ArrowRight"":7}","true","ArrowUp,ArrowLeft","","revaluation","1","","","",""
"html-keyboard-response","284","1211991","0.0-4.0-10.0-1.3","spark_pilot_norest","10642","2","8","Female","","","","","","","null","<div style=""font-size:60px;"">+</div>","null","fixation","","","","","","","","","","","",""
"revaluation","285","1212320","0.0-4.0-10.0-0.4","spark_pilot_norest","10642","2","8","Female","","false","","","","","[323.29999999701977]","./assets/img/ocean/animals/octopus.jpg","[""ArrowLeft""]","second stage test","ocean","0","{""ArrowUp,ArrowLeft"":27,""ArrowUp,ArrowRight"":15,""ArrowDown,ArrowLeft"":21,""ArrowDown,ArrowRight"":7}","true","ArrowDown,ArrowLeft","","revaluation","1","","","",""
"html-keyboard-response","286","1212823","0.0-4.0-10.0-1.4","spark_pilot_norest","10642","2","8","Female","","","","","","","null","<div style=""font-size:60px;"">+</div>","null","fixation","","","","","","","","","","","",""
"revaluation","287","1213181","0.0-4.0-10.0-0.5","spark_pilot_norest","10642","2","8","Female","","false","","","","","[352.70000000298023]","./assets/img/ocean/animals/octopus.jpg","[""ArrowLeft""]","second stage test","ocean","0","{""ArrowUp,ArrowLeft"":27,""ArrowUp,ArrowRight"":15,""ArrowDown,ArrowLeft"":21,""ArrowDown,ArrowRight"":7}","true","ArrowDown,ArrowLeft","","revaluation","1","","","",""
"html-keyboard-response","288","1213688","0.0-4.0-10.0-1.5","spark_pilot_norest","10642","2","8","Female","","","","","","","null","<div style=""font-size:60px;"">+</div>","null","fixation","","","","","","","","","","","",""
"revaluation","289","1214121","0.0-4.0-10.0-0.6","spark_pilot_norest","10642","2","8","Female","","false","","","","","[427.09999999403954]","./assets/img/ocean/animals/octopus.jpg","[""ArrowLeft""]","second stage test","ocean","0","{""ArrowUp,ArrowLeft"":27,""ArrowUp,ArrowRight"":15,""ArrowDown,ArrowLeft"":21,""ArrowDown,ArrowRight"":7}","true","ArrowDown,ArrowLeft","","revaluation","1","","","",""
"html-keyboard-response","290","1214629","0.0-4.0-10.0-1.6","spark_pilot_norest","10642","2","8","Female","","","","","","","null","<div style=""font-size:60px;"">+</div>","null","fixation","","","","","","","","","","","",""
"revaluation","291","1214986","0.0-4.0-10.0-0.7","spark_pilot_norest","10642","2","8","Female","","false","","","","","[352.1000000089407]","./assets/img/ocean/animals/octopus.jpg","[""ArrowLeft""]","second stage test","ocean","0","{""ArrowUp,ArrowLeft"":27,""ArrowUp,ArrowRight"":15,""ArrowDown,ArrowLeft"":21,""ArrowDown,ArrowRight"":7}","true","ArrowDown,ArrowLeft","","revaluation","1","","","",""
"html-keyboard-response","292","1215491","0.0-4.0-10.0-1.7","spark_pilot_norest","10642","2","8","Female","","","","","","","null","<div style=""font-size:60px;"">+</div>","null","fixation","","","","","","","","","","","",""
"learning-instructions","293","1219737","0.0-4.0-0.1-0.2","spark_pilot_norest","10642","2","8","Female","","","","","","","1466.1000000089407","<p> This time you are searching for treasure in the <b>canyon</b>.</p>","","instructions","","","","","","","","","","","",""
"learning-instructions","294","1238119","0.0-4.0-0.1-0.3","spark_pilot_norest","10642","2","8","Female","","","","","","","1138","<p><b>New</b> animals with <b>new</b> treasure chests live here. You need to explore to discover where the animal with the best treasure chest is.</p>
                    <p> Like before, once you figure out which animal has the chest with the most treasure, you should try to get to that animal and select that chest! </p>","","instructions","","","","","","","","","","","",""
"learning-instructions","295","1254115","0.0-4.0-1.1-0.1","spark_pilot_norest","10642","2","8","Female","","","","","","","1263.5999999940395","<p> Remember, when you see a picture of the place, use the up and down keys to <b>find an animal</b>.</p>
            <p> When you encounter an animal, you should use the left and right keys to <b>select a treasure chest</b>.</p>
            <p> Don't forget to look out for the robber! </p>","","instructions","","","","","","","","","","","",""
"revaluation","296","1260144","0.0-4.0-2.1-0.50","spark_pilot_norest","10642","2","8","Female","","false","","","","","[1051.7000000029802,1115]","./assets/img/canyon/memory/3.jpg","[""ArrowUp"",""ArrowRight""]","value training","canyon","10","{""ArrowUp,ArrowLeft"":26,""ArrowUp,ArrowRight"":10,""ArrowDown,ArrowLeft"":5,""ArrowDown,ArrowRight"":17}","false","ArrowUp,ArrowRight","false","original","2","0","","",""
"html-keyboard-response","297","1260659","0.0-4.0-2.1-1.50","spark_pilot_norest","10642","2","8","Female","","","","","","","null","<div style=""font-size:60px;"">+</div>","null","fixation","","","","","","","","","1","","",""
"revaluation","298","1266688","0.0-4.0-2.1-0.51","spark_pilot_norest","10642","2","8","Female","","false","","","","","[593.7999999970198,706.7999999970198]","./assets/img/canyon/memory/14.jpg","[""ArrowUp"",""ArrowLeft""]","value training","canyon","26","{""ArrowUp,ArrowLeft"":26,""ArrowUp,ArrowRight"":10,""ArrowDown,ArrowLeft"":5,""ArrowDown,ArrowRight"":17}","true","ArrowUp,ArrowLeft","false","original","2","2","","",""
"html-keyboard-response","299","1267189","0.0-4.0-2.1-1.51","spark_pilot_norest","10642","2","8","Female","","","","","","","null","<div style=""font-size:60px;"">+</div>","null","fixation","","","","","","","","","3","","",""
"revaluation","300","1273205","0.0-4.0-2.1-0.52","spark_pilot_norest","10642","2","8","Female","","false","","","","","[829.7999999970198,911.8999999910593]","./assets/img/canyon/memory/8.jpg","[""ArrowDown"",""ArrowLeft""]","value training","canyon","5","{""ArrowUp,ArrowLeft"":26,""ArrowUp,ArrowRight"":10,""ArrowDown,ArrowLeft"":5,""ArrowDown,ArrowRight"":17}","false","ArrowDown,ArrowLeft","false","original","2","4","","",""
"html-keyboard-response","301","1273720","0.0-4.0-2.1-1.52","spark_pilot_norest","10642","2","8","Female","","","","","","","null","<div style=""font-size:60px;"">+</div>","null","fixation","","","","","","","","","5","","",""
"revaluation","302","1279751","0.0-4.0-2.1-0.53","spark_pilot_norest","10642","2","8","Female","","false","","","","","[735.5,685.1000000089407]","./assets/img/canyon/memory/8.jpg","[""ArrowDown"",""ArrowRight""]","value training","canyon","17","{""ArrowUp,ArrowLeft"":26,""ArrowUp,ArrowRight"":10,""ArrowDown,ArrowLeft"":5,""ArrowDown,ArrowRight"":17}","false","ArrowDown,ArrowRight","false","original","2","6","","",""
"html-keyboard-response","303","1280260","0.0-4.0-2.1-1.53","spark_pilot_norest","10642","2","8","Female","","","","","","","null","<div style=""font-size:60px;"">+</div>","null","fixation","","","","","","","","","7","","",""
"revaluation","304","1286292","0.0-4.0-2.1-0.54","spark_pilot_norest","10642","2","8","Female","","false","","","","","[1053.0999999940395,898.6000000089407]","./assets/img/canyon/memory/25.jpg","[""ArrowUp"",""ArrowLeft""]","value training","canyon","26","{""ArrowUp,ArrowLeft"":26,""ArrowUp,ArrowRight"":10,""ArrowDown,ArrowLeft"":5,""ArrowDown,ArrowRight"":17}","true","ArrowUp,ArrowLeft","false","original","2","8","","",""
"html-keyboard-response","305","1286809","0.0-4.0-2.1-1.54","spark_pilot_norest","10642","2","8","Female","","","","","","","null","<div style=""font-size:60px;"">+</div>","null","fixation","","","","","","","","","9","","",""
"revaluation","306","1292831","0.0-4.0-2.1-0.55","spark_pilot_norest","10642","2","8","Female","","false","","","","","[1209.4000000059605,867.4000000059605]","./assets/img/canyon/memory/3.jpg","[""ArrowDown"",""ArrowRight""]","value training","canyon","17","{""ArrowUp,ArrowLeft"":26,""ArrowUp,ArrowRight"":10,""ArrowDown,ArrowLeft"":5,""ArrowDown,ArrowRight"":17}","false","ArrowDown,ArrowRight","false","original","2","10","","",""
"html-keyboard-response","307","1293355","0.0-4.0-2.1-1.55","spark_pilot_norest","10642","2","8","Female","","","","","","","null","<div style=""font-size:60px;"">+</div>","null","fixation","","","","","","","","","11","","",""
"revaluation","308","1299370","0.0-4.0-2.1-0.56","spark_pilot_norest","10642","2","8","Female","","false","","","","","[1352.2000000029802,1253.2000000029802]","./assets/img/canyon/memory/17.jpg","[""ArrowUp"",""ArrowLeft""]","value training","canyon","26","{""ArrowUp,ArrowLeft"":26,""ArrowUp,ArrowRight"":10,""ArrowDown,ArrowLeft"":5,""ArrowDown,ArrowRight"":17}","true","ArrowUp,ArrowLeft","false","original","2","12","","",""
"html-keyboard-response","309","1299895","0.0-4.0-2.1-1.56","spark_pilot_norest","10642","2","8","Female","","","","","","","null","<div style=""font-size:60px;"">+</div>","null","fixation","","","","","","","","","13","","",""
"revaluation","310","1305919","0.0-4.0-2.1-0.57","spark_pilot_norest","10642","2","8","Female","","false","","","","","[1306.199999988079,1142.3999999910593]","./assets/img/canyon/memory/36.jpg","[""ArrowUp"",""ArrowLeft""]","value training","canyon","26","{""ArrowUp,ArrowLeft"":26,""ArrowUp,ArrowRight"":10,""ArrowDown,ArrowLeft"":5,""ArrowDown,ArrowRight"":17}","true","ArrowUp,ArrowLeft","false","original","2","14","","",""
"html-keyboard-response","311","1306437","0.0-4.0-2.1-1.57","spark_pilot_norest","10642","2","8","Female","","","","","","","null","<div style=""font-size:60px;"">+</div>","null","fixation","","","","","","","","","15","","",""
