"trial_type","trial_index","time_elapsed","internal_node_id","task_version","subject_id","assigned_condition","age","gender","success","timeout","failed_images","failed_audio","failed_video","browser_interaction","value","rt","stimulus","response","task_part","environment","score","rewardMap","correct","fullState","isCatch","condition","order","trial_num","key_press","ground_truth","bonus"
"pavlovia","0","1956","0.0-0.0","spark_pilot_norest","8718","1","21","Female","","","","","","","","","","","","","","","","","","","","","","",""
"preload","1","82017","0.0-1.0","spark_pilot_norest","8718","1","21","Female","true","false","[]","[]","[]","[{""event"":""fullscreenenter"",""trial"":2,""time"":87727},{""event"":""blur"",""trial"":112,""time"":657082},{""event"":""focus"",""trial"":112,""time"":674917},{""event"":""blur"",""trial"":262,""time"":1279394},{""event"":""focus"",""trial"":263,""time"":1296405},{""event"":""blur"",""trial"":390,""time"":1657858},{""event"":""focus"",""trial"":392,""time"":1659095}]","","","","","","","","","","","","","","","","",""
"fullscreen","2","88545","0.0-2.0","spark_pilot_norest","8718","1","21","Female","true","","","","","","","","","","","","","","","","","","","","","",""
"call-function","3","101918","0.0-3.0","spark_pilot_norest","8718","1","21","Female","","","","","","","","","","","","","","","","","","","","","","",""
"audio-button-response","4","106375","0.0-4.0-0.0-0.0","spark_pilot_norest","8718","1","21","Female","","","","","","","","4325","./assets/audio/audiotest/turtle.mp3","1","audio_test","","","","","","","","","","","",""
"audio-button-response","5","108503","0.0-4.0-0.1-0.1","spark_pilot_norest","8718","1","21","Female","","","","","","","","1125","./assets/audio/audiotest/turtle.mp3","2","audio_test","","","","","","","","","","","",""
"learning-instructions","6","116610","0.0-4.0-1.0-0.0","spark_pilot_norest","8718","1","21","Female","","","","","","","","1137","<p> Welcome! Please remember to stay in fullscreen mode and don't click away from the experiment. </p>","","instructions","","","","","","","","","","","",""
"learning-instructions","7","125980","0.0-4.0-1.0-0.1","spark_pilot_norest","8718","1","21","Female","","","","","","","","968.9999999999854","<p> Today you will be playing a game to earn treasure. </p>
            <p> At the end of the experiment, you will earn a bonus based on how much treasure you find. </p>
            <img src='./assets/img/instructions/treasure.jpg' class='instructions-image'>","","instructions","","","","","","","","","","","",""
"learning-instructions","8","135035","0.0-4.0-1.0-0.2","spark_pilot_norest","8718","1","21","Female","","","","","","","","815.0000000000291","<p> Animals have hidden treasure in treasure chests. </p>
            <p> You need to first find an animal and then choose which of their treasure chests to search. </p>
            <img src='./assets/img/space/animals/cat.jpg' class='instructions-image'>","","instructions","","","","","","","","","","","",""
"learning-instructions","9","149175","0.0-4.0-1.0-0.3","spark_pilot_norest","8718","1","21","Female","","","","","","","","996","<p> In each round, you will search for treasure in a different place. In the real game, there will be two rounds. </p>
            <p> You will begin with a separate, practice round where you will search for treasure in outer space. </p>
            <img src='./assets/img/space/0.jpg' class='instructions-image'>","","instructions","","","","","","","","","","","",""
"learning-instructions","10","161291","0.0-4.0-1.0-0.4","spark_pilot_norest","8718","1","21","Female","","","","","","","","708","<p> On every turn, you will see a picture of the place that you are in, but the specific image may be different each time. </p>
            <p> For example, both of these images mean you are in outer space. </p>
            <img src='./assets/img/instructions/outerspace.jpg' class='instructions-image'>","","instructions","","","","","","","","","","","",""
"learning-instructions","11","172195","0.0-4.0-1.0-0.5","spark_pilot_norest","8718","1","21","Female","","","","","","","","3094.000000000029","<p> You need to decide which direction to travel in. </p>
            <p> You can choose between going <b>up or down</b> by using the arrow keys. </p>
            <img src='./assets/img/instructions/updown.jpg' class='instructions-image'>","","instructions","","","","","","","","","","","",""
"learning-instructions","12","183526","0.0-4.0-1.0-0.6","spark_pilot_norest","8718","1","21","Female","","","","","","","","2543","<p> You will have <b>2 seconds</b> to make your choice. </p>
            <p> If you do not make a choice within 2 seconds, you will not find an animal or earn treasure. </p>
            <img src='./assets/img/instructions/2seconds.jpg' class='instructions-image'>","","instructions","","","","","","","","","","","",""
"learning-instructions","13","191701","0.0-4.0-1.0-0.7","spark_pilot_norest","8718","1","21","Female","","","","","","","","1158.000000000029","<p> Let’s try practicing that now! </p>
            <p> When you see a picture of the place you are in, press the <b>up</b> key to travel up. </p>
            <img src='./assets/img/instructions/pressUp.jpg' class='instructions-image'>","","instructions","","","","","","","","","","","",""
"revaluation","14","195727","0.0-4.0-2.0-0.0","spark_pilot_norest","8718","1","21","Female","","false","","","","","","[1350]","./assets/img/space/0.jpg","[""ArrowUp""]","first stage practice","space","0","null","null","ArrowUp","false","","","","","",""
"html-keyboard-response","15","196231","0.0-4.0-2.0-1.0","spark_pilot_norest","8718","1","21","Female","","","","","","","","null","<div style=""font-size:60px;"">+</div>","null","fixation","","","","","","","","","","","",""
"revaluation","16","200234","0.0-4.0-2.0-0.1","spark_pilot_norest","8718","1","21","Female","","false","","","","","","[490]","./assets/img/space/1.jpg","[""ArrowUp""]","first stage practice","space","0","null","null","ArrowUp","false","","","","","",""
"html-keyboard-response","17","200737","0.0-4.0-2.0-1.1","spark_pilot_norest","8718","1","21","Female","","","","","","","","null","<div style=""font-size:60px;"">+</div>","null","fixation","","","","","","","","","","","",""
"revaluation","18","204743","0.0-4.0-2.0-0.2","spark_pilot_norest","8718","1","21","Female","","false","","","","","","[302]","./assets/img/space/2.jpg","[""ArrowUp""]","first stage practice","space","0","null","null","ArrowUp","false","","","","","",""
"html-keyboard-response","19","205245","0.0-4.0-2.0-1.2","spark_pilot_norest","8718","1","21","Female","","","","","","","","null","<div style=""font-size:60px;"">+</div>","null","fixation","","","","","","","","","","","",""
"learning-instructions","20","210621","0.0-4.0-3.0-0.0","spark_pilot_norest","8718","1","21","Female","","","","","","","","692","<p> Great job! Now try pressing the <b>down</b> key to travel down. </p>
            <img src='./assets/img/instructions/pressDown.jpg' class='instructions-image'>","","instructions","","","","","","","","","","","",""
"revaluation","21","214625","0.0-4.0-4.0-0.0","spark_pilot_norest","8718","1","21","Female","","true","","","","","","[]","./assets/img/space/3.jpg","[]","first stage practice","space","-5","null","null","","false","","","","","",""
"html-keyboard-response","22","215126","0.0-4.0-4.0-1.0","spark_pilot_norest","8718","1","21","Female","","","","","","","","null","<div style=""font-size:60px;"">+</div>","null","fixation","","","","","","","","","","","",""
"revaluation","23","219131","0.0-4.0-4.0-0.1","spark_pilot_norest","8718","1","21","Female","","false","","","","","","[729.9999999999709]","./assets/img/space/4.jpg","[""ArrowDown""]","first stage practice","space","0","null","null","ArrowDown","false","","","","","",""
"html-keyboard-response","24","219633","0.0-4.0-4.0-1.1","spark_pilot_norest","8718","1","21","Female","","","","","","","","null","<div style=""font-size:60px;"">+</div>","null","fixation","","","","","","","","","","","",""
"revaluation","25","223638","0.0-4.0-4.0-0.2","spark_pilot_norest","8718","1","21","Female","","false","","","","","","[1282]","./assets/img/space/5.jpg","[""ArrowDown""]","first stage practice","space","0","null","null","ArrowDown","false","","","","","",""
"html-keyboard-response","26","224139","0.0-4.0-4.0-1.2","spark_pilot_norest","8718","1","21","Female","","","","","","","","null","<div style=""font-size:60px;"">+</div>","null","fixation","","","","","","","","","","","",""
"learning-instructions","27","244202","0.0-4.0-5.0-0.0","spark_pilot_norest","8718","1","21","Female","","","","","","","","10235.00000000003","<p> The animals don’t move, so the animal in the upper part of a place will stay in the upper part of a place, and the animal in the lower part of a place will stay in the lower part of a place. </p>","","instructions","","","","","","","","","","","",""
"learning-instructions","28","253735","0.0-4.0-5.0-0.1","spark_pilot_norest","8718","1","21","Female","","","","","","","","420","<p> Each animal has two treasure chests for you to choose from. </p>
            <p> The amount of treasure in each chest can range from <b> 0 to 40 pieces.</b></p>","","instructions","","","","","","","","","","","",""
"learning-instructions","29","265441","0.0-4.0-5.0-0.2","spark_pilot_norest","8718","1","21","Female","","","","","","","","524","<p> You should decide which chest to search for treasure by using the <b>left</b> and <b>right</b> arrow keys. </p>
            <p><b> Pay attention to which animal is on the screen, as the animals have different treasure chests. </b></p>
            <img src='./assets/img/instructions/leftright.jpg' class='instructions-image'>","","instructions","","","","","","","","","","","",""
"learning-instructions","30","274080","0.0-4.0-5.0-0.3","spark_pilot_norest","8718","1","21","Female","","","","","","","","2290","<p> Let’s try practicing that now. </p>
            <p> When you see an animal, choose which chest to search for treasure. </p>
            <img src='./assets/img/instructions/chooseChest.jpg' class='instructions-image'>","","instructions","","","","","","","","","","","",""
"revaluation","31","278086","0.0-4.0-6.0-0.0","spark_pilot_norest","8718","1","21","Female","","false","","","","","","[1677]","./assets/img/space/animals/cat.jpg","[""ArrowRight""]","second stage practice","space","36","{""ArrowUp,ArrowLeft"":3,""ArrowUp,ArrowRight"":36,""ArrowDown,ArrowLeft"":15,""ArrowDown,ArrowRight"":23}","true","ArrowUp,ArrowRight","","","","","","",""
"html-keyboard-response","32","278588","0.0-4.0-6.0-1.0","spark_pilot_norest","8718","1","21","Female","","","","","","","","null","<div style=""font-size:60px;"">+</div>","null","fixation","","","","","","","","","","","",""
"revaluation","33","282593","0.0-4.0-6.0-0.1","spark_pilot_norest","8718","1","21","Female","","false","","","","","","[130.0000000000582]","./assets/img/space/animals/rabbit.jpg","[""ArrowRight""]","second stage practice","space","23","{""ArrowUp,ArrowLeft"":3,""ArrowUp,ArrowRight"":36,""ArrowDown,ArrowLeft"":15,""ArrowDown,ArrowRight"":23}","true","ArrowDown,ArrowRight","","","","","","",""
"html-keyboard-response","34","283094","0.0-4.0-6.0-1.1","spark_pilot_norest","8718","1","21","Female","","","","","","","","null","<div style=""font-size:60px;"">+</div>","null","fixation","","","","","","","","","","","",""
"revaluation","35","287099","0.0-4.0-6.0-0.2","spark_pilot_norest","8718","1","21","Female","","false","","","","","","[166.9999999999418]","./assets/img/space/animals/cat.jpg","[""ArrowRight""]","second stage practice","space","36","{""ArrowUp,ArrowLeft"":3,""ArrowUp,ArrowRight"":36,""ArrowDown,ArrowLeft"":15,""ArrowDown,ArrowRight"":23}","true","ArrowUp,ArrowRight","","","","","","",""
"html-keyboard-response","36","287602","0.0-4.0-6.0-1.2","spark_pilot_norest","8718","1","21","Female","","","","","","","","null","<div style=""font-size:60px;"">+</div>","null","fixation","","","","","","","","","","","",""
"revaluation","37","291606","0.0-4.0-6.0-0.3","spark_pilot_norest","8718","1","21","Female","","false","","","","","","[219.0000000000582]","./assets/img/space/animals/rabbit.jpg","[""ArrowRight""]","second stage practice","space","23","{""ArrowUp,ArrowLeft"":3,""ArrowUp,ArrowRight"":36,""ArrowDown,ArrowLeft"":15,""ArrowDown,ArrowRight"":23}","true","ArrowDown,ArrowRight","","","","","","",""
"html-keyboard-response","38","292108","0.0-4.0-6.0-1.3","spark_pilot_norest","8718","1","21","Female","","","","","","","","null","<div style=""font-size:60px;"">+</div>","null","fixation","","","","","","","","","","","",""
"learning-instructions","39","309500","0.0-4.0-7.0-0.0","spark_pilot_norest","8718","1","21","Female","","","","","","","","603","<p> Great job. Now let’s try putting it together. </p>
            <p> On each turn, you will first see a picture to remind you of the place you are in, and you need to choose whether to go up or down. </p>
            <p> Then you will see an animal and choose which of its chests to search for treasure. </p>","","instructions","","","","","","","","","","","",""
"learning-instructions","40","318657","0.0-4.0-7.0-0.1","spark_pilot_norest","8718","1","21","Female","","","","","","","","917","<p> When you choose whether to go up or down, try to go to the animal with the chest with the most treasure. </p>
            <p> Try practicing that now! </p>","","instructions","","","","","","","","","","","",""
"revaluation","41","324662","0.0-4.0-8.0-0.0","spark_pilot_norest","8718","1","21","Female","","false","","","","","","[652,827]","./assets/img/space/6.jpg","[""ArrowUp"",""ArrowRight""]","full practice","space","36","{""ArrowUp,ArrowLeft"":3,""ArrowUp,ArrowRight"":36,""ArrowDown,ArrowLeft"":15,""ArrowDown,ArrowRight"":23}","true","ArrowUp,ArrowRight","false","","","","","",""
"html-keyboard-response","42","325165","0.0-4.0-8.0-1.0","spark_pilot_norest","8718","1","21","Female","","","","","","","","null","<div style=""font-size:60px;"">+</div>","null","fixation","","","","","","","","","","","",""
"revaluation","43","331171","0.0-4.0-8.0-0.1","spark_pilot_norest","8718","1","21","Female","","false","","","","","","[204,79]","./assets/img/space/7.jpg","[""ArrowUp"",""ArrowRight""]","full practice","space","36","{""ArrowUp,ArrowLeft"":3,""ArrowUp,ArrowRight"":36,""ArrowDown,ArrowLeft"":15,""ArrowDown,ArrowRight"":23}","true","ArrowUp,ArrowRight","false","","","","","",""
"html-keyboard-response","44","331673","0.0-4.0-8.0-1.1","spark_pilot_norest","8718","1","21","Female","","","","","","","","null","<div style=""font-size:60px;"">+</div>","null","fixation","","","","","","","","","","","",""
"revaluation","45","337677","0.0-4.0-8.0-0.2","spark_pilot_norest","8718","1","21","Female","","false","","","","","","[232,244]","./assets/img/space/8.jpg","[""ArrowUp"",""ArrowRight""]","full practice","space","36","{""ArrowUp,ArrowLeft"":3,""ArrowUp,ArrowRight"":36,""ArrowDown,ArrowLeft"":15,""ArrowDown,ArrowRight"":23}","true","ArrowUp,ArrowRight","false","","","","","",""
"html-keyboard-response","46","338179","0.0-4.0-8.0-1.2","spark_pilot_norest","8718","1","21","Female","","","","","","","","null","<div style=""font-size:60px;"">+</div>","null","fixation","","","","","","","","","","","",""
"revaluation","47","344184","0.0-4.0-8.0-0.3","spark_pilot_norest","8718","1","21","Female","","false","","","","","","[55,489]","./assets/img/space/9.jpg","[""ArrowUp"",""ArrowRight""]","full practice","space","36","{""ArrowUp,ArrowLeft"":3,""ArrowUp,ArrowRight"":36,""ArrowDown,ArrowLeft"":15,""ArrowDown,ArrowRight"":23}","true","ArrowUp,ArrowRight","false","","","","","",""
"html-keyboard-response","48","344687","0.0-4.0-8.0-1.3","spark_pilot_norest","8718","1","21","Female","","","","","","","","null","<div style=""font-size:60px;"">+</div>","null","fixation","","","","","","","","","","","",""
"revaluation","49","350694","0.0-4.0-8.0-0.4","spark_pilot_norest","8718","1","21","Female","","false","","","","","","[57,1063]","./assets/img/space/10.jpg","[""ArrowUp"",""ArrowRight""]","full practice","space","36","{""ArrowUp,ArrowLeft"":3,""ArrowUp,ArrowRight"":36,""ArrowDown,ArrowLeft"":15,""ArrowDown,ArrowRight"":23}","true","ArrowUp,ArrowRight","false","","","","","",""
"html-keyboard-response","50","351196","0.0-4.0-8.0-1.4","spark_pilot_norest","8718","1","21","Female","","","","","","","","null","<div style=""font-size:60px;"">+</div>","null","fixation","","","","","","","","","","","",""
"learning-instructions","51","367626","0.0-4.0-9.0-0.0","spark_pilot_norest","8718","1","21","Female","","","","","","","","6132","<p> One last thing: sometimes, you will see a robber. The robber can be anywhere in the picture. </p>
            <p> If you do not stop them, you will lose treasure. </p>
            <img src='./assets/img/instructions/robber.jpg' class='instructions-image'>","","instructions","","","","","","","","","","","",""
"learning-instructions","52","375948","0.0-4.0-9.0-0.1","spark_pilot_norest","8718","1","21","Female","","","","","","","","1172","<p> If you see the robber, you should <b>press the space bar</b> rather than using the arrow keys. </p>
            <p> Try practicing that now! </p>","","instructions","","","","","","","","","","","",""
"revaluation","53","379952","0.0-4.0-10.0-0.0","spark_pilot_norest","8718","1","21","Female","","false","","","","","","[1214]","./assets/img/space/catch/0.jpg","[""ArrowDown""]","catch practice","space","-10","{""ArrowUp,ArrowLeft"":3,""ArrowUp,ArrowRight"":36,""ArrowDown,ArrowLeft"":15,""ArrowDown,ArrowRight"":23}","false","ArrowDown","true","","","","","",""
"html-keyboard-response","54","380454","0.0-4.0-10.0-1.0","spark_pilot_norest","8718","1","21","Female","","","","","","","","null","<div style=""font-size:60px;"">+</div>","null","fixation","","","","","","","","","","","",""
"revaluation","55","384460","0.0-4.0-10.0-0.1","spark_pilot_norest","8718","1","21","Female","","false","","","","","","[842]","./assets/img/space/catch/1.jpg","[""spaceBar""]","catch practice","space","0","{""ArrowUp,ArrowLeft"":3,""ArrowUp,ArrowRight"":36,""ArrowDown,ArrowLeft"":15,""ArrowDown,ArrowRight"":23}","true","spaceBar","true","","","","","",""
"html-keyboard-response","56","384962","0.0-4.0-10.0-1.1","spark_pilot_norest","8718","1","21","Female","","","","","","","","null","<div style=""font-size:60px;"">+</div>","null","fixation","","","","","","","","","","","",""
"revaluation","57","388966","0.0-4.0-10.0-0.2","spark_pilot_norest","8718","1","21","Female","","false","","","","","","[992]","./assets/img/space/catch/2.jpg","[""spaceBar""]","catch practice","space","0","{""ArrowUp,ArrowLeft"":3,""ArrowUp,ArrowRight"":36,""ArrowDown,ArrowLeft"":15,""ArrowDown,ArrowRight"":23}","true","spaceBar","true","","","","","",""
"html-keyboard-response","58","389468","0.0-4.0-10.0-1.2","spark_pilot_norest","8718","1","21","Female","","","","","","","","null","<div style=""font-size:60px;"">+</div>","null","fixation","","","","","","","","","","","",""
"learning-instructions","59","395504","0.0-4.0-11.0-0.0-0.0","spark_pilot_norest","8718","1","21","Female","","","","","","","","806","<p> Now, you will practice a shortened version of the game to get a sense of how it all fits together. </p>","","instructions","","","","","","","","","","","",""
"learning-instructions","60","400625","0.0-4.0-11.0-0.0-0.1","spark_pilot_norest","8718","1","21","Female","","","","","","","","1944.9999999999418","<p>This time you are searching for treasure in outer space.</p>","","instructions","","","","","","","","","","","",""
"learning-instructions","61","416087","0.0-4.0-11.0-1.0-0.0","spark_pilot_norest","8718","1","21","Female","","","","","","","","675","<p> Remember, when you see a picture of the place, use the up and down keys to <b>find an animal</b>.</p>
            <p> When you encounter an animal, you should use the left and right keys to <b>select a treasure chest</b>.</p>
            <p> Don't forget to look out for the robber! </p>","","instructions","","","","","","","","","","","",""
"revaluation","62","422093","0.0-4.0-11.0-2.0-0.0","spark_pilot_norest","8718","1","21","Female","","true","","","","","","[1681]","./assets/img/space/11.jpg","[""ArrowDown""]","practice block","space","-5","{""ArrowUp,ArrowLeft"":3,""ArrowUp,ArrowRight"":36,""ArrowDown,ArrowLeft"":15,""ArrowDown,ArrowRight"":23}","false","ArrowDown","false","","","","","",""
"html-keyboard-response","63","422595","0.0-4.0-11.0-2.0-1.0","spark_pilot_norest","8718","1","21","Female","","","","","","","","null","<div style=""font-size:60px;"">+</div>","null","fixation","","","","","","","","","","","",""
"revaluation","64","428601","0.0-4.0-11.0-2.0-0.1","spark_pilot_norest","8718","1","21","Female","","false","","","","","","[238,318.0000000000582]","./assets/img/space/12.jpg","[""ArrowUp"",""ArrowRight""]","practice block","space","36","{""ArrowUp,ArrowLeft"":3,""ArrowUp,ArrowRight"":36,""ArrowDown,ArrowLeft"":15,""ArrowDown,ArrowRight"":23}","true","ArrowUp,ArrowRight","false","","","","","",""
"html-keyboard-response","65","429104","0.0-4.0-11.0-2.0-1.1","spark_pilot_norest","8718","1","21","Female","","","","","","","","null","<div style=""font-size:60px;"">+</div>","null","fixation","","","","","","","","","","","",""
"revaluation","66","435110","0.0-4.0-11.0-2.0-0.2","spark_pilot_norest","8718","1","21","Female","","false","","","","","","[455.9999999999418,512]","./assets/img/space/13.jpg","[""ArrowUp"",""ArrowRight""]","practice block","space","36","{""ArrowUp,ArrowLeft"":3,""ArrowUp,ArrowRight"":36,""ArrowDown,ArrowLeft"":15,""ArrowDown,ArrowRight"":23}","true","ArrowUp,ArrowRight","false","","","","","",""
"html-keyboard-response","67","435612","0.0-4.0-11.0-2.0-1.2","spark_pilot_norest","8718","1","21","Female","","","","","","","","null","<div style=""font-size:60px;"">+</div>","null","fixation","","","","","","","","","","","",""
"revaluation","68","441619","0.0-4.0-11.0-2.0-0.3","spark_pilot_norest","8718","1","21","Female","","false","","","","","","[657,356]","./assets/img/space/14.jpg","[""ArrowUp"",""ArrowRight""]","practice block","space","36","{""ArrowUp,ArrowLeft"":3,""ArrowUp,ArrowRight"":36,""ArrowDown,ArrowLeft"":15,""ArrowDown,ArrowRight"":23}","true","ArrowUp,ArrowRight","false","","","","","",""
"html-keyboard-response","69","442121","0.0-4.0-11.0-2.0-1.3","spark_pilot_norest","8718","1","21","Female","","","","","","","","null","<div style=""font-size:60px;"">+</div>","null","fixation","","","","","","","","","","","",""
"revaluation","70","448127","0.0-4.0-11.0-2.0-0.4","spark_pilot_norest","8718","1","21","Female","","false","","","","","","[455,1035.0000000000582]","./assets/img/space/11.jpg","[""ArrowUp"",""ArrowRight""]","practice block","space","36","{""ArrowUp,ArrowLeft"":3,""ArrowUp,ArrowRight"":36,""ArrowDown,ArrowLeft"":15,""ArrowDown,ArrowRight"":23}","true","ArrowUp,ArrowRight","false","","","","","",""
"html-keyboard-response","71","448629","0.0-4.0-11.0-2.0-1.4","spark_pilot_norest","8718","1","21","Female","","","","","","","","null","<div style=""font-size:60px;"">+</div>","null","fixation","","","","","","","","","","","",""
"revaluation","72","454635","0.0-4.0-11.0-2.0-0.5","spark_pilot_norest","8718","1","21","Female","","false","","","","","","[884.9999999999418,741]","./assets/img/space/12.jpg","[""ArrowUp"",""ArrowRight""]","practice block","space","36","{""ArrowUp,ArrowLeft"":3,""ArrowUp,ArrowRight"":36,""ArrowDown,ArrowLeft"":15,""ArrowDown,ArrowRight"":23}","true","ArrowUp,ArrowRight","false","","","","","",""
"html-keyboard-response","73","455136","0.0-4.0-11.0-2.0-1.5","spark_pilot_norest","8718","1","21","Female","","","","","","","","null","<div style=""font-size:60px;"">+</div>","null","fixation","","","","","","","","","","","",""
"revaluation","74","461141","0.0-4.0-11.0-2.0-0.6","spark_pilot_norest","8718","1","21","Female","","false","","","","","","[130.0000000000582,554]","./assets/img/space/13.jpg","[""ArrowUp"",""ArrowRight""]","practice block","space","36","{""ArrowUp,ArrowLeft"":3,""ArrowUp,ArrowRight"":36,""ArrowDown,ArrowLeft"":15,""ArrowDown,ArrowRight"":23}","true","ArrowUp,ArrowRight","false","","","","","",""
"html-keyboard-response","75","461644","0.0-4.0-11.0-2.0-1.6","spark_pilot_norest","8718","1","21","Female","","","","","","","","null","<div style=""font-size:60px;"">+</div>","null","fixation","","","","","","","","","","","",""
"revaluation","76","467649","0.0-4.0-11.0-2.0-0.7","spark_pilot_norest","8718","1","21","Female","","true","","","","","","[343]","./assets/img/space/14.jpg","[""ArrowUp""]","practice block","space","-5","{""ArrowUp,ArrowLeft"":3,""ArrowUp,ArrowRight"":36,""ArrowDown,ArrowLeft"":15,""ArrowDown,ArrowRight"":23}","false","ArrowUp","false","","","","","",""
"html-keyboard-response","77","468152","0.0-4.0-11.0-2.0-1.7","spark_pilot_norest","8718","1","21","Female","","","","","","","","null","<div style=""font-size:60px;"">+</div>","null","fixation","","","","","","","","","","","",""
"revaluation","78","472155","0.0-4.0-11.0-2.0-0.8","spark_pilot_norest","8718","1","21","Female","","false","","","","","","[315]","./assets/img/space/catch/3.jpg","[""ArrowUp""]","practice block","space","-10","{""ArrowUp,ArrowLeft"":3,""ArrowUp,ArrowRight"":36,""ArrowDown,ArrowLeft"":15,""ArrowDown,ArrowRight"":23}","false","ArrowUp","true","","","","","",""
"html-keyboard-response","79","472657","0.0-4.0-11.0-2.0-1.8","spark_pilot_norest","8718","1","21","Female","","","","","","","","null","<div style=""font-size:60px;"">+</div>","null","fixation","","","","","","","","","","","",""
"learning-instructions","80","490037","0.0-4.0-11.0-3.0-0.0","spark_pilot_norest","8718","1","21","Female","","","","","","","","4448","<p> Now, you will travel with a friend who will choose whether you go up or down first. </p>
            <p> On these turns, you will just see the animal that they found. You will still get to choose which chest to search for treasure.</p>","","instructions","","","","","","","","","","","",""
"revaluation","81","494045","0.0-4.0-11.0-4.0-0.0","spark_pilot_norest","8718","1","21","Female","","false","","","","","","[1171.9999999999418]","./assets/img/space/animals/rabbit.jpg","[""ArrowRight""]","practice block","space","23","{""ArrowUp,ArrowLeft"":3,""ArrowUp,ArrowRight"":36,""ArrowDown,ArrowLeft"":15,""ArrowDown,ArrowRight"":23}","true","ArrowDown,ArrowRight","","","","","","",""
"html-keyboard-response","82","494547","0.0-4.0-11.0-4.0-1.0","spark_pilot_norest","8718","1","21","Female","","","","","","","","null","<div style=""font-size:60px;"">+</div>","null","fixation","","","","","","","","","","","",""
"revaluation","83","498551","0.0-4.0-11.0-4.0-0.1","spark_pilot_norest","8718","1","21","Female","","false","","","","","","[334]","./assets/img/space/animals/rabbit.jpg","[""ArrowLeft""]","practice block","space","15","{""ArrowUp,ArrowLeft"":3,""ArrowUp,ArrowRight"":36,""ArrowDown,ArrowLeft"":15,""ArrowDown,ArrowRight"":23}","false","ArrowDown,ArrowLeft","","","","","","",""
"html-keyboard-response","84","499053","0.0-4.0-11.0-4.0-1.1","spark_pilot_norest","8718","1","21","Female","","","","","","","","null","<div style=""font-size:60px;"">+</div>","null","fixation","","","","","","","","","","","",""
"revaluation","85","503057","0.0-4.0-11.0-4.0-0.2","spark_pilot_norest","8718","1","21","Female","","false","","","","","","[225.0000000000582]","./assets/img/space/animals/cat.jpg","[""ArrowRight""]","practice block","space","36","{""ArrowUp,ArrowLeft"":3,""ArrowUp,ArrowRight"":36,""ArrowDown,ArrowLeft"":15,""ArrowDown,ArrowRight"":23}","true","ArrowUp,ArrowRight","","","","","","",""
"html-keyboard-response","86","503558","0.0-4.0-11.0-4.0-1.2","spark_pilot_norest","8718","1","21","Female","","","","","","","","null","<div style=""font-size:60px;"">+</div>","null","fixation","","","","","","","","","","","",""
"revaluation","87","507563","0.0-4.0-11.0-4.0-0.3","spark_pilot_norest","8718","1","21","Female","","false","","","","","","[502]","./assets/img/space/animals/cat.jpg","[""ArrowRight""]","practice block","space","36","{""ArrowUp,ArrowLeft"":3,""ArrowUp,ArrowRight"":36,""ArrowDown,ArrowLeft"":15,""ArrowDown,ArrowRight"":23}","true","ArrowUp,ArrowRight","","","","","","",""
"html-keyboard-response","88","508065","0.0-4.0-11.0-4.0-1.3","spark_pilot_norest","8718","1","21","Female","","","","","","","","null","<div style=""font-size:60px;"">+</div>","null","fixation","","","","","","","","","","","",""
"learning-instructions","89","516181","0.0-4.0-11.0-5.0-0.0","spark_pilot_norest","8718","1","21","Female","","","","","","","","null","<p> You have almost finished this part of the game! </p>
            <p> We are going to ask you to make a few more choices. </p>","","instructions","","","","","","","","","","","",""
"learning-instructions","90","532194","0.0-4.0-11.0-5.0-0.1","spark_pilot_norest","8718","1","21","Female","","","","","","","","null","<p> First, you need to decide whether to go up or down. When you see each picture, use the arrow keys to make your choice. </p>
            <p><b>You will not see which animal you found, but try to get to the one that will give you the most treasure.</b></p>","","instructions","","","","","","","","","","","",""
"html-keyboard-response","91","533195","0.0-4.0-11.0-6.0-0.0","spark_pilot_norest","8718","1","21","Female","","","","","","","","null","<div style=""font-size:100px;color:red;"">Starting in...</div>","null","","","","","","","","","","","","",""
"html-keyboard-response","92","534196","0.0-4.0-11.0-6.0-1.0","spark_pilot_norest","8718","1","21","Female","","","","","","","","null","<div style=""font-size:200px;color:red;"">3</div>","null","","","","","","","","","","","","",""
"html-keyboard-response","93","535198","0.0-4.0-11.0-6.0-2.0","spark_pilot_norest","8718","1","21","Female","","","","","","","","null","<div style=""font-size:200px;color:red;"">2</div>","null","","","","","","","","","","","","",""
"html-keyboard-response","94","536199","0.0-4.0-11.0-6.0-3.0","spark_pilot_norest","8718","1","21","Female","","","","","","","","null","<div style=""font-size:200px;color:red;"">1</div>","null","","","","","","","","","","","","",""
"revaluation","95","536930","0.0-4.0-11.0-7.0","spark_pilot_norest","8718","1","21","Female","","false","","","","","","[728]","./assets/img/space/15.jpg","[""ArrowUp""]","practice block","space","0","{""ArrowUp,ArrowLeft"":3,""ArrowUp,ArrowRight"":36,""ArrowDown,ArrowLeft"":15,""ArrowDown,ArrowRight"":23}","true","ArrowUp","false","","","","","",""
"html-keyboard-response","96","537432","0.0-4.0-11.0-8.0","spark_pilot_norest","8718","1","21","Female","","","","","","","","null","<div style=""font-size:60px;"">+</div>","null","fixation","","","","","","","","","","","",""
"learning-instructions","97","550811","0.0-4.0-11.0-9.0-0.0","spark_pilot_norest","8718","1","21","Female","","","","","","","","null","<p> Now you will see the animals again and can search their chests for treasure. </p>
            <p> This time, you will not see how much treasure you earned, but you will earn more bonus money for making better choices. </p>","","instructions","","","","","","","","","","","",""
"html-keyboard-response","98","551812","0.0-4.0-11.0-10.0-0.0","spark_pilot_norest","8718","1","21","Female","","","","","","","","null","<div style=""font-size:100px;color:red;"">Starting in...</div>","null","","","","","","","","","","","","",""
"html-keyboard-response","99","552814","0.0-4.0-11.0-10.0-1.0","spark_pilot_norest","8718","1","21","Female","","","","","","","","null","<div style=""font-size:200px;color:red;"">3</div>","null","","","","","","","","","","","","",""
"html-keyboard-response","100","553815","0.0-4.0-11.0-10.0-2.0","spark_pilot_norest","8718","1","21","Female","","","","","","","","null","<div style=""font-size:200px;color:red;"">2</div>","null","","","","","","","","","","","","",""
"html-keyboard-response","101","554817","0.0-4.0-11.0-10.0-3.0","spark_pilot_norest","8718","1","21","Female","","","","","","","","null","<div style=""font-size:200px;color:red;"">1</div>","null","","","","","","","","","","","","",""
"revaluation","102","555142","0.0-4.0-11.0-11.0-0.0","spark_pilot_norest","8718","1","21","Female","","false","","","","","","[323]","./assets/img/space/animals/cat.jpg","[""ArrowRight""]","practice block","space","0","{""ArrowUp,ArrowLeft"":3,""ArrowUp,ArrowRight"":36,""ArrowDown,ArrowLeft"":15,""ArrowDown,ArrowRight"":23}","true","ArrowUp,ArrowRight","","","","","","",""
"html-keyboard-response","103","555643","0.0-4.0-11.0-11.0-1.0","spark_pilot_norest","8718","1","21","Female","","","","","","","","null","<div style=""font-size:60px;"">+</div>","null","fixation","","","","","","","","","","","",""
"revaluation","104","556372","0.0-4.0-11.0-11.0-0.1","spark_pilot_norest","8718","1","21","Female","","false","","","","","","[726]","./assets/img/space/animals/rabbit.jpg","[""ArrowRight""]","practice block","space","0","{""ArrowUp,ArrowLeft"":3,""ArrowUp,ArrowRight"":36,""ArrowDown,ArrowLeft"":15,""ArrowDown,ArrowRight"":23}","true","ArrowDown,ArrowRight","","","","","","",""
"html-keyboard-response","105","556873","0.0-4.0-11.0-11.0-1.1","spark_pilot_norest","8718","1","21","Female","","","","","","","","null","<div style=""font-size:60px;"">+</div>","null","fixation","","","","","","","","","","","",""
"learning-instructions","106","565071","0.0-4.0-12.0-0.0","spark_pilot_norest","8718","1","21","Female","","","","","","","","3633","<p> Before you start, we're going to ask you a few questions about how the game works. </p>","","instructions","","","","","","","","","","","",""
"comp-q","107","573048","0.0-4.0-13.0-0.0-0.0","spark_pilot_norest","8718","1","21","Female","","","","","","","","2404","<p> <b> True or False? </b> </p>
            <p> There can be 50 pieces of treasure in a given animal's chest. </p>","0","comp_question","","","","false","","","","","","","",""
"comp-q","108","580908","0.0-4.0-13.0-0.0-1.0","spark_pilot_norest","8718","1","21","Female","","","","","","","","1348.9999999998836","<p> <b>Incorrect.</b> The amount of treasure in each chest can range from 0 to 40 pieces. </p>","0","comp_answer","","","","","","","","","","","",""
"comp-q","109","591454","0.0-4.0-13.0-0.1-0.1","spark_pilot_norest","8718","1","21","Female","","","","","","","","4983","<p> <b> True or False? </b> </p>
            <p> There can be 50 pieces of treasure in a given animal's chest. </p>","1","comp_question","","","","true","","","","","","","",""
"comp-q","110","632315","0.0-4.0-13.0-0.1-1.1","spark_pilot_norest","8718","1","21","Female","","","","","","","","34215","<p> <b> That's right! </b> The amount of treasure in each chest can range from 0 to 40 pieces. </p>","0","comp_answer","","","","","","","","","","","",""
"comp-q","111","642346","0.0-4.0-13.0-0.2-0.2","spark_pilot_norest","8718","1","21","Female","","","","","","[{""event"":""fullscreenenter"",""trial"":2,""time"":87727},{""event"":""blur"",""trial"":112,""time"":657082},{""event"":""focus"",""trial"":112,""time"":674917},{""event"":""blur"",""trial"":262,""time"":1279394},{""event"":""focus"",""trial"":263,""time"":1296405},{""event"":""blur"",""trial"":390,""time"":1657858},{""event"":""focus"",""trial"":392,""time"":1659095}]","","2926","<p> <b> True or False? </b> </p><p> In this game, all animals have the same amount of treasure in their left and right chests. </p>","1","comp_question","","","","true","","","","","","","",""
"comp-q","112","675649","0.0-4.0-13.0-0.2-1.2","spark_pilot_norest","8718","1","21","Female","","","","","","","","28087","<p> <b> That's right! </b> Animals have different amounts of treasure in their treasure chests. </p>","0","comp_answer","","","","","","","","","","","",""
"comp-q","113","682868","0.0-4.0-13.0-0.3-0.3","spark_pilot_norest","8718","1","21","Female","","","","","","","","1381.9999999998836","<p> <b> True or False? </b> </p><p> The same animal will always be there if you go up in the same place. </p>","1","comp_question","","","","false","","","","","","","",""
"comp-q","114","691332","0.0-4.0-13.0-0.3-1.3","spark_pilot_norest","8718","1","21","Female","","","","","","","","2170","<p> <b>Incorrect.</b> One animal lives in the upper part and one lives in the lower part of every place. </p>","0","comp_answer","","","","","","","","","","","",""
"comp-q","115","698132","0.0-4.0-13.0-0.4-0.4","spark_pilot_norest","8718","1","21","Female","","","","","","","","979","<p> <b> True or False? </b> </p><p> The same animal will always be there if you go up in the same place. </p>","0","comp_question","","","","true","","","","","","","",""
"comp-q","116","705626","0.0-4.0-13.0-0.4-1.4","spark_pilot_norest","8718","1","21","Female","","","","","","","","1060","<p> <b> That's right! </b> One animal lives in the upper part and one lives in the lower part of every place. </p>","0","comp_answer","","","","","","","","","","","",""
"comp-q","117","715935","0.0-4.0-13.0-0.5-0.5","spark_pilot_norest","8718","1","21","Female","","","","","","","","4799","<p> <b> True or False? </b> </p><p> If you see a different picture, it means you are in a new place. </p>","0","comp_question","","","","false","","","","","","","",""
"comp-q","118","728123","0.0-4.0-13.0-0.5-1.5","spark_pilot_norest","8718","1","21","Female","","","","","","","","1096","<p> <b>Incorrect.</b> Lots of different images may show the same place. For example,  you may see three different images that all remind you that you are in outer space. </p>","0","comp_answer","","","","","","","","","","","",""
"comp-q","119","736449","0.0-4.0-13.0-0.6-0.6","spark_pilot_norest","8718","1","21","Female","","","","","","","","2823","<p> <b> True or False? </b> </p><p> If you see a different picture, it means you are in a new place. </p>","1","comp_question","","","","true","","","","","","","",""
"comp-q","120","748838","0.0-4.0-13.0-0.6-1.6","spark_pilot_norest","8718","1","21","Female","","","","","","","","1169","<p> <b> That's right! </b> Lots of different images may show the same place. For example,  you may see three different images that all remind you that you are in outer space. </p>","0","comp_answer","","","","","","","","","","","",""
"learning-instructions","121","760432","0.0-4.0-14.0-0.0","spark_pilot_norest","8718","1","21","Female","","","","","","","","1743.0000000001164","<p> Good job. Remember to do your best because the amount of treasure you earn will be converted into bonus money. </p>
            <p> It’s time to start the real game! </p>","","instructions","","","","","","","","","","","",""
"learning-instructions","122","766379","0.0-5.0-0.0-0.0","spark_pilot_norest","8718","1","21","Female","","","","","","","","3245","<p> This time you are searching for treasure in the <b>ocean</b>.</p>","","instructions","","","","","","","","","","","",""
"learning-instructions","123","785904","0.0-5.0-0.0-0.1","spark_pilot_norest","8718","1","21","Female","","","","","","","","2253","<p><b>New</b> animals with <b>new</b> treasure chests live here. You need to explore to discover where the animal with the best treasure chest is.</p>
                    <p> Like before, once you figure out which animal has the chest with the most treasure, you should try to get to that animal and select that chest! </p>","","instructions","","","","","","","","","","","",""
"learning-instructions","124","802035","0.0-5.0-1.0-0.0","spark_pilot_norest","8718","1","21","Female","","","","","","","","1400","<p> Remember, when you see a picture of the place, use the up and down keys to <b>find an animal</b>.</p>
            <p> When you encounter an animal, you should use the left and right keys to <b>select a treasure chest</b>.</p>
            <p> Don't forget to look out for the robber! </p>","","instructions","","","","","","","","","","","",""
"revaluation","125","808066","0.0-5.0-2.0-0.0","spark_pilot_norest","8718","1","21","Female","","false","","","","","","[943,656]","./assets/img/ocean/memory/34.jpg","[""ArrowUp"",""ArrowRight""]","value training","ocean","10","{""ArrowUp,ArrowLeft"":26,""ArrowUp,ArrowRight"":10,""ArrowDown,ArrowLeft"":5,""ArrowDown,ArrowRight"":17}","false","ArrowUp,ArrowRight","false","original","1","0","","",""
"html-keyboard-response","126","808572","0.0-5.0-2.0-1.0","spark_pilot_norest","8718","1","21","Female","","","","","","","","null","<div style=""font-size:60px;"">+</div>","null","fixation","","","","","","","","","1","","",""
"revaluation","127","814580","0.0-5.0-2.0-0.1","spark_pilot_norest","8718","1","21","Female","","false","","","","","","[411.9999999998836,276.9999999998836]","./assets/img/ocean/memory/2.jpg","[""ArrowUp"",""ArrowLeft""]","value training","ocean","26","{""ArrowUp,ArrowLeft"":26,""ArrowUp,ArrowRight"":10,""ArrowDown,ArrowLeft"":5,""ArrowDown,ArrowRight"":17}","true","ArrowUp,ArrowLeft","false","original","1","2","","",""
"html-keyboard-response","128","815083","0.0-5.0-2.0-1.1","spark_pilot_norest","8718","1","21","Female","","","","","","","","null","<div style=""font-size:60px;"">+</div>","null","fixation","","","","","","","","","3","","",""
"revaluation","129","821091","0.0-5.0-2.0-0.2","spark_pilot_norest","8718","1","21","Female","","false","","","","","","[138.00000000011642,37]","./assets/img/ocean/memory/1.jpg","[""ArrowDown"",""ArrowRight""]","value training","ocean","17","{""ArrowUp,ArrowLeft"":26,""ArrowUp,ArrowRight"":10,""ArrowDown,ArrowLeft"":5,""ArrowDown,ArrowRight"":17}","false","ArrowDown,ArrowRight","false","original","1","4","","",""
"html-keyboard-response","130","821593","0.0-5.0-2.0-1.2","spark_pilot_norest","8718","1","21","Female","","","","","","","","null","<div style=""font-size:60px;"">+</div>","null","fixation","","","","","","","","","5","","",""
"revaluation","131","827599","0.0-5.0-2.0-0.3","spark_pilot_norest","8718","1","21","Female","","false","","","","","","[338,546]","./assets/img/ocean/memory/12.jpg","[""ArrowDown"",""ArrowLeft""]","value training","ocean","5","{""ArrowUp,ArrowLeft"":26,""ArrowUp,ArrowRight"":10,""ArrowDown,ArrowLeft"":5,""ArrowDown,ArrowRight"":17}","false","ArrowDown,ArrowLeft","false","original","1","6","","",""
"html-keyboard-response","132","828103","0.0-5.0-2.0-1.3","spark_pilot_norest","8718","1","21","Female","","","","","","","","null","<div style=""font-size:60px;"">+</div>","null","fixation","","","","","","","","","7","","",""
"revaluation","133","834108","0.0-5.0-2.0-0.4","spark_pilot_norest","8718","1","21","Female","","false","","","","","","[176.99999999988358,379.0000000001164]","./assets/img/ocean/memory/9.jpg","[""ArrowUp"",""ArrowLeft""]","value training","ocean","26","{""ArrowUp,ArrowLeft"":26,""ArrowUp,ArrowRight"":10,""ArrowDown,ArrowLeft"":5,""ArrowDown,ArrowRight"":17}","true","ArrowUp,ArrowLeft","false","original","1","8","","",""
"html-keyboard-response","134","834612","0.0-5.0-2.0-1.4","spark_pilot_norest","8718","1","21","Female","","","","","","","","null","<div style=""font-size:60px;"">+</div>","null","fixation","","","","","","","","","9","","",""
"revaluation","135","838615","0.0-5.0-2.0-0.5","spark_pilot_norest","8718","1","21","Female","","false","","","","","","[91]","./assets/img/ocean/catch/1.jpg","[""ArrowUp""]","value training","ocean","-10","{""ArrowUp,ArrowLeft"":26,""ArrowUp,ArrowRight"":10,""ArrowDown,ArrowLeft"":5,""ArrowDown,ArrowRight"":17}","false","ArrowUp","true","original","1","10","","",""
"html-keyboard-response","136","839117","0.0-5.0-2.0-1.5","spark_pilot_norest","8718","1","21","Female","","","","","","","","null","<div style=""font-size:60px;"">+</div>","null","fixation","","","","","","","","","11","","",""
"revaluation","137","845122","0.0-5.0-2.0-0.6","spark_pilot_norest","8718","1","21","Female","","false","","","","","","[300,559]","./assets/img/ocean/memory/32.jpg","[""ArrowUp"",""ArrowLeft""]","value training","ocean","26","{""ArrowUp,ArrowLeft"":26,""ArrowUp,ArrowRight"":10,""ArrowDown,ArrowLeft"":5,""ArrowDown,ArrowRight"":17}","true","ArrowUp,ArrowLeft","false","original","1","12","","",""
"html-keyboard-response","138","845626","0.0-5.0-2.0-1.6","spark_pilot_norest","8718","1","21","Female","","","","","","","","null","<div style=""font-size:60px;"">+</div>","null","fixation","","","","","","","","","13","","",""
"revaluation","139","849631","0.0-5.0-2.0-0.7","spark_pilot_norest","8718","1","21","Female","","false","","","","","","[1702]","./assets/img/ocean/catch/3.jpg","[""spaceBar""]","value training","ocean","0","{""ArrowUp,ArrowLeft"":26,""ArrowUp,ArrowRight"":10,""ArrowDown,ArrowLeft"":5,""ArrowDown,ArrowRight"":17}","true","spaceBar","true","original","1","14","","",""
"html-keyboard-response","140","850132","0.0-5.0-2.0-1.7","spark_pilot_norest","8718","1","21","Female","","","","","","","","null","<div style=""font-size:60px;"">+</div>","null","fixation","","","","","","","","","15","","",""
"revaluation","141","856147","0.0-5.0-2.0-0.8","spark_pilot_norest","8718","1","21","Female","","false","","","","","","[961,1017]","./assets/img/ocean/memory/6.jpg","[""ArrowUp"",""ArrowLeft""]","value training","ocean","26","{""ArrowUp,ArrowLeft"":26,""ArrowUp,ArrowRight"":10,""ArrowDown,ArrowLeft"":5,""ArrowDown,ArrowRight"":17}","true","ArrowUp,ArrowLeft","false","original","1","16","","",""
"html-keyboard-response","142","856650","0.0-5.0-2.0-1.8","spark_pilot_norest","8718","1","21","Female","","","","","","","","null","<div style=""font-size:60px;"">+</div>","null","fixation","","","","","","","","","17","","",""
"revaluation","143","862658","0.0-5.0-2.0-0.9","spark_pilot_norest","8718","1","21","Female","","false","","","","","","[630.9999999998836,486]","./assets/img/ocean/memory/4.jpg","[""ArrowUp"",""ArrowLeft""]","value training","ocean","26","{""ArrowUp,ArrowLeft"":26,""ArrowUp,ArrowRight"":10,""ArrowDown,ArrowLeft"":5,""ArrowDown,ArrowRight"":17}","true","ArrowUp,ArrowLeft","false","original","1","18","","",""
"html-keyboard-response","144","863159","0.0-5.0-2.0-1.9","spark_pilot_norest","8718","1","21","Female","","","","","","","","null","<div style=""font-size:60px;"">+</div>","null","fixation","","","","","","","","","19","","",""
"revaluation","145","867164","0.0-5.0-2.0-0.10","spark_pilot_norest","8718","1","21","Female","","false","","","","","","[902]","./assets/img/ocean/catch/6.jpg","[""spaceBar""]","value training","ocean","0","{""ArrowUp,ArrowLeft"":26,""ArrowUp,ArrowRight"":10,""ArrowDown,ArrowLeft"":5,""ArrowDown,ArrowRight"":17}","true","spaceBar","true","original","1","20","","",""
"html-keyboard-response","146","867665","0.0-5.0-2.0-1.10","spark_pilot_norest","8718","1","21","Female","","","","","","","","null","<div style=""font-size:60px;"">+</div>","null","fixation","","","","","","","","","21","","",""
"revaluation","147","873670","0.0-5.0-2.0-0.11","spark_pilot_norest","8718","1","21","Female","","false","","","","","","[1321,382]","./assets/img/ocean/memory/36.jpg","[""ArrowUp"",""ArrowLeft""]","value training","ocean","26","{""ArrowUp,ArrowLeft"":26,""ArrowUp,ArrowRight"":10,""ArrowDown,ArrowLeft"":5,""ArrowDown,ArrowRight"":17}","true","ArrowUp,ArrowLeft","false","original","1","22","","",""
"html-keyboard-response","148","874172","0.0-5.0-2.0-1.11","spark_pilot_norest","8718","1","21","Female","","","","","","","","null","<div style=""font-size:60px;"">+</div>","null","fixation","","","","","","","","","23","","",""
"revaluation","149","880180","0.0-5.0-2.0-0.12","spark_pilot_norest","8718","1","21","Female","","false","","","","","","[670.9999999998836,385]","./assets/img/ocean/memory/8.jpg","[""ArrowUp"",""ArrowLeft""]","value training","ocean","26","{""ArrowUp,ArrowLeft"":26,""ArrowUp,ArrowRight"":10,""ArrowDown,ArrowLeft"":5,""ArrowDown,ArrowRight"":17}","true","ArrowUp,ArrowLeft","false","original","1","24","","",""
"html-keyboard-response","150","880682","0.0-5.0-2.0-1.12","spark_pilot_norest","8718","1","21","Female","","","","","","","","null","<div style=""font-size:60px;"">+</div>","null","fixation","","","","","","","","","25","","",""
"revaluation","151","886689","0.0-5.0-2.0-0.13","spark_pilot_norest","8718","1","21","Female","","false","","","","","","[458,194]","./assets/img/ocean/memory/25.jpg","[""ArrowUp"",""ArrowLeft""]","value training","ocean","26","{""ArrowUp,ArrowLeft"":26,""ArrowUp,ArrowRight"":10,""ArrowDown,ArrowLeft"":5,""ArrowDown,ArrowRight"":17}","true","ArrowUp,ArrowLeft","false","original","1","26","","",""
"html-keyboard-response","152","887190","0.0-5.0-2.0-1.13","spark_pilot_norest","8718","1","21","Female","","","","","","","","null","<div style=""font-size:60px;"">+</div>","null","fixation","","","","","","","","","27","","",""
"revaluation","153","893193","0.0-5.0-2.0-0.14","spark_pilot_norest","8718","1","21","Female","","false","","","","","","[395,17]","./assets/img/ocean/memory/4.jpg","[""ArrowUp"",""ArrowLeft""]","value training","ocean","26","{""ArrowUp,ArrowLeft"":26,""ArrowUp,ArrowRight"":10,""ArrowDown,ArrowLeft"":5,""ArrowDown,ArrowRight"":17}","true","ArrowUp,ArrowLeft","false","original","1","28","","",""
"html-keyboard-response","154","893694","0.0-5.0-2.0-1.14","spark_pilot_norest","8718","1","21","Female","","","","","","","","null","<div style=""font-size:60px;"">+</div>","null","fixation","","","","","","","","","29","","",""
"revaluation","155","899699","0.0-5.0-2.0-0.15","spark_pilot_norest","8718","1","21","Female","","false","","","","","","[172,568]","./assets/img/ocean/memory/36.jpg","[""ArrowUp"",""ArrowLeft""]","value training","ocean","26","{""ArrowUp,ArrowLeft"":26,""ArrowUp,ArrowRight"":10,""ArrowDown,ArrowLeft"":5,""ArrowDown,ArrowRight"":17}","true","ArrowUp,ArrowLeft","false","original","1","30","","",""
"html-keyboard-response","156","900202","0.0-5.0-2.0-1.15","spark_pilot_norest","8718","1","21","Female","","","","","","","","null","<div style=""font-size:60px;"">+</div>","null","fixation","","","","","","","","","31","","",""
"revaluation","157","906212","0.0-5.0-2.0-0.16","spark_pilot_norest","8718","1","21","Female","","false","","","","","","[441,611]","./assets/img/ocean/memory/8.jpg","[""ArrowUp"",""ArrowLeft""]","value training","ocean","26","{""ArrowUp,ArrowLeft"":26,""ArrowUp,ArrowRight"":10,""ArrowDown,ArrowLeft"":5,""ArrowDown,ArrowRight"":17}","true","ArrowUp,ArrowLeft","false","original","1","32","","",""
"html-keyboard-response","158","906716","0.0-5.0-2.0-1.16","spark_pilot_norest","8718","1","21","Female","","","","","","","","null","<div style=""font-size:60px;"">+</div>","null","fixation","","","","","","","","","33","","",""
"revaluation","159","912725","0.0-5.0-2.0-0.17","spark_pilot_norest","8718","1","21","Female","","true","","","","","","[837]","./assets/img/ocean/memory/38.jpg","[""ArrowUp""]","value training","ocean","-5","{""ArrowUp,ArrowLeft"":26,""ArrowUp,ArrowRight"":10,""ArrowDown,ArrowLeft"":5,""ArrowDown,ArrowRight"":17}","false","ArrowUp","false","original","1","34","","",""
"html-keyboard-response","160","913227","0.0-5.0-2.0-1.17","spark_pilot_norest","8718","1","21","Female","","","","","","","","null","<div style=""font-size:60px;"">+</div>","null","fixation","","","","","","","","","35","","",""
"revaluation","161","919235","0.0-5.0-2.0-0.18","spark_pilot_norest","8718","1","21","Female","","false","","","","","","[411,453]","./assets/img/ocean/memory/37.jpg","[""ArrowUp"",""ArrowLeft""]","value training","ocean","26","{""ArrowUp,ArrowLeft"":26,""ArrowUp,ArrowRight"":10,""ArrowDown,ArrowLeft"":5,""ArrowDown,ArrowRight"":17}","true","ArrowUp,ArrowLeft","false","original","1","36","","",""
"html-keyboard-response","162","919737","0.0-5.0-2.0-1.18","spark_pilot_norest","8718","1","21","Female","","","","","","","","null","<div style=""font-size:60px;"">+</div>","null","fixation","","","","","","","","","37","","",""
"revaluation","163","925744","0.0-5.0-2.0-0.19","spark_pilot_norest","8718","1","21","Female","","false","","","","","","[588,171]","./assets/img/ocean/memory/40.jpg","[""ArrowUp"",""ArrowLeft""]","value training","ocean","26","{""ArrowUp,ArrowLeft"":26,""ArrowUp,ArrowRight"":10,""ArrowDown,ArrowLeft"":5,""ArrowDown,ArrowRight"":17}","true","ArrowUp,ArrowLeft","false","original","1","38","","",""
"html-keyboard-response","164","926245","0.0-5.0-2.0-1.19","spark_pilot_norest","8718","1","21","Female","","","","","","","","null","<div style=""font-size:60px;"">+</div>","null","fixation","","","","","","","","","39","","",""
"revaluation","165","932249","0.0-5.0-2.0-0.20","spark_pilot_norest","8718","1","21","Female","","false","","","","","","[202,613]","./assets/img/ocean/memory/5.jpg","[""ArrowUp"",""ArrowLeft""]","value training","ocean","26","{""ArrowUp,ArrowLeft"":26,""ArrowUp,ArrowRight"":10,""ArrowDown,ArrowLeft"":5,""ArrowDown,ArrowRight"":17}","true","ArrowUp,ArrowLeft","false","original","1","40","","",""
"html-keyboard-response","166","932752","0.0-5.0-2.0-1.20","spark_pilot_norest","8718","1","21","Female","","","","","","","","null","<div style=""font-size:60px;"">+</div>","null","fixation","","","","","","","","","41","","",""
"revaluation","167","938760","0.0-5.0-2.0-0.21","spark_pilot_norest","8718","1","21","Female","","false","","","","","","[770.0000000001164,314.9999999998836]","./assets/img/ocean/memory/39.jpg","[""ArrowUp"",""ArrowLeft""]","value training","ocean","26","{""ArrowUp,ArrowLeft"":26,""ArrowUp,ArrowRight"":10,""ArrowDown,ArrowLeft"":5,""ArrowDown,ArrowRight"":17}","true","ArrowUp,ArrowLeft","false","original","1","42","","",""
"html-keyboard-response","168","939261","0.0-5.0-2.0-1.21","spark_pilot_norest","8718","1","21","Female","","","","","","","","null","<div style=""font-size:60px;"">+</div>","null","fixation","","","","","","","","","43","","",""
"revaluation","169","945266","0.0-5.0-2.0-0.22","spark_pilot_norest","8718","1","21","Female","","false","","","","","","[100,1657]","./assets/img/ocean/memory/12.jpg","[""ArrowUp"",""ArrowLeft""]","value training","ocean","26","{""ArrowUp,ArrowLeft"":26,""ArrowUp,ArrowRight"":10,""ArrowDown,ArrowLeft"":5,""ArrowDown,ArrowRight"":17}","true","ArrowUp,ArrowLeft","false","original","1","44","","",""
"html-keyboard-response","170","945767","0.0-5.0-2.0-1.22","spark_pilot_norest","8718","1","21","Female","","","","","","","","null","<div style=""font-size:60px;"">+</div>","null","fixation","","","","","","","","","45","","",""
"revaluation","171","951772","0.0-5.0-2.0-0.23","spark_pilot_norest","8718","1","21","Female","","false","","","","","","[177.00000000011642,400]","./assets/img/ocean/memory/33.jpg","[""ArrowUp"",""ArrowLeft""]","value training","ocean","26","{""ArrowUp,ArrowLeft"":26,""ArrowUp,ArrowRight"":10,""ArrowDown,ArrowLeft"":5,""ArrowDown,ArrowRight"":17}","true","ArrowUp,ArrowLeft","false","original","1","46","","",""
"html-keyboard-response","172","952274","0.0-5.0-2.0-1.23","spark_pilot_norest","8718","1","21","Female","","","","","","","","null","<div style=""font-size:60px;"">+</div>","null","fixation","","","","","","","","","47","","",""
"revaluation","173","956278","0.0-5.0-2.0-0.24","spark_pilot_norest","8718","1","21","Female","","true","","","","","","[]","./assets/img/ocean/memory/25.jpg","[]","value training","ocean","-5","{""ArrowUp,ArrowLeft"":26,""ArrowUp,ArrowRight"":10,""ArrowDown,ArrowLeft"":5,""ArrowDown,ArrowRight"":17}","false","","false","original","1","48","","",""
"html-keyboard-response","174","956780","0.0-5.0-2.0-1.24","spark_pilot_norest","8718","1","21","Female","","","","","","","","null","<div style=""font-size:60px;"">+</div>","null","fixation","","","","","","","","","49","","",""
"revaluation","175","962787","0.0-5.0-2.0-0.25","spark_pilot_norest","8718","1","21","Female","","false","","","","","","[407,170]","./assets/img/ocean/memory/9.jpg","[""ArrowUp"",""ArrowLeft""]","value training","ocean","26","{""ArrowUp,ArrowLeft"":26,""ArrowUp,ArrowRight"":10,""ArrowDown,ArrowLeft"":5,""ArrowDown,ArrowRight"":17}","true","ArrowUp,ArrowLeft","false","original","1","50","","",""
"html-keyboard-response","176","963289","0.0-5.0-2.0-1.25","spark_pilot_norest","8718","1","21","Female","","","","","","","","null","<div style=""font-size:60px;"">+</div>","null","fixation","","","","","","","","","51","","",""
"revaluation","177","969297","0.0-5.0-2.0-0.26","spark_pilot_norest","8718","1","21","Female","","false","","","","","","[238,1767]","./assets/img/ocean/memory/41.jpg","[""ArrowUp"",""ArrowLeft""]","value training","ocean","26","{""ArrowUp,ArrowLeft"":26,""ArrowUp,ArrowRight"":10,""ArrowDown,ArrowLeft"":5,""ArrowDown,ArrowRight"":17}","true","ArrowUp,ArrowLeft","false","original","1","52","","",""
"html-keyboard-response","178","969799","0.0-5.0-2.0-1.26","spark_pilot_norest","8718","1","21","Female","","","","","","","","null","<div style=""font-size:60px;"">+</div>","null","fixation","","","","","","","","","53","","",""
"revaluation","179","975803","0.0-5.0-2.0-0.27","spark_pilot_norest","8718","1","21","Female","","false","","","","","","[718.9999999998836,611]","./assets/img/ocean/memory/7.jpg","[""ArrowUp"",""ArrowLeft""]","value training","ocean","26","{""ArrowUp,ArrowLeft"":26,""ArrowUp,ArrowRight"":10,""ArrowDown,ArrowLeft"":5,""ArrowDown,ArrowRight"":17}","true","ArrowUp,ArrowLeft","false","original","1","54","","",""
"html-keyboard-response","180","976305","0.0-5.0-2.0-1.27","spark_pilot_norest","8718","1","21","Female","","","","","","","","null","<div style=""font-size:60px;"">+</div>","null","fixation","","","","","","","","","55","","",""
"revaluation","181","980308","0.0-5.0-2.0-0.28","spark_pilot_norest","8718","1","21","Female","","true","","","","","","[]","./assets/img/ocean/memory/35.jpg","[]","value training","ocean","-5","{""ArrowUp,ArrowLeft"":26,""ArrowUp,ArrowRight"":10,""ArrowDown,ArrowLeft"":5,""ArrowDown,ArrowRight"":17}","false","","false","original","1","56","","",""
"html-keyboard-response","182","980809","0.0-5.0-2.0-1.28","spark_pilot_norest","8718","1","21","Female","","","","","","","","null","<div style=""font-size:60px;"">+</div>","null","fixation","","","","","","","","","57","","",""
"revaluation","183","986818","0.0-5.0-2.0-0.29","spark_pilot_norest","8718","1","21","Female","","false","","","","","","[200,463]","./assets/img/ocean/memory/34.jpg","[""ArrowUp"",""ArrowLeft""]","value training","ocean","26","{""ArrowUp,ArrowLeft"":26,""ArrowUp,ArrowRight"":10,""ArrowDown,ArrowLeft"":5,""ArrowDown,ArrowRight"":17}","true","ArrowUp,ArrowLeft","false","original","1","58","","",""
"html-keyboard-response","184","987320","0.0-5.0-2.0-1.29","spark_pilot_norest","8718","1","21","Female","","","","","","","","null","<div style=""font-size:60px;"">+</div>","null","fixation","","","","","","","","","59","","",""
"revaluation","185","993326","0.0-5.0-2.0-0.30","spark_pilot_norest","8718","1","21","Female","","false","","","","","","[310.0000000001164,327]","./assets/img/ocean/memory/7.jpg","[""ArrowUp"",""ArrowLeft""]","value training","ocean","26","{""ArrowUp,ArrowLeft"":26,""ArrowUp,ArrowRight"":10,""ArrowDown,ArrowLeft"":5,""ArrowDown,ArrowRight"":17}","true","ArrowUp,ArrowLeft","false","original","1","60","","",""
"html-keyboard-response","186","993827","0.0-5.0-2.0-1.30","spark_pilot_norest","8718","1","21","Female","","","","","","","","null","<div style=""font-size:60px;"">+</div>","null","fixation","","","","","","","","","61","","",""
"revaluation","187","999835","0.0-5.0-2.0-0.31","spark_pilot_norest","8718","1","21","Female","","false","","","","","","[68.99999999988358,332.9999999998836]","./assets/img/ocean/memory/37.jpg","[""ArrowUp"",""ArrowLeft""]","value training","ocean","26","{""ArrowUp,ArrowLeft"":26,""ArrowUp,ArrowRight"":10,""ArrowDown,ArrowLeft"":5,""ArrowDown,ArrowRight"":17}","true","ArrowUp,ArrowLeft","false","original","1","62","","",""
"html-keyboard-response","188","1000339","0.0-5.0-2.0-1.31","spark_pilot_norest","8718","1","21","Female","","","","","","","","null","<div style=""font-size:60px;"">+</div>","null","fixation","","","","","","","","","63","","",""
"revaluation","189","1006346","0.0-5.0-2.0-0.32","spark_pilot_norest","8718","1","21","Female","","false","","","","","","[417,636.9999999998836]","./assets/img/ocean/memory/41.jpg","[""ArrowUp"",""ArrowLeft""]","value training","ocean","26","{""ArrowUp,ArrowLeft"":26,""ArrowUp,ArrowRight"":10,""ArrowDown,ArrowLeft"":5,""ArrowDown,ArrowRight"":17}","true","ArrowUp,ArrowLeft","false","original","1","64","","",""
"html-keyboard-response","190","1006848","0.0-5.0-2.0-1.32","spark_pilot_norest","8718","1","21","Female","","","","","","","","null","<div style=""font-size:60px;"">+</div>","null","fixation","","","","","","","","","65","","",""
"revaluation","191","1012856","0.0-5.0-2.0-0.33","spark_pilot_norest","8718","1","21","Female","","false","","","","","","[78.00000000011642,429.9999999998836]","./assets/img/ocean/memory/10.jpg","[""ArrowUp"",""ArrowLeft""]","value training","ocean","26","{""ArrowUp,ArrowLeft"":26,""ArrowUp,ArrowRight"":10,""ArrowDown,ArrowLeft"":5,""ArrowDown,ArrowRight"":17}","true","ArrowUp,ArrowLeft","false","original","1","66","","",""
"html-keyboard-response","192","1013357","0.0-5.0-2.0-1.33","spark_pilot_norest","8718","1","21","Female","","","","","","","","null","<div style=""font-size:60px;"">+</div>","null","fixation","","","","","","","","","67","","",""
"revaluation","193","1017363","0.0-5.0-2.0-0.34","spark_pilot_norest","8718","1","21","Female","","true","","","","","","[]","./assets/img/ocean/memory/5.jpg","[]","value training","ocean","-5","{""ArrowUp,ArrowLeft"":26,""ArrowUp,ArrowRight"":10,""ArrowDown,ArrowLeft"":5,""ArrowDown,ArrowRight"":17}","false","","false","original","1","68","","",""
"html-keyboard-response","194","1017865","0.0-5.0-2.0-1.34","spark_pilot_norest","8718","1","21","Female","","","","","","","","null","<div style=""font-size:60px;"">+</div>","null","fixation","","","","","","","","","69","","",""
"revaluation","195","1023899","0.0-5.0-2.0-0.35","spark_pilot_norest","8718","1","21","Female","","false","","","","","","[555,273.9999999998836]","./assets/img/ocean/memory/6.jpg","[""ArrowUp"",""ArrowLeft""]","value training","ocean","26","{""ArrowUp,ArrowLeft"":26,""ArrowUp,ArrowRight"":10,""ArrowDown,ArrowLeft"":5,""ArrowDown,ArrowRight"":17}","true","ArrowUp,ArrowLeft","false","original","1","70","","",""
"html-keyboard-response","196","1024401","0.0-5.0-2.0-1.35","spark_pilot_norest","8718","1","21","Female","","","","","","","","null","<div style=""font-size:60px;"">+</div>","null","fixation","","","","","","","","","71","","",""
"revaluation","197","1028410","0.0-5.0-2.0-0.36","spark_pilot_norest","8718","1","21","Female","","false","","","","","","[386.9999999998836]","./assets/img/ocean/catch/5.jpg","[""ArrowUp""]","value training","ocean","-10","{""ArrowUp,ArrowLeft"":26,""ArrowUp,ArrowRight"":10,""ArrowDown,ArrowLeft"":5,""ArrowDown,ArrowRight"":17}","false","ArrowUp","true","original","1","72","","",""
"html-keyboard-response","198","1028915","0.0-5.0-2.0-1.36","spark_pilot_norest","8718","1","21","Female","","","","","","","","null","<div style=""font-size:60px;"">+</div>","null","fixation","","","","","","","","","73","","",""
"revaluation","199","1034923","0.0-5.0-2.0-0.37","spark_pilot_norest","8718","1","21","Female","","false","","","","","","[441,509]","./assets/img/ocean/memory/35.jpg","[""ArrowUp"",""ArrowLeft""]","value training","ocean","26","{""ArrowUp,ArrowLeft"":26,""ArrowUp,ArrowRight"":10,""ArrowDown,ArrowLeft"":5,""ArrowDown,ArrowRight"":17}","true","ArrowUp,ArrowLeft","false","original","1","74","","",""
"html-keyboard-response","200","1035426","0.0-5.0-2.0-1.37","spark_pilot_norest","8718","1","21","Female","","","","","","","","null","<div style=""font-size:60px;"">+</div>","null","fixation","","","","","","","","","75","","",""
"revaluation","201","1039430","0.0-5.0-2.0-0.38","spark_pilot_norest","8718","1","21","Female","","false","","","","","","[1216.0000000001164]","./assets/img/ocean/catch/0.jpg","[""spaceBar""]","value training","ocean","0","{""ArrowUp,ArrowLeft"":26,""ArrowUp,ArrowRight"":10,""ArrowDown,ArrowLeft"":5,""ArrowDown,ArrowRight"":17}","true","spaceBar","true","original","1","76","","",""
"html-keyboard-response","202","1039933","0.0-5.0-2.0-1.38","spark_pilot_norest","8718","1","21","Female","","","","","","","","null","<div style=""font-size:60px;"">+</div>","null","fixation","","","","","","","","","77","","",""
"revaluation","203","1043937","0.0-5.0-2.0-0.39","spark_pilot_norest","8718","1","21","Female","","false","","","","","","[1347.9999999998836]","./assets/img/ocean/catch/2.jpg","[""spaceBar""]","value training","ocean","0","{""ArrowUp,ArrowLeft"":26,""ArrowUp,ArrowRight"":10,""ArrowDown,ArrowLeft"":5,""ArrowDown,ArrowRight"":17}","true","spaceBar","true","original","1","78","","",""
"html-keyboard-response","204","1044439","0.0-5.0-2.0-1.39","spark_pilot_norest","8718","1","21","Female","","","","","","","","null","<div style=""font-size:60px;"">+</div>","null","fixation","","","","","","","","","79","","",""
"revaluation","205","1050444","0.0-5.0-2.0-0.40","spark_pilot_norest","8718","1","21","Female","","false","","","","","","[866,833]","./assets/img/ocean/memory/10.jpg","[""ArrowUp"",""ArrowLeft""]","value training","ocean","26","{""ArrowUp,ArrowLeft"":26,""ArrowUp,ArrowRight"":10,""ArrowDown,ArrowLeft"":5,""ArrowDown,ArrowRight"":17}","true","ArrowUp,ArrowLeft","false","original","1","80","","",""
"html-keyboard-response","206","1050948","0.0-5.0-2.0-1.40","spark_pilot_norest","8718","1","21","Female","","","","","","","","null","<div style=""font-size:60px;"">+</div>","null","fixation","","","","","","","","","81","","",""
"revaluation","207","1056954","0.0-5.0-2.0-0.41","spark_pilot_norest","8718","1","21","Female","","false","","","","","","[1381,484]","./assets/img/ocean/memory/38.jpg","[""ArrowUp"",""ArrowLeft""]","value training","ocean","26","{""ArrowUp,ArrowLeft"":26,""ArrowUp,ArrowRight"":10,""ArrowDown,ArrowLeft"":5,""ArrowDown,ArrowRight"":17}","true","ArrowUp,ArrowLeft","false","original","1","82","","",""
"html-keyboard-response","208","1057455","0.0-5.0-2.0-1.41","spark_pilot_norest","8718","1","21","Female","","","","","","","","null","<div style=""font-size:60px;"">+</div>","null","fixation","","","","","","","","","83","","",""
"revaluation","209","1063460","0.0-5.0-2.0-0.42","spark_pilot_norest","8718","1","21","Female","","false","","","","","","[267,776]","./assets/img/ocean/memory/40.jpg","[""ArrowUp"",""ArrowLeft""]","value training","ocean","26","{""ArrowUp,ArrowLeft"":26,""ArrowUp,ArrowRight"":10,""ArrowDown,ArrowLeft"":5,""ArrowDown,ArrowRight"":17}","true","ArrowUp,ArrowLeft","false","original","1","84","","",""
"html-keyboard-response","210","1063961","0.0-5.0-2.0-1.42","spark_pilot_norest","8718","1","21","Female","","","","","","","","null","<div style=""font-size:60px;"">+</div>","null","fixation","","","","","","","","","85","","",""
"revaluation","211","1067965","0.0-5.0-2.0-0.43","spark_pilot_norest","8718","1","21","Female","","false","","","","","","[472]","./assets/img/ocean/catch/7.jpg","[""ArrowUp""]","value training","ocean","-10","{""ArrowUp,ArrowLeft"":26,""ArrowUp,ArrowRight"":10,""ArrowDown,ArrowLeft"":5,""ArrowDown,ArrowRight"":17}","false","ArrowUp","true","original","1","86","","",""
"html-keyboard-response","212","1068467","0.0-5.0-2.0-1.43","spark_pilot_norest","8718","1","21","Female","","","","","","","","null","<div style=""font-size:60px;"">+</div>","null","fixation","","","","","","","","","87","","",""
"revaluation","213","1074471","0.0-5.0-2.0-0.44","spark_pilot_norest","8718","1","21","Female","","false","","","","","","[238,200]","./assets/img/ocean/memory/1.jpg","[""ArrowUp"",""ArrowLeft""]","value training","ocean","26","{""ArrowUp,ArrowLeft"":26,""ArrowUp,ArrowRight"":10,""ArrowDown,ArrowLeft"":5,""ArrowDown,ArrowRight"":17}","true","ArrowUp,ArrowLeft","false","original","1","88","","",""
"html-keyboard-response","214","1074972","0.0-5.0-2.0-1.44","spark_pilot_norest","8718","1","21","Female","","","","","","","","null","<div style=""font-size:60px;"">+</div>","null","fixation","","","","","","","","","89","","",""
"revaluation","215","1080976","0.0-5.0-2.0-0.45","spark_pilot_norest","8718","1","21","Female","","false","","","","","","[173,463]","./assets/img/ocean/memory/32.jpg","[""ArrowUp"",""ArrowLeft""]","value training","ocean","26","{""ArrowUp,ArrowLeft"":26,""ArrowUp,ArrowRight"":10,""ArrowDown,ArrowLeft"":5,""ArrowDown,ArrowRight"":17}","true","ArrowUp,ArrowLeft","false","original","1","90","","",""
"html-keyboard-response","216","1081478","0.0-5.0-2.0-1.45","spark_pilot_norest","8718","1","21","Female","","","","","","","","null","<div style=""font-size:60px;"">+</div>","null","fixation","","","","","","","","","91","","",""
"revaluation","217","1085481","0.0-5.0-2.0-0.46","spark_pilot_norest","8718","1","21","Female","","true","","","","","","[]","./assets/img/ocean/memory/39.jpg","[]","value training","ocean","-5","{""ArrowUp,ArrowLeft"":26,""ArrowUp,ArrowRight"":10,""ArrowDown,ArrowLeft"":5,""ArrowDown,ArrowRight"":17}","false","","false","original","1","92","","",""
"html-keyboard-response","218","1085982","0.0-5.0-2.0-1.46","spark_pilot_norest","8718","1","21","Female","","","","","","","","null","<div style=""font-size:60px;"">+</div>","null","fixation","","","","","","","","","93","","",""
"revaluation","219","1089986","0.0-5.0-2.0-0.47","spark_pilot_norest","8718","1","21","Female","","false","","","","","","[99]","./assets/img/ocean/catch/4.jpg","[""ArrowUp""]","value training","ocean","-10","{""ArrowUp,ArrowLeft"":26,""ArrowUp,ArrowRight"":10,""ArrowDown,ArrowLeft"":5,""ArrowDown,ArrowRight"":17}","false","ArrowUp","true","original","1","94","","",""
"html-keyboard-response","220","1090489","0.0-5.0-2.0-1.47","spark_pilot_norest","8718","1","21","Female","","","","","","","","null","<div style=""font-size:60px;"">+</div>","null","fixation","","","","","","","","","95","","",""
"revaluation","221","1096495","0.0-5.0-2.0-0.48","spark_pilot_norest","8718","1","21","Female","","false","","","","","","[166,1]","./assets/img/ocean/memory/33.jpg","[""ArrowUp"",""ArrowLeft""]","value training","ocean","26","{""ArrowUp,ArrowLeft"":26,""ArrowUp,ArrowRight"":10,""ArrowDown,ArrowLeft"":5,""ArrowDown,ArrowRight"":17}","true","ArrowUp,ArrowLeft","false","original","1","96","","",""
"html-keyboard-response","222","1096997","0.0-5.0-2.0-1.48","spark_pilot_norest","8718","1","21","Female","","","","","","","","null","<div style=""font-size:60px;"">+</div>","null","fixation","","","","","","","","","97","","",""
"revaluation","223","1103002","0.0-5.0-2.0-0.49","spark_pilot_norest","8718","1","21","Female","","false","","","","","","[1077.0000000002328,572]","./assets/img/ocean/memory/2.jpg","[""ArrowUp"",""ArrowLeft""]","value training","ocean","26","{""ArrowUp,ArrowLeft"":26,""ArrowUp,ArrowRight"":10,""ArrowDown,ArrowLeft"":5,""ArrowDown,ArrowRight"":17}","true","ArrowUp,ArrowLeft","false","original","1","98","","",""
"html-keyboard-response","224","1103504","0.0-5.0-2.0-1.49","spark_pilot_norest","8718","1","21","Female","","","","","","","","null","<div style=""font-size:60px;"">+</div>","null","fixation","","","","","","","","","99","","",""
"learning-instructions","225","1191962","0.0-5.0-3.0-0.0","spark_pilot_norest","8718","1","21","Female","","","","","","","","75549","<p> Now, you will travel with a friend who will choose whether you go up or down first. </p>
            <p> On these turns, you will just see the animal that they found. You will still get to choose which chest to search for treasure.</p>","","instructions","","","","","","","","","","","",""
"revaluation","226","1195968","0.0-5.0-4.0-0.0","spark_pilot_norest","8718","1","21","Female","","false","","","","","","[1249]","./assets/img/ocean/animals/seahorse.jpg","[""ArrowRight""]","revaluation","ocean","17","{""ArrowUp,ArrowLeft"":26,""ArrowUp,ArrowRight"":10,""ArrowDown,ArrowLeft"":5,""ArrowDown,ArrowRight"":17}","true","ArrowDown,ArrowRight","","original","1","0","","",""
"html-keyboard-response","227","1196471","0.0-5.0-4.0-1.0","spark_pilot_norest","8718","1","21","Female","","","","","","","","null","<div style=""font-size:60px;"">+</div>","null","fixation","","","","","","","","","1","","",""
"revaluation","228","1200475","0.0-5.0-4.0-0.1","spark_pilot_norest","8718","1","21","Female","","false","","","","","","[146]","./assets/img/ocean/animals/octopus.jpg","[""ArrowLeft""]","revaluation","ocean","26","{""ArrowUp,ArrowLeft"":26,""ArrowUp,ArrowRight"":10,""ArrowDown,ArrowLeft"":5,""ArrowDown,ArrowRight"":17}","true","ArrowUp,ArrowLeft","","original","1","2","","",""
"html-keyboard-response","229","1200976","0.0-5.0-4.0-1.1","spark_pilot_norest","8718","1","21","Female","","","","","","","","null","<div style=""font-size:60px;"">+</div>","null","fixation","","","","","","","","","3","","",""
"revaluation","230","1204981","0.0-5.0-4.0-0.2","spark_pilot_norest","8718","1","21","Female","","false","","","","","","[1178]","./assets/img/ocean/animals/octopus.jpg","[""ArrowLeft""]","revaluation","ocean","26","{""ArrowUp,ArrowLeft"":26,""ArrowUp,ArrowRight"":10,""ArrowDown,ArrowLeft"":5,""ArrowDown,ArrowRight"":17}","true","ArrowUp,ArrowLeft","","original","1","4","","",""
"html-keyboard-response","231","1205482","0.0-5.0-4.0-1.2","spark_pilot_norest","8718","1","21","Female","","","","","","","","null","<div style=""font-size:60px;"">+</div>","null","fixation","","","","","","","","","5","","",""
"revaluation","232","1209487","0.0-5.0-4.0-0.3","spark_pilot_norest","8718","1","21","Female","","false","","","","","","[107]","./assets/img/ocean/animals/seahorse.jpg","[""ArrowLeft""]","revaluation","ocean","5","{""ArrowUp,ArrowLeft"":26,""ArrowUp,ArrowRight"":10,""ArrowDown,ArrowLeft"":5,""ArrowDown,ArrowRight"":17}","false","ArrowDown,ArrowLeft","","original","1","6","","",""
"html-keyboard-response","233","1209989","0.0-5.0-4.0-1.3","spark_pilot_norest","8718","1","21","Female","","","","","","","","null","<div style=""font-size:60px;"">+</div>","null","fixation","","","","","","","","","7","","",""
"revaluation","234","1213993","0.0-5.0-4.0-0.4","spark_pilot_norest","8718","1","21","Female","","false","","","","","","[0]","./assets/img/ocean/animals/seahorse.jpg","[""ArrowRight""]","revaluation","ocean","17","{""ArrowUp,ArrowLeft"":26,""ArrowUp,ArrowRight"":10,""ArrowDown,ArrowLeft"":5,""ArrowDown,ArrowRight"":17}","true","ArrowDown,ArrowRight","","original","1","8","","",""
"html-keyboard-response","235","1214495","0.0-5.0-4.0-1.4","spark_pilot_norest","8718","1","21","Female","","","","","","","","null","<div style=""font-size:60px;"">+</div>","null","fixation","","","","","","","","","9","","",""
"revaluation","236","1218500","0.0-5.0-4.0-0.5","spark_pilot_norest","8718","1","21","Female","","false","","","","","","[39.99999999976717]","./assets/img/ocean/animals/octopus.jpg","[""ArrowLeft""]","revaluation","ocean","26","{""ArrowUp,ArrowLeft"":26,""ArrowUp,ArrowRight"":10,""ArrowDown,ArrowLeft"":5,""ArrowDown,ArrowRight"":17}","true","ArrowUp,ArrowLeft","","original","1","10","","",""
"html-keyboard-response","237","1219001","0.0-5.0-4.0-1.5","spark_pilot_norest","8718","1","21","Female","","","","","","","","null","<div style=""font-size:60px;"">+</div>","null","fixation","","","","","","","","","11","","",""
"revaluation","238","1223005","0.0-5.0-4.0-0.6","spark_pilot_norest","8718","1","21","Female","","false","","","","","","[64]","./assets/img/ocean/animals/seahorse.jpg","[""ArrowRight""]","revaluation","ocean","17","{""ArrowUp,ArrowLeft"":26,""ArrowUp,ArrowRight"":10,""ArrowDown,ArrowLeft"":5,""ArrowDown,ArrowRight"":17}","true","ArrowDown,ArrowRight","","original","1","12","","",""
"html-keyboard-response","239","1223506","0.0-5.0-4.0-1.6","spark_pilot_norest","8718","1","21","Female","","","","","","","","null","<div style=""font-size:60px;"">+</div>","null","fixation","","","","","","","","","13","","",""
"revaluation","240","1227513","0.0-5.0-4.0-0.7","spark_pilot_norest","8718","1","21","Female","","false","","","","","","[191]","./assets/img/ocean/animals/octopus.jpg","[""ArrowLeft""]","revaluation","ocean","26","{""ArrowUp,ArrowLeft"":26,""ArrowUp,ArrowRight"":10,""ArrowDown,ArrowLeft"":5,""ArrowDown,ArrowRight"":17}","true","ArrowUp,ArrowLeft","","original","1","14","","",""
"html-keyboard-response","241","1228015","0.0-5.0-4.0-1.7","spark_pilot_norest","8718","1","21","Female","","","","","","","","null","<div style=""font-size:60px;"">+</div>","null","fixation","","","","","","","","","15","","",""
"revaluation","242","1232020","0.0-5.0-4.0-0.8","spark_pilot_norest","8718","1","21","Female","","false","","","","","","[119.99999999976717]","./assets/img/ocean/animals/octopus.jpg","[""ArrowLeft""]","revaluation","ocean","26","{""ArrowUp,ArrowLeft"":26,""ArrowUp,ArrowRight"":10,""ArrowDown,ArrowLeft"":5,""ArrowDown,ArrowRight"":17}","true","ArrowUp,ArrowLeft","","original","1","16","","",""
"html-keyboard-response","243","1232522","0.0-5.0-4.0-1.8","spark_pilot_norest","8718","1","21","Female","","","","","","","","null","<div style=""font-size:60px;"">+</div>","null","fixation","","","","","","","","","17","","",""
"revaluation","244","1236528","0.0-5.0-4.0-0.9","spark_pilot_norest","8718","1","21","Female","","false","","","","","","[128]","./assets/img/ocean/animals/octopus.jpg","[""ArrowRight""]","revaluation","ocean","10","{""ArrowUp,ArrowLeft"":26,""ArrowUp,ArrowRight"":10,""ArrowDown,ArrowLeft"":5,""ArrowDown,ArrowRight"":17}","false","ArrowUp,ArrowRight","","original","1","18","","",""
"html-keyboard-response","245","1237032","0.0-5.0-4.0-1.9","spark_pilot_norest","8718","1","21","Female","","","","","","","","null","<div style=""font-size:60px;"">+</div>","null","fixation","","","","","","","","","19","","",""
"revaluation","246","1241036","0.0-5.0-4.0-0.10","spark_pilot_norest","8718","1","21","Female","","false","","","","","","[240]","./assets/img/ocean/animals/seahorse.jpg","[""ArrowLeft""]","revaluation","ocean","5","{""ArrowUp,ArrowLeft"":26,""ArrowUp,ArrowRight"":10,""ArrowDown,ArrowLeft"":5,""ArrowDown,ArrowRight"":17}","false","ArrowDown,ArrowLeft","","original","1","20","","",""
"html-keyboard-response","247","1241539","0.0-5.0-4.0-1.10","spark_pilot_norest","8718","1","21","Female","","","","","","","","null","<div style=""font-size:60px;"">+</div>","null","fixation","","","","","","","","","21","","",""
"revaluation","248","1245543","0.0-5.0-4.0-0.11","spark_pilot_norest","8718","1","21","Female","","false","","","","","","[305]","./assets/img/ocean/animals/seahorse.jpg","[""ArrowRight""]","revaluation","ocean","17","{""ArrowUp,ArrowLeft"":26,""ArrowUp,ArrowRight"":10,""ArrowDown,ArrowLeft"":5,""ArrowDown,ArrowRight"":17}","true","ArrowDown,ArrowRight","","original","1","22","","",""
"html-keyboard-response","249","1246046","0.0-5.0-4.0-1.11","spark_pilot_norest","8718","1","21","Female","","","","","","","","null","<div style=""font-size:60px;"">+</div>","null","fixation","","","","","","","","","23","","",""
"revaluation","250","1250052","0.0-5.0-4.0-0.12","spark_pilot_norest","8718","1","21","Female","","false","","","","","","[333.00000000023283]","./assets/img/ocean/animals/octopus.jpg","[""ArrowLeft""]","revaluation","ocean","26","{""ArrowUp,ArrowLeft"":26,""ArrowUp,ArrowRight"":10,""ArrowDown,ArrowLeft"":5,""ArrowDown,ArrowRight"":17}","true","ArrowUp,ArrowLeft","","original","1","24","","",""
"html-keyboard-response","251","1250553","0.0-5.0-4.0-1.12","spark_pilot_norest","8718","1","21","Female","","","","","","","","null","<div style=""font-size:60px;"">+</div>","null","fixation","","","","","","","","","25","","",""
"revaluation","252","1254558","0.0-5.0-4.0-0.13","spark_pilot_norest","8718","1","21","Female","","false","","","","","","[316]","./assets/img/ocean/animals/seahorse.jpg","[""ArrowLeft""]","revaluation","ocean","5","{""ArrowUp,ArrowLeft"":26,""ArrowUp,ArrowRight"":10,""ArrowDown,ArrowLeft"":5,""ArrowDown,ArrowRight"":17}","false","ArrowDown,ArrowLeft","","original","1","26","","",""
"html-keyboard-response","253","1255060","0.0-5.0-4.0-1.13","spark_pilot_norest","8718","1","21","Female","","","","","","","","null","<div style=""font-size:60px;"">+</div>","null","fixation","","","","","","","","","27","","",""
"revaluation","254","1259064","0.0-5.0-4.0-0.14","spark_pilot_norest","8718","1","21","Female","","false","","","","","","[3]","./assets/img/ocean/animals/octopus.jpg","[""ArrowRight""]","revaluation","ocean","10","{""ArrowUp,ArrowLeft"":26,""ArrowUp,ArrowRight"":10,""ArrowDown,ArrowLeft"":5,""ArrowDown,ArrowRight"":17}","false","ArrowUp,ArrowRight","","original","1","28","","",""
"html-keyboard-response","255","1259565","0.0-5.0-4.0-1.14","spark_pilot_norest","8718","1","21","Female","","","","","","","","null","<div style=""font-size:60px;"">+</div>","null","fixation","","","","","","","","","29","","",""
"revaluation","256","1263569","0.0-5.0-4.0-0.15","spark_pilot_norest","8718","1","21","Female","","false","","","","","","[14]","./assets/img/ocean/animals/octopus.jpg","[""ArrowRight""]","revaluation","ocean","10","{""ArrowUp,ArrowLeft"":26,""ArrowUp,ArrowRight"":10,""ArrowDown,ArrowLeft"":5,""ArrowDown,ArrowRight"":17}","false","ArrowUp,ArrowRight","","original","1","30","","",""
"html-keyboard-response","257","1264072","0.0-5.0-4.0-1.15","spark_pilot_norest","8718","1","21","Female","","","","","","","","null","<div style=""font-size:60px;"">+</div>","null","fixation","","","","","","","","","31","","",""
"revaluation","258","1268075","0.0-5.0-4.0-0.16","spark_pilot_norest","8718","1","21","Female","","false","","","","","","[44]","./assets/img/ocean/animals/seahorse.jpg","[""ArrowRight""]","revaluation","ocean","17","{""ArrowUp,ArrowLeft"":26,""ArrowUp,ArrowRight"":10,""ArrowDown,ArrowLeft"":5,""ArrowDown,ArrowRight"":17}","true","ArrowDown,ArrowRight","","original","1","32","","",""
"html-keyboard-response","259","1268577","0.0-5.0-4.0-1.16","spark_pilot_norest","8718","1","21","Female","","","","","","","","null","<div style=""font-size:60px;"">+</div>","null","fixation","","","","","","","","","33","","",""
"revaluation","260","1272582","0.0-5.0-4.0-0.17","spark_pilot_norest","8718","1","21","Female","","false","","","","","","[56]","./assets/img/ocean/animals/seahorse.jpg","[""ArrowRight""]","revaluation","ocean","17","{""ArrowUp,ArrowLeft"":26,""ArrowUp,ArrowRight"":10,""ArrowDown,ArrowLeft"":5,""ArrowDown,ArrowRight"":17}","true","ArrowDown,ArrowRight","","original","1","34","","",""
"html-keyboard-response","261","1273083","0.0-5.0-4.0-1.17","spark_pilot_norest","8718","1","21","Female","","","","","","[{""event"":""fullscreenenter"",""trial"":2,""time"":87727},{""event"":""blur"",""trial"":112,""time"":657082},{""event"":""focus"",""trial"":112,""time"":674917},{""event"":""blur"",""trial"":262,""time"":1279394},{""event"":""focus"",""trial"":263,""time"":1296405},{""event"":""blur"",""trial"":390,""time"":1657858},{""event"":""focus"",""trial"":392,""time"":1659095}]","","null","<div style=""font-size:60px;"">+</div>","null","fixation","","","","","","","","","35","","",""
"learning-instructions","262","1281186","0.0-5.0-5.0-0.0","spark_pilot_norest","8718","1","21","Female","","","","","","[{""event"":""fullscreenenter"",""trial"":2,""time"":87727},{""event"":""blur"",""trial"":112,""time"":657082},{""event"":""focus"",""trial"":112,""time"":674917},{""event"":""blur"",""trial"":262,""time"":1279394},{""event"":""focus"",""trial"":263,""time"":1296405},{""event"":""blur"",""trial"":390,""time"":1657858},{""event"":""focus"",""trial"":392,""time"":1659095}]","","null","<p> You have almost finished this part of the game! </p>
            <p> We are going to ask you to make a few more choices. </p>","","instructions","","","","","","","","","","","",""
"learning-instructions","263","1297160","0.0-5.0-5.0-0.1","spark_pilot_norest","8718","1","21","Female","","","","","","","","null","<p> First, you need to decide whether to go up or down. When you see each picture, use the arrow keys to make your choice. </p>
            <p><b>You will not see which animal you found, but try to get to the one that will give you the most treasure.</b></p>","","instructions","","","","","","","","","","","",""
"html-keyboard-response","264","1298165","0.0-5.0-6.0-0.0","spark_pilot_norest","8718","1","21","Female","","","","","","","","null","<div style=""font-size:100px;color:red;"">Starting in...</div>","null","","","","","","","","","","","","",""
"html-keyboard-response","265","1299168","0.0-5.0-6.0-1.0","spark_pilot_norest","8718","1","21","Female","","","","","","","","null","<div style=""font-size:200px;color:red;"">3</div>","null","","","","","","","","","","","","",""
"html-keyboard-response","266","1300169","0.0-5.0-6.0-2.0","spark_pilot_norest","8718","1","21","Female","","","","","","","","null","<div style=""font-size:200px;color:red;"">2</div>","null","","","","","","","","","","","","",""
"html-keyboard-response","267","1301171","0.0-5.0-6.0-3.0","spark_pilot_norest","8718","1","21","Female","","","","","","","","null","<div style=""font-size:200px;color:red;"">1</div>","null","","","","","","","","","","","","",""
"revaluation","268","1302400","0.0-5.0-7.0-0.0","spark_pilot_norest","8718","1","21","Female","","false","","","","","","[1216.9999999997672]","./assets/img/ocean/test/1.jpg","[""ArrowUp""]","first stage test","ocean","0","{""ArrowUp,ArrowLeft"":26,""ArrowUp,ArrowRight"":10,""ArrowDown,ArrowLeft"":5,""ArrowDown,ArrowRight"":17}","true","ArrowUp","false","original","1","","","",""
"html-keyboard-response","269","1302901","0.0-5.0-7.0-1.0","spark_pilot_norest","8718","1","21","Female","","","","","","","","null","<div style=""font-size:60px;"">+</div>","null","fixation","","","","","","","","","","","",""
"revaluation","270","1303831","0.0-5.0-7.0-0.1","spark_pilot_norest","8718","1","21","Female","","false","","","","","","[925]","./assets/img/ocean/test/2.jpg","[""ArrowUp""]","first stage test","ocean","0","{""ArrowUp,ArrowLeft"":26,""ArrowUp,ArrowRight"":10,""ArrowDown,ArrowLeft"":5,""ArrowDown,ArrowRight"":17}","true","ArrowUp","false","original","1","","","",""
"html-keyboard-response","271","1304333","0.0-5.0-7.0-1.1","spark_pilot_norest","8718","1","21","Female","","","","","","","","null","<div style=""font-size:60px;"">+</div>","null","fixation","","","","","","","","","","","",""
"revaluation","272","1304642","0.0-5.0-7.0-0.2","spark_pilot_norest","8718","1","21","Female","","false","","","","","","[304]","./assets/img/ocean/test/0.jpg","[""ArrowUp""]","first stage test","ocean","0","{""ArrowUp,ArrowLeft"":26,""ArrowUp,ArrowRight"":10,""ArrowDown,ArrowLeft"":5,""ArrowDown,ArrowRight"":17}","true","ArrowUp","false","original","1","","","",""
"html-keyboard-response","273","1305144","0.0-5.0-7.0-1.2","spark_pilot_norest","8718","1","21","Female","","","","","","","","null","<div style=""font-size:60px;"">+</div>","null","fixation","","","","","","","","","","","",""
"revaluation","274","1305340","0.0-5.0-7.0-0.3","spark_pilot_norest","8718","1","21","Female","","false","","","","","","[192]","./assets/img/ocean/test/3.jpg","[""ArrowUp""]","first stage test","ocean","0","{""ArrowUp,ArrowLeft"":26,""ArrowUp,ArrowRight"":10,""ArrowDown,ArrowLeft"":5,""ArrowDown,ArrowRight"":17}","true","ArrowUp","false","original","1","","","",""
"html-keyboard-response","275","1305841","0.0-5.0-7.0-1.3","spark_pilot_norest","8718","1","21","Female","","","","","","","","null","<div style=""font-size:60px;"">+</div>","null","fixation","","","","","","","","","","","",""
"learning-instructions","276","1319186","0.0-5.0-8.0-0.0","spark_pilot_norest","8718","1","21","Female","","","","","","","","null","<p> Now you will see the animals again and can search their chests for treasure. </p>
            <p> This time, you will not see how much treasure you earned, but you will earn more bonus money for making better choices. </p>","","instructions","","","","","","","","","","","",""
"html-keyboard-response","277","1320189","0.0-5.0-9.0-0.0","spark_pilot_norest","8718","1","21","Female","","","","","","","","null","<div style=""font-size:100px;color:red;"">Starting in...</div>","null","","","","","","","","","","","","",""
"html-keyboard-response","278","1321191","0.0-5.0-9.0-1.0","spark_pilot_norest","8718","1","21","Female","","","","","","","","null","<div style=""font-size:200px;color:red;"">3</div>","null","","","","","","","","","","","","",""
"html-keyboard-response","279","1322194","0.0-5.0-9.0-2.0","spark_pilot_norest","8718","1","21","Female","","","","","","","","null","<div style=""font-size:200px;color:red;"">2</div>","null","","","","","","","","","","","","",""
"html-keyboard-response","280","1323195","0.0-5.0-9.0-3.0","spark_pilot_norest","8718","1","21","Female","","","","","","","","null","<div style=""font-size:200px;color:red;"">1</div>","null","","","","","","","","","","","","",""
"revaluation","281","1325515","0.0-5.0-10.0-0.0","spark_pilot_norest","8718","1","21","Female","","false","","","","","","[2317]","./assets/img/ocean/animals/octopus.jpg","[""ArrowRight""]","second stage test","ocean","0","{""ArrowUp,ArrowLeft"":26,""ArrowUp,ArrowRight"":10,""ArrowDown,ArrowLeft"":5,""ArrowDown,ArrowRight"":17}","false","ArrowUp,ArrowRight","","original","1","","","",""
"html-keyboard-response","282","1326016","0.0-5.0-10.0-1.0","spark_pilot_norest","8718","1","21","Female","","","","","","","","null","<div style=""font-size:60px;"">+</div>","null","fixation","","","","","","","","","","","",""
"revaluation","283","1326361","0.0-5.0-10.0-0.1","spark_pilot_norest","8718","1","21","Female","","false","","","","","","[341]","./assets/img/ocean/animals/octopus.jpg","[""ArrowRight""]","second stage test","ocean","0","{""ArrowUp,ArrowLeft"":26,""ArrowUp,ArrowRight"":10,""ArrowDown,ArrowLeft"":5,""ArrowDown,ArrowRight"":17}","false","ArrowUp,ArrowRight","","original","1","","","",""
"html-keyboard-response","284","1326863","0.0-5.0-10.0-1.1","spark_pilot_norest","8718","1","21","Female","","","","","","","","null","<div style=""font-size:60px;"">+</div>","null","fixation","","","","","","","","","","","",""
"revaluation","285","1327640","0.0-5.0-10.0-0.2","spark_pilot_norest","8718","1","21","Female","","false","","","","","","[776]","./assets/img/ocean/animals/octopus.jpg","[""ArrowRight""]","second stage test","ocean","0","{""ArrowUp,ArrowLeft"":26,""ArrowUp,ArrowRight"":10,""ArrowDown,ArrowLeft"":5,""ArrowDown,ArrowRight"":17}","false","ArrowUp,ArrowRight","","original","1","","","",""
"html-keyboard-response","286","1328143","0.0-5.0-10.0-1.2","spark_pilot_norest","8718","1","21","Female","","","","","","","","null","<div style=""font-size:60px;"">+</div>","null","fixation","","","","","","","","","","","",""
"revaluation","287","1328369","0.0-5.0-10.0-0.3","spark_pilot_norest","8718","1","21","Female","","false","","","","","","[221]","./assets/img/ocean/animals/octopus.jpg","[""ArrowRight""]","second stage test","ocean","0","{""ArrowUp,ArrowLeft"":26,""ArrowUp,ArrowRight"":10,""ArrowDown,ArrowLeft"":5,""ArrowDown,ArrowRight"":17}","false","ArrowUp,ArrowRight","","original","1","","","",""
"html-keyboard-response","288","1328871","0.0-5.0-10.0-1.3","spark_pilot_norest","8718","1","21","Female","","","","","","","","null","<div style=""font-size:60px;"">+</div>","null","fixation","","","","","","","","","","","",""
"revaluation","289","1329013","0.0-5.0-10.0-0.4","spark_pilot_norest","8718","1","21","Female","","false","","","","","","[139]","./assets/img/ocean/animals/seahorse.jpg","[""ArrowRight""]","second stage test","ocean","0","{""ArrowUp,ArrowLeft"":26,""ArrowUp,ArrowRight"":10,""ArrowDown,ArrowLeft"":5,""ArrowDown,ArrowRight"":17}","true","ArrowDown,ArrowRight","","original","1","","","",""
"html-keyboard-response","290","1329516","0.0-5.0-10.0-1.4","spark_pilot_norest","8718","1","21","Female","","","","","","","","null","<div style=""font-size:60px;"">+</div>","null","fixation","","","","","","","","","","","",""
"revaluation","291","1329604","0.0-5.0-10.0-0.5","spark_pilot_norest","8718","1","21","Female","","false","","","","","","[86]","./assets/img/ocean/animals/seahorse.jpg","[""ArrowLeft""]","second stage test","ocean","0","{""ArrowUp,ArrowLeft"":26,""ArrowUp,ArrowRight"":10,""ArrowDown,ArrowLeft"":5,""ArrowDown,ArrowRight"":17}","false","ArrowDown,ArrowLeft","","original","1","","","",""
"html-keyboard-response","292","1330106","0.0-5.0-10.0-1.5","spark_pilot_norest","8718","1","21","Female","","","","","","","","null","<div style=""font-size:60px;"">+</div>","null","fixation","","","","","","","","","","","",""
"revaluation","293","1330234","0.0-5.0-10.0-0.6","spark_pilot_norest","8718","1","21","Female","","false","","","","","","[126]","./assets/img/ocean/animals/seahorse.jpg","[""ArrowLeft""]","second stage test","ocean","0","{""ArrowUp,ArrowLeft"":26,""ArrowUp,ArrowRight"":10,""ArrowDown,ArrowLeft"":5,""ArrowDown,ArrowRight"":17}","false","ArrowDown,ArrowLeft","","original","1","","","",""
"html-keyboard-response","294","1330735","0.0-5.0-10.0-1.6","spark_pilot_norest","8718","1","21","Female","","","","","","","","null","<div style=""font-size:60px;"">+</div>","null","fixation","","","","","","","","","","","",""
"revaluation","295","1330830","0.0-5.0-10.0-0.7","spark_pilot_norest","8718","1","21","Female","","false","","","","","","[92]","./assets/img/ocean/animals/seahorse.jpg","[""ArrowLeft""]","second stage test","ocean","0","{""ArrowUp,ArrowLeft"":26,""ArrowUp,ArrowRight"":10,""ArrowDown,ArrowLeft"":5,""ArrowDown,ArrowRight"":17}","false","ArrowDown,ArrowLeft","","original","1","","","",""
"html-keyboard-response","296","1331331","0.0-5.0-10.0-1.7","spark_pilot_norest","8718","1","21","Female","","","","","","","","null","<div style=""font-size:60px;"">+</div>","null","fixation","","","","","","","","","","","",""
"learning-instructions","297","1337762","0.0-5.0-0.1-0.2","spark_pilot_norest","8718","1","21","Female","","","","","","","","3672","<p> This time you are searching for treasure in the <b>canyon</b>.</p>","","instructions","","","","","","","","","","","",""
"learning-instructions","298","1362846","0.0-5.0-0.1-0.3","spark_pilot_norest","8718","1","21","Female","","","","","","","","7834","<p><b>New</b> animals with <b>new</b> treasure chests live here. You need to explore to discover where the animal with the best treasure chest is.</p>
                    <p> Like before, once you figure out which animal has the chest with the most treasure, you should try to get to that animal and select that chest! </p>","","instructions","","","","","","","","","","","",""
"learning-instructions","299","1379567","0.0-5.0-1.1-0.1","spark_pilot_norest","8718","1","21","Female","","","","","","","","1990","<p> Remember, when you see a picture of the place, use the up and down keys to <b>find an animal</b>.</p>
            <p> When you encounter an animal, you should use the left and right keys to <b>select a treasure chest</b>.</p>
            <p> Don't forget to look out for the robber! </p>","","instructions","","","","","","","","","","","",""
"revaluation","300","1385573","0.0-5.0-2.1-0.50","spark_pilot_norest","8718","1","21","Female","","false","","","","","","[1268,938]","./assets/img/canyon/memory/34.jpg","[""ArrowDown"",""ArrowRight""]","value training","canyon","30","{""ArrowUp,ArrowLeft"":23,""ArrowUp,ArrowRight"":10,""ArrowDown,ArrowLeft"":8,""ArrowDown,ArrowRight"":30}","true","ArrowDown,ArrowRight","false","revaluation","2","0","","",""
"html-keyboard-response","301","1386074","0.0-5.0-2.1-1.50","spark_pilot_norest","8718","1","21","Female","","","","","","","","null","<div style=""font-size:60px;"">+</div>","null","fixation","","","","","","","","","1","","",""
"revaluation","302","1392081","0.0-5.0-2.1-0.51","spark_pilot_norest","8718","1","21","Female","","false","","","","","","[304,400.00000000023283]","./assets/img/canyon/memory/32.jpg","[""ArrowDown"",""ArrowLeft""]","value training","canyon","8","{""ArrowUp,ArrowLeft"":23,""ArrowUp,ArrowRight"":10,""ArrowDown,ArrowLeft"":8,""ArrowDown,ArrowRight"":30}","false","ArrowDown,ArrowLeft","false","revaluation","2","2","","",""
"html-keyboard-response","303","1392582","0.0-5.0-2.1-1.51","spark_pilot_norest","8718","1","21","Female","","","","","","","","null","<div style=""font-size:60px;"">+</div>","null","fixation","","","","","","","","","3","","",""
"revaluation","304","1398589","0.0-5.0-2.1-0.52","spark_pilot_norest","8718","1","21","Female","","false","","","","","","[101,242]","./assets/img/canyon/memory/6.jpg","[""ArrowUp"",""ArrowRight""]","value training","canyon","10","{""ArrowUp,ArrowLeft"":23,""ArrowUp,ArrowRight"":10,""ArrowDown,ArrowLeft"":8,""ArrowDown,ArrowRight"":30}","false","ArrowUp,ArrowRight","false","revaluation","2","4","","",""
"html-keyboard-response","305","1399091","0.0-5.0-2.1-1.52","spark_pilot_norest","8718","1","21","Female","","","","","","","","null","<div style=""font-size:60px;"">+</div>","null","fixation","","","","","","","","","5","","",""
"revaluation","306","1405098","0.0-5.0-2.1-0.53","spark_pilot_norest","8718","1","21","Female","","false","","","","","","[191.00000000023283,265]","./assets/img/canyon/memory/1.jpg","[""ArrowUp"",""ArrowLeft""]","value training","canyon","23","{""ArrowUp,ArrowLeft"":23,""ArrowUp,ArrowRight"":10,""ArrowDown,ArrowLeft"":8,""ArrowDown,ArrowRight"":30}","false","ArrowUp,ArrowLeft","false","revaluation","2","6","","",""
"html-keyboard-response","307","1405600","0.0-5.0-2.1-1.53","spark_pilot_norest","8718","1","21","Female","","","","","","","","null","<div style=""font-size:60px;"">+</div>","null","fixation","","","","","","","","","7","","",""
"revaluation","308","1409604","0.0-5.0-2.1-0.54","spark_pilot_norest","8718","1","21","Female","","false","","","","","","[227]","./assets/img/canyon/catch/1.jpg","[""ArrowUp""]","value training","canyon","-10","{""ArrowUp,ArrowLeft"":23,""ArrowUp,ArrowRight"":10,""ArrowDown,ArrowLeft"":8,""ArrowDown,ArrowRight"":30}","false","ArrowUp","true","revaluation","2","8","","",""
"html-keyboard-response","309","1410106","0.0-5.0-2.1-1.54","spark_pilot_norest","8718","1","21","Female","","","","","","","","null","<div style=""font-size:60px;"">+</div>","null","fixation","","","","","","","","","9","","",""
"revaluation","310","1416112","0.0-5.0-2.1-0.55","spark_pilot_norest","8718","1","21","Female","","false","","","","","","[218,67]","./assets/img/canyon/memory/4.jpg","[""ArrowUp"",""ArrowLeft""]","value training","canyon","23","{""ArrowUp,ArrowLeft"":23,""ArrowUp,ArrowRight"":10,""ArrowDown,ArrowLeft"":8,""ArrowDown,ArrowRight"":30}","false","ArrowUp,ArrowLeft","false","revaluation","2","10","","",""
"html-keyboard-response","311","1416613","0.0-5.0-2.1-1.55","spark_pilot_norest","8718","1","21","Female","","","","","","","","null","<div style=""font-size:60px;"">+</div>","null","fixation","","","","","","","","","11","","",""
"revaluation","312","1420617","0.0-5.0-2.1-0.56","spark_pilot_norest","8718","1","21","Female","","false","","","","","","[227]","./assets/img/canyon/catch/0.jpg","[""ArrowDown""]","value training","canyon","-10","{""ArrowUp,ArrowLeft"":23,""ArrowUp,ArrowRight"":10,""ArrowDown,ArrowLeft"":8,""ArrowDown,ArrowRight"":30}","false","ArrowDown","true","revaluation","2","12","","",""
