"trial_type","trial_index","time_elapsed","internal_node_id","task_version","subject_id","assigned_condition","age","gender","success","timeout","failed_images","failed_audio","failed_video","browser_interaction","rt","stimulus","response","task_part","environment","score","rewardMap","correct","fullState","isCatch","condition","order","trial_num","key_press","ground_truth","bonus"
"pavlovia","0","1421","0.0-0.0","spark_pilot_norest","8661","2","16","Female","","","","","","","","","","","","","","","","","","","","","",""
"preload","1","24268","0.0-1.0","spark_pilot_norest","8661","2","16","Female","true","false","[]","[]","[]","[{""event"":""fullscreenenter"",""trial"":2,""time"":76142}]","","","","","","","","","","","","","","","",""
"fullscreen","2","77106","0.0-2.0","spark_pilot_norest","8661","2","16","Female","true","","","","","","","","","","","","","","","","","","","","",""
"audio-button-response","3","78634","0.0-3.0-0.0-0.0","spark_pilot_norest","8661","2","16","Female","","","","","","","1149","./assets/audio/audiotest/turtle.mp3","2","audio_test","","","","","","","","","","","",""
"learning-instructions","4","88300","0.0-3.0-1.0-0.0","spark_pilot_norest","8661","2","16","Female","","","","","","","2643.100000023842","<p> Welcome! Please remember to stay in fullscreen mode and don't click away from the experiment. </p>","","instructions","","","","","","","","","","","",""
"learning-instructions","5","98020","0.0-3.0-1.0-0.1","spark_pilot_norest","8661","2","16","Female","","","","","","","1286.4000000953674","<p> Today you will be playing a game to earn treasure. </p>
            <p> At the end of the experiment, you will earn a bonus based on how much treasure you find. </p>
            <img src='./assets/img/instructions/treasure.jpg' class='instructions-image'>","","instructions","","","","","","","","","","","",""
"learning-instructions","6","108316","0.0-3.0-1.0-0.2","spark_pilot_norest","8661","2","16","Female","","","","","","","2011.8999999761581","<p> Animals have hidden treasure in treasure chests. </p>
            <p> You need to first find an animal and then choose which of their treasure chests to search. </p>
            <img src='./assets/img/space/animals/cat.jpg' class='instructions-image'>","","instructions","","","","","","","","","","","",""
"learning-instructions","7","122575","0.0-3.0-1.0-0.3","spark_pilot_norest","8661","2","16","Female","","","","","","","1080.8999999761581","<p> In each round, you will search for treasure in a different place. In the real game, there will be two rounds. </p>
            <p> You will begin with a separate, practice round where you will search for treasure in outer space. </p>
            <img src='./assets/img/space/0.jpg' class='instructions-image'>","","instructions","","","","","","","","","","","",""
"learning-instructions","8","135405","0.0-3.0-1.0-0.4","spark_pilot_norest","8661","2","16","Female","","","","","","","1391.5","<p> On every turn, you will see a picture of the place that you are in, but the specific image may be different each time. </p>
            <p> For example, both of these images mean you are in outer space. </p>
            <img src='./assets/img/instructions/outerspace.jpg' class='instructions-image'>","","instructions","","","","","","","","","","","",""
"learning-instructions","9","147685","0.0-3.0-1.0-0.5","spark_pilot_norest","8661","2","16","Female","","","","","","","4440.5","<p> You need to decide which direction to travel in. </p>
            <p> You can choose between going <b>up or down</b> by using the arrow keys. </p>
            <img src='./assets/img/instructions/updown.jpg' class='instructions-image'>","","instructions","","","","","","","","","","","",""
"learning-instructions","10","162012","0.0-3.0-1.0-0.6","spark_pilot_norest","8661","2","16","Female","","","","","","","5487.699999928474","<p> You will have <b>2 seconds</b> to make your choice. </p>
            <p> If you do not make a choice within 2 seconds, you will not find an animal or earn treasure. </p>
            <img src='./assets/img/instructions/2seconds.jpg' class='instructions-image'>","","instructions","","","","","","","","","","","",""
"learning-instructions","11","170045","0.0-3.0-1.0-0.7","spark_pilot_norest","8661","2","16","Female","","","","","","","980.3999999761581","<p> Let’s try practicing that now! </p>
            <p> When you see a picture of the place you are in, press the <b>up</b> key to travel up. </p>
            <img src='./assets/img/instructions/pressUp.jpg' class='instructions-image'>","","instructions","","","","","","","","","","","",""
"revaluation","12","174078","0.0-3.0-2.0-0.0","spark_pilot_norest","8661","2","16","Female","","false","","","","","[501.6999999284744]","./assets/img/space/0.jpg","[""ArrowUp""]","first stage practice","space","0","null","null","ArrowUp","false","","","","","",""
"html-keyboard-response","13","174593","0.0-3.0-2.0-1.0","spark_pilot_norest","8661","2","16","Female","","","","","","","null","<div style=""font-size:60px;"">+</div>","null","fixation","","","","","","","","","","","",""
"revaluation","14","178605","0.0-3.0-2.0-0.1","spark_pilot_norest","8661","2","16","Female","","false","","","","","[477.60000002384186]","./assets/img/space/1.jpg","[""ArrowUp""]","first stage practice","space","0","null","null","ArrowUp","false","","","","","",""
"html-keyboard-response","15","179120","0.0-3.0-2.0-1.1","spark_pilot_norest","8661","2","16","Female","","","","","","","null","<div style=""font-size:60px;"">+</div>","null","fixation","","","","","","","","","","","",""
"revaluation","16","183135","0.0-3.0-2.0-0.2","spark_pilot_norest","8661","2","16","Female","","false","","","","","[584.8000000715256]","./assets/img/space/2.jpg","[""ArrowUp""]","first stage practice","space","0","null","null","ArrowUp","false","","","","","",""
"html-keyboard-response","17","183637","0.0-3.0-2.0-1.2","spark_pilot_norest","8661","2","16","Female","","","","","","","null","<div style=""font-size:60px;"">+</div>","null","fixation","","","","","","","","","","","",""
"learning-instructions","18","189110","0.0-3.0-3.0-0.0","spark_pilot_norest","8661","2","16","Female","","","","","","","766","<p> Great job! Now try pressing the <b>down</b> key to travel down. </p>
            <img src='./assets/img/instructions/pressDown.jpg' class='instructions-image'>","","instructions","","","","","","","","","","","",""
"revaluation","19","193140","0.0-3.0-4.0-0.0","spark_pilot_norest","8661","2","16","Female","","false","","","","","[1084.6000000238419]","./assets/img/space/3.jpg","[""ArrowDown""]","first stage practice","space","0","null","null","ArrowDown","false","","","","","",""
"html-keyboard-response","20","193655","0.0-3.0-4.0-1.0","spark_pilot_norest","8661","2","16","Female","","","","","","","null","<div style=""font-size:60px;"">+</div>","null","fixation","","","","","","","","","","","",""
"revaluation","21","197680","0.0-3.0-4.0-0.1","spark_pilot_norest","8661","2","16","Female","","false","","","","","[257.10000002384186]","./assets/img/space/4.jpg","[""ArrowDown""]","first stage practice","space","0","null","null","ArrowDown","false","","","","","",""
"html-keyboard-response","22","198193","0.0-3.0-4.0-1.1","spark_pilot_norest","8661","2","16","Female","","","","","","","null","<div style=""font-size:60px;"">+</div>","null","fixation","","","","","","","","","","","",""
"revaluation","23","202213","0.0-3.0-4.0-0.2","spark_pilot_norest","8661","2","16","Female","","false","","","","","[878.9000000953674]","./assets/img/space/5.jpg","[""ArrowDown""]","first stage practice","space","0","null","null","ArrowDown","false","","","","","",""
"html-keyboard-response","24","202715","0.0-3.0-4.0-1.2","spark_pilot_norest","8661","2","16","Female","","","","","","","null","<div style=""font-size:60px;"">+</div>","null","fixation","","","","","","","","","","","",""
"learning-instructions","25","216204","0.0-3.0-5.0-0.0","spark_pilot_norest","8661","2","16","Female","","","","","","","3601.100000023842","<p> The animals don’t move, so the animal in the upper part of a place will stay in the upper part of a place, and the animal in the lower part of a place will stay in the lower part of a place. </p>","","instructions","","","","","","","","","","","",""
"learning-instructions","26","226453","0.0-3.0-5.0-0.1","spark_pilot_norest","8661","2","16","Female","","","","","","","1109.6999999284744","<p> Each animal has two treasure chests for you to choose from. </p>
            <p> The amount of treasure in each chest can range from <b> 0 to 40 pieces.</b></p>","","instructions","","","","","","","","","","","",""
"learning-instructions","27","238677","0.0-3.0-5.0-0.2","spark_pilot_norest","8661","2","16","Female","","","","","","","1013","<p> You should decide which chest to search for treasure by using the <b>left</b> and <b>right</b> arrow keys. </p>
            <p><b> Pay attention to which animal is on the screen, as the animals have different treasure chests. </b></p>
            <img src='./assets/img/instructions/leftright.jpg' class='instructions-image'>","","instructions","","","","","","","","","","","",""
"learning-instructions","28","245548","0.0-3.0-5.0-0.3","spark_pilot_norest","8661","2","16","Female","","","","","","","493.7000000476837","<p> Let’s try practicing that now. </p>
            <p> When you see an animal, choose which chest to search for treasure. </p>
            <img src='./assets/img/instructions/chooseChest.jpg' class='instructions-image'>","","instructions","","","","","","","","","","","",""
"revaluation","29","249584","0.0-3.0-6.0-0.0","spark_pilot_norest","8661","2","16","Female","","false","","","","","[1070.3999999761581]","./assets/img/space/animals/cat.jpg","[""ArrowLeft""]","second stage practice","space","3","{""ArrowUp,ArrowLeft"":3,""ArrowUp,ArrowRight"":36,""ArrowDown,ArrowLeft"":15,""ArrowDown,ArrowRight"":23}","false","ArrowUp,ArrowLeft","","","","","","",""
"html-keyboard-response","30","250097","0.0-3.0-6.0-1.0","spark_pilot_norest","8661","2","16","Female","","","","","","","null","<div style=""font-size:60px;"">+</div>","null","fixation","","","","","","","","","","","",""
"revaluation","31","254113","0.0-3.0-6.0-0.1","spark_pilot_norest","8661","2","16","Female","","false","","","","","[252.19999992847443]","./assets/img/space/animals/cat.jpg","[""ArrowRight""]","second stage practice","space","36","{""ArrowUp,ArrowLeft"":3,""ArrowUp,ArrowRight"":36,""ArrowDown,ArrowLeft"":15,""ArrowDown,ArrowRight"":23}","true","ArrowUp,ArrowRight","","","","","","",""
"html-keyboard-response","32","254628","0.0-3.0-6.0-1.1","spark_pilot_norest","8661","2","16","Female","","","","","","","null","<div style=""font-size:60px;"">+</div>","null","fixation","","","","","","","","","","","",""
"revaluation","33","258657","0.0-3.0-6.0-0.2","spark_pilot_norest","8661","2","16","Female","","false","","","","","[888.3000000715256]","./assets/img/space/animals/rabbit.jpg","[""ArrowRight""]","second stage practice","space","23","{""ArrowUp,ArrowLeft"":3,""ArrowUp,ArrowRight"":36,""ArrowDown,ArrowLeft"":15,""ArrowDown,ArrowRight"":23}","true","ArrowDown,ArrowRight","","","","","","",""
"html-keyboard-response","34","259173","0.0-3.0-6.0-1.2","spark_pilot_norest","8661","2","16","Female","","","","","","","null","<div style=""font-size:60px;"">+</div>","null","fixation","","","","","","","","","","","",""
"revaluation","35","263199","0.0-3.0-6.0-0.3","spark_pilot_norest","8661","2","16","Female","","false","","","","","[810.5]","./assets/img/space/animals/rabbit.jpg","[""ArrowRight""]","second stage practice","space","23","{""ArrowUp,ArrowLeft"":3,""ArrowUp,ArrowRight"":36,""ArrowDown,ArrowLeft"":15,""ArrowDown,ArrowRight"":23}","true","ArrowDown,ArrowRight","","","","","","",""
"html-keyboard-response","36","263714","0.0-3.0-6.0-1.3","spark_pilot_norest","8661","2","16","Female","","","","","","","null","<div style=""font-size:60px;"">+</div>","null","fixation","","","","","","","","","","","",""
"learning-instructions","37","281912","0.0-3.0-7.0-0.0","spark_pilot_norest","8661","2","16","Female","","","","","","","1347.8999999761581","<p> Great job. Now let’s try putting it together. </p>
            <p> On each turn, you will first see a picture to remind you of the place you are in, and you need to choose whether to go up or down. </p>
            <p> Then you will see an animal and choose which of its chests to search for treasure. </p>","","instructions","","","","","","","","","","","",""
"learning-instructions","38","290533","0.0-3.0-7.0-0.1","spark_pilot_norest","8661","2","16","Female","","","","","","","349","<p> When you choose whether to go up or down, try to go to the animal with the chest with the most treasure. </p>
            <p> Try practicing that now! </p>","","instructions","","","","","","","","","","","",""
"revaluation","39","296573","0.0-3.0-8.0-0.0","spark_pilot_norest","8661","2","16","Female","","false","","","","","[1753.5,1536]","./assets/img/space/6.jpg","[""ArrowUp"",""ArrowRight""]","full practice","space","36","{""ArrowUp,ArrowLeft"":3,""ArrowUp,ArrowRight"":36,""ArrowDown,ArrowLeft"":15,""ArrowDown,ArrowRight"":23}","true","ArrowUp,ArrowRight","false","","","","","",""
"html-keyboard-response","40","297087","0.0-3.0-8.0-1.0","spark_pilot_norest","8661","2","16","Female","","","","","","","null","<div style=""font-size:60px;"">+</div>","null","fixation","","","","","","","","","","","",""
"revaluation","41","303117","0.0-3.0-8.0-0.1","spark_pilot_norest","8661","2","16","Female","","false","","","","","[27.800000071525574,270.39999997615814]","./assets/img/space/7.jpg","[""ArrowUp"",""ArrowRight""]","full practice","space","36","{""ArrowUp,ArrowLeft"":3,""ArrowUp,ArrowRight"":36,""ArrowDown,ArrowLeft"":15,""ArrowDown,ArrowRight"":23}","true","ArrowUp,ArrowRight","false","","","","","",""
"html-keyboard-response","42","303633","0.0-3.0-8.0-1.1","spark_pilot_norest","8661","2","16","Female","","","","","","","null","<div style=""font-size:60px;"">+</div>","null","fixation","","","","","","","","","","","",""
"revaluation","43","309671","0.0-3.0-8.0-0.2","spark_pilot_norest","8661","2","16","Female","","false","","","","","[309.1999999284744,285.8000000715256]","./assets/img/space/8.jpg","[""ArrowUp"",""ArrowRight""]","full practice","space","36","{""ArrowUp,ArrowLeft"":3,""ArrowUp,ArrowRight"":36,""ArrowDown,ArrowLeft"":15,""ArrowDown,ArrowRight"":23}","true","ArrowUp,ArrowRight","false","","","","","",""
"html-keyboard-response","44","310173","0.0-3.0-8.0-1.2","spark_pilot_norest","8661","2","16","Female","","","","","","","null","<div style=""font-size:60px;"">+</div>","null","fixation","","","","","","","","","","","",""
"revaluation","45","316211","0.0-3.0-8.0-0.3","spark_pilot_norest","8661","2","16","Female","","false","","","","","[507.8000000715256,403.39999997615814]","./assets/img/space/9.jpg","[""ArrowUp"",""ArrowRight""]","full practice","space","36","{""ArrowUp,ArrowLeft"":3,""ArrowUp,ArrowRight"":36,""ArrowDown,ArrowLeft"":15,""ArrowDown,ArrowRight"":23}","true","ArrowUp,ArrowRight","false","","","","","",""
"html-keyboard-response","46","316726","0.0-3.0-8.0-1.3","spark_pilot_norest","8661","2","16","Female","","","","","","","null","<div style=""font-size:60px;"">+</div>","null","fixation","","","","","","","","","","","",""
"revaluation","47","322739","0.0-3.0-8.0-0.4","spark_pilot_norest","8661","2","16","Female","","false","","","","","[270.7000000476837,307.39999997615814]","./assets/img/space/10.jpg","[""ArrowUp"",""ArrowRight""]","full practice","space","36","{""ArrowUp,ArrowLeft"":3,""ArrowUp,ArrowRight"":36,""ArrowDown,ArrowLeft"":15,""ArrowDown,ArrowRight"":23}","true","ArrowUp,ArrowRight","false","","","","","",""
"html-keyboard-response","48","323240","0.0-3.0-8.0-1.4","spark_pilot_norest","8661","2","16","Female","","","","","","","null","<div style=""font-size:60px;"">+</div>","null","fixation","","","","","","","","","","","",""
"learning-instructions","49","334712","0.0-3.0-9.0-0.0","spark_pilot_norest","8661","2","16","Female","","","","","","","1156.5","<p> One last thing: sometimes, you will see a robber. The robber can be anywhere in the picture. </p>
            <p> If you do not stop them, you will lose treasure. </p>
            <img src='./assets/img/instructions/robber.jpg' class='instructions-image'>","","instructions","","","","","","","","","","","",""
"learning-instructions","50","343032","0.0-3.0-9.0-0.1","spark_pilot_norest","8661","2","16","Female","","","","","","","1146.6999999284744","<p> If you see the robber, you should <b>press the space bar</b> rather than using the arrow keys. </p>
            <p> Try practicing that now! </p>","","instructions","","","","","","","","","","","",""
"revaluation","51","347051","0.0-3.0-10.0-0.0","spark_pilot_norest","8661","2","16","Female","","false","","","","","[841.1000000238419]","./assets/img/space/catch/0.jpg","[""spaceBar""]","catch practice","space","0","{""ArrowUp,ArrowLeft"":3,""ArrowUp,ArrowRight"":36,""ArrowDown,ArrowLeft"":15,""ArrowDown,ArrowRight"":23}","true","spaceBar","true","","","","","",""
"html-keyboard-response","52","347565","0.0-3.0-10.0-1.0","spark_pilot_norest","8661","2","16","Female","","","","","","","null","<div style=""font-size:60px;"">+</div>","null","fixation","","","","","","","","","","","",""
"revaluation","53","351588","0.0-3.0-10.0-0.1","spark_pilot_norest","8661","2","16","Female","","false","","","","","[403.5]","./assets/img/space/catch/1.jpg","[""spaceBar""]","catch practice","space","0","{""ArrowUp,ArrowLeft"":3,""ArrowUp,ArrowRight"":36,""ArrowDown,ArrowLeft"":15,""ArrowDown,ArrowRight"":23}","true","spaceBar","true","","","","","",""
"html-keyboard-response","54","352103","0.0-3.0-10.0-1.1","spark_pilot_norest","8661","2","16","Female","","","","","","","null","<div style=""font-size:60px;"">+</div>","null","fixation","","","","","","","","","","","",""
"revaluation","55","356116","0.0-3.0-10.0-0.2","spark_pilot_norest","8661","2","16","Female","","false","","","","","[124.60000002384186]","./assets/img/space/catch/2.jpg","[""spaceBar""]","catch practice","space","0","{""ArrowUp,ArrowLeft"":3,""ArrowUp,ArrowRight"":36,""ArrowDown,ArrowLeft"":15,""ArrowDown,ArrowRight"":23}","true","spaceBar","true","","","","","",""
"html-keyboard-response","56","356631","0.0-3.0-10.0-1.2","spark_pilot_norest","8661","2","16","Female","","","","","","","null","<div style=""font-size:60px;"">+</div>","null","fixation","","","","","","","","","","","",""
"learning-instructions","57","364489","0.0-3.0-11.0-0.0-0.0","spark_pilot_norest","8661","2","16","Female","","","","","","","2574.0999999046326","<p> Now, you will practice a shortened version of the game to get a sense of how it all fits together. </p>","","instructions","","","","","","","","","","","",""
"learning-instructions","58","368817","0.0-3.0-11.0-0.0-0.1","spark_pilot_norest","8661","2","16","Female","","","","","","","1132","<p>This time you are searching for treasure in outer space.</p>","","instructions","","","","","","","","","","","",""
"learning-instructions","59","404450","0.0-3.0-11.0-1.0-0.0","spark_pilot_norest","8661","2","16","Female","","","","","","","20824.900000095367","<p> Remember, when you see a picture of the place, use the up and down keys to <b>find an animal</b>.</p>
            <p> When you encounter an animal, you should use the left and right keys to <b>select a treasure chest</b>.</p>
            <p> Don't forget to look out for the robber! </p>","","instructions","","","","","","","","","","","",""
"revaluation","60","410485","0.0-3.0-11.0-2.0-0.0","spark_pilot_norest","8661","2","16","Female","","false","","","","","[983,273.1999999284744]","./assets/img/space/11.jpg","[""ArrowUp"",""ArrowRight""]","practice block","space","36","{""ArrowUp,ArrowLeft"":3,""ArrowUp,ArrowRight"":36,""ArrowDown,ArrowLeft"":15,""ArrowDown,ArrowRight"":23}","true","ArrowUp,ArrowRight","false","","","","","",""
"html-keyboard-response","61","410989","0.0-3.0-11.0-2.0-1.0","spark_pilot_norest","8661","2","16","Female","","","","","","","null","<div style=""font-size:60px;"">+</div>","null","fixation","","","","","","","","","","","",""
"revaluation","62","417011","0.0-3.0-11.0-2.0-0.1","spark_pilot_norest","8661","2","16","Female","","false","","","","","[340,356.39999997615814]","./assets/img/space/12.jpg","[""ArrowUp"",""ArrowRight""]","practice block","space","36","{""ArrowUp,ArrowLeft"":3,""ArrowUp,ArrowRight"":36,""ArrowDown,ArrowLeft"":15,""ArrowDown,ArrowRight"":23}","true","ArrowUp,ArrowRight","false","","","","","",""
"html-keyboard-response","63","417526","0.0-3.0-11.0-2.0-1.1","spark_pilot_norest","8661","2","16","Female","","","","","","","null","<div style=""font-size:60px;"">+</div>","null","fixation","","","","","","","","","","","",""
"revaluation","64","423537","0.0-3.0-11.0-2.0-0.2","spark_pilot_norest","8661","2","16","Female","","false","","","","","[708.6999999284744,382.3000000715256]","./assets/img/space/13.jpg","[""ArrowUp"",""ArrowRight""]","practice block","space","36","{""ArrowUp,ArrowLeft"":3,""ArrowUp,ArrowRight"":36,""ArrowDown,ArrowLeft"":15,""ArrowDown,ArrowRight"":23}","true","ArrowUp,ArrowRight","false","","","","","",""
"html-keyboard-response","65","424039","0.0-3.0-11.0-2.0-1.2","spark_pilot_norest","8661","2","16","Female","","","","","","","null","<div style=""font-size:60px;"">+</div>","null","fixation","","","","","","","","","","","",""
"revaluation","66","430061","0.0-3.0-11.0-2.0-0.3","spark_pilot_norest","8661","2","16","Female","","false","","","","","[511.5,422.2000000476837]","./assets/img/space/14.jpg","[""ArrowUp"",""ArrowRight""]","practice block","space","36","{""ArrowUp,ArrowLeft"":3,""ArrowUp,ArrowRight"":36,""ArrowDown,ArrowLeft"":15,""ArrowDown,ArrowRight"":23}","true","ArrowUp,ArrowRight","false","","","","","",""
"html-keyboard-response","67","430562","0.0-3.0-11.0-2.0-1.3","spark_pilot_norest","8661","2","16","Female","","","","","","","null","<div style=""font-size:60px;"">+</div>","null","fixation","","","","","","","","","","","",""
"revaluation","68","436580","0.0-3.0-11.0-2.0-0.4","spark_pilot_norest","8661","2","16","Female","","false","","","","","[790.7000000476837,388.89999997615814]","./assets/img/space/11.jpg","[""ArrowUp"",""ArrowRight""]","practice block","space","36","{""ArrowUp,ArrowLeft"":3,""ArrowUp,ArrowRight"":36,""ArrowDown,ArrowLeft"":15,""ArrowDown,ArrowRight"":23}","true","ArrowUp,ArrowRight","false","","","","","",""
"html-keyboard-response","69","437082","0.0-3.0-11.0-2.0-1.4","spark_pilot_norest","8661","2","16","Female","","","","","","","null","<div style=""font-size:60px;"">+</div>","null","fixation","","","","","","","","","","","",""
"revaluation","70","443089","0.0-3.0-11.0-2.0-0.5","spark_pilot_norest","8661","2","16","Female","","false","","","","","[398.89999997615814,425]","./assets/img/space/12.jpg","[""ArrowUp"",""ArrowRight""]","practice block","space","36","{""ArrowUp,ArrowLeft"":3,""ArrowUp,ArrowRight"":36,""ArrowDown,ArrowLeft"":15,""ArrowDown,ArrowRight"":23}","true","ArrowUp,ArrowRight","false","","","","","",""
"html-keyboard-response","71","443593","0.0-3.0-11.0-2.0-1.5","spark_pilot_norest","8661","2","16","Female","","","","","","","null","<div style=""font-size:60px;"">+</div>","null","fixation","","","","","","","","","","","",""
"revaluation","72","449627","0.0-3.0-11.0-2.0-0.6","spark_pilot_norest","8661","2","16","Female","","false","","","","","[785.8999999761581,495.89999997615814]","./assets/img/space/13.jpg","[""ArrowUp"",""ArrowRight""]","practice block","space","36","{""ArrowUp,ArrowLeft"":3,""ArrowUp,ArrowRight"":36,""ArrowDown,ArrowLeft"":15,""ArrowDown,ArrowRight"":23}","true","ArrowUp,ArrowRight","false","","","","","",""
"html-keyboard-response","73","450129","0.0-3.0-11.0-2.0-1.6","spark_pilot_norest","8661","2","16","Female","","","","","","","null","<div style=""font-size:60px;"">+</div>","null","fixation","","","","","","","","","","","",""
"revaluation","74","456137","0.0-3.0-11.0-2.0-0.7","spark_pilot_norest","8661","2","16","Female","","false","","","","","[550.7999999523163,758.8999999761581]","./assets/img/space/14.jpg","[""ArrowUp"",""ArrowRight""]","practice block","space","36","{""ArrowUp,ArrowLeft"":3,""ArrowUp,ArrowRight"":36,""ArrowDown,ArrowLeft"":15,""ArrowDown,ArrowRight"":23}","true","ArrowUp,ArrowRight","false","","","","","",""
"html-keyboard-response","75","456652","0.0-3.0-11.0-2.0-1.7","spark_pilot_norest","8661","2","16","Female","","","","","","","null","<div style=""font-size:60px;"">+</div>","null","fixation","","","","","","","","","","","",""
"revaluation","76","460658","0.0-3.0-11.0-2.0-0.8","spark_pilot_norest","8661","2","16","Female","","false","","","","","[606]","./assets/img/space/catch/3.jpg","[""spaceBar""]","practice block","space","0","{""ArrowUp,ArrowLeft"":3,""ArrowUp,ArrowRight"":36,""ArrowDown,ArrowLeft"":15,""ArrowDown,ArrowRight"":23}","true","spaceBar","true","","","","","",""
"html-keyboard-response","77","461161","0.0-3.0-11.0-2.0-1.8","spark_pilot_norest","8661","2","16","Female","","","","","","","null","<div style=""font-size:60px;"">+</div>","null","fixation","","","","","","","","","","","",""
"learning-instructions","78","502485","0.0-3.0-11.0-3.0-0.0","spark_pilot_norest","8661","2","16","Female","","","","","","","28003.899999976158","<p> Now, you will travel with a friend who will choose whether you go up or down first. </p>
            <p> On these turns, you will just see the animal that they found. You will still get to choose which chest to search for treasure.</p>","","instructions","","","","","","","","","","","",""
"revaluation","79","506506","0.0-3.0-11.0-4.0-0.0","spark_pilot_norest","8661","2","16","Female","","false","","","","","[1036.5999999046326]","./assets/img/space/animals/cat.jpg","[""ArrowRight""]","practice block","space","36","{""ArrowUp,ArrowLeft"":3,""ArrowUp,ArrowRight"":36,""ArrowDown,ArrowLeft"":15,""ArrowDown,ArrowRight"":23}","true","ArrowUp,ArrowRight","","","","","","",""
"html-keyboard-response","80","507008","0.0-3.0-11.0-4.0-1.0","spark_pilot_norest","8661","2","16","Female","","","","","","","null","<div style=""font-size:60px;"">+</div>","null","fixation","","","","","","","","","","","",""
"revaluation","81","511023","0.0-3.0-11.0-4.0-0.1","spark_pilot_norest","8661","2","16","Female","","false","","","","","[414.8000000715256]","./assets/img/space/animals/rabbit.jpg","[""ArrowRight""]","practice block","space","23","{""ArrowUp,ArrowLeft"":3,""ArrowUp,ArrowRight"":36,""ArrowDown,ArrowLeft"":15,""ArrowDown,ArrowRight"":23}","true","ArrowDown,ArrowRight","","","","","","",""
"html-keyboard-response","82","511525","0.0-3.0-11.0-4.0-1.1","spark_pilot_norest","8661","2","16","Female","","","","","","","null","<div style=""font-size:60px;"">+</div>","null","fixation","","","","","","","","","","","",""
"revaluation","83","515532","0.0-3.0-11.0-4.0-0.2","spark_pilot_norest","8661","2","16","Female","","false","","","","","[314.8000000715256]","./assets/img/space/animals/rabbit.jpg","[""ArrowRight""]","practice block","space","23","{""ArrowUp,ArrowLeft"":3,""ArrowUp,ArrowRight"":36,""ArrowDown,ArrowLeft"":15,""ArrowDown,ArrowRight"":23}","true","ArrowDown,ArrowRight","","","","","","",""
"html-keyboard-response","84","516034","0.0-3.0-11.0-4.0-1.2","spark_pilot_norest","8661","2","16","Female","","","","","","","null","<div style=""font-size:60px;"">+</div>","null","fixation","","","","","","","","","","","",""
"revaluation","85","520041","0.0-3.0-11.0-4.0-0.3","spark_pilot_norest","8661","2","16","Female","","false","","","","","[574.2000000476837]","./assets/img/space/animals/cat.jpg","[""ArrowRight""]","practice block","space","36","{""ArrowUp,ArrowLeft"":3,""ArrowUp,ArrowRight"":36,""ArrowDown,ArrowLeft"":15,""ArrowDown,ArrowRight"":23}","true","ArrowUp,ArrowRight","","","","","","",""
"html-keyboard-response","86","520543","0.0-3.0-11.0-4.0-1.3","spark_pilot_norest","8661","2","16","Female","","","","","","","null","<div style=""font-size:60px;"">+</div>","null","fixation","","","","","","","","","","","",""
"learning-instructions","87","529077","0.0-3.0-11.0-5.0-0.0","spark_pilot_norest","8661","2","16","Female","","","","","","","null","<p> You have almost finished this part of the game! </p>
            <p> We are going to ask you to make a few more choices. </p>","","instructions","","","","","","","","","","","",""
"learning-instructions","88","545111","0.0-3.0-11.0-5.0-0.1","spark_pilot_norest","8661","2","16","Female","","","","","","","null","<p> First, you need to decide whether to go up or down. When you see each picture, use the arrow keys to make your choice. </p>
            <p><b>You will not see which animal you found, but try to get to the one that will give you the most treasure.</b></p>","","instructions","","","","","","","","","","","",""
"html-keyboard-response","89","546126","0.0-3.0-11.0-6.0-0.0","spark_pilot_norest","8661","2","16","Female","","","","","","","null","<div style=""font-size:100px;color:red;"">Starting in...</div>","null","","","","","","","","","","","","",""
"html-keyboard-response","90","547128","0.0-3.0-11.0-6.0-1.0","spark_pilot_norest","8661","2","16","Female","","","","","","","null","<div style=""font-size:200px;color:red;"">3</div>","null","","","","","","","","","","","","",""
"html-keyboard-response","91","548131","0.0-3.0-11.0-6.0-2.0","spark_pilot_norest","8661","2","16","Female","","","","","","","null","<div style=""font-size:200px;color:red;"">2</div>","null","","","","","","","","","","","","",""
"html-keyboard-response","92","549133","0.0-3.0-11.0-6.0-3.0","spark_pilot_norest","8661","2","16","Female","","","","","","","null","<div style=""font-size:200px;color:red;"">1</div>","null","","","","","","","","","","","","",""
"revaluation","93","550063","0.0-3.0-11.0-7.0","spark_pilot_norest","8661","2","16","Female","","false","","","","","[925.5]","./assets/img/space/15.jpg","[""ArrowUp""]","practice block","space","0","{""ArrowUp,ArrowLeft"":3,""ArrowUp,ArrowRight"":36,""ArrowDown,ArrowLeft"":15,""ArrowDown,ArrowRight"":23}","true","ArrowUp","false","","","","","",""
"html-keyboard-response","94","550564","0.0-3.0-11.0-8.0","spark_pilot_norest","8661","2","16","Female","","","","","","","null","<div style=""font-size:60px;"">+</div>","null","fixation","","","","","","","","","","","",""
"learning-instructions","95","563972","0.0-3.0-11.0-9.0-0.0","spark_pilot_norest","8661","2","16","Female","","","","","","","null","<p> Now you will see the animals again and can search their chests for treasure. </p>
            <p> This time, you will not see how much treasure you earned, but you will earn more bonus money for making better choices. </p>","","instructions","","","","","","","","","","","",""
"html-keyboard-response","96","564976","0.0-3.0-11.0-10.0-0.0","spark_pilot_norest","8661","2","16","Female","","","","","","","null","<div style=""font-size:100px;color:red;"">Starting in...</div>","null","","","","","","","","","","","","",""
"html-keyboard-response","97","565984","0.0-3.0-11.0-10.0-1.0","spark_pilot_norest","8661","2","16","Female","","","","","","","null","<div style=""font-size:200px;color:red;"">3</div>","null","","","","","","","","","","","","",""
"html-keyboard-response","98","566989","0.0-3.0-11.0-10.0-2.0","spark_pilot_norest","8661","2","16","Female","","","","","","","null","<div style=""font-size:200px;color:red;"">2</div>","null","","","","","","","","","","","","",""
"html-keyboard-response","99","567992","0.0-3.0-11.0-10.0-3.0","spark_pilot_norest","8661","2","16","Female","","","","","","","null","<div style=""font-size:200px;color:red;"">1</div>","null","","","","","","","","","","","","",""
"revaluation","100","568416","0.0-3.0-11.0-11.0-0.0","spark_pilot_norest","8661","2","16","Female","","false","","","","","[419]","./assets/img/space/animals/cat.jpg","[""ArrowLeft""]","practice block","space","0","{""ArrowUp,ArrowLeft"":3,""ArrowUp,ArrowRight"":36,""ArrowDown,ArrowLeft"":15,""ArrowDown,ArrowRight"":23}","false","ArrowUp,ArrowLeft","","","","","","",""
"html-keyboard-response","101","568919","0.0-3.0-11.0-11.0-1.0","spark_pilot_norest","8661","2","16","Female","","","","","","","null","<div style=""font-size:60px;"">+</div>","null","fixation","","","","","","","","","","","",""
"revaluation","102","569650","0.0-3.0-11.0-11.0-0.1","spark_pilot_norest","8661","2","16","Female","","false","","","","","[726.1000000238419]","./assets/img/space/animals/rabbit.jpg","[""ArrowRight""]","practice block","space","0","{""ArrowUp,ArrowLeft"":3,""ArrowUp,ArrowRight"":36,""ArrowDown,ArrowLeft"":15,""ArrowDown,ArrowRight"":23}","true","ArrowDown,ArrowRight","","","","","","",""
"html-keyboard-response","103","570159","0.0-3.0-11.0-11.0-1.1","spark_pilot_norest","8661","2","16","Female","","","","","","","null","<div style=""font-size:60px;"">+</div>","null","fixation","","","","","","","","","","","",""
"learning-instructions","104","578247","0.0-3.0-12.0-0.0","spark_pilot_norest","8661","2","16","Female","","","","","","","3499.899999976158","<p> Before you start, we're going to ask you a few questions about how the game works. </p>","","instructions","","","","","","","","","","","",""
"comp-q","105","585452","0.0-3.0-13.0-0.0-0.0","spark_pilot_norest","8661","2","16","Female","","","","","","","1608.2000000476837","<p> <b> True or False? </b> </p>
            <p> There can be 50 pieces of treasure in a given animal's chest. </p>","1","comp_question","","","","true","","","","","","","",""
"comp-q","106","593078","0.0-3.0-13.0-0.0-1.0","spark_pilot_norest","8661","2","16","Female","","","","","","","951.2000000476837","<p> <b> That's right! </b> The amount of treasure in each chest can range from 0 to 40 pieces. </p>","0","comp_answer","","","","","","","","","","","",""
"comp-q","107","601018","0.0-3.0-13.0-0.1-0.1","spark_pilot_norest","8661","2","16","Female","","","","","","","811","<p> <b> True or False? </b> </p><p> In this game, all animals have the same amount of treasure in their left and right chests. </p>","1","comp_question","","","","true","","","","","","","",""
"comp-q","108","608527","0.0-3.0-13.0-0.1-1.1","spark_pilot_norest","8661","2","16","Female","","","","","","","2260","<p> <b> That's right! </b> Animals have different amounts of treasure in their treasure chests. </p>","0","comp_answer","","","","","","","","","","","",""
"comp-q","109","615328","0.0-3.0-13.0-0.2-0.2","spark_pilot_norest","8661","2","16","Female","","","","","","","931.1999999284744","<p> <b> True or False? </b> </p><p> The same animal will always be there if you go up in the same place. </p>","0","comp_question","","","","true","","","","","","","",""
"comp-q","110","626589","0.0-3.0-13.0-0.2-1.2","spark_pilot_norest","8661","2","16","Female","","","","","","","4802.799999952316","<p> <b> That's right! </b> One animal lives in the upper part and one lives in the lower part of every place. </p>","0","comp_answer","","","","","","","","","","","",""
"comp-q","111","632838","0.0-3.0-13.0-0.3-0.3","spark_pilot_norest","8661","2","16","Female","","","","","","","720.3999999761581","<p> <b> True or False? </b> </p><p> If you see a different picture, it means you are in a new place. </p>","0","comp_question","","","","false","","","","","","","",""
"comp-q","112","644793","0.0-3.0-13.0-0.3-1.3","spark_pilot_norest","8661","2","16","Female","","","","","","","836.3999999761581","<p> <b>Incorrect.</b> Lots of different images may show the same place. For example,  you may see three different images that all remind you that you are in outer space. </p>","0","comp_answer","","","","","","","","","","","",""
"comp-q","113","651171","0.0-3.0-13.0-0.4-0.4","spark_pilot_norest","8661","2","16","Female","","","","","","","863.5","<p> <b> True or False? </b> </p><p> If you see a different picture, it means you are in a new place. </p>","1","comp_question","","","","true","","","","","","","",""
"comp-q","114","664588","0.0-3.0-13.0-0.4-1.4","spark_pilot_norest","8661","2","16","Female","","","","","","","2162.5","<p> <b> That's right! </b> Lots of different images may show the same place. For example,  you may see three different images that all remind you that you are in outer space. </p>","0","comp_answer","","","","","","","","","","","",""
"learning-instructions","115","676091","0.0-3.0-14.0-0.0","spark_pilot_norest","8661","2","16","Female","","","","","","","1625.2000000476837","<p> Good job. Remember to do your best because the amount of treasure you earn will be converted into bonus money. </p>
            <p> It’s time to start the real game! </p>","","instructions","","","","","","","","","","","",""
"learning-instructions","116","679661","0.0-4.0-0.0-0.0","spark_pilot_norest","8661","2","16","Female","","","","","","","854.3000000715256","<p> This time you are searching for treasure in the <b>ocean</b>.</p>","","instructions","","","","","","","","","","","",""
"learning-instructions","117","697986","0.0-4.0-0.0-0.1","spark_pilot_norest","8661","2","16","Female","","","","","","","999.7999999523163","<p><b>New</b> animals with <b>new</b> treasure chests live here. You need to explore to discover where the animal with the best treasure chest is.</p>
                    <p> Like before, once you figure out which animal has the chest with the most treasure, you should try to get to that animal and select that chest! </p>","","instructions","","","","","","","","","","","",""
"learning-instructions","118","715238","0.0-4.0-1.0-0.0","spark_pilot_norest","8661","2","16","Female","","","","","","","2522","<p> Remember, when you see a picture of the place, use the up and down keys to <b>find an animal</b>.</p>
            <p> When you encounter an animal, you should use the left and right keys to <b>select a treasure chest</b>.</p>
            <p> Don't forget to look out for the robber! </p>","","instructions","","","","","","","","","","","",""
"revaluation","119","721269","0.0-4.0-2.0-0.0","spark_pilot_norest","8661","2","16","Female","","false","","","","","[969.3999999761581,370.10000002384186]","./assets/img/ocean/memory/20.jpg","[""ArrowUp"",""ArrowRight""]","value training","ocean","10","{""ArrowUp,ArrowLeft"":23,""ArrowUp,ArrowRight"":10,""ArrowDown,ArrowLeft"":8,""ArrowDown,ArrowRight"":30}","false","ArrowUp,ArrowRight","false","revaluation","1","0","","",""
"html-keyboard-response","120","721782","0.0-4.0-2.0-1.0","spark_pilot_norest","8661","2","16","Female","","","","","","","null","<div style=""font-size:60px;"">+</div>","null","fixation","","","","","","","","","1","","",""
"revaluation","121","727802","0.0-4.0-2.0-0.1","spark_pilot_norest","8661","2","16","Female","","false","","","","","[327.7999999523163,442.2999999523163]","./assets/img/ocean/memory/30.jpg","[""ArrowUp"",""ArrowLeft""]","value training","ocean","23","{""ArrowUp,ArrowLeft"":23,""ArrowUp,ArrowRight"":10,""ArrowDown,ArrowLeft"":8,""ArrowDown,ArrowRight"":30}","false","ArrowUp,ArrowLeft","false","revaluation","1","2","","",""
"html-keyboard-response","122","728315","0.0-4.0-2.0-1.1","spark_pilot_norest","8661","2","16","Female","","","","","","","null","<div style=""font-size:60px;"">+</div>","null","fixation","","","","","","","","","3","","",""
"revaluation","123","734335","0.0-4.0-2.0-0.2","spark_pilot_norest","8661","2","16","Female","","false","","","","","[263,383.5]","./assets/img/ocean/memory/38.jpg","[""ArrowDown"",""ArrowLeft""]","value training","ocean","8","{""ArrowUp,ArrowLeft"":23,""ArrowUp,ArrowRight"":10,""ArrowDown,ArrowLeft"":8,""ArrowDown,ArrowRight"":30}","false","ArrowDown,ArrowLeft","false","revaluation","1","4","","",""
"html-keyboard-response","124","734849","0.0-4.0-2.0-1.2","spark_pilot_norest","8661","2","16","Female","","","","","","","null","<div style=""font-size:60px;"">+</div>","null","fixation","","","","","","","","","5","","",""
"revaluation","125","740875","0.0-4.0-2.0-0.3","spark_pilot_norest","8661","2","16","Female","","false","","","","","[261.39999997615814,253.39999997615814]","./assets/img/ocean/memory/12.jpg","[""ArrowDown"",""ArrowRight""]","value training","ocean","30","{""ArrowUp,ArrowLeft"":23,""ArrowUp,ArrowRight"":10,""ArrowDown,ArrowLeft"":8,""ArrowDown,ArrowRight"":30}","true","ArrowDown,ArrowRight","false","revaluation","1","6","","",""
"html-keyboard-response","126","741389","0.0-4.0-2.0-1.3","spark_pilot_norest","8661","2","16","Female","","","","","","","null","<div style=""font-size:60px;"">+</div>","null","fixation","","","","","","","","","7","","",""
"revaluation","127","747407","0.0-4.0-2.0-0.4","spark_pilot_norest","8661","2","16","Female","","false","","","","","[310,450.7000000476837]","./assets/img/ocean/memory/32.jpg","[""ArrowDown"",""ArrowRight""]","value training","ocean","30","{""ArrowUp,ArrowLeft"":23,""ArrowUp,ArrowRight"":10,""ArrowDown,ArrowLeft"":8,""ArrowDown,ArrowRight"":30}","true","ArrowDown,ArrowRight","false","revaluation","1","8","","",""
"html-keyboard-response","128","747909","0.0-4.0-2.0-1.4","spark_pilot_norest","8661","2","16","Female","","","","","","","null","<div style=""font-size:60px;"">+</div>","null","fixation","","","","","","","","","9","","",""
"revaluation","129","753916","0.0-4.0-2.0-0.5","spark_pilot_norest","8661","2","16","Female","","false","","","","","[307.5,1015.8999999761581]","./assets/img/ocean/memory/28.jpg","[""ArrowDown"",""ArrowRight""]","value training","ocean","30","{""ArrowUp,ArrowLeft"":23,""ArrowUp,ArrowRight"":10,""ArrowDown,ArrowLeft"":8,""ArrowDown,ArrowRight"":30}","true","ArrowDown,ArrowRight","false","revaluation","1","10","","",""
"html-keyboard-response","130","754419","0.0-4.0-2.0-1.5","spark_pilot_norest","8661","2","16","Female","","","","","","","null","<div style=""font-size:60px;"">+</div>","null","fixation","","","","","","","","","11","","",""
"revaluation","131","760426","0.0-4.0-2.0-0.6","spark_pilot_norest","8661","2","16","Female","","false","","","","","[322.6999999284744,482.7000000476837]","./assets/img/ocean/memory/20.jpg","[""ArrowDown"",""ArrowRight""]","value training","ocean","30","{""ArrowUp,ArrowLeft"":23,""ArrowUp,ArrowRight"":10,""ArrowDown,ArrowLeft"":8,""ArrowDown,ArrowRight"":30}","true","ArrowDown,ArrowRight","false","revaluation","1","12","","",""
"html-keyboard-response","132","760928","0.0-4.0-2.0-1.6","spark_pilot_norest","8661","2","16","Female","","","","","","","null","<div style=""font-size:60px;"">+</div>","null","fixation","","","","","","","","","13","","",""
"revaluation","133","764934","0.0-4.0-2.0-0.7","spark_pilot_norest","8661","2","16","Female","","false","","","","","[294.2999999523163]","./assets/img/ocean/catch/5.jpg","[""ArrowDown""]","value training","ocean","-10","{""ArrowUp,ArrowLeft"":23,""ArrowUp,ArrowRight"":10,""ArrowDown,ArrowLeft"":8,""ArrowDown,ArrowRight"":30}","false","ArrowDown","true","revaluation","1","14","","",""
"html-keyboard-response","134","765437","0.0-4.0-2.0-1.7","spark_pilot_norest","8661","2","16","Female","","","","","","","null","<div style=""font-size:60px;"">+</div>","null","fixation","","","","","","","","","15","","",""
"revaluation","135","771443","0.0-4.0-2.0-0.8","spark_pilot_norest","8661","2","16","Female","","false","","","","","[426.2000000476837,391.3000000715256]","./assets/img/ocean/memory/31.jpg","[""ArrowDown"",""ArrowRight""]","value training","ocean","30","{""ArrowUp,ArrowLeft"":23,""ArrowUp,ArrowRight"":10,""ArrowDown,ArrowLeft"":8,""ArrowDown,ArrowRight"":30}","true","ArrowDown,ArrowRight","false","revaluation","1","16","","",""
"html-keyboard-response","136","771946","0.0-4.0-2.0-1.8","spark_pilot_norest","8661","2","16","Female","","","","","","","null","<div style=""font-size:60px;"">+</div>","null","fixation","","","","","","","","","17","","",""
"revaluation","137","777960","0.0-4.0-2.0-0.9","spark_pilot_norest","8661","2","16","Female","","false","","","","","[355.5,394.39999997615814]","./assets/img/ocean/memory/10.jpg","[""ArrowDown"",""ArrowRight""]","value training","ocean","30","{""ArrowUp,ArrowLeft"":23,""ArrowUp,ArrowRight"":10,""ArrowDown,ArrowLeft"":8,""ArrowDown,ArrowRight"":30}","true","ArrowDown,ArrowRight","false","revaluation","1","18","","",""
"html-keyboard-response","138","778469","0.0-4.0-2.0-1.9","spark_pilot_norest","8661","2","16","Female","","","","","","","null","<div style=""font-size:60px;"">+</div>","null","fixation","","","","","","","","","19","","",""
"revaluation","139","784476","0.0-4.0-2.0-0.10","spark_pilot_norest","8661","2","16","Female","","false","","","","","[397.59999990463257,410.89999997615814]","./assets/img/ocean/memory/40.jpg","[""ArrowDown"",""ArrowRight""]","value training","ocean","30","{""ArrowUp,ArrowLeft"":23,""ArrowUp,ArrowRight"":10,""ArrowDown,ArrowLeft"":8,""ArrowDown,ArrowRight"":30}","true","ArrowDown,ArrowRight","false","revaluation","1","20","","",""
"html-keyboard-response","140","784978","0.0-4.0-2.0-1.10","spark_pilot_norest","8661","2","16","Female","","","","","","","null","<div style=""font-size:60px;"">+</div>","null","fixation","","","","","","","","","21","","",""
"revaluation","141","790983","0.0-4.0-2.0-0.11","spark_pilot_norest","8661","2","16","Female","","false","","","","","[445.2999999523163,449.60000002384186]","./assets/img/ocean/memory/15.jpg","[""ArrowDown"",""ArrowRight""]","value training","ocean","30","{""ArrowUp,ArrowLeft"":23,""ArrowUp,ArrowRight"":10,""ArrowDown,ArrowLeft"":8,""ArrowDown,ArrowRight"":30}","true","ArrowDown,ArrowRight","false","revaluation","1","22","","",""
"html-keyboard-response","142","791485","0.0-4.0-2.0-1.11","spark_pilot_norest","8661","2","16","Female","","","","","","","null","<div style=""font-size:60px;"">+</div>","null","fixation","","","","","","","","","23","","",""
"revaluation","143","797497","0.0-4.0-2.0-0.12","spark_pilot_norest","8661","2","16","Female","","false","","","","","[266.7999999523163,295.40000009536743]","./assets/img/ocean/memory/41.jpg","[""ArrowDown"",""ArrowRight""]","value training","ocean","30","{""ArrowUp,ArrowLeft"":23,""ArrowUp,ArrowRight"":10,""ArrowDown,ArrowLeft"":8,""ArrowDown,ArrowRight"":30}","true","ArrowDown,ArrowRight","false","revaluation","1","24","","",""
"html-keyboard-response","144","797999","0.0-4.0-2.0-1.12","spark_pilot_norest","8661","2","16","Female","","","","","","","null","<div style=""font-size:60px;"">+</div>","null","fixation","","","","","","","","","25","","",""
"revaluation","145","804007","0.0-4.0-2.0-0.13","spark_pilot_norest","8661","2","16","Female","","false","","","","","[403.5,484.89999997615814]","./assets/img/ocean/memory/15.jpg","[""ArrowDown"",""ArrowRight""]","value training","ocean","30","{""ArrowUp,ArrowLeft"":23,""ArrowUp,ArrowRight"":10,""ArrowDown,ArrowLeft"":8,""ArrowDown,ArrowRight"":30}","true","ArrowDown,ArrowRight","false","revaluation","1","26","","",""
"html-keyboard-response","146","804508","0.0-4.0-2.0-1.13","spark_pilot_norest","8661","2","16","Female","","","","","","","null","<div style=""font-size:60px;"">+</div>","null","fixation","","","","","","","","","27","","",""
"revaluation","147","810516","0.0-4.0-2.0-0.14","spark_pilot_norest","8661","2","16","Female","","false","","","","","[373.5,377.2999999523163]","./assets/img/ocean/memory/7.jpg","[""ArrowDown"",""ArrowRight""]","value training","ocean","30","{""ArrowUp,ArrowLeft"":23,""ArrowUp,ArrowRight"":10,""ArrowDown,ArrowLeft"":8,""ArrowDown,ArrowRight"":30}","true","ArrowDown,ArrowRight","false","revaluation","1","28","","",""
"html-keyboard-response","148","811026","0.0-4.0-2.0-1.14","spark_pilot_norest","8661","2","16","Female","","","","","","","null","<div style=""font-size:60px;"">+</div>","null","fixation","","","","","","","","","29","","",""
"revaluation","149","817033","0.0-4.0-2.0-0.15","spark_pilot_norest","8661","2","16","Female","","false","","","","","[477.7999999523163,662.7000000476837]","./assets/img/ocean/memory/38.jpg","[""ArrowDown"",""ArrowRight""]","value training","ocean","30","{""ArrowUp,ArrowLeft"":23,""ArrowUp,ArrowRight"":10,""ArrowDown,ArrowLeft"":8,""ArrowDown,ArrowRight"":30}","true","ArrowDown,ArrowRight","false","revaluation","1","30","","",""
"html-keyboard-response","150","817535","0.0-4.0-2.0-1.15","spark_pilot_norest","8661","2","16","Female","","","","","","","null","<div style=""font-size:60px;"">+</div>","null","fixation","","","","","","","","","31","","",""
"revaluation","151","823542","0.0-4.0-2.0-0.16","spark_pilot_norest","8661","2","16","Female","","false","","","","","[711.6000000238419,419.6999999284744]","./assets/img/ocean/memory/9.jpg","[""ArrowDown"",""ArrowRight""]","value training","ocean","30","{""ArrowUp,ArrowLeft"":23,""ArrowUp,ArrowRight"":10,""ArrowDown,ArrowLeft"":8,""ArrowDown,ArrowRight"":30}","true","ArrowDown,ArrowRight","false","revaluation","1","32","","",""
"html-keyboard-response","152","824043","0.0-4.0-2.0-1.16","spark_pilot_norest","8661","2","16","Female","","","","","","","null","<div style=""font-size:60px;"">+</div>","null","fixation","","","","","","","","","33","","",""
"revaluation","153","830064","0.0-4.0-2.0-0.17","spark_pilot_norest","8661","2","16","Female","","false","","","","","[466.39999997615814,511.6999999284744]","./assets/img/ocean/memory/3.jpg","[""ArrowDown"",""ArrowRight""]","value training","ocean","30","{""ArrowUp,ArrowLeft"":23,""ArrowUp,ArrowRight"":10,""ArrowDown,ArrowLeft"":8,""ArrowDown,ArrowRight"":30}","true","ArrowDown,ArrowRight","false","revaluation","1","34","","",""
"html-keyboard-response","154","830566","0.0-4.0-2.0-1.17","spark_pilot_norest","8661","2","16","Female","","","","","","","null","<div style=""font-size:60px;"">+</div>","null","fixation","","","","","","","","","35","","",""
"revaluation","155","836573","0.0-4.0-2.0-0.18","spark_pilot_norest","8661","2","16","Female","","false","","","","","[430,750.1999999284744]","./assets/img/ocean/memory/7.jpg","[""ArrowDown"",""ArrowRight""]","value training","ocean","30","{""ArrowUp,ArrowLeft"":23,""ArrowUp,ArrowRight"":10,""ArrowDown,ArrowLeft"":8,""ArrowDown,ArrowRight"":30}","true","ArrowDown,ArrowRight","false","revaluation","1","36","","",""
"html-keyboard-response","156","837075","0.0-4.0-2.0-1.18","spark_pilot_norest","8661","2","16","Female","","","","","","","null","<div style=""font-size:60px;"">+</div>","null","fixation","","","","","","","","","37","","",""
"revaluation","157","841081","0.0-4.0-2.0-0.19","spark_pilot_norest","8661","2","16","Female","","false","","","","","[950.7000000476837]","./assets/img/ocean/catch/0.jpg","[""spaceBar""]","value training","ocean","0","{""ArrowUp,ArrowLeft"":23,""ArrowUp,ArrowRight"":10,""ArrowDown,ArrowLeft"":8,""ArrowDown,ArrowRight"":30}","true","spaceBar","true","revaluation","1","38","","",""
"html-keyboard-response","158","841596","0.0-4.0-2.0-1.19","spark_pilot_norest","8661","2","16","Female","","","","","","","null","<div style=""font-size:60px;"">+</div>","null","fixation","","","","","","","","","39","","",""
"revaluation","159","847621","0.0-4.0-2.0-0.20","spark_pilot_norest","8661","2","16","Female","","false","","","","","[483.5,288.39999997615814]","./assets/img/ocean/memory/10.jpg","[""ArrowDown"",""ArrowRight""]","value training","ocean","30","{""ArrowUp,ArrowLeft"":23,""ArrowUp,ArrowRight"":10,""ArrowDown,ArrowLeft"":8,""ArrowDown,ArrowRight"":30}","true","ArrowDown,ArrowRight","false","revaluation","1","40","","",""
"html-keyboard-response","160","848124","0.0-4.0-2.0-1.20","spark_pilot_norest","8661","2","16","Female","","","","","","","null","<div style=""font-size:60px;"">+</div>","null","fixation","","","","","","","","","41","","",""
"revaluation","161","854132","0.0-4.0-2.0-0.21","spark_pilot_norest","8661","2","16","Female","","false","","","","","[377.09999990463257,446.5]","./assets/img/ocean/memory/9.jpg","[""ArrowDown"",""ArrowRight""]","value training","ocean","30","{""ArrowUp,ArrowLeft"":23,""ArrowUp,ArrowRight"":10,""ArrowDown,ArrowLeft"":8,""ArrowDown,ArrowRight"":30}","true","ArrowDown,ArrowRight","false","revaluation","1","42","","",""
"html-keyboard-response","162","854649","0.0-4.0-2.0-1.21","spark_pilot_norest","8661","2","16","Female","","","","","","","null","<div style=""font-size:60px;"">+</div>","null","fixation","","","","","","","","","43","","",""
"revaluation","163","860667","0.0-4.0-2.0-0.22","spark_pilot_norest","8661","2","16","Female","","false","","","","","[577.1000000238419,562.8999999761581]","./assets/img/ocean/memory/32.jpg","[""ArrowDown"",""ArrowRight""]","value training","ocean","30","{""ArrowUp,ArrowLeft"":23,""ArrowUp,ArrowRight"":10,""ArrowDown,ArrowLeft"":8,""ArrowDown,ArrowRight"":30}","true","ArrowDown,ArrowRight","false","revaluation","1","44","","",""
"html-keyboard-response","164","861176","0.0-4.0-2.0-1.22","spark_pilot_norest","8661","2","16","Female","","","","","","","null","<div style=""font-size:60px;"">+</div>","null","fixation","","","","","","","","","45","","",""
"revaluation","165","867194","0.0-4.0-2.0-0.23","spark_pilot_norest","8661","2","16","Female","","false","","","","","[1127.6999999284744,1184.3999999761581]","./assets/img/ocean/memory/29.jpg","[""ArrowDown"",""ArrowRight""]","value training","ocean","30","{""ArrowUp,ArrowLeft"":23,""ArrowUp,ArrowRight"":10,""ArrowDown,ArrowLeft"":8,""ArrowDown,ArrowRight"":30}","true","ArrowDown,ArrowRight","false","revaluation","1","46","","",""
"html-keyboard-response","166","867709","0.0-4.0-2.0-1.23","spark_pilot_norest","8661","2","16","Female","","","","","","","null","<div style=""font-size:60px;"">+</div>","null","fixation","","","","","","","","","47","","",""
"revaluation","167","873731","0.0-4.0-2.0-0.24","spark_pilot_norest","8661","2","16","Female","","false","","","","","[853.0999999046326,469.39999997615814]","./assets/img/ocean/memory/27.jpg","[""ArrowDown"",""ArrowRight""]","value training","ocean","30","{""ArrowUp,ArrowLeft"":23,""ArrowUp,ArrowRight"":10,""ArrowDown,ArrowLeft"":8,""ArrowDown,ArrowRight"":30}","true","ArrowDown,ArrowRight","false","revaluation","1","48","","",""
"html-keyboard-response","168","874239","0.0-4.0-2.0-1.24","spark_pilot_norest","8661","2","16","Female","","","","","","","null","<div style=""font-size:60px;"">+</div>","null","fixation","","","","","","","","","49","","",""
"revaluation","169","878252","0.0-4.0-2.0-0.25","spark_pilot_norest","8661","2","16","Female","","false","","","","","[659.1000000238419]","./assets/img/ocean/catch/1.jpg","[""spaceBar""]","value training","ocean","0","{""ArrowUp,ArrowLeft"":23,""ArrowUp,ArrowRight"":10,""ArrowDown,ArrowLeft"":8,""ArrowDown,ArrowRight"":30}","true","spaceBar","true","revaluation","1","50","","",""
"html-keyboard-response","170","878756","0.0-4.0-2.0-1.25","spark_pilot_norest","8661","2","16","Female","","","","","","","null","<div style=""font-size:60px;"">+</div>","null","fixation","","","","","","","","","51","","",""
"revaluation","171","884780","0.0-4.0-2.0-0.26","spark_pilot_norest","8661","2","16","Female","","false","","","","","[732.5999999046326,362.60000002384186]","./assets/img/ocean/memory/13.jpg","[""ArrowDown"",""ArrowRight""]","value training","ocean","30","{""ArrowUp,ArrowLeft"":23,""ArrowUp,ArrowRight"":10,""ArrowDown,ArrowLeft"":8,""ArrowDown,ArrowRight"":30}","true","ArrowDown,ArrowRight","false","revaluation","1","52","","",""
"html-keyboard-response","172","885288","0.0-4.0-2.0-1.26","spark_pilot_norest","8661","2","16","Female","","","","","","","null","<div style=""font-size:60px;"">+</div>","null","fixation","","","","","","","","","53","","",""
"revaluation","173","891305","0.0-4.0-2.0-0.27","spark_pilot_norest","8661","2","16","Female","","false","","","","","[591.8999999761581,941]","./assets/img/ocean/memory/14.jpg","[""ArrowDown"",""ArrowRight""]","value training","ocean","30","{""ArrowUp,ArrowLeft"":23,""ArrowUp,ArrowRight"":10,""ArrowDown,ArrowLeft"":8,""ArrowDown,ArrowRight"":30}","true","ArrowDown,ArrowRight","false","revaluation","1","54","","",""
"html-keyboard-response","174","891822","0.0-4.0-2.0-1.27","spark_pilot_norest","8661","2","16","Female","","","","","","","null","<div style=""font-size:60px;"">+</div>","null","fixation","","","","","","","","","55","","",""
"revaluation","175","897845","0.0-4.0-2.0-0.28","spark_pilot_norest","8661","2","16","Female","","false","","","","","[470.10000002384186,380.7999999523163]","./assets/img/ocean/memory/29.jpg","[""ArrowDown"",""ArrowRight""]","value training","ocean","30","{""ArrowUp,ArrowLeft"":23,""ArrowUp,ArrowRight"":10,""ArrowDown,ArrowLeft"":8,""ArrowDown,ArrowRight"":30}","true","ArrowDown,ArrowRight","false","revaluation","1","56","","",""
"html-keyboard-response","176","898348","0.0-4.0-2.0-1.28","spark_pilot_norest","8661","2","16","Female","","","","","","","null","<div style=""font-size:60px;"">+</div>","null","fixation","","","","","","","","","57","","",""
"revaluation","177","904365","0.0-4.0-2.0-0.29","spark_pilot_norest","8661","2","16","Female","","false","","","","","[483.8000000715256,445.2999999523163]","./assets/img/ocean/memory/31.jpg","[""ArrowDown"",""ArrowRight""]","value training","ocean","30","{""ArrowUp,ArrowLeft"":23,""ArrowUp,ArrowRight"":10,""ArrowDown,ArrowLeft"":8,""ArrowDown,ArrowRight"":30}","true","ArrowDown,ArrowRight","false","revaluation","1","58","","",""
"html-keyboard-response","178","904875","0.0-4.0-2.0-1.29","spark_pilot_norest","8661","2","16","Female","","","","","","","null","<div style=""font-size:60px;"">+</div>","null","fixation","","","","","","","","","59","","",""
"revaluation","179","910902","0.0-4.0-2.0-0.30","spark_pilot_norest","8661","2","16","Female","","false","","","","","[416.89999997615814,720.5]","./assets/img/ocean/memory/27.jpg","[""ArrowDown"",""ArrowRight""]","value training","ocean","30","{""ArrowUp,ArrowLeft"":23,""ArrowUp,ArrowRight"":10,""ArrowDown,ArrowLeft"":8,""ArrowDown,ArrowRight"":30}","true","ArrowDown,ArrowRight","false","revaluation","1","60","","",""
"html-keyboard-response","180","911410","0.0-4.0-2.0-1.30","spark_pilot_norest","8661","2","16","Female","","","","","","","null","<div style=""font-size:60px;"">+</div>","null","fixation","","","","","","","","","61","","",""
"revaluation","181","915438","0.0-4.0-2.0-0.31","spark_pilot_norest","8661","2","16","Female","","false","","","","","[1046.7000000476837]","./assets/img/ocean/catch/7.jpg","[""spaceBar""]","value training","ocean","0","{""ArrowUp,ArrowLeft"":23,""ArrowUp,ArrowRight"":10,""ArrowDown,ArrowLeft"":8,""ArrowDown,ArrowRight"":30}","true","spaceBar","true","revaluation","1","62","","",""
"html-keyboard-response","182","915945","0.0-4.0-2.0-1.31","spark_pilot_norest","8661","2","16","Female","","","","","","","null","<div style=""font-size:60px;"">+</div>","null","fixation","","","","","","","","","63","","",""
"revaluation","183","921969","0.0-4.0-2.0-0.32","spark_pilot_norest","8661","2","16","Female","","false","","","","","[459.7000000476837,423.89999997615814]","./assets/img/ocean/memory/3.jpg","[""ArrowDown"",""ArrowRight""]","value training","ocean","30","{""ArrowUp,ArrowLeft"":23,""ArrowUp,ArrowRight"":10,""ArrowDown,ArrowLeft"":8,""ArrowDown,ArrowRight"":30}","true","ArrowDown,ArrowRight","false","revaluation","1","64","","",""
"html-keyboard-response","184","922471","0.0-4.0-2.0-1.32","spark_pilot_norest","8661","2","16","Female","","","","","","","null","<div style=""font-size:60px;"">+</div>","null","fixation","","","","","","","","","65","","",""
"revaluation","185","928494","0.0-4.0-2.0-0.33","spark_pilot_norest","8661","2","16","Female","","false","","","","","[511.1999999284744,496.7999999523163]","./assets/img/ocean/memory/21.jpg","[""ArrowDown"",""ArrowRight""]","value training","ocean","30","{""ArrowUp,ArrowLeft"":23,""ArrowUp,ArrowRight"":10,""ArrowDown,ArrowLeft"":8,""ArrowDown,ArrowRight"":30}","true","ArrowDown,ArrowRight","false","revaluation","1","66","","",""
"html-keyboard-response","186","929004","0.0-4.0-2.0-1.33","spark_pilot_norest","8661","2","16","Female","","","","","","","null","<div style=""font-size:60px;"">+</div>","null","fixation","","","","","","","","","67","","",""
"revaluation","187","935020","0.0-4.0-2.0-0.34","spark_pilot_norest","8661","2","16","Female","","false","","","","","[562.7999999523163,404.5]","./assets/img/ocean/memory/14.jpg","[""ArrowDown"",""ArrowRight""]","value training","ocean","30","{""ArrowUp,ArrowLeft"":23,""ArrowUp,ArrowRight"":10,""ArrowDown,ArrowLeft"":8,""ArrowDown,ArrowRight"":30}","true","ArrowDown,ArrowRight","false","revaluation","1","68","","",""
"html-keyboard-response","188","935524","0.0-4.0-2.0-1.34","spark_pilot_norest","8661","2","16","Female","","","","","","","null","<div style=""font-size:60px;"">+</div>","null","fixation","","","","","","","","","69","","",""
"revaluation","189","941546","0.0-4.0-2.0-0.35","spark_pilot_norest","8661","2","16","Female","","false","","","","","[416.2000000476837,371.2000000476837]","./assets/img/ocean/memory/13.jpg","[""ArrowDown"",""ArrowRight""]","value training","ocean","30","{""ArrowUp,ArrowLeft"":23,""ArrowUp,ArrowRight"":10,""ArrowDown,ArrowLeft"":8,""ArrowDown,ArrowRight"":30}","true","ArrowDown,ArrowRight","false","revaluation","1","70","","",""
"html-keyboard-response","190","942049","0.0-4.0-2.0-1.35","spark_pilot_norest","8661","2","16","Female","","","","","","","null","<div style=""font-size:60px;"">+</div>","null","fixation","","","","","","","","","71","","",""
"revaluation","191","948074","0.0-4.0-2.0-0.36","spark_pilot_norest","8661","2","16","Female","","false","","","","","[436,506.7000000476837]","./assets/img/ocean/memory/37.jpg","[""ArrowDown"",""ArrowRight""]","value training","ocean","30","{""ArrowUp,ArrowLeft"":23,""ArrowUp,ArrowRight"":10,""ArrowDown,ArrowLeft"":8,""ArrowDown,ArrowRight"":30}","true","ArrowDown,ArrowRight","false","revaluation","1","72","","",""
"html-keyboard-response","192","948583","0.0-4.0-2.0-1.36","spark_pilot_norest","8661","2","16","Female","","","","","","","null","<div style=""font-size:60px;"">+</div>","null","fixation","","","","","","","","","73","","",""
"revaluation","193","954600","0.0-4.0-2.0-0.37","spark_pilot_norest","8661","2","16","Female","","false","","","","","[463.7999999523163,642.3999999761581]","./assets/img/ocean/memory/28.jpg","[""ArrowDown"",""ArrowRight""]","value training","ocean","30","{""ArrowUp,ArrowLeft"":23,""ArrowUp,ArrowRight"":10,""ArrowDown,ArrowLeft"":8,""ArrowDown,ArrowRight"":30}","true","ArrowDown,ArrowRight","false","revaluation","1","74","","",""
"html-keyboard-response","194","955114","0.0-4.0-2.0-1.37","spark_pilot_norest","8661","2","16","Female","","","","","","","null","<div style=""font-size:60px;"">+</div>","null","fixation","","","","","","","","","75","","",""
"revaluation","195","961149","0.0-4.0-2.0-0.38","spark_pilot_norest","8661","2","16","Female","","false","","","","","[436.39999997615814,606.8999999761581]","./assets/img/ocean/memory/21.jpg","[""ArrowDown"",""ArrowRight""]","value training","ocean","30","{""ArrowUp,ArrowLeft"":23,""ArrowUp,ArrowRight"":10,""ArrowDown,ArrowLeft"":8,""ArrowDown,ArrowRight"":30}","true","ArrowDown,ArrowRight","false","revaluation","1","76","","",""
"html-keyboard-response","196","961657","0.0-4.0-2.0-1.38","spark_pilot_norest","8661","2","16","Female","","","","","","","null","<div style=""font-size:60px;"">+</div>","null","fixation","","","","","","","","","77","","",""
"revaluation","197","965665","0.0-4.0-2.0-0.39","spark_pilot_norest","8661","2","16","Female","","false","","","","","[710.6999999284744]","./assets/img/ocean/catch/3.jpg","[""spaceBar""]","value training","ocean","0","{""ArrowUp,ArrowLeft"":23,""ArrowUp,ArrowRight"":10,""ArrowDown,ArrowLeft"":8,""ArrowDown,ArrowRight"":30}","true","spaceBar","true","revaluation","1","78","","",""
"html-keyboard-response","198","966169","0.0-4.0-2.0-1.39","spark_pilot_norest","8661","2","16","Female","","","","","","","null","<div style=""font-size:60px;"">+</div>","null","fixation","","","","","","","","","79","","",""
"revaluation","199","970188","0.0-4.0-2.0-0.40","spark_pilot_norest","8661","2","16","Female","","false","","","","","[441.1999999284744]","./assets/img/ocean/catch/4.jpg","[""ArrowDown""]","value training","ocean","-10","{""ArrowUp,ArrowLeft"":23,""ArrowUp,ArrowRight"":10,""ArrowDown,ArrowLeft"":8,""ArrowDown,ArrowRight"":30}","false","ArrowDown","true","revaluation","1","80","","",""
"html-keyboard-response","200","970696","0.0-4.0-2.0-1.40","spark_pilot_norest","8661","2","16","Female","","","","","","","null","<div style=""font-size:60px;"">+</div>","null","fixation","","","","","","","","","81","","",""
"revaluation","201","974715","0.0-4.0-2.0-0.41","spark_pilot_norest","8661","2","16","Female","","false","","","","","[956.6000000238419]","./assets/img/ocean/catch/6.jpg","[""spaceBar""]","value training","ocean","0","{""ArrowUp,ArrowLeft"":23,""ArrowUp,ArrowRight"":10,""ArrowDown,ArrowLeft"":8,""ArrowDown,ArrowRight"":30}","true","spaceBar","true","revaluation","1","82","","",""
"html-keyboard-response","202","975220","0.0-4.0-2.0-1.41","spark_pilot_norest","8661","2","16","Female","","","","","","","null","<div style=""font-size:60px;"">+</div>","null","fixation","","","","","","","","","83","","",""
"revaluation","203","981238","0.0-4.0-2.0-0.42","spark_pilot_norest","8661","2","16","Female","","false","","","","","[538.2000000476837,517.2999999523163]","./assets/img/ocean/memory/37.jpg","[""ArrowDown"",""ArrowRight""]","value training","ocean","30","{""ArrowUp,ArrowLeft"":23,""ArrowUp,ArrowRight"":10,""ArrowDown,ArrowLeft"":8,""ArrowDown,ArrowRight"":30}","true","ArrowDown,ArrowRight","false","revaluation","1","84","","",""
"html-keyboard-response","204","981748","0.0-4.0-2.0-1.42","spark_pilot_norest","8661","2","16","Female","","","","","","","null","<div style=""font-size:60px;"">+</div>","null","fixation","","","","","","","","","85","","",""
"revaluation","205","987769","0.0-4.0-2.0-0.43","spark_pilot_norest","8661","2","16","Female","","false","","","","","[544.5999999046326,594.3999999761581]","./assets/img/ocean/memory/41.jpg","[""ArrowDown"",""ArrowRight""]","value training","ocean","30","{""ArrowUp,ArrowLeft"":23,""ArrowUp,ArrowRight"":10,""ArrowDown,ArrowLeft"":8,""ArrowDown,ArrowRight"":30}","true","ArrowDown,ArrowRight","false","revaluation","1","86","","",""
"html-keyboard-response","206","988277","0.0-4.0-2.0-1.43","spark_pilot_norest","8661","2","16","Female","","","","","","","null","<div style=""font-size:60px;"">+</div>","null","fixation","","","","","","","","","87","","",""
"revaluation","207","994302","0.0-4.0-2.0-0.44","spark_pilot_norest","8661","2","16","Female","","false","","","","","[421.8000000715256,424.10000002384186]","./assets/img/ocean/memory/40.jpg","[""ArrowDown"",""ArrowRight""]","value training","ocean","30","{""ArrowUp,ArrowLeft"":23,""ArrowUp,ArrowRight"":10,""ArrowDown,ArrowLeft"":8,""ArrowDown,ArrowRight"":30}","true","ArrowDown,ArrowRight","false","revaluation","1","88","","",""
"html-keyboard-response","208","994810","0.0-4.0-2.0-1.44","spark_pilot_norest","8661","2","16","Female","","","","","","","null","<div style=""font-size:60px;"">+</div>","null","fixation","","","","","","","","","89","","",""
"revaluation","209","1000828","0.0-4.0-2.0-0.45","spark_pilot_norest","8661","2","16","Female","","false","","","","","[628.5,502.3000000715256]","./assets/img/ocean/memory/30.jpg","[""ArrowDown"",""ArrowRight""]","value training","ocean","30","{""ArrowUp,ArrowLeft"":23,""ArrowUp,ArrowRight"":10,""ArrowDown,ArrowLeft"":8,""ArrowDown,ArrowRight"":30}","true","ArrowDown,ArrowRight","false","revaluation","1","90","","",""
"html-keyboard-response","210","1001335","0.0-4.0-2.0-1.45","spark_pilot_norest","8661","2","16","Female","","","","","","","null","<div style=""font-size:60px;"">+</div>","null","fixation","","","","","","","","","91","","",""
"revaluation","211","1005351","0.0-4.0-2.0-0.46","spark_pilot_norest","8661","2","16","Female","","false","","","","","[682.8999999761581]","./assets/img/ocean/catch/2.jpg","[""spaceBar""]","value training","ocean","0","{""ArrowUp,ArrowLeft"":23,""ArrowUp,ArrowRight"":10,""ArrowDown,ArrowLeft"":8,""ArrowDown,ArrowRight"":30}","true","spaceBar","true","revaluation","1","92","","",""
"html-keyboard-response","212","1005867","0.0-4.0-2.0-1.46","spark_pilot_norest","8661","2","16","Female","","","","","","","null","<div style=""font-size:60px;"">+</div>","null","fixation","","","","","","","","","93","","",""
"revaluation","213","1011888","0.0-4.0-2.0-0.47","spark_pilot_norest","8661","2","16","Female","","false","","","","","[359.5,369.1999999284744]","./assets/img/ocean/memory/34.jpg","[""ArrowUp"",""ArrowLeft""]","value training","ocean","23","{""ArrowUp,ArrowLeft"":23,""ArrowUp,ArrowRight"":10,""ArrowDown,ArrowLeft"":8,""ArrowDown,ArrowRight"":30}","false","ArrowUp,ArrowLeft","false","revaluation","1","94","","",""
"html-keyboard-response","214","1012393","0.0-4.0-2.0-1.47","spark_pilot_norest","8661","2","16","Female","","","","","","","null","<div style=""font-size:60px;"">+</div>","null","fixation","","","","","","","","","95","","",""
"revaluation","215","1018409","0.0-4.0-2.0-0.48","spark_pilot_norest","8661","2","16","Female","","false","","","","","[713.8000000715256,338.5]","./assets/img/ocean/memory/12.jpg","[""ArrowDown"",""ArrowRight""]","value training","ocean","30","{""ArrowUp,ArrowLeft"":23,""ArrowUp,ArrowRight"":10,""ArrowDown,ArrowLeft"":8,""ArrowDown,ArrowRight"":30}","true","ArrowDown,ArrowRight","false","revaluation","1","96","","",""
"html-keyboard-response","216","1018911","0.0-4.0-2.0-1.48","spark_pilot_norest","8661","2","16","Female","","","","","","","null","<div style=""font-size:60px;"">+</div>","null","fixation","","","","","","","","","97","","",""
"revaluation","217","1024933","0.0-4.0-2.0-0.49","spark_pilot_norest","8661","2","16","Female","","false","","","","","[629.6000000238419,476.7000000476837]","./assets/img/ocean/memory/34.jpg","[""ArrowDown"",""ArrowRight""]","value training","ocean","30","{""ArrowUp,ArrowLeft"":23,""ArrowUp,ArrowRight"":10,""ArrowDown,ArrowLeft"":8,""ArrowDown,ArrowRight"":30}","true","ArrowDown,ArrowRight","false","revaluation","1","98","","",""
"html-keyboard-response","218","1025440","0.0-4.0-2.0-1.49","spark_pilot_norest","8661","2","16","Female","","","","","","","null","<div style=""font-size:60px;"">+</div>","null","fixation","","","","","","","","","99","","",""
"learning-instructions","219","1039731","0.0-4.0-3.0-0.0","spark_pilot_norest","8661","2","16","Female","","","","","","","977.5","<p> Now, you will travel with a friend who will choose whether you go up or down first. </p>
            <p> On these turns, you will just see the animal that they found. You will still get to choose which chest to search for treasure.</p>","","instructions","","","","","","","","","","","",""
"revaluation","220","1043748","0.0-4.0-4.0-0.0","spark_pilot_norest","8661","2","16","Female","","false","","","","","[924.5]","./assets/img/ocean/animals/seahorse.jpg","[""ArrowRight""]","revaluation","ocean","15","{""ArrowUp,ArrowLeft"":27,""ArrowUp,ArrowRight"":15,""ArrowDown,ArrowLeft"":21,""ArrowDown,ArrowRight"":7}","false","ArrowUp,ArrowRight","","revaluation","1","0","","",""
"html-keyboard-response","221","1044270","0.0-4.0-4.0-1.0","spark_pilot_norest","8661","2","16","Female","","","","","","","null","<div style=""font-size:60px;"">+</div>","null","fixation","","","","","","","","","1","","",""
"revaluation","222","1048282","0.0-4.0-4.0-0.1","spark_pilot_norest","8661","2","16","Female","","false","","","","","[519.6999999284744]","./assets/img/ocean/animals/seahorse.jpg","[""ArrowLeft""]","revaluation","ocean","27","{""ArrowUp,ArrowLeft"":27,""ArrowUp,ArrowRight"":15,""ArrowDown,ArrowLeft"":21,""ArrowDown,ArrowRight"":7}","true","ArrowUp,ArrowLeft","","revaluation","1","2","","",""
"html-keyboard-response","223","1048791","0.0-4.0-4.0-1.1","spark_pilot_norest","8661","2","16","Female","","","","","","","null","<div style=""font-size:60px;"">+</div>","null","fixation","","","","","","","","","3","","",""
"revaluation","224","1052812","0.0-4.0-4.0-0.2","spark_pilot_norest","8661","2","16","Female","","false","","","","","[590.7999999523163]","./assets/img/ocean/animals/seahorse.jpg","[""ArrowLeft""]","revaluation","ocean","27","{""ArrowUp,ArrowLeft"":27,""ArrowUp,ArrowRight"":15,""ArrowDown,ArrowLeft"":21,""ArrowDown,ArrowRight"":7}","true","ArrowUp,ArrowLeft","","revaluation","1","4","","",""
"html-keyboard-response","225","1053324","0.0-4.0-4.0-1.2","spark_pilot_norest","8661","2","16","Female","","","","","","","null","<div style=""font-size:60px;"">+</div>","null","fixation","","","","","","","","","5","","",""
"revaluation","226","1057335","0.0-4.0-4.0-0.3","spark_pilot_norest","8661","2","16","Female","","false","","","","","[377.60000002384186]","./assets/img/ocean/animals/octopus.jpg","[""ArrowLeft""]","revaluation","ocean","21","{""ArrowUp,ArrowLeft"":27,""ArrowUp,ArrowRight"":15,""ArrowDown,ArrowLeft"":21,""ArrowDown,ArrowRight"":7}","true","ArrowDown,ArrowLeft","","revaluation","1","6","","",""
"html-keyboard-response","227","1057842","0.0-4.0-4.0-1.3","spark_pilot_norest","8661","2","16","Female","","","","","","","null","<div style=""font-size:60px;"">+</div>","null","fixation","","","","","","","","","7","","",""
"revaluation","228","1061877","0.0-4.0-4.0-0.4","spark_pilot_norest","8661","2","16","Female","","false","","","","","[348.2000000476837]","./assets/img/ocean/animals/octopus.jpg","[""ArrowRight""]","revaluation","ocean","7","{""ArrowUp,ArrowLeft"":27,""ArrowUp,ArrowRight"":15,""ArrowDown,ArrowLeft"":21,""ArrowDown,ArrowRight"":7}","false","ArrowDown,ArrowRight","","revaluation","1","8","","",""
"html-keyboard-response","229","1062390","0.0-4.0-4.0-1.4","spark_pilot_norest","8661","2","16","Female","","","","","","","null","<div style=""font-size:60px;"">+</div>","null","fixation","","","","","","","","","9","","",""
"revaluation","230","1066415","0.0-4.0-4.0-0.5","spark_pilot_norest","8661","2","16","Female","","false","","","","","[76.10000002384186]","./assets/img/ocean/animals/octopus.jpg","[""ArrowLeft""]","revaluation","ocean","21","{""ArrowUp,ArrowLeft"":27,""ArrowUp,ArrowRight"":15,""ArrowDown,ArrowLeft"":21,""ArrowDown,ArrowRight"":7}","true","ArrowDown,ArrowLeft","","revaluation","1","10","","",""
"html-keyboard-response","231","1066922","0.0-4.0-4.0-1.5","spark_pilot_norest","8661","2","16","Female","","","","","","","null","<div style=""font-size:60px;"">+</div>","null","fixation","","","","","","","","","11","","",""
"revaluation","232","1070936","0.0-4.0-4.0-0.6","spark_pilot_norest","8661","2","16","Female","","false","","","","","[73]","./assets/img/ocean/animals/octopus.jpg","[""ArrowLeft""]","revaluation","ocean","21","{""ArrowUp,ArrowLeft"":27,""ArrowUp,ArrowRight"":15,""ArrowDown,ArrowLeft"":21,""ArrowDown,ArrowRight"":7}","true","ArrowDown,ArrowLeft","","revaluation","1","12","","",""
"html-keyboard-response","233","1071444","0.0-4.0-4.0-1.6","spark_pilot_norest","8661","2","16","Female","","","","","","","null","<div style=""font-size:60px;"">+</div>","null","fixation","","","","","","","","","13","","",""
"revaluation","234","1075461","0.0-4.0-4.0-0.7","spark_pilot_norest","8661","2","16","Female","","false","","","","","[343.89999997615814]","./assets/img/ocean/animals/seahorse.jpg","[""ArrowLeft""]","revaluation","ocean","27","{""ArrowUp,ArrowLeft"":27,""ArrowUp,ArrowRight"":15,""ArrowDown,ArrowLeft"":21,""ArrowDown,ArrowRight"":7}","true","ArrowUp,ArrowLeft","","revaluation","1","14","","",""
"html-keyboard-response","235","1075968","0.0-4.0-4.0-1.7","spark_pilot_norest","8661","2","16","Female","","","","","","","null","<div style=""font-size:60px;"">+</div>","null","fixation","","","","","","","","","15","","",""
"revaluation","236","1079986","0.0-4.0-4.0-0.8","spark_pilot_norest","8661","2","16","Female","","false","","","","","[464.5]","./assets/img/ocean/animals/octopus.jpg","[""ArrowLeft""]","revaluation","ocean","21","{""ArrowUp,ArrowLeft"":27,""ArrowUp,ArrowRight"":15,""ArrowDown,ArrowLeft"":21,""ArrowDown,ArrowRight"":7}","true","ArrowDown,ArrowLeft","","revaluation","1","16","","",""
"html-keyboard-response","237","1080492","0.0-4.0-4.0-1.8","spark_pilot_norest","8661","2","16","Female","","","","","","","null","<div style=""font-size:60px;"">+</div>","null","fixation","","","","","","","","","17","","",""
"revaluation","238","1084509","0.0-4.0-4.0-0.9","spark_pilot_norest","8661","2","16","Female","","false","","","","","[539.2000000476837]","./assets/img/ocean/animals/seahorse.jpg","[""ArrowLeft""]","revaluation","ocean","27","{""ArrowUp,ArrowLeft"":27,""ArrowUp,ArrowRight"":15,""ArrowDown,ArrowLeft"":21,""ArrowDown,ArrowRight"":7}","true","ArrowUp,ArrowLeft","","revaluation","1","18","","",""
"html-keyboard-response","239","1085011","0.0-4.0-4.0-1.9","spark_pilot_norest","8661","2","16","Female","","","","","","","null","<div style=""font-size:60px;"">+</div>","null","fixation","","","","","","","","","19","","",""
"revaluation","240","1089020","0.0-4.0-4.0-0.10","spark_pilot_norest","8661","2","16","Female","","false","","","","","[483.1999999284744]","./assets/img/ocean/animals/seahorse.jpg","[""ArrowLeft""]","revaluation","ocean","27","{""ArrowUp,ArrowLeft"":27,""ArrowUp,ArrowRight"":15,""ArrowDown,ArrowLeft"":21,""ArrowDown,ArrowRight"":7}","true","ArrowUp,ArrowLeft","","revaluation","1","20","","",""
"html-keyboard-response","241","1089527","0.0-4.0-4.0-1.10","spark_pilot_norest","8661","2","16","Female","","","","","","","null","<div style=""font-size:60px;"">+</div>","null","fixation","","","","","","","","","21","","",""
"revaluation","242","1093538","0.0-4.0-4.0-0.11","spark_pilot_norest","8661","2","16","Female","","false","","","","","[480.39999997615814]","./assets/img/ocean/animals/seahorse.jpg","[""ArrowLeft""]","revaluation","ocean","27","{""ArrowUp,ArrowLeft"":27,""ArrowUp,ArrowRight"":15,""ArrowDown,ArrowLeft"":21,""ArrowDown,ArrowRight"":7}","true","ArrowUp,ArrowLeft","","revaluation","1","22","","",""
"html-keyboard-response","243","1094047","0.0-4.0-4.0-1.11","spark_pilot_norest","8661","2","16","Female","","","","","","","null","<div style=""font-size:60px;"">+</div>","null","fixation","","","","","","","","","23","","",""
"revaluation","244","1098057","0.0-4.0-4.0-0.12","spark_pilot_norest","8661","2","16","Female","","false","","","","","[737.1999999284744]","./assets/img/ocean/animals/seahorse.jpg","[""ArrowLeft""]","revaluation","ocean","27","{""ArrowUp,ArrowLeft"":27,""ArrowUp,ArrowRight"":15,""ArrowDown,ArrowLeft"":21,""ArrowDown,ArrowRight"":7}","true","ArrowUp,ArrowLeft","","revaluation","1","24","","",""
"html-keyboard-response","245","1098559","0.0-4.0-4.0-1.12","spark_pilot_norest","8661","2","16","Female","","","","","","","null","<div style=""font-size:60px;"">+</div>","null","fixation","","","","","","","","","25","","",""
"revaluation","246","1102575","0.0-4.0-4.0-0.13","spark_pilot_norest","8661","2","16","Female","","false","","","","","[355.6999999284744]","./assets/img/ocean/animals/octopus.jpg","[""ArrowLeft""]","revaluation","ocean","21","{""ArrowUp,ArrowLeft"":27,""ArrowUp,ArrowRight"":15,""ArrowDown,ArrowLeft"":21,""ArrowDown,ArrowRight"":7}","true","ArrowDown,ArrowLeft","","revaluation","1","26","","",""
"html-keyboard-response","247","1103082","0.0-4.0-4.0-1.13","spark_pilot_norest","8661","2","16","Female","","","","","","","null","<div style=""font-size:60px;"">+</div>","null","fixation","","","","","","","","","27","","",""
"revaluation","248","1107102","0.0-4.0-4.0-0.14","spark_pilot_norest","8661","2","16","Female","","false","","","","","[376.89999997615814]","./assets/img/ocean/animals/seahorse.jpg","[""ArrowLeft""]","revaluation","ocean","27","{""ArrowUp,ArrowLeft"":27,""ArrowUp,ArrowRight"":15,""ArrowDown,ArrowLeft"":21,""ArrowDown,ArrowRight"":7}","true","ArrowUp,ArrowLeft","","revaluation","1","28","","",""
"html-keyboard-response","249","1107604","0.0-4.0-4.0-1.14","spark_pilot_norest","8661","2","16","Female","","","","","","","null","<div style=""font-size:60px;"">+</div>","null","fixation","","","","","","","","","29","","",""
"revaluation","250","1111633","0.0-4.0-4.0-0.15","spark_pilot_norest","8661","2","16","Female","","false","","","","","[297.5]","./assets/img/ocean/animals/octopus.jpg","[""ArrowLeft""]","revaluation","ocean","21","{""ArrowUp,ArrowLeft"":27,""ArrowUp,ArrowRight"":15,""ArrowDown,ArrowLeft"":21,""ArrowDown,ArrowRight"":7}","true","ArrowDown,ArrowLeft","","revaluation","1","30","","",""
"html-keyboard-response","251","1112138","0.0-4.0-4.0-1.15","spark_pilot_norest","8661","2","16","Female","","","","","","","null","<div style=""font-size:60px;"">+</div>","null","fixation","","","","","","","","","31","","",""
"revaluation","252","1116151","0.0-4.0-4.0-0.16","spark_pilot_norest","8661","2","16","Female","","false","","","","","[482.39999997615814]","./assets/img/ocean/animals/octopus.jpg","[""ArrowLeft""]","revaluation","ocean","21","{""ArrowUp,ArrowLeft"":27,""ArrowUp,ArrowRight"":15,""ArrowDown,ArrowLeft"":21,""ArrowDown,ArrowRight"":7}","true","ArrowDown,ArrowLeft","","revaluation","1","32","","",""
"html-keyboard-response","253","1116656","0.0-4.0-4.0-1.16","spark_pilot_norest","8661","2","16","Female","","","","","","","null","<div style=""font-size:60px;"">+</div>","null","fixation","","","","","","","","","33","","",""
"revaluation","254","1120674","0.0-4.0-4.0-0.17","spark_pilot_norest","8661","2","16","Female","","false","","","","","[385.10000002384186]","./assets/img/ocean/animals/octopus.jpg","[""ArrowLeft""]","revaluation","ocean","21","{""ArrowUp,ArrowLeft"":27,""ArrowUp,ArrowRight"":15,""ArrowDown,ArrowLeft"":21,""ArrowDown,ArrowRight"":7}","true","ArrowDown,ArrowLeft","","revaluation","1","34","","",""
"html-keyboard-response","255","1121177","0.0-4.0-4.0-1.17","spark_pilot_norest","8661","2","16","Female","","","","","","","null","<div style=""font-size:60px;"">+</div>","null","fixation","","","","","","","","","35","","",""
"learning-instructions","256","1129674","0.0-4.0-5.0-0.0","spark_pilot_norest","8661","2","16","Female","","","","","","","null","<p> You have almost finished this part of the game! </p>
            <p> We are going to ask you to make a few more choices. </p>","","instructions","","","","","","","","","","","",""
"learning-instructions","257","1145640","0.0-4.0-5.0-0.1","spark_pilot_norest","8661","2","16","Female","","","","","","","null","<p> First, you need to decide whether to go up or down. When you see each picture, use the arrow keys to make your choice. </p>
            <p><b>You will not see which animal you found, but try to get to the one that will give you the most treasure.</b></p>","","instructions","","","","","","","","","","","",""
"html-keyboard-response","258","1146652","0.0-4.0-6.0-0.0","spark_pilot_norest","8661","2","16","Female","","","","","","","null","<div style=""font-size:100px;color:red;"">Starting in...</div>","null","","","","","","","","","","","","",""
"html-keyboard-response","259","1147659","0.0-4.0-6.0-1.0","spark_pilot_norest","8661","2","16","Female","","","","","","","null","<div style=""font-size:200px;color:red;"">3</div>","null","","","","","","","","","","","","",""
"html-keyboard-response","260","1148675","0.0-4.0-6.0-2.0","spark_pilot_norest","8661","2","16","Female","","","","","","","null","<div style=""font-size:200px;color:red;"">2</div>","null","","","","","","","","","","","","",""
"html-keyboard-response","261","1149686","0.0-4.0-6.0-3.0","spark_pilot_norest","8661","2","16","Female","","","","","","","null","<div style=""font-size:200px;color:red;"">1</div>","null","","","","","","","","","","","","",""
"revaluation","262","1150389","0.0-4.0-7.0-0.0","spark_pilot_norest","8661","2","16","Female","","false","","","","","[698]","./assets/img/ocean/test/3.jpg","[""ArrowUp""]","first stage test","ocean","0","{""ArrowUp,ArrowLeft"":27,""ArrowUp,ArrowRight"":15,""ArrowDown,ArrowLeft"":21,""ArrowDown,ArrowRight"":7}","true","ArrowUp","false","revaluation","1","","","",""
"html-keyboard-response","263","1150895","0.0-4.0-7.0-1.0","spark_pilot_norest","8661","2","16","Female","","","","","","","null","<div style=""font-size:60px;"">+</div>","null","fixation","","","","","","","","","","","",""
"revaluation","264","1151937","0.0-4.0-7.0-0.1","spark_pilot_norest","8661","2","16","Female","","false","","","","","[1037.2999999523163]","./assets/img/ocean/test/2.jpg","[""ArrowUp""]","first stage test","ocean","0","{""ArrowUp,ArrowLeft"":27,""ArrowUp,ArrowRight"":15,""ArrowDown,ArrowLeft"":21,""ArrowDown,ArrowRight"":7}","true","ArrowUp","false","revaluation","1","","","",""
"html-keyboard-response","265","1152445","0.0-4.0-7.0-1.1","spark_pilot_norest","8661","2","16","Female","","","","","","","null","<div style=""font-size:60px;"">+</div>","null","fixation","","","","","","","","","","","",""
"revaluation","266","1153006","0.0-4.0-7.0-0.2","spark_pilot_norest","8661","2","16","Female","","false","","","","","[555.5]","./assets/img/ocean/test/1.jpg","[""ArrowUp""]","first stage test","ocean","0","{""ArrowUp,ArrowLeft"":27,""ArrowUp,ArrowRight"":15,""ArrowDown,ArrowLeft"":21,""ArrowDown,ArrowRight"":7}","true","ArrowUp","false","revaluation","1","","","",""
"html-keyboard-response","267","1153509","0.0-4.0-7.0-1.2","spark_pilot_norest","8661","2","16","Female","","","","","","","null","<div style=""font-size:60px;"">+</div>","null","fixation","","","","","","","","","","","",""
"revaluation","268","1154051","0.0-4.0-7.0-0.3","spark_pilot_norest","8661","2","16","Female","","false","","","","","[538.5]","./assets/img/ocean/test/0.jpg","[""ArrowUp""]","first stage test","ocean","0","{""ArrowUp,ArrowLeft"":27,""ArrowUp,ArrowRight"":15,""ArrowDown,ArrowLeft"":21,""ArrowDown,ArrowRight"":7}","true","ArrowUp","false","revaluation","1","","","",""
"html-keyboard-response","269","1154553","0.0-4.0-7.0-1.3","spark_pilot_norest","8661","2","16","Female","","","","","","","null","<div style=""font-size:60px;"">+</div>","null","fixation","","","","","","","","","","","",""
"learning-instructions","270","1167896","0.0-4.0-8.0-0.0","spark_pilot_norest","8661","2","16","Female","","","","","","","null","<p> Now you will see the animals again and can search their chests for treasure. </p>
            <p> This time, you will not see how much treasure you earned, but you will earn more bonus money for making better choices. </p>","","instructions","","","","","","","","","","","",""
"html-keyboard-response","271","1168909","0.0-4.0-9.0-0.0","spark_pilot_norest","8661","2","16","Female","","","","","","","null","<div style=""font-size:100px;color:red;"">Starting in...</div>","null","","","","","","","","","","","","",""
"html-keyboard-response","272","1169915","0.0-4.0-9.0-1.0","spark_pilot_norest","8661","2","16","Female","","","","","","","null","<div style=""font-size:200px;color:red;"">3</div>","null","","","","","","","","","","","","",""
"html-keyboard-response","273","1170927","0.0-4.0-9.0-2.0","spark_pilot_norest","8661","2","16","Female","","","","","","","null","<div style=""font-size:200px;color:red;"">2</div>","null","","","","","","","","","","","","",""
"html-keyboard-response","274","1171930","0.0-4.0-9.0-3.0","spark_pilot_norest","8661","2","16","Female","","","","","","","null","<div style=""font-size:200px;color:red;"">1</div>","null","","","","","","","","","","","","",""
"revaluation","275","1172344","0.0-4.0-10.0-0.0","spark_pilot_norest","8661","2","16","Female","","false","","","","","[408.10000002384186]","./assets/img/ocean/animals/seahorse.jpg","[""ArrowLeft""]","second stage test","ocean","0","{""ArrowUp,ArrowLeft"":27,""ArrowUp,ArrowRight"":15,""ArrowDown,ArrowLeft"":21,""ArrowDown,ArrowRight"":7}","true","ArrowUp,ArrowLeft","","revaluation","1","","","",""
"html-keyboard-response","276","1172852","0.0-4.0-10.0-1.0","spark_pilot_norest","8661","2","16","Female","","","","","","","null","<div style=""font-size:60px;"">+</div>","null","fixation","","","","","","","","","","","",""
"revaluation","277","1173268","0.0-4.0-10.0-0.1","spark_pilot_norest","8661","2","16","Female","","false","","","","","[410.7000000476837]","./assets/img/ocean/animals/seahorse.jpg","[""ArrowRight""]","second stage test","ocean","0","{""ArrowUp,ArrowLeft"":27,""ArrowUp,ArrowRight"":15,""ArrowDown,ArrowLeft"":21,""ArrowDown,ArrowRight"":7}","false","ArrowUp,ArrowRight","","revaluation","1","","","",""
"html-keyboard-response","278","1173770","0.0-4.0-10.0-1.1","spark_pilot_norest","8661","2","16","Female","","","","","","","null","<div style=""font-size:60px;"">+</div>","null","fixation","","","","","","","","","","","",""
"revaluation","279","1174072","0.0-4.0-10.0-0.2","spark_pilot_norest","8661","2","16","Female","","false","","","","","[296.8000000715256]","./assets/img/ocean/animals/seahorse.jpg","[""ArrowLeft""]","second stage test","ocean","0","{""ArrowUp,ArrowLeft"":27,""ArrowUp,ArrowRight"":15,""ArrowDown,ArrowLeft"":21,""ArrowDown,ArrowRight"":7}","true","ArrowUp,ArrowLeft","","revaluation","1","","","",""
"html-keyboard-response","280","1174584","0.0-4.0-10.0-1.2","spark_pilot_norest","8661","2","16","Female","","","","","","","null","<div style=""font-size:60px;"">+</div>","null","fixation","","","","","","","","","","","",""
"revaluation","281","1174875","0.0-4.0-10.0-0.3","spark_pilot_norest","8661","2","16","Female","","false","","","","","[286]","./assets/img/ocean/animals/seahorse.jpg","[""ArrowRight""]","second stage test","ocean","0","{""ArrowUp,ArrowLeft"":27,""ArrowUp,ArrowRight"":15,""ArrowDown,ArrowLeft"":21,""ArrowDown,ArrowRight"":7}","false","ArrowUp,ArrowRight","","revaluation","1","","","",""
"html-keyboard-response","282","1175384","0.0-4.0-10.0-1.3","spark_pilot_norest","8661","2","16","Female","","","","","","","null","<div style=""font-size:60px;"">+</div>","null","fixation","","","","","","","","","","","",""
"revaluation","283","1175668","0.0-4.0-10.0-0.4","spark_pilot_norest","8661","2","16","Female","","false","","","","","[280.09999990463257]","./assets/img/ocean/animals/octopus.jpg","[""ArrowLeft""]","second stage test","ocean","0","{""ArrowUp,ArrowLeft"":27,""ArrowUp,ArrowRight"":15,""ArrowDown,ArrowLeft"":21,""ArrowDown,ArrowRight"":7}","true","ArrowDown,ArrowLeft","","revaluation","1","","","",""
"html-keyboard-response","284","1176186","0.0-4.0-10.0-1.4","spark_pilot_norest","8661","2","16","Female","","","","","","","null","<div style=""font-size:60px;"">+</div>","null","fixation","","","","","","","","","","","",""
"revaluation","285","1176412","0.0-4.0-10.0-0.5","spark_pilot_norest","8661","2","16","Female","","false","","","","","[222.89999997615814]","./assets/img/ocean/animals/octopus.jpg","[""ArrowRight""]","second stage test","ocean","0","{""ArrowUp,ArrowLeft"":27,""ArrowUp,ArrowRight"":15,""ArrowDown,ArrowLeft"":21,""ArrowDown,ArrowRight"":7}","false","ArrowDown,ArrowRight","","revaluation","1","","","",""
"html-keyboard-response","286","1176917","0.0-4.0-10.0-1.5","spark_pilot_norest","8661","2","16","Female","","","","","","","null","<div style=""font-size:60px;"">+</div>","null","fixation","","","","","","","","","","","",""
"revaluation","287","1177188","0.0-4.0-10.0-0.6","spark_pilot_norest","8661","2","16","Female","","false","","","","","[266.60000002384186]","./assets/img/ocean/animals/octopus.jpg","[""ArrowLeft""]","second stage test","ocean","0","{""ArrowUp,ArrowLeft"":27,""ArrowUp,ArrowRight"":15,""ArrowDown,ArrowLeft"":21,""ArrowDown,ArrowRight"":7}","true","ArrowDown,ArrowLeft","","revaluation","1","","","",""
"html-keyboard-response","288","1177696","0.0-4.0-10.0-1.6","spark_pilot_norest","8661","2","16","Female","","","","","","","null","<div style=""font-size:60px;"">+</div>","null","fixation","","","","","","","","","","","",""
"revaluation","289","1177760","0.0-4.0-10.0-0.7","spark_pilot_norest","8661","2","16","Female","","false","","","","","[58.60000002384186]","./assets/img/ocean/animals/octopus.jpg","[""ArrowRight""]","second stage test","ocean","0","{""ArrowUp,ArrowLeft"":27,""ArrowUp,ArrowRight"":15,""ArrowDown,ArrowLeft"":21,""ArrowDown,ArrowRight"":7}","false","ArrowDown,ArrowRight","","revaluation","1","","","",""
"html-keyboard-response","290","1178276","0.0-4.0-10.0-1.7","spark_pilot_norest","8661","2","16","Female","","","","","","","null","<div style=""font-size:60px;"">+</div>","null","fixation","","","","","","","","","","","",""
"learning-instructions","291","1181921","0.0-4.0-0.1-0.2","spark_pilot_norest","8661","2","16","Female","","","","","","","842.8999999761581","<p> This time you are searching for treasure in the <b>canyon</b>.</p>","","instructions","","","","","","","","","","","",""
"learning-instructions","292","1201020","0.0-4.0-0.1-0.3","spark_pilot_norest","8661","2","16","Female","","","","","","","1851.1000000238419","<p><b>New</b> animals with <b>new</b> treasure chests live here. You need to explore to discover where the animal with the best treasure chest is.</p>
                    <p> Like before, once you figure out which animal has the chest with the most treasure, you should try to get to that animal and select that chest! </p>","","instructions","","","","","","","","","","","",""
"learning-instructions","293","1232018","0.0-4.0-1.1-0.1","spark_pilot_norest","8661","2","16","Female","","","","","","","16270.100000023842","<p> Remember, when you see a picture of the place, use the up and down keys to <b>find an animal</b>.</p>
            <p> When you encounter an animal, you should use the left and right keys to <b>select a treasure chest</b>.</p>
            <p> Don't forget to look out for the robber! </p>","","instructions","","","","","","","","","","","",""
"revaluation","294","1238040","0.0-4.0-2.1-0.50","spark_pilot_norest","8661","2","16","Female","","false","","","","","[903.8999999761581,615]","./assets/img/canyon/memory/3.jpg","[""ArrowUp"",""ArrowLeft""]","value training","canyon","26","{""ArrowUp,ArrowLeft"":26,""ArrowUp,ArrowRight"":10,""ArrowDown,ArrowLeft"":5,""ArrowDown,ArrowRight"":17}","true","ArrowUp,ArrowLeft","false","original","2","0","","",""
"html-keyboard-response","295","1238544","0.0-4.0-2.1-1.50","spark_pilot_norest","8661","2","16","Female","","","","","","","null","<div style=""font-size:60px;"">+</div>","null","fixation","","","","","","","","","1","","",""
"revaluation","296","1242571","0.0-4.0-2.1-0.51","spark_pilot_norest","8661","2","16","Female","","false","","","","","[267.39999997615814]","./assets/img/canyon/catch/2.jpg","[""ArrowUp""]","value training","canyon","-10","{""ArrowUp,ArrowLeft"":26,""ArrowUp,ArrowRight"":10,""ArrowDown,ArrowLeft"":5,""ArrowDown,ArrowRight"":17}","false","ArrowUp","true","original","2","2","","",""
"html-keyboard-response","297","1243075","0.0-4.0-2.1-1.51","spark_pilot_norest","8661","2","16","Female","","","","","","","null","<div style=""font-size:60px;"">+</div>","null","fixation","","","","","","","","","3","","",""
"revaluation","298","1249102","0.0-4.0-2.1-0.52","spark_pilot_norest","8661","2","16","Female","","false","","","","","[937,373]","./assets/img/canyon/memory/12.jpg","[""ArrowUp"",""ArrowRight""]","value training","canyon","10","{""ArrowUp,ArrowLeft"":26,""ArrowUp,ArrowRight"":10,""ArrowDown,ArrowLeft"":5,""ArrowDown,ArrowRight"":17}","false","ArrowUp,ArrowRight","false","original","2","4","","",""
"html-keyboard-response","299","1249606","0.0-4.0-2.1-1.52","spark_pilot_norest","8661","2","16","Female","","","","","","","null","<div style=""font-size:60px;"">+</div>","null","fixation","","","","","","","","","5","","",""
"revaluation","300","1255641","0.0-4.0-2.1-0.53","spark_pilot_norest","8661","2","16","Female","","false","","","","","[283,420.2000000476837]","./assets/img/canyon/memory/13.jpg","[""ArrowDown"",""ArrowLeft""]","value training","canyon","5","{""ArrowUp,ArrowLeft"":26,""ArrowUp,ArrowRight"":10,""ArrowDown,ArrowLeft"":5,""ArrowDown,ArrowRight"":17}","false","ArrowDown,ArrowLeft","false","original","2","6","","",""
"html-keyboard-response","301","1256155","0.0-4.0-2.1-1.53","spark_pilot_norest","8661","2","16","Female","","","","","","","null","<div style=""font-size:60px;"">+</div>","null","fixation","","","","","","","","","7","","",""
"revaluation","302","1260175","0.0-4.0-2.1-0.54","spark_pilot_norest","8661","2","16","Female","","false","","","","","[966.2999999523163]","./assets/img/canyon/catch/3.jpg","[""spaceBar""]","value training","canyon","0","{""ArrowUp,ArrowLeft"":26,""ArrowUp,ArrowRight"":10,""ArrowDown,ArrowLeft"":5,""ArrowDown,ArrowRight"":17}","true","spaceBar","true","original","2","8","","",""
"html-keyboard-response","303","1260677","0.0-4.0-2.1-1.54","spark_pilot_norest","8661","2","16","Female","","","","","","","null","<div style=""font-size:60px;"">+</div>","null","fixation","","","","","","","","","9","","",""
"revaluation","304","1266698","0.0-4.0-2.1-0.55","spark_pilot_norest","8661","2","16","Female","","false","","","","","[604.7000000476837,474.8000000715256]","./assets/img/canyon/memory/30.jpg","[""ArrowDown"",""ArrowRight""]","value training","canyon","17","{""ArrowUp,ArrowLeft"":26,""ArrowUp,ArrowRight"":10,""ArrowDown,ArrowLeft"":5,""ArrowDown,ArrowRight"":17}","false","ArrowDown,ArrowRight","false","original","2","10","","",""
"html-keyboard-response","305","1267200","0.0-4.0-2.1-1.55","spark_pilot_norest","8661","2","16","Female","","","","","","","null","<div style=""font-size:60px;"">+</div>","null","fixation","","","","","","","","","11","","",""
"revaluation","306","1273225","0.0-4.0-2.1-0.56","spark_pilot_norest","8661","2","16","Female","","false","","","","","[475.89999997615814,543.8000000715256]","./assets/img/canyon/memory/34.jpg","[""ArrowUp"",""ArrowLeft""]","value training","canyon","26","{""ArrowUp,ArrowLeft"":26,""ArrowUp,ArrowRight"":10,""ArrowDown,ArrowLeft"":5,""ArrowDown,ArrowRight"":17}","true","ArrowUp,ArrowLeft","false","original","2","12","","",""
"html-keyboard-response","307","1273733","0.0-4.0-2.1-1.56","spark_pilot_norest","8661","2","16","Female","","","","","","","null","<div style=""font-size:60px;"">+</div>","null","fixation","","","","","","","","","13","","",""
"revaluation","308","1279753","0.0-4.0-2.1-0.57","spark_pilot_norest","8661","2","16","Female","","false","","","","","[422.7999999523163,927.3999999761581]","./assets/img/canyon/memory/38.jpg","[""ArrowUp"",""ArrowLeft""]","value training","canyon","26","{""ArrowUp,ArrowLeft"":26,""ArrowUp,ArrowRight"":10,""ArrowDown,ArrowLeft"":5,""ArrowDown,ArrowRight"":17}","true","ArrowUp,ArrowLeft","false","original","2","14","","",""
"html-keyboard-response","309","1280265","0.0-4.0-2.1-1.57","spark_pilot_norest","8661","2","16","Female","","","","","","","null","<div style=""font-size:60px;"">+</div>","null","fixation","","","","","","","","","15","","",""
"revaluation","310","1284275","0.0-4.0-2.1-0.58","spark_pilot_norest","8661","2","16","Female","","false","","","","","[744.1000000238419]","./assets/img/canyon/catch/5.jpg","[""spaceBar""]","value training","canyon","0","{""ArrowUp,ArrowLeft"":26,""ArrowUp,ArrowRight"":10,""ArrowDown,ArrowLeft"":5,""ArrowDown,ArrowRight"":17}","true","spaceBar","true","original","2","16","","",""
"html-keyboard-response","311","1284779","0.0-4.0-2.1-1.58","spark_pilot_norest","8661","2","16","Female","","","","","","","null","<div style=""font-size:60px;"">+</div>","null","fixation","","","","","","","","","17","","",""
