"trial_type","trial_index","time_elapsed","internal_node_id","task_version","subject_id","assigned_condition","age","gender","success","timeout","failed_images","failed_audio","failed_video","browser_interaction","rt","stimulus","response","task_part","environment","score","rewardMap","correct","fullState","isCatch","condition","order","trial_num","key_press","ground_truth","bonus"
"pavlovia","0","1990","0.0-0.0","spark_pilot_norest","10114","1","23","Male","","","","","","","","","","","","","","","","","","","","","",""
"preload","1","9929","0.0-1.0","spark_pilot_norest","10114","1","23","Male","true","false","[]","[]","[]","[{""event"":""fullscreenenter"",""trial"":2,""time"":302671}]","","","","","","","","","","","","","","","",""
"fullscreen","2","303624","0.0-2.0","spark_pilot_norest","10114","1","23","Male","true","","","","","","","","","","","","","","","","","","","","",""
"audio-button-response","3","305237","0.0-3.0-0.0-0.0","spark_pilot_norest","10114","1","23","Male","","","","","","","1571","./assets/audio/audiotest/turtle.mp3","2","audio_test","","","","","","","","","","","",""
"learning-instructions","4","314611","0.0-3.0-1.0-0.0","spark_pilot_norest","10114","1","23","Male","","","","","","","2378.2000000029802","<p> Welcome! Please remember to stay in fullscreen mode and don't click away from the experiment. </p>","","instructions","","","","","","","","","","","",""
"learning-instructions","5","323860","0.0-3.0-1.0-0.1","spark_pilot_norest","10114","1","23","Male","","","","","","","821.7000000029802","<p> Today you will be playing a game to earn treasure. </p>
            <p> At the end of the experiment, you will earn a bonus based on how much treasure you find. </p>
            <img src='./assets/img/instructions/treasure.jpg' class='instructions-image'>","","instructions","","","","","","","","","","","",""
"learning-instructions","6","333044","0.0-3.0-1.0-0.2","spark_pilot_norest","10114","1","23","Male","","","","","","","896.5","<p> Animals have hidden treasure in treasure chests. </p>
            <p> You need to first find an animal and then choose which of their treasure chests to search. </p>
            <img src='./assets/img/space/animals/cat.jpg' class='instructions-image'>","","instructions","","","","","","","","","","","",""
"learning-instructions","7","346954","0.0-3.0-1.0-0.3","spark_pilot_norest","10114","1","23","Male","","","","","","","754.6000000089407","<p> In each round, you will search for treasure in a different place. In the real game, there will be two rounds. </p>
            <p> You will begin with a separate, practice round where you will search for treasure in outer space. </p>
            <img src='./assets/img/space/0.jpg' class='instructions-image'>","","instructions","","","","","","","","","","","",""
"learning-instructions","8","359761","0.0-3.0-1.0-0.4","spark_pilot_norest","10114","1","23","Male","","","","","","","1361.800000011921","<p> On every turn, you will see a picture of the place that you are in, but the specific image may be different each time. </p>
            <p> For example, both of these images mean you are in outer space. </p>
            <img src='./assets/img/instructions/outerspace.jpg' class='instructions-image'>","","instructions","","","","","","","","","","","",""
"learning-instructions","9","368699","0.0-3.0-1.0-0.5","spark_pilot_norest","10114","1","23","Male","","","","","","","1101","<p> You need to decide which direction to travel in. </p>
            <p> You can choose between going <b>up or down</b> by using the arrow keys. </p>
            <img src='./assets/img/instructions/updown.jpg' class='instructions-image'>","","instructions","","","","","","","","","","","",""
"learning-instructions","10","378311","0.0-3.0-1.0-0.6","spark_pilot_norest","10114","1","23","Male","","","","","","","773.1999999880791","<p> You will have <b>2 seconds</b> to make your choice. </p>
            <p> If you do not make a choice within 2 seconds, you will not find an animal or earn treasure. </p>
            <img src='./assets/img/instructions/2seconds.jpg' class='instructions-image'>","","instructions","","","","","","","","","","","",""
"learning-instructions","11","386450","0.0-3.0-1.0-0.7","spark_pilot_norest","10114","1","23","Male","","","","","","","1072.3999999910593","<p> Let’s try practicing that now! </p>
            <p> When you see a picture of the place you are in, press the <b>up</b> key to travel up. </p>
            <img src='./assets/img/instructions/pressUp.jpg' class='instructions-image'>","","instructions","","","","","","","","","","","",""
"revaluation","12","390472","0.0-3.0-2.0-0.0","spark_pilot_norest","10114","1","23","Male","","false","","","","","[347.29999999701977]","./assets/img/space/0.jpg","[""ArrowUp""]","first stage practice","space","0","null","null","ArrowUp","false","","","","","",""
"html-keyboard-response","13","390975","0.0-3.0-2.0-1.0","spark_pilot_norest","10114","1","23","Male","","","","","","","null","<div style=""font-size:60px;"">+</div>","null","fixation","","","","","","","","","","","",""
"revaluation","14","394981","0.0-3.0-2.0-0.1","spark_pilot_norest","10114","1","23","Male","","false","","","","","[1548.0999999940395]","./assets/img/space/1.jpg","[""ArrowUp""]","first stage practice","space","0","null","null","ArrowUp","false","","","","","",""
"html-keyboard-response","15","395483","0.0-3.0-2.0-1.1","spark_pilot_norest","10114","1","23","Male","","","","","","","null","<div style=""font-size:60px;"">+</div>","null","fixation","","","","","","","","","","","",""
"revaluation","16","399486","0.0-3.0-2.0-0.2","spark_pilot_norest","10114","1","23","Male","","false","","","","","[663.1000000089407]","./assets/img/space/2.jpg","[""ArrowUp""]","first stage practice","space","0","null","null","ArrowUp","false","","","","","",""
"html-keyboard-response","17","399988","0.0-3.0-2.0-1.2","spark_pilot_norest","10114","1","23","Male","","","","","","","null","<div style=""font-size:60px;"">+</div>","null","fixation","","","","","","","","","","","",""
"learning-instructions","18","405230","0.0-3.0-3.0-0.0","spark_pilot_norest","10114","1","23","Male","","","","","","","532.2999999970198","<p> Great job! Now try pressing the <b>down</b> key to travel down. </p>
            <img src='./assets/img/instructions/pressDown.jpg' class='instructions-image'>","","instructions","","","","","","","","","","","",""
"revaluation","19","409234","0.0-3.0-4.0-0.0","spark_pilot_norest","10114","1","23","Male","","false","","","","","[421.29999999701977]","./assets/img/space/3.jpg","[""ArrowDown""]","first stage practice","space","0","null","null","ArrowDown","false","","","","","",""
"html-keyboard-response","20","409736","0.0-3.0-4.0-1.0","spark_pilot_norest","10114","1","23","Male","","","","","","","null","<div style=""font-size:60px;"">+</div>","null","fixation","","","","","","","","","","","",""
"revaluation","21","413741","0.0-3.0-4.0-0.1","spark_pilot_norest","10114","1","23","Male","","false","","","","","[270.5]","./assets/img/space/4.jpg","[""ArrowDown""]","first stage practice","space","0","null","null","ArrowDown","false","","","","","",""
"html-keyboard-response","22","414243","0.0-3.0-4.0-1.1","spark_pilot_norest","10114","1","23","Male","","","","","","","null","<div style=""font-size:60px;"">+</div>","null","fixation","","","","","","","","","","","",""
"revaluation","23","418248","0.0-3.0-4.0-0.2","spark_pilot_norest","10114","1","23","Male","","false","","","","","[298]","./assets/img/space/5.jpg","[""ArrowDown""]","first stage practice","space","0","null","null","ArrowDown","false","","","","","",""
"html-keyboard-response","24","418749","0.0-3.0-4.0-1.2","spark_pilot_norest","10114","1","23","Male","","","","","","","null","<div style=""font-size:60px;"">+</div>","null","fixation","","","","","","","","","","","",""
"learning-instructions","25","429670","0.0-3.0-5.0-0.0","spark_pilot_norest","10114","1","23","Male","","","","","","","1032.2999999970198","<p> The animals don’t move, so the animal in the upper part of a place will stay in the upper part of a place, and the animal in the lower part of a place will stay in the lower part of a place. </p>","","instructions","","","","","","","","","","","",""
"learning-instructions","26","439433","0.0-3.0-5.0-0.1","spark_pilot_norest","10114","1","23","Male","","","","","","","604.8999999910593","<p> Each animal has two treasure chests for you to choose from. </p>
            <p> The amount of treasure in each chest can range from <b> 0 to 40 pieces.</b></p>","","instructions","","","","","","","","","","","",""
"learning-instructions","27","451509","0.0-3.0-5.0-0.2","spark_pilot_norest","10114","1","23","Male","","","","","","","871.6000000089407","<p> You should decide which chest to search for treasure by using the <b>left</b> and <b>right</b> arrow keys. </p>
            <p><b> Pay attention to which animal is on the screen, as the animals have different treasure chests. </b></p>
            <img src='./assets/img/instructions/leftright.jpg' class='instructions-image'>","","instructions","","","","","","","","","","","",""
"learning-instructions","28","459351","0.0-3.0-5.0-0.3","spark_pilot_norest","10114","1","23","Male","","","","","","","1453.5999999940395","<p> Let’s try practicing that now. </p>
            <p> When you see an animal, choose which chest to search for treasure. </p>
            <img src='./assets/img/instructions/chooseChest.jpg' class='instructions-image'>","","instructions","","","","","","","","","","","",""
"revaluation","29","463356","0.0-3.0-6.0-0.0","spark_pilot_norest","10114","1","23","Male","","false","","","","","[1719.7999999970198]","./assets/img/space/animals/rabbit.jpg","[""ArrowRight""]","second stage practice","space","23","{""ArrowUp,ArrowLeft"":3,""ArrowUp,ArrowRight"":36,""ArrowDown,ArrowLeft"":15,""ArrowDown,ArrowRight"":23}","true","ArrowDown,ArrowRight","","","","","","",""
"html-keyboard-response","30","463857","0.0-3.0-6.0-1.0","spark_pilot_norest","10114","1","23","Male","","","","","","","null","<div style=""font-size:60px;"">+</div>","null","fixation","","","","","","","","","","","",""
"revaluation","31","467861","0.0-3.0-6.0-0.1","spark_pilot_norest","10114","1","23","Male","","false","","","","","[890.5]","./assets/img/space/animals/rabbit.jpg","[""ArrowLeft""]","second stage practice","space","15","{""ArrowUp,ArrowLeft"":3,""ArrowUp,ArrowRight"":36,""ArrowDown,ArrowLeft"":15,""ArrowDown,ArrowRight"":23}","false","ArrowDown,ArrowLeft","","","","","","",""
"html-keyboard-response","32","468362","0.0-3.0-6.0-1.1","spark_pilot_norest","10114","1","23","Male","","","","","","","null","<div style=""font-size:60px;"">+</div>","null","fixation","","","","","","","","","","","",""
"revaluation","33","472367","0.0-3.0-6.0-0.2","spark_pilot_norest","10114","1","23","Male","","true","","","","","[]","./assets/img/space/animals/cat.jpg","[]","second stage practice","space","-5","{""ArrowUp,ArrowLeft"":3,""ArrowUp,ArrowRight"":36,""ArrowDown,ArrowLeft"":15,""ArrowDown,ArrowRight"":23}","false","ArrowUp","","","","","","",""
"html-keyboard-response","34","472868","0.0-3.0-6.0-1.2","spark_pilot_norest","10114","1","23","Male","","","","","","","null","<div style=""font-size:60px;"">+</div>","null","fixation","","","","","","","","","","","",""
"revaluation","35","476873","0.0-3.0-6.0-0.3","spark_pilot_norest","10114","1","23","Male","","false","","","","","[444.40000000596046]","./assets/img/space/animals/cat.jpg","[""ArrowRight""]","second stage practice","space","36","{""ArrowUp,ArrowLeft"":3,""ArrowUp,ArrowRight"":36,""ArrowDown,ArrowLeft"":15,""ArrowDown,ArrowRight"":23}","true","ArrowUp,ArrowRight","","","","","","",""
"html-keyboard-response","36","477375","0.0-3.0-6.0-1.3","spark_pilot_norest","10114","1","23","Male","","","","","","","null","<div style=""font-size:60px;"">+</div>","null","fixation","","","","","","","","","","","",""
"learning-instructions","37","495359","0.0-3.0-7.0-0.0","spark_pilot_norest","10114","1","23","Male","","","","","","","1131.5","<p> Great job. Now let’s try putting it together. </p>
            <p> On each turn, you will first see a picture to remind you of the place you are in, and you need to choose whether to go up or down. </p>
            <p> Then you will see an animal and choose which of its chests to search for treasure. </p>","","instructions","","","","","","","","","","","",""
"learning-instructions","38","504060","0.0-3.0-7.0-0.1","spark_pilot_norest","10114","1","23","Male","","","","","","","432.20000000298023","<p> When you choose whether to go up or down, try to go to the animal with the chest with the most treasure. </p>
            <p> Try practicing that now! </p>","","instructions","","","","","","","","","","","",""
"revaluation","39","510063","0.0-3.0-8.0-0.0","spark_pilot_norest","10114","1","23","Male","","true","","","","","[463.09999999403954]","./assets/img/space/6.jpg","[""ArrowUp""]","full practice","space","-5","{""ArrowUp,ArrowLeft"":3,""ArrowUp,ArrowRight"":36,""ArrowDown,ArrowLeft"":15,""ArrowDown,ArrowRight"":23}","false","ArrowUp","false","","","","","",""
"html-keyboard-response","40","510566","0.0-3.0-8.0-1.0","spark_pilot_norest","10114","1","23","Male","","","","","","","null","<div style=""font-size:60px;"">+</div>","null","fixation","","","","","","","","","","","",""
"revaluation","41","516573","0.0-3.0-8.0-0.1","spark_pilot_norest","10114","1","23","Male","","false","","","","","[328.29999999701977,147.59999999403954]","./assets/img/space/7.jpg","[""ArrowDown"",""ArrowRight""]","full practice","space","23","{""ArrowUp,ArrowLeft"":3,""ArrowUp,ArrowRight"":36,""ArrowDown,ArrowLeft"":15,""ArrowDown,ArrowRight"":23}","false","ArrowDown,ArrowRight","false","","","","","",""
"html-keyboard-response","42","517074","0.0-3.0-8.0-1.1","spark_pilot_norest","10114","1","23","Male","","","","","","","null","<div style=""font-size:60px;"">+</div>","null","fixation","","","","","","","","","","","",""
"revaluation","43","523082","0.0-3.0-8.0-0.2","spark_pilot_norest","10114","1","23","Male","","false","","","","","[384,96.79999999701977]","./assets/img/space/8.jpg","[""ArrowUp"",""ArrowRight""]","full practice","space","36","{""ArrowUp,ArrowLeft"":3,""ArrowUp,ArrowRight"":36,""ArrowDown,ArrowLeft"":15,""ArrowDown,ArrowRight"":23}","true","ArrowUp,ArrowRight","false","","","","","",""
"html-keyboard-response","44","523583","0.0-3.0-8.0-1.2","spark_pilot_norest","10114","1","23","Male","","","","","","","null","<div style=""font-size:60px;"">+</div>","null","fixation","","","","","","","","","","","",""
"revaluation","45","529589","0.0-3.0-8.0-0.3","spark_pilot_norest","10114","1","23","Male","","false","","","","","[517.1000000089407,209]","./assets/img/space/9.jpg","[""ArrowDown"",""ArrowLeft""]","full practice","space","15","{""ArrowUp,ArrowLeft"":3,""ArrowUp,ArrowRight"":36,""ArrowDown,ArrowLeft"":15,""ArrowDown,ArrowRight"":23}","false","ArrowDown,ArrowLeft","false","","","","","",""
"html-keyboard-response","46","530090","0.0-3.0-8.0-1.3","spark_pilot_norest","10114","1","23","Male","","","","","","","null","<div style=""font-size:60px;"">+</div>","null","fixation","","","","","","","","","","","",""
"revaluation","47","536095","0.0-3.0-8.0-0.4","spark_pilot_norest","10114","1","23","Male","","false","","","","","[495.20000000298023,166.5]","./assets/img/space/10.jpg","[""ArrowUp"",""ArrowRight""]","full practice","space","36","{""ArrowUp,ArrowLeft"":3,""ArrowUp,ArrowRight"":36,""ArrowDown,ArrowLeft"":15,""ArrowDown,ArrowRight"":23}","true","ArrowUp,ArrowRight","false","","","","","",""
"html-keyboard-response","48","536597","0.0-3.0-8.0-1.4","spark_pilot_norest","10114","1","23","Male","","","","","","","null","<div style=""font-size:60px;"">+</div>","null","fixation","","","","","","","","","","","",""
"learning-instructions","49","548307","0.0-3.0-9.0-0.0","spark_pilot_norest","10114","1","23","Male","","","","","","","1378.3999999910593","<p> One last thing: sometimes, you will see a robber. The robber can be anywhere in the picture. </p>
            <p> If you do not stop them, you will lose treasure. </p>
            <img src='./assets/img/instructions/robber.jpg' class='instructions-image'>","","instructions","","","","","","","","","","","",""
"learning-instructions","50","556183","0.0-3.0-9.0-0.1","spark_pilot_norest","10114","1","23","Male","","","","","","","685.3999999910593","<p> If you see the robber, you should <b>press the space bar</b> rather than using the arrow keys. </p>
            <p> Try practicing that now! </p>","","instructions","","","","","","","","","","","",""
"revaluation","51","560189","0.0-3.0-10.0-0.0","spark_pilot_norest","10114","1","23","Male","","false","","","","","[546.8999999910593]","./assets/img/space/catch/0.jpg","[""spaceBar""]","catch practice","space","0","{""ArrowUp,ArrowLeft"":3,""ArrowUp,ArrowRight"":36,""ArrowDown,ArrowLeft"":15,""ArrowDown,ArrowRight"":23}","true","spaceBar","true","","","","","",""
"html-keyboard-response","52","560689","0.0-3.0-10.0-1.0","spark_pilot_norest","10114","1","23","Male","","","","","","","null","<div style=""font-size:60px;"">+</div>","null","fixation","","","","","","","","","","","",""
"revaluation","53","564693","0.0-3.0-10.0-0.1","spark_pilot_norest","10114","1","23","Male","","false","","","","","[439.6000000089407]","./assets/img/space/catch/1.jpg","[""spaceBar""]","catch practice","space","0","{""ArrowUp,ArrowLeft"":3,""ArrowUp,ArrowRight"":36,""ArrowDown,ArrowLeft"":15,""ArrowDown,ArrowRight"":23}","true","spaceBar","true","","","","","",""
"html-keyboard-response","54","565195","0.0-3.0-10.0-1.1","spark_pilot_norest","10114","1","23","Male","","","","","","","null","<div style=""font-size:60px;"">+</div>","null","fixation","","","","","","","","","","","",""
"revaluation","55","569200","0.0-3.0-10.0-0.2","spark_pilot_norest","10114","1","23","Male","","false","","","","","[289.6000000089407]","./assets/img/space/catch/2.jpg","[""spaceBar""]","catch practice","space","0","{""ArrowUp,ArrowLeft"":3,""ArrowUp,ArrowRight"":36,""ArrowDown,ArrowLeft"":15,""ArrowDown,ArrowRight"":23}","true","spaceBar","true","","","","","",""
"html-keyboard-response","56","569702","0.0-3.0-10.0-1.2","spark_pilot_norest","10114","1","23","Male","","","","","","","null","<div style=""font-size:60px;"">+</div>","null","fixation","","","","","","","","","","","",""
"learning-instructions","57","576012","0.0-3.0-11.0-0.0-0.0","spark_pilot_norest","10114","1","23","Male","","","","","","","1034.7999999970198","<p> Now, you will practice a shortened version of the game to get a sense of how it all fits together. </p>","","instructions","","","","","","","","","","","",""
"learning-instructions","58","579973","0.0-3.0-11.0-0.0-0.1","spark_pilot_norest","10114","1","23","Male","","","","","","","765.4000000059605","<p>This time you are searching for treasure in outer space.</p>","","instructions","","","","","","","","","","","",""
"learning-instructions","59","595933","0.0-3.0-11.0-1.0-0.0","spark_pilot_norest","10114","1","23","Male","","","","","","","1165.5","<p> Remember, when you see a picture of the place, use the up and down keys to <b>find an animal</b>.</p>
            <p> When you encounter an animal, you should use the left and right keys to <b>select a treasure chest</b>.</p>
            <p> Don't forget to look out for the robber! </p>","","instructions","","","","","","","","","","","",""
"revaluation","60","601940","0.0-3.0-11.0-2.0-0.0","spark_pilot_norest","10114","1","23","Male","","false","","","","","[1477.800000011921,1825.0999999940395]","./assets/img/space/11.jpg","[""ArrowUp"",""ArrowLeft""]","practice block","space","3","{""ArrowUp,ArrowLeft"":3,""ArrowUp,ArrowRight"":36,""ArrowDown,ArrowLeft"":15,""ArrowDown,ArrowRight"":23}","false","ArrowUp,ArrowLeft","false","","","","","",""
"html-keyboard-response","61","602442","0.0-3.0-11.0-2.0-1.0","spark_pilot_norest","10114","1","23","Male","","","","","","","null","<div style=""font-size:60px;"">+</div>","null","fixation","","","","","","","","","","","",""
"revaluation","62","608447","0.0-3.0-11.0-2.0-0.1","spark_pilot_norest","10114","1","23","Male","","false","","","","","[348.20000000298023,203.90000000596046]","./assets/img/space/12.jpg","[""ArrowDown"",""ArrowRight""]","practice block","space","23","{""ArrowUp,ArrowLeft"":3,""ArrowUp,ArrowRight"":36,""ArrowDown,ArrowLeft"":15,""ArrowDown,ArrowRight"":23}","false","ArrowDown,ArrowRight","false","","","","","",""
"html-keyboard-response","63","608948","0.0-3.0-11.0-2.0-1.1","spark_pilot_norest","10114","1","23","Male","","","","","","","null","<div style=""font-size:60px;"">+</div>","null","fixation","","","","","","","","","","","",""
"revaluation","64","614953","0.0-3.0-11.0-2.0-0.2","spark_pilot_norest","10114","1","23","Male","","false","","","","","[501.20000000298023,153.1000000089407]","./assets/img/space/13.jpg","[""ArrowUp"",""ArrowLeft""]","practice block","space","3","{""ArrowUp,ArrowLeft"":3,""ArrowUp,ArrowRight"":36,""ArrowDown,ArrowLeft"":15,""ArrowDown,ArrowRight"":23}","false","ArrowUp,ArrowLeft","false","","","","","",""
"html-keyboard-response","65","615455","0.0-3.0-11.0-2.0-1.2","spark_pilot_norest","10114","1","23","Male","","","","","","","null","<div style=""font-size:60px;"">+</div>","null","fixation","","","","","","","","","","","",""
"revaluation","66","621461","0.0-3.0-11.0-2.0-0.3","spark_pilot_norest","10114","1","23","Male","","false","","","","","[421.70000000298023,270.19999998807907]","./assets/img/space/14.jpg","[""ArrowUp"",""ArrowRight""]","practice block","space","36","{""ArrowUp,ArrowLeft"":3,""ArrowUp,ArrowRight"":36,""ArrowDown,ArrowLeft"":15,""ArrowDown,ArrowRight"":23}","true","ArrowUp,ArrowRight","false","","","","","",""
"html-keyboard-response","67","621962","0.0-3.0-11.0-2.0-1.3","spark_pilot_norest","10114","1","23","Male","","","","","","","null","<div style=""font-size:60px;"">+</div>","null","fixation","","","","","","","","","","","",""
"revaluation","68","627966","0.0-3.0-11.0-2.0-0.4","spark_pilot_norest","10114","1","23","Male","","false","","","","","[1429.7000000029802,883.5]","./assets/img/space/11.jpg","[""ArrowDown"",""ArrowLeft""]","practice block","space","15","{""ArrowUp,ArrowLeft"":3,""ArrowUp,ArrowRight"":36,""ArrowDown,ArrowLeft"":15,""ArrowDown,ArrowRight"":23}","false","ArrowDown,ArrowLeft","false","","","","","",""
"html-keyboard-response","69","628469","0.0-3.0-11.0-2.0-1.4","spark_pilot_norest","10114","1","23","Male","","","","","","","null","<div style=""font-size:60px;"">+</div>","null","fixation","","","","","","","","","","","",""
"revaluation","70","634473","0.0-3.0-11.0-2.0-0.5","spark_pilot_norest","10114","1","23","Male","","false","","","","","[739.2999999970198,1080.6000000089407]","./assets/img/space/12.jpg","[""ArrowDown"",""ArrowRight""]","practice block","space","23","{""ArrowUp,ArrowLeft"":3,""ArrowUp,ArrowRight"":36,""ArrowDown,ArrowLeft"":15,""ArrowDown,ArrowRight"":23}","false","ArrowDown,ArrowRight","false","","","","","",""
"html-keyboard-response","71","634974","0.0-3.0-11.0-2.0-1.5","spark_pilot_norest","10114","1","23","Male","","","","","","","null","<div style=""font-size:60px;"">+</div>","null","fixation","","","","","","","","","","","",""
"revaluation","72","640979","0.0-3.0-11.0-2.0-0.6","spark_pilot_norest","10114","1","23","Male","","false","","","","","[577.7999999970198,376.20000000298023]","./assets/img/space/13.jpg","[""ArrowDown"",""ArrowLeft""]","practice block","space","15","{""ArrowUp,ArrowLeft"":3,""ArrowUp,ArrowRight"":36,""ArrowDown,ArrowLeft"":15,""ArrowDown,ArrowRight"":23}","false","ArrowDown,ArrowLeft","false","","","","","",""
"html-keyboard-response","73","641480","0.0-3.0-11.0-2.0-1.6","spark_pilot_norest","10114","1","23","Male","","","","","","","null","<div style=""font-size:60px;"">+</div>","null","fixation","","","","","","","","","","","",""
"revaluation","74","647488","0.0-3.0-11.0-2.0-0.7","spark_pilot_norest","10114","1","23","Male","","false","","","","","[448.90000000596046,767]","./assets/img/space/14.jpg","[""ArrowDown"",""ArrowLeft""]","practice block","space","15","{""ArrowUp,ArrowLeft"":3,""ArrowUp,ArrowRight"":36,""ArrowDown,ArrowLeft"":15,""ArrowDown,ArrowRight"":23}","false","ArrowDown,ArrowLeft","false","","","","","",""
"html-keyboard-response","75","647990","0.0-3.0-11.0-2.0-1.7","spark_pilot_norest","10114","1","23","Male","","","","","","","null","<div style=""font-size:60px;"">+</div>","null","fixation","","","","","","","","","","","",""
"revaluation","76","651993","0.0-3.0-11.0-2.0-0.8","spark_pilot_norest","10114","1","23","Male","","false","","","","","[776]","./assets/img/space/catch/3.jpg","[""spaceBar""]","practice block","space","0","{""ArrowUp,ArrowLeft"":3,""ArrowUp,ArrowRight"":36,""ArrowDown,ArrowLeft"":15,""ArrowDown,ArrowRight"":23}","true","spaceBar","true","","","","","",""
"html-keyboard-response","77","652494","0.0-3.0-11.0-2.0-1.8","spark_pilot_norest","10114","1","23","Male","","","","","","","null","<div style=""font-size:60px;"">+</div>","null","fixation","","","","","","","","","","","",""
"learning-instructions","78","666302","0.0-3.0-11.0-3.0-0.0","spark_pilot_norest","10114","1","23","Male","","","","","","","844","<p> Now, you will travel with a friend who will choose whether you go up or down first. </p>
            <p> On these turns, you will just see the animal that they found. You will still get to choose which chest to search for treasure.</p>","","instructions","","","","","","","","","","","",""
"revaluation","79","670307","0.0-3.0-11.0-4.0-0.0","spark_pilot_norest","10114","1","23","Male","","false","","","","","[1179.3999999910593]","./assets/img/space/animals/rabbit.jpg","[""ArrowLeft""]","practice block","space","15","{""ArrowUp,ArrowLeft"":3,""ArrowUp,ArrowRight"":36,""ArrowDown,ArrowLeft"":15,""ArrowDown,ArrowRight"":23}","false","ArrowDown,ArrowLeft","","","","","","",""
"html-keyboard-response","80","670809","0.0-3.0-11.0-4.0-1.0","spark_pilot_norest","10114","1","23","Male","","","","","","","null","<div style=""font-size:60px;"">+</div>","null","fixation","","","","","","","","","","","",""
"revaluation","81","674813","0.0-3.0-11.0-4.0-0.1","spark_pilot_norest","10114","1","23","Male","","false","","","","","[395.29999999701977]","./assets/img/space/animals/cat.jpg","[""ArrowRight""]","practice block","space","36","{""ArrowUp,ArrowLeft"":3,""ArrowUp,ArrowRight"":36,""ArrowDown,ArrowLeft"":15,""ArrowDown,ArrowRight"":23}","true","ArrowUp,ArrowRight","","","","","","",""
"html-keyboard-response","82","675315","0.0-3.0-11.0-4.0-1.1","spark_pilot_norest","10114","1","23","Male","","","","","","","null","<div style=""font-size:60px;"">+</div>","null","fixation","","","","","","","","","","","",""
"revaluation","83","679318","0.0-3.0-11.0-4.0-0.2","spark_pilot_norest","10114","1","23","Male","","false","","","","","[440.09999999403954]","./assets/img/space/animals/cat.jpg","[""ArrowLeft""]","practice block","space","3","{""ArrowUp,ArrowLeft"":3,""ArrowUp,ArrowRight"":36,""ArrowDown,ArrowLeft"":15,""ArrowDown,ArrowRight"":23}","false","ArrowUp,ArrowLeft","","","","","","",""
"html-keyboard-response","84","679819","0.0-3.0-11.0-4.0-1.2","spark_pilot_norest","10114","1","23","Male","","","","","","","null","<div style=""font-size:60px;"">+</div>","null","fixation","","","","","","","","","","","",""
"revaluation","85","683822","0.0-3.0-11.0-4.0-0.3","spark_pilot_norest","10114","1","23","Male","","false","","","","","[276.29999999701977]","./assets/img/space/animals/rabbit.jpg","[""ArrowRight""]","practice block","space","23","{""ArrowUp,ArrowLeft"":3,""ArrowUp,ArrowRight"":36,""ArrowDown,ArrowLeft"":15,""ArrowDown,ArrowRight"":23}","true","ArrowDown,ArrowRight","","","","","","",""
"html-keyboard-response","86","684323","0.0-3.0-11.0-4.0-1.3","spark_pilot_norest","10114","1","23","Male","","","","","","","null","<div style=""font-size:60px;"">+</div>","null","fixation","","","","","","","","","","","",""
"learning-instructions","87","692469","0.0-3.0-11.0-5.0-0.0","spark_pilot_norest","10114","1","23","Male","","","","","","","null","<p> You have almost finished this part of the game! </p>
            <p> We are going to ask you to make a few more choices. </p>","","instructions","","","","","","","","","","","",""
"learning-instructions","88","708508","0.0-3.0-11.0-5.0-0.1","spark_pilot_norest","10114","1","23","Male","","","","","","","null","<p> First, you need to decide whether to go up or down. When you see each picture, use the arrow keys to make your choice. </p>
            <p><b>You will not see which animal you found, but try to get to the one that will give you the most treasure.</b></p>","","instructions","","","","","","","","","","","",""
"html-keyboard-response","89","709509","0.0-3.0-11.0-6.0-0.0","spark_pilot_norest","10114","1","23","Male","","","","","","","null","<div style=""font-size:100px;color:red;"">Starting in...</div>","null","","","","","","","","","","","","",""
"html-keyboard-response","90","710510","0.0-3.0-11.0-6.0-1.0","spark_pilot_norest","10114","1","23","Male","","","","","","","null","<div style=""font-size:200px;color:red;"">3</div>","null","","","","","","","","","","","","",""
"html-keyboard-response","91","711512","0.0-3.0-11.0-6.0-2.0","spark_pilot_norest","10114","1","23","Male","","","","","","","null","<div style=""font-size:200px;color:red;"">2</div>","null","","","","","","","","","","","","",""
"html-keyboard-response","92","712513","0.0-3.0-11.0-6.0-3.0","spark_pilot_norest","10114","1","23","Male","","","","","","","null","<div style=""font-size:200px;color:red;"">1</div>","null","","","","","","","","","","","","",""
"revaluation","93","712784","0.0-3.0-11.0-7.0","spark_pilot_norest","10114","1","23","Male","","false","","","","","[270]","./assets/img/space/15.jpg","[""ArrowUp""]","practice block","space","0","{""ArrowUp,ArrowLeft"":3,""ArrowUp,ArrowRight"":36,""ArrowDown,ArrowLeft"":15,""ArrowDown,ArrowRight"":23}","true","ArrowUp","false","","","","","",""
"html-keyboard-response","94","713286","0.0-3.0-11.0-8.0","spark_pilot_norest","10114","1","23","Male","","","","","","","null","<div style=""font-size:60px;"">+</div>","null","fixation","","","","","","","","","","","",""
"learning-instructions","95","726680","0.0-3.0-11.0-9.0-0.0","spark_pilot_norest","10114","1","23","Male","","","","","","","null","<p> Now you will see the animals again and can search their chests for treasure. </p>
            <p> This time, you will not see how much treasure you earned, but you will earn more bonus money for making better choices. </p>","","instructions","","","","","","","","","","","",""
"html-keyboard-response","96","727681","0.0-3.0-11.0-10.0-0.0","spark_pilot_norest","10114","1","23","Male","","","","","","","null","<div style=""font-size:100px;color:red;"">Starting in...</div>","null","","","","","","","","","","","","",""
"html-keyboard-response","97","728683","0.0-3.0-11.0-10.0-1.0","spark_pilot_norest","10114","1","23","Male","","","","","","","null","<div style=""font-size:200px;color:red;"">3</div>","null","","","","","","","","","","","","",""
"html-keyboard-response","98","729684","0.0-3.0-11.0-10.0-2.0","spark_pilot_norest","10114","1","23","Male","","","","","","","null","<div style=""font-size:200px;color:red;"">2</div>","null","","","","","","","","","","","","",""
"html-keyboard-response","99","730685","0.0-3.0-11.0-10.0-3.0","spark_pilot_norest","10114","1","23","Male","","","","","","","null","<div style=""font-size:200px;color:red;"">1</div>","null","","","","","","","","","","","","",""
"revaluation","100","731452","0.0-3.0-11.0-11.0-0.0","spark_pilot_norest","10114","1","23","Male","","false","","","","","[764.5999999940395]","./assets/img/space/animals/cat.jpg","[""ArrowLeft""]","practice block","space","0","{""ArrowUp,ArrowLeft"":3,""ArrowUp,ArrowRight"":36,""ArrowDown,ArrowLeft"":15,""ArrowDown,ArrowRight"":23}","false","ArrowUp,ArrowLeft","","","","","","",""
"html-keyboard-response","101","731954","0.0-3.0-11.0-11.0-1.0","spark_pilot_norest","10114","1","23","Male","","","","","","","null","<div style=""font-size:60px;"">+</div>","null","fixation","","","","","","","","","","","",""
"revaluation","102","735531","0.0-3.0-11.0-11.0-0.1","spark_pilot_norest","10114","1","23","Male","","false","","","","","[3574.7999999970198]","./assets/img/space/animals/rabbit.jpg","[""ArrowRight""]","practice block","space","0","{""ArrowUp,ArrowLeft"":3,""ArrowUp,ArrowRight"":36,""ArrowDown,ArrowLeft"":15,""ArrowDown,ArrowRight"":23}","true","ArrowDown,ArrowRight","","","","","","",""
"html-keyboard-response","103","736032","0.0-3.0-11.0-11.0-1.1","spark_pilot_norest","10114","1","23","Male","","","","","","","null","<div style=""font-size:60px;"">+</div>","null","fixation","","","","","","","","","","","",""
"learning-instructions","104","741639","0.0-3.0-12.0-0.0","spark_pilot_norest","10114","1","23","Male","","","","","","","1020.3999999910593","<p> Before you start, we're going to ask you a few questions about how the game works. </p>","","instructions","","","","","","","","","","","",""
"comp-q","105","748222","0.0-3.0-13.0-0.0-0.0","spark_pilot_norest","10114","1","23","Male","","","","","","","979.5","<p> <b> True or False? </b> </p>
            <p> There can be 50 pieces of treasure in a given animal's chest. </p>","1","comp_question","","","","true","","","","","","","",""
"comp-q","106","755928","0.0-3.0-13.0-0.0-1.0","spark_pilot_norest","10114","1","23","Male","","","","","","","1040.4000000059605","<p> <b> That's right! </b> The amount of treasure in each chest can range from 0 to 40 pieces. </p>","0","comp_answer","","","","","","","","","","","",""
"comp-q","107","763668","0.0-3.0-13.0-0.1-0.1","spark_pilot_norest","10114","1","23","Male","","","","","","","599","<p> <b> True or False? </b> </p><p> In this game, all animals have the same amount of treasure in their left and right chests. </p>","1","comp_question","","","","true","","","","","","","",""
"comp-q","108","769945","0.0-3.0-13.0-0.1-1.1","spark_pilot_norest","10114","1","23","Male","","","","","","","1037","<p> <b> That's right! </b> Animals have different amounts of treasure in their treasure chests. </p>","0","comp_answer","","","","","","","","","","","",""
"comp-q","109","776259","0.0-3.0-13.0-0.2-0.2","spark_pilot_norest","10114","1","23","Male","","","","","","","461","<p> <b> True or False? </b> </p><p> The same animal will always be there if you go up in the same place. </p>","1","comp_question","","","","false","","","","","","","",""
"comp-q","110","784570","0.0-3.0-13.0-0.2-1.2","spark_pilot_norest","10114","1","23","Male","","","","","","","2001.4000000059605","<p> <b>Incorrect.</b> One animal lives in the upper part and one lives in the lower part of every place. </p>","0","comp_answer","","","","","","","","","","","",""
"comp-q","111","790905","0.0-3.0-13.0-0.3-0.3","spark_pilot_norest","10114","1","23","Male","","","","","","","507.29999999701977","<p> <b> True or False? </b> </p><p> The same animal will always be there if you go up in the same place. </p>","0","comp_question","","","","true","","","","","","","",""
"comp-q","112","798301","0.0-3.0-13.0-0.3-1.3","spark_pilot_norest","10114","1","23","Male","","","","","","","943","<p> <b> That's right! </b> One animal lives in the upper part and one lives in the lower part of every place. </p>","0","comp_answer","","","","","","","","","","","",""
"comp-q","113","804282","0.0-3.0-13.0-0.4-0.4","spark_pilot_norest","10114","1","23","Male","","","","","","","444.1000000089407","<p> <b> True or False? </b> </p><p> If you see a different picture, it means you are in a new place. </p>","0","comp_question","","","","false","","","","","","","",""
"comp-q","114","816339","0.0-3.0-13.0-0.4-1.4","spark_pilot_norest","10114","1","23","Male","","","","","","","931.2000000029802","<p> <b>Incorrect.</b> Lots of different images may show the same place. For example,  you may see three different images that all remind you that you are in outer space. </p>","0","comp_answer","","","","","","","","","","","",""
"comp-q","115","822309","0.0-3.0-13.0-0.5-0.5","spark_pilot_norest","10114","1","23","Male","","","","","","","470.79999999701977","<p> <b> True or False? </b> </p><p> If you see a different picture, it means you are in a new place. </p>","1","comp_question","","","","true","","","","","","","",""
"comp-q","116","835219","0.0-3.0-13.0-0.5-1.5","spark_pilot_norest","10114","1","23","Male","","","","","","","1650.5","<p> <b> That's right! </b> Lots of different images may show the same place. For example,  you may see three different images that all remind you that you are in outer space. </p>","0","comp_answer","","","","","","","","","","","",""
"learning-instructions","117","846429","0.0-3.0-14.0-0.0","spark_pilot_norest","10114","1","23","Male","","","","","","","1350.9000000059605","<p> Good job. Remember to do your best because the amount of treasure you earn will be converted into bonus money. </p>
            <p> It’s time to start the real game! </p>","","instructions","","","","","","","","","","","",""
"learning-instructions","118","850139","0.0-4.0-0.0-0.0","spark_pilot_norest","10114","1","23","Male","","","","","","","991.1000000089407","<p> This time you are searching for treasure in the <b>ocean</b>.</p>","","instructions","","","","","","","","","","","",""
"learning-instructions","119","868530","0.0-4.0-0.0-0.1","spark_pilot_norest","10114","1","23","Male","","","","","","","1081.1000000089407","<p><b>New</b> animals with <b>new</b> treasure chests live here. You need to explore to discover where the animal with the best treasure chest is.</p>
                    <p> Like before, once you figure out which animal has the chest with the most treasure, you should try to get to that animal and select that chest! </p>","","instructions","","","","","","","","","","","",""
"learning-instructions","120","884094","0.0-4.0-1.0-0.0","spark_pilot_norest","10114","1","23","Male","","","","","","","826.2999999970198","<p> Remember, when you see a picture of the place, use the up and down keys to <b>find an animal</b>.</p>
            <p> When you encounter an animal, you should use the left and right keys to <b>select a treasure chest</b>.</p>
            <p> Don't forget to look out for the robber! </p>","","instructions","","","","","","","","","","","",""
"revaluation","121","890100","0.0-4.0-2.0-0.0","spark_pilot_norest","10114","1","23","Male","","false","","","","","[1058.7999999970198,607.8999999910593]","./assets/img/ocean/memory/19.jpg","[""ArrowUp"",""ArrowLeft""]","value training","ocean","26","{""ArrowUp,ArrowLeft"":26,""ArrowUp,ArrowRight"":10,""ArrowDown,ArrowLeft"":5,""ArrowDown,ArrowRight"":17}","true","ArrowUp,ArrowLeft","false","original","1","0","","",""
"html-keyboard-response","122","890605","0.0-4.0-2.0-1.0","spark_pilot_norest","10114","1","23","Male","","","","","","","null","<div style=""font-size:60px;"">+</div>","null","fixation","","","","","","","","","1","","",""
"revaluation","123","896611","0.0-4.0-2.0-0.1","spark_pilot_norest","10114","1","23","Male","","false","","","","","[1264.4000000059605,484.90000000596046]","./assets/img/ocean/memory/17.jpg","[""ArrowUp"",""ArrowLeft""]","value training","ocean","26","{""ArrowUp,ArrowLeft"":26,""ArrowUp,ArrowRight"":10,""ArrowDown,ArrowLeft"":5,""ArrowDown,ArrowRight"":17}","true","ArrowUp,ArrowLeft","false","original","1","2","","",""
"html-keyboard-response","124","897112","0.0-4.0-2.0-1.1","spark_pilot_norest","10114","1","23","Male","","","","","","","null","<div style=""font-size:60px;"">+</div>","null","fixation","","","","","","","","","3","","",""
"revaluation","125","903119","0.0-4.0-2.0-0.2","spark_pilot_norest","10114","1","23","Male","","false","","","","","[470.3999999910593,268.79999999701977]","./assets/img/ocean/memory/30.jpg","[""ArrowDown"",""ArrowRight""]","value training","ocean","17","{""ArrowUp,ArrowLeft"":26,""ArrowUp,ArrowRight"":10,""ArrowDown,ArrowLeft"":5,""ArrowDown,ArrowRight"":17}","false","ArrowDown,ArrowRight","false","original","1","4","","",""
"html-keyboard-response","126","903619","0.0-4.0-2.0-1.2","spark_pilot_norest","10114","1","23","Male","","","","","","","null","<div style=""font-size:60px;"">+</div>","null","fixation","","","","","","","","","5","","",""
"revaluation","127","909624","0.0-4.0-2.0-0.3","spark_pilot_norest","10114","1","23","Male","","false","","","","","[674.7000000029802,419.59999999403954]","./assets/img/ocean/memory/7.jpg","[""ArrowUp"",""ArrowRight""]","value training","ocean","10","{""ArrowUp,ArrowLeft"":26,""ArrowUp,ArrowRight"":10,""ArrowDown,ArrowLeft"":5,""ArrowDown,ArrowRight"":17}","false","ArrowUp,ArrowRight","false","original","1","6","","",""
"html-keyboard-response","128","910126","0.0-4.0-2.0-1.3","spark_pilot_norest","10114","1","23","Male","","","","","","","null","<div style=""font-size:60px;"">+</div>","null","fixation","","","","","","","","","7","","",""
"revaluation","129","916132","0.0-4.0-2.0-0.4","spark_pilot_norest","10114","1","23","Male","","false","","","","","[521,358.29999999701977]","./assets/img/ocean/memory/35.jpg","[""ArrowDown"",""ArrowLeft""]","value training","ocean","5","{""ArrowUp,ArrowLeft"":26,""ArrowUp,ArrowRight"":10,""ArrowDown,ArrowLeft"":5,""ArrowDown,ArrowRight"":17}","false","ArrowDown,ArrowLeft","false","original","1","8","","",""
"html-keyboard-response","130","916633","0.0-4.0-2.0-1.4","spark_pilot_norest","10114","1","23","Male","","","","","","","null","<div style=""font-size:60px;"">+</div>","null","fixation","","","","","","","","","9","","",""
"revaluation","131","922640","0.0-4.0-2.0-0.5","spark_pilot_norest","10114","1","23","Male","","false","","","","","[790.7999999970198,233.09999999403954]","./assets/img/ocean/memory/33.jpg","[""ArrowUp"",""ArrowLeft""]","value training","ocean","26","{""ArrowUp,ArrowLeft"":26,""ArrowUp,ArrowRight"":10,""ArrowDown,ArrowLeft"":5,""ArrowDown,ArrowRight"":17}","true","ArrowUp,ArrowLeft","false","original","1","10","","",""
"html-keyboard-response","132","923141","0.0-4.0-2.0-1.5","spark_pilot_norest","10114","1","23","Male","","","","","","","null","<div style=""font-size:60px;"">+</div>","null","fixation","","","","","","","","","11","","",""
"revaluation","133","927145","0.0-4.0-2.0-0.6","spark_pilot_norest","10114","1","23","Male","","false","","","","","[488.79999999701977]","./assets/img/ocean/catch/5.jpg","[""ArrowDown""]","value training","ocean","-10","{""ArrowUp,ArrowLeft"":26,""ArrowUp,ArrowRight"":10,""ArrowDown,ArrowLeft"":5,""ArrowDown,ArrowRight"":17}","false","ArrowDown","true","original","1","12","","",""
"html-keyboard-response","134","927647","0.0-4.0-2.0-1.6","spark_pilot_norest","10114","1","23","Male","","","","","","","null","<div style=""font-size:60px;"">+</div>","null","fixation","","","","","","","","","13","","",""
"revaluation","135","933652","0.0-4.0-2.0-0.7","spark_pilot_norest","10114","1","23","Male","","false","","","","","[609.7000000029802,220]","./assets/img/ocean/memory/2.jpg","[""ArrowDown"",""ArrowRight""]","value training","ocean","17","{""ArrowUp,ArrowLeft"":26,""ArrowUp,ArrowRight"":10,""ArrowDown,ArrowLeft"":5,""ArrowDown,ArrowRight"":17}","false","ArrowDown,ArrowRight","false","original","1","14","","",""
"html-keyboard-response","136","934153","0.0-4.0-2.0-1.7","spark_pilot_norest","10114","1","23","Male","","","","","","","null","<div style=""font-size:60px;"">+</div>","null","fixation","","","","","","","","","15","","",""
"revaluation","137","940158","0.0-4.0-2.0-0.8","spark_pilot_norest","10114","1","23","Male","","false","","","","","[894.2000000029802,880.2000000029802]","./assets/img/ocean/memory/3.jpg","[""ArrowDown"",""ArrowRight""]","value training","ocean","17","{""ArrowUp,ArrowLeft"":26,""ArrowUp,ArrowRight"":10,""ArrowDown,ArrowLeft"":5,""ArrowDown,ArrowRight"":17}","false","ArrowDown,ArrowRight","false","original","1","16","","",""
"html-keyboard-response","138","940660","0.0-4.0-2.0-1.8","spark_pilot_norest","10114","1","23","Male","","","","","","","null","<div style=""font-size:60px;"">+</div>","null","fixation","","","","","","","","","17","","",""
"revaluation","139","944664","0.0-4.0-2.0-0.9","spark_pilot_norest","10114","1","23","Male","","false","","","","","[802.5]","./assets/img/ocean/catch/7.jpg","[""spaceBar""]","value training","ocean","0","{""ArrowUp,ArrowLeft"":26,""ArrowUp,ArrowRight"":10,""ArrowDown,ArrowLeft"":5,""ArrowDown,ArrowRight"":17}","true","spaceBar","true","original","1","18","","",""
"html-keyboard-response","140","945165","0.0-4.0-2.0-1.9","spark_pilot_norest","10114","1","23","Male","","","","","","","null","<div style=""font-size:60px;"">+</div>","null","fixation","","","","","","","","","19","","",""
"revaluation","141","951170","0.0-4.0-2.0-0.10","spark_pilot_norest","10114","1","23","Male","","false","","","","","[642.6000000089407,306.29999999701977]","./assets/img/ocean/memory/27.jpg","[""ArrowUp"",""ArrowLeft""]","value training","ocean","26","{""ArrowUp,ArrowLeft"":26,""ArrowUp,ArrowRight"":10,""ArrowDown,ArrowLeft"":5,""ArrowDown,ArrowRight"":17}","true","ArrowUp,ArrowLeft","false","original","1","20","","",""
"html-keyboard-response","142","951672","0.0-4.0-2.0-1.10","spark_pilot_norest","10114","1","23","Male","","","","","","","null","<div style=""font-size:60px;"">+</div>","null","fixation","","","","","","","","","21","","",""
"revaluation","143","957677","0.0-4.0-2.0-0.11","spark_pilot_norest","10114","1","23","Male","","false","","","","","[472.79999999701977,277.70000000298023]","./assets/img/ocean/memory/31.jpg","[""ArrowDown"",""ArrowRight""]","value training","ocean","17","{""ArrowUp,ArrowLeft"":26,""ArrowUp,ArrowRight"":10,""ArrowDown,ArrowLeft"":5,""ArrowDown,ArrowRight"":17}","false","ArrowDown,ArrowRight","false","original","1","22","","",""
"html-keyboard-response","144","958179","0.0-4.0-2.0-1.11","spark_pilot_norest","10114","1","23","Male","","","","","","","null","<div style=""font-size:60px;"">+</div>","null","fixation","","","","","","","","","23","","",""
"revaluation","145","964184","0.0-4.0-2.0-0.12","spark_pilot_norest","10114","1","23","Male","","false","","","","","[726.1000000089407,385.30000001192093]","./assets/img/ocean/memory/14.jpg","[""ArrowUp"",""ArrowLeft""]","value training","ocean","26","{""ArrowUp,ArrowLeft"":26,""ArrowUp,ArrowRight"":10,""ArrowDown,ArrowLeft"":5,""ArrowDown,ArrowRight"":17}","true","ArrowUp,ArrowLeft","false","original","1","24","","",""
"html-keyboard-response","146","964686","0.0-4.0-2.0-1.12","spark_pilot_norest","10114","1","23","Male","","","","","","","null","<div style=""font-size:60px;"">+</div>","null","fixation","","","","","","","","","25","","",""
"revaluation","147","970694","0.0-4.0-2.0-0.13","spark_pilot_norest","10114","1","23","Male","","false","","","","","[564.1999999880791,470.79999999701977]","./assets/img/ocean/memory/23.jpg","[""ArrowDown"",""ArrowLeft""]","value training","ocean","5","{""ArrowUp,ArrowLeft"":26,""ArrowUp,ArrowRight"":10,""ArrowDown,ArrowLeft"":5,""ArrowDown,ArrowRight"":17}","false","ArrowDown,ArrowLeft","false","original","1","26","","",""
"html-keyboard-response","148","971195","0.0-4.0-2.0-1.13","spark_pilot_norest","10114","1","23","Male","","","","","","","null","<div style=""font-size:60px;"">+</div>","null","fixation","","","","","","","","","27","","",""
"revaluation","149","977201","0.0-4.0-2.0-0.14","spark_pilot_norest","10114","1","23","Male","","false","","","","","[551.7999999970198,240.5]","./assets/img/ocean/memory/27.jpg","[""ArrowDown"",""ArrowRight""]","value training","ocean","17","{""ArrowUp,ArrowLeft"":26,""ArrowUp,ArrowRight"":10,""ArrowDown,ArrowLeft"":5,""ArrowDown,ArrowRight"":17}","false","ArrowDown,ArrowRight","false","original","1","28","","",""
"html-keyboard-response","150","977702","0.0-4.0-2.0-1.14","spark_pilot_norest","10114","1","23","Male","","","","","","","null","<div style=""font-size:60px;"">+</div>","null","fixation","","","","","","","","","29","","",""
"revaluation","151","983706","0.0-4.0-2.0-0.15","spark_pilot_norest","10114","1","23","Male","","false","","","","","[409.5,327.70000000298023]","./assets/img/ocean/memory/1.jpg","[""ArrowUp"",""ArrowRight""]","value training","ocean","10","{""ArrowUp,ArrowLeft"":26,""ArrowUp,ArrowRight"":10,""ArrowDown,ArrowLeft"":5,""ArrowDown,ArrowRight"":17}","false","ArrowUp,ArrowRight","false","original","1","30","","",""
"html-keyboard-response","152","984208","0.0-4.0-2.0-1.15","spark_pilot_norest","10114","1","23","Male","","","","","","","null","<div style=""font-size:60px;"">+</div>","null","fixation","","","","","","","","","31","","",""
"revaluation","153","988212","0.0-4.0-2.0-0.16","spark_pilot_norest","10114","1","23","Male","","false","","","","","[796.1000000089407]","./assets/img/ocean/catch/6.jpg","[""spaceBar""]","value training","ocean","0","{""ArrowUp,ArrowLeft"":26,""ArrowUp,ArrowRight"":10,""ArrowDown,ArrowLeft"":5,""ArrowDown,ArrowRight"":17}","true","spaceBar","true","original","1","32","","",""
"html-keyboard-response","154","988715","0.0-4.0-2.0-1.16","spark_pilot_norest","10114","1","23","Male","","","","","","","null","<div style=""font-size:60px;"">+</div>","null","fixation","","","","","","","","","33","","",""
"revaluation","155","994719","0.0-4.0-2.0-0.17","spark_pilot_norest","10114","1","23","Male","","false","","","","","[998.9000000059605,442.29999999701977]","./assets/img/ocean/memory/40.jpg","[""ArrowDown"",""ArrowLeft""]","value training","ocean","5","{""ArrowUp,ArrowLeft"":26,""ArrowUp,ArrowRight"":10,""ArrowDown,ArrowLeft"":5,""ArrowDown,ArrowRight"":17}","false","ArrowDown,ArrowLeft","false","original","1","34","","",""
"html-keyboard-response","156","995221","0.0-4.0-2.0-1.17","spark_pilot_norest","10114","1","23","Male","","","","","","","null","<div style=""font-size:60px;"">+</div>","null","fixation","","","","","","","","","35","","",""
"revaluation","157","1001226","0.0-4.0-2.0-0.18","spark_pilot_norest","10114","1","23","Male","","false","","","","","[1178.0999999940395,422.8999999910593]","./assets/img/ocean/memory/39.jpg","[""ArrowUp"",""ArrowRight""]","value training","ocean","10","{""ArrowUp,ArrowLeft"":26,""ArrowUp,ArrowRight"":10,""ArrowDown,ArrowLeft"":5,""ArrowDown,ArrowRight"":17}","false","ArrowUp,ArrowRight","false","original","1","36","","",""
"html-keyboard-response","158","1001728","0.0-4.0-2.0-1.18","spark_pilot_norest","10114","1","23","Male","","","","","","","null","<div style=""font-size:60px;"">+</div>","null","fixation","","","","","","","","","37","","",""
"revaluation","159","1007733","0.0-4.0-2.0-0.19","spark_pilot_norest","10114","1","23","Male","","false","","","","","[393.20000000298023,444.79999999701977]","./assets/img/ocean/memory/35.jpg","[""ArrowDown"",""ArrowLeft""]","value training","ocean","5","{""ArrowUp,ArrowLeft"":26,""ArrowUp,ArrowRight"":10,""ArrowDown,ArrowLeft"":5,""ArrowDown,ArrowRight"":17}","false","ArrowDown,ArrowLeft","false","original","1","38","","",""
"html-keyboard-response","160","1008234","0.0-4.0-2.0-1.19","spark_pilot_norest","10114","1","23","Male","","","","","","","null","<div style=""font-size:60px;"">+</div>","null","fixation","","","","","","","","","39","","",""
"revaluation","161","1012238","0.0-4.0-2.0-0.20","spark_pilot_norest","10114","1","23","Male","","false","","","","","[625.7999999970198]","./assets/img/ocean/catch/3.jpg","[""spaceBar""]","value training","ocean","0","{""ArrowUp,ArrowLeft"":26,""ArrowUp,ArrowRight"":10,""ArrowDown,ArrowLeft"":5,""ArrowDown,ArrowRight"":17}","true","spaceBar","true","original","1","40","","",""
"html-keyboard-response","162","1012740","0.0-4.0-2.0-1.20","spark_pilot_norest","10114","1","23","Male","","","","","","","null","<div style=""font-size:60px;"">+</div>","null","fixation","","","","","","","","","41","","",""
"revaluation","163","1018745","0.0-4.0-2.0-0.21","spark_pilot_norest","10114","1","23","Male","","false","","","","","[888.7000000029802,338.70000000298023]","./assets/img/ocean/memory/23.jpg","[""ArrowUp"",""ArrowRight""]","value training","ocean","10","{""ArrowUp,ArrowLeft"":26,""ArrowUp,ArrowRight"":10,""ArrowDown,ArrowLeft"":5,""ArrowDown,ArrowRight"":17}","false","ArrowUp,ArrowRight","false","original","1","42","","",""
"html-keyboard-response","164","1019247","0.0-4.0-2.0-1.21","spark_pilot_norest","10114","1","23","Male","","","","","","","null","<div style=""font-size:60px;"">+</div>","null","fixation","","","","","","","","","43","","",""
"revaluation","165","1025253","0.0-4.0-2.0-0.22","spark_pilot_norest","10114","1","23","Male","","false","","","","","[622.7999999970198,248.5]","./assets/img/ocean/memory/40.jpg","[""ArrowDown"",""ArrowLeft""]","value training","ocean","5","{""ArrowUp,ArrowLeft"":26,""ArrowUp,ArrowRight"":10,""ArrowDown,ArrowLeft"":5,""ArrowDown,ArrowRight"":17}","false","ArrowDown,ArrowLeft","false","original","1","44","","",""
"html-keyboard-response","166","1025755","0.0-4.0-2.0-1.22","spark_pilot_norest","10114","1","23","Male","","","","","","","null","<div style=""font-size:60px;"">+</div>","null","fixation","","","","","","","","","45","","",""
"revaluation","167","1031759","0.0-4.0-2.0-0.23","spark_pilot_norest","10114","1","23","Male","","false","","","","","[745.5,384.90000000596046]","./assets/img/ocean/memory/11.jpg","[""ArrowUp"",""ArrowRight""]","value training","ocean","10","{""ArrowUp,ArrowLeft"":26,""ArrowUp,ArrowRight"":10,""ArrowDown,ArrowLeft"":5,""ArrowDown,ArrowRight"":17}","false","ArrowUp,ArrowRight","false","original","1","46","","",""
"html-keyboard-response","168","1032260","0.0-4.0-2.0-1.23","spark_pilot_norest","10114","1","23","Male","","","","","","","null","<div style=""font-size:60px;"">+</div>","null","fixation","","","","","","","","","47","","",""
"revaluation","169","1036267","0.0-4.0-2.0-0.24","spark_pilot_norest","10114","1","23","Male","","false","","","","","[879.6000000089407]","./assets/img/ocean/catch/0.jpg","[""spaceBar""]","value training","ocean","0","{""ArrowUp,ArrowLeft"":26,""ArrowUp,ArrowRight"":10,""ArrowDown,ArrowLeft"":5,""ArrowDown,ArrowRight"":17}","true","spaceBar","true","original","1","48","","",""
"html-keyboard-response","170","1036769","0.0-4.0-2.0-1.24","spark_pilot_norest","10114","1","23","Male","","","","","","","null","<div style=""font-size:60px;"">+</div>","null","fixation","","","","","","","","","49","","",""
"revaluation","171","1042773","0.0-4.0-2.0-0.25","spark_pilot_norest","10114","1","23","Male","","false","","","","","[928.2999999970198,273.30000001192093]","./assets/img/ocean/memory/26.jpg","[""ArrowDown"",""ArrowRight""]","value training","ocean","17","{""ArrowUp,ArrowLeft"":26,""ArrowUp,ArrowRight"":10,""ArrowDown,ArrowLeft"":5,""ArrowDown,ArrowRight"":17}","false","ArrowDown,ArrowRight","false","original","1","50","","",""
"html-keyboard-response","172","1043275","0.0-4.0-2.0-1.25","spark_pilot_norest","10114","1","23","Male","","","","","","","null","<div style=""font-size:60px;"">+</div>","null","fixation","","","","","","","","","51","","",""
"revaluation","173","1049279","0.0-4.0-2.0-0.26","spark_pilot_norest","10114","1","23","Male","","false","","","","","[548.7999999970198,441.80000001192093]","./assets/img/ocean/memory/3.jpg","[""ArrowUp"",""ArrowRight""]","value training","ocean","10","{""ArrowUp,ArrowLeft"":26,""ArrowUp,ArrowRight"":10,""ArrowDown,ArrowLeft"":5,""ArrowDown,ArrowRight"":17}","false","ArrowUp,ArrowRight","false","original","1","52","","",""
"html-keyboard-response","174","1049779","0.0-4.0-2.0-1.26","spark_pilot_norest","10114","1","23","Male","","","","","","","null","<div style=""font-size:60px;"">+</div>","null","fixation","","","","","","","","","53","","",""
"revaluation","175","1055785","0.0-4.0-2.0-0.27","spark_pilot_norest","10114","1","23","Male","","false","","","","","[884.9000000059605,465.20000000298023]","./assets/img/ocean/memory/33.jpg","[""ArrowUp"",""ArrowRight""]","value training","ocean","10","{""ArrowUp,ArrowLeft"":26,""ArrowUp,ArrowRight"":10,""ArrowDown,ArrowLeft"":5,""ArrowDown,ArrowRight"":17}","false","ArrowUp,ArrowRight","false","original","1","54","","",""
"html-keyboard-response","176","1056286","0.0-4.0-2.0-1.27","spark_pilot_norest","10114","1","23","Male","","","","","","","null","<div style=""font-size:60px;"">+</div>","null","fixation","","","","","","","","","55","","",""
"revaluation","177","1062290","0.0-4.0-2.0-0.28","spark_pilot_norest","10114","1","23","Male","","false","","","","","[1605.4000000059605,363.5]","./assets/img/ocean/memory/11.jpg","[""ArrowDown"",""ArrowRight""]","value training","ocean","17","{""ArrowUp,ArrowLeft"":26,""ArrowUp,ArrowRight"":10,""ArrowDown,ArrowLeft"":5,""ArrowDown,ArrowRight"":17}","false","ArrowDown,ArrowRight","false","original","1","56","","",""
"html-keyboard-response","178","1062792","0.0-4.0-2.0-1.28","spark_pilot_norest","10114","1","23","Male","","","","","","","null","<div style=""font-size:60px;"">+</div>","null","fixation","","","","","","","","","57","","",""
"revaluation","179","1066795","0.0-4.0-2.0-0.29","spark_pilot_norest","10114","1","23","Male","","false","","","","","[677.5]","./assets/img/ocean/catch/1.jpg","[""spaceBar""]","value training","ocean","0","{""ArrowUp,ArrowLeft"":26,""ArrowUp,ArrowRight"":10,""ArrowDown,ArrowLeft"":5,""ArrowDown,ArrowRight"":17}","true","spaceBar","true","original","1","58","","",""
"html-keyboard-response","180","1067297","0.0-4.0-2.0-1.29","spark_pilot_norest","10114","1","23","Male","","","","","","","null","<div style=""font-size:60px;"">+</div>","null","fixation","","","","","","","","","59","","",""
"revaluation","181","1073303","0.0-4.0-2.0-0.30","spark_pilot_norest","10114","1","23","Male","","false","","","","","[1364.4000000059605,294.20000000298023]","./assets/img/ocean/memory/2.jpg","[""ArrowUp"",""ArrowLeft""]","value training","ocean","26","{""ArrowUp,ArrowLeft"":26,""ArrowUp,ArrowRight"":10,""ArrowDown,ArrowLeft"":5,""ArrowDown,ArrowRight"":17}","true","ArrowUp,ArrowLeft","false","original","1","60","","",""
"html-keyboard-response","182","1073804","0.0-4.0-2.0-1.30","spark_pilot_norest","10114","1","23","Male","","","","","","","null","<div style=""font-size:60px;"">+</div>","null","fixation","","","","","","","","","61","","",""
"revaluation","183","1079813","0.0-4.0-2.0-0.31","spark_pilot_norest","10114","1","23","Male","","false","","","","","[501.70000000298023,321.5]","./assets/img/ocean/memory/17.jpg","[""ArrowDown"",""ArrowLeft""]","value training","ocean","5","{""ArrowUp,ArrowLeft"":26,""ArrowUp,ArrowRight"":10,""ArrowDown,ArrowLeft"":5,""ArrowDown,ArrowRight"":17}","false","ArrowDown,ArrowLeft","false","original","1","62","","",""
"html-keyboard-response","184","1080315","0.0-4.0-2.0-1.31","spark_pilot_norest","10114","1","23","Male","","","","","","","null","<div style=""font-size:60px;"">+</div>","null","fixation","","","","","","","","","63","","",""
"revaluation","185","1086319","0.0-4.0-2.0-0.32","spark_pilot_norest","10114","1","23","Male","","false","","","","","[531.3999999910593,259.20000000298023]","./assets/img/ocean/memory/5.jpg","[""ArrowUp"",""ArrowRight""]","value training","ocean","10","{""ArrowUp,ArrowLeft"":26,""ArrowUp,ArrowRight"":10,""ArrowDown,ArrowLeft"":5,""ArrowDown,ArrowRight"":17}","false","ArrowUp,ArrowRight","false","original","1","64","","",""
"html-keyboard-response","186","1086821","0.0-4.0-2.0-1.32","spark_pilot_norest","10114","1","23","Male","","","","","","","null","<div style=""font-size:60px;"">+</div>","null","fixation","","","","","","","","","65","","",""
"revaluation","187","1092825","0.0-4.0-2.0-0.33","spark_pilot_norest","10114","1","23","Male","","false","","","","","[976.2000000029802,648.2000000029802]","./assets/img/ocean/memory/1.jpg","[""ArrowDown"",""ArrowRight""]","value training","ocean","17","{""ArrowUp,ArrowLeft"":26,""ArrowUp,ArrowRight"":10,""ArrowDown,ArrowLeft"":5,""ArrowDown,ArrowRight"":17}","false","ArrowDown,ArrowRight","false","original","1","66","","",""
"html-keyboard-response","188","1093327","0.0-4.0-2.0-1.33","spark_pilot_norest","10114","1","23","Male","","","","","","","null","<div style=""font-size:60px;"">+</div>","null","fixation","","","","","","","","","67","","",""
"revaluation","189","1099332","0.0-4.0-2.0-0.34","spark_pilot_norest","10114","1","23","Male","","false","","","","","[767.5,1056.6000000089407]","./assets/img/ocean/memory/7.jpg","[""ArrowDown"",""ArrowLeft""]","value training","ocean","5","{""ArrowUp,ArrowLeft"":26,""ArrowUp,ArrowRight"":10,""ArrowDown,ArrowLeft"":5,""ArrowDown,ArrowRight"":17}","false","ArrowDown,ArrowLeft","false","original","1","68","","",""
"html-keyboard-response","190","1099834","0.0-4.0-2.0-1.34","spark_pilot_norest","10114","1","23","Male","","","","","","","null","<div style=""font-size:60px;"">+</div>","null","fixation","","","","","","","","","69","","",""
"revaluation","191","1105840","0.0-4.0-2.0-0.35","spark_pilot_norest","10114","1","23","Male","","false","","","","","[1361.7000000029802,452.90000000596046]","./assets/img/ocean/memory/36.jpg","[""ArrowDown"",""ArrowRight""]","value training","ocean","17","{""ArrowUp,ArrowLeft"":26,""ArrowUp,ArrowRight"":10,""ArrowDown,ArrowLeft"":5,""ArrowDown,ArrowRight"":17}","false","ArrowDown,ArrowRight","false","original","1","70","","",""
"html-keyboard-response","192","1106341","0.0-4.0-2.0-1.35","spark_pilot_norest","10114","1","23","Male","","","","","","","null","<div style=""font-size:60px;"">+</div>","null","fixation","","","","","","","","","71","","",""
"revaluation","193","1112345","0.0-4.0-2.0-0.36","spark_pilot_norest","10114","1","23","Male","","false","","","","","[599.6000000089407,246.90000000596046]","./assets/img/ocean/memory/36.jpg","[""ArrowUp"",""ArrowRight""]","value training","ocean","10","{""ArrowUp,ArrowLeft"":26,""ArrowUp,ArrowRight"":10,""ArrowDown,ArrowLeft"":5,""ArrowDown,ArrowRight"":17}","false","ArrowUp,ArrowRight","false","original","1","72","","",""
"html-keyboard-response","194","1112848","0.0-4.0-2.0-1.36","spark_pilot_norest","10114","1","23","Male","","","","","","","null","<div style=""font-size:60px;"">+</div>","null","fixation","","","","","","","","","73","","",""
"revaluation","195","1118853","0.0-4.0-2.0-0.37","spark_pilot_norest","10114","1","23","Male","","false","","","","","[1007,246.5]","./assets/img/ocean/memory/12.jpg","[""ArrowDown"",""ArrowLeft""]","value training","ocean","5","{""ArrowUp,ArrowLeft"":26,""ArrowUp,ArrowRight"":10,""ArrowDown,ArrowLeft"":5,""ArrowDown,ArrowRight"":17}","false","ArrowDown,ArrowLeft","false","original","1","74","","",""
"html-keyboard-response","196","1119355","0.0-4.0-2.0-1.37","spark_pilot_norest","10114","1","23","Male","","","","","","","null","<div style=""font-size:60px;"">+</div>","null","fixation","","","","","","","","","75","","",""
"revaluation","197","1125360","0.0-4.0-2.0-0.38","spark_pilot_norest","10114","1","23","Male","","false","","","","","[1482.5,817.8999999910593]","./assets/img/ocean/memory/30.jpg","[""ArrowDown"",""ArrowRight""]","value training","ocean","17","{""ArrowUp,ArrowLeft"":26,""ArrowUp,ArrowRight"":10,""ArrowDown,ArrowLeft"":5,""ArrowDown,ArrowRight"":17}","false","ArrowDown,ArrowRight","false","original","1","76","","",""
"html-keyboard-response","198","1125862","0.0-4.0-2.0-1.38","spark_pilot_norest","10114","1","23","Male","","","","","","","null","<div style=""font-size:60px;"">+</div>","null","fixation","","","","","","","","","77","","",""
"revaluation","199","1129867","0.0-4.0-2.0-0.39","spark_pilot_norest","10114","1","23","Male","","false","","","","","[955.2000000029802]","./assets/img/ocean/catch/4.jpg","[""spaceBar""]","value training","ocean","0","{""ArrowUp,ArrowLeft"":26,""ArrowUp,ArrowRight"":10,""ArrowDown,ArrowLeft"":5,""ArrowDown,ArrowRight"":17}","true","spaceBar","true","original","1","78","","",""
"html-keyboard-response","200","1130369","0.0-4.0-2.0-1.39","spark_pilot_norest","10114","1","23","Male","","","","","","","null","<div style=""font-size:60px;"">+</div>","null","fixation","","","","","","","","","79","","",""
"revaluation","201","1136373","0.0-4.0-2.0-0.40","spark_pilot_norest","10114","1","23","Male","","false","","","","","[958.0999999940395,244.6000000089407]","./assets/img/ocean/memory/24.jpg","[""ArrowUp"",""ArrowLeft""]","value training","ocean","26","{""ArrowUp,ArrowLeft"":26,""ArrowUp,ArrowRight"":10,""ArrowDown,ArrowLeft"":5,""ArrowDown,ArrowRight"":17}","true","ArrowUp,ArrowLeft","false","original","1","80","","",""
"html-keyboard-response","202","1136874","0.0-4.0-2.0-1.40","spark_pilot_norest","10114","1","23","Male","","","","","","","null","<div style=""font-size:60px;"">+</div>","null","fixation","","","","","","","","","81","","",""
"revaluation","203","1142879","0.0-4.0-2.0-0.41","spark_pilot_norest","10114","1","23","Male","","false","","","","","[788.2000000029802,272.09999999403954]","./assets/img/ocean/memory/5.jpg","[""ArrowUp"",""ArrowRight""]","value training","ocean","10","{""ArrowUp,ArrowLeft"":26,""ArrowUp,ArrowRight"":10,""ArrowDown,ArrowLeft"":5,""ArrowDown,ArrowRight"":17}","false","ArrowUp,ArrowRight","false","original","1","82","","",""
"html-keyboard-response","204","1143381","0.0-4.0-2.0-1.41","spark_pilot_norest","10114","1","23","Male","","","","","","","null","<div style=""font-size:60px;"">+</div>","null","fixation","","","","","","","","","83","","",""
"revaluation","205","1149385","0.0-4.0-2.0-0.42","spark_pilot_norest","10114","1","23","Male","","false","","","","","[746.0999999940395,225.09999999403954]","./assets/img/ocean/memory/24.jpg","[""ArrowDown"",""ArrowLeft""]","value training","ocean","5","{""ArrowUp,ArrowLeft"":26,""ArrowUp,ArrowRight"":10,""ArrowDown,ArrowLeft"":5,""ArrowDown,ArrowRight"":17}","false","ArrowDown,ArrowLeft","false","original","1","84","","",""
"html-keyboard-response","206","1149885","0.0-4.0-2.0-1.42","spark_pilot_norest","10114","1","23","Male","","","","","","","null","<div style=""font-size:60px;"">+</div>","null","fixation","","","","","","","","","85","","",""
"revaluation","207","1155891","0.0-4.0-2.0-0.43","spark_pilot_norest","10114","1","23","Male","","false","","","","","[710.4000000059605,353.1000000089407]","./assets/img/ocean/memory/19.jpg","[""ArrowDown"",""ArrowRight""]","value training","ocean","17","{""ArrowUp,ArrowLeft"":26,""ArrowUp,ArrowRight"":10,""ArrowDown,ArrowLeft"":5,""ArrowDown,ArrowRight"":17}","false","ArrowDown,ArrowRight","false","original","1","86","","",""
"html-keyboard-response","208","1156392","0.0-4.0-2.0-1.43","spark_pilot_norest","10114","1","23","Male","","","","","","","null","<div style=""font-size:60px;"">+</div>","null","fixation","","","","","","","","","87","","",""
"revaluation","209","1162399","0.0-4.0-2.0-0.44","spark_pilot_norest","10114","1","23","Male","","false","","","","","[944.9000000059605,363.29999999701977]","./assets/img/ocean/memory/14.jpg","[""ArrowUp"",""ArrowRight""]","value training","ocean","10","{""ArrowUp,ArrowLeft"":26,""ArrowUp,ArrowRight"":10,""ArrowDown,ArrowLeft"":5,""ArrowDown,ArrowRight"":17}","false","ArrowUp,ArrowRight","false","original","1","88","","",""
"html-keyboard-response","210","1162901","0.0-4.0-2.0-1.44","spark_pilot_norest","10114","1","23","Male","","","","","","","null","<div style=""font-size:60px;"">+</div>","null","fixation","","","","","","","","","89","","",""
"revaluation","211","1168904","0.0-4.0-2.0-0.45","spark_pilot_norest","10114","1","23","Male","","false","","","","","[539.2000000029802,391.5]","./assets/img/ocean/memory/12.jpg","[""ArrowDown"",""ArrowLeft""]","value training","ocean","5","{""ArrowUp,ArrowLeft"":26,""ArrowUp,ArrowRight"":10,""ArrowDown,ArrowLeft"":5,""ArrowDown,ArrowRight"":17}","false","ArrowDown,ArrowLeft","false","original","1","90","","",""
"html-keyboard-response","212","1169405","0.0-4.0-2.0-1.45","spark_pilot_norest","10114","1","23","Male","","","","","","","null","<div style=""font-size:60px;"">+</div>","null","fixation","","","","","","","","","91","","",""
"revaluation","213","1175410","0.0-4.0-2.0-0.46","spark_pilot_norest","10114","1","23","Male","","false","","","","","[715.7999999970198,304.59999999403954]","./assets/img/ocean/memory/26.jpg","[""ArrowUp"",""ArrowRight""]","value training","ocean","10","{""ArrowUp,ArrowLeft"":26,""ArrowUp,ArrowRight"":10,""ArrowDown,ArrowLeft"":5,""ArrowDown,ArrowRight"":17}","false","ArrowUp,ArrowRight","false","original","1","92","","",""
"html-keyboard-response","214","1175911","0.0-4.0-2.0-1.46","spark_pilot_norest","10114","1","23","Male","","","","","","","null","<div style=""font-size:60px;"">+</div>","null","fixation","","","","","","","","","93","","",""
"revaluation","215","1181915","0.0-4.0-2.0-0.47","spark_pilot_norest","10114","1","23","Male","","false","","","","","[607,815.1000000089407]","./assets/img/ocean/memory/39.jpg","[""ArrowDown"",""ArrowRight""]","value training","ocean","17","{""ArrowUp,ArrowLeft"":26,""ArrowUp,ArrowRight"":10,""ArrowDown,ArrowLeft"":5,""ArrowDown,ArrowRight"":17}","false","ArrowDown,ArrowRight","false","original","1","94","","",""
"html-keyboard-response","216","1182418","0.0-4.0-2.0-1.47","spark_pilot_norest","10114","1","23","Male","","","","","","","null","<div style=""font-size:60px;"">+</div>","null","fixation","","","","","","","","","95","","",""
"revaluation","217","1186422","0.0-4.0-2.0-0.48","spark_pilot_norest","10114","1","23","Male","","false","","","","","[859.6999999880791]","./assets/img/ocean/catch/2.jpg","[""spaceBar""]","value training","ocean","0","{""ArrowUp,ArrowLeft"":26,""ArrowUp,ArrowRight"":10,""ArrowDown,ArrowLeft"":5,""ArrowDown,ArrowRight"":17}","true","spaceBar","true","original","1","96","","",""
"html-keyboard-response","218","1186923","0.0-4.0-2.0-1.48","spark_pilot_norest","10114","1","23","Male","","","","","","","null","<div style=""font-size:60px;"">+</div>","null","fixation","","","","","","","","","97","","",""
"revaluation","219","1192931","0.0-4.0-2.0-0.49","spark_pilot_norest","10114","1","23","Male","","false","","","","","[907.0999999940395,215]","./assets/img/ocean/memory/31.jpg","[""ArrowDown"",""ArrowLeft""]","value training","ocean","5","{""ArrowUp,ArrowLeft"":26,""ArrowUp,ArrowRight"":10,""ArrowDown,ArrowLeft"":5,""ArrowDown,ArrowRight"":17}","false","ArrowDown,ArrowLeft","false","original","1","98","","",""
"html-keyboard-response","220","1193432","0.0-4.0-2.0-1.49","spark_pilot_norest","10114","1","23","Male","","","","","","","null","<div style=""font-size:60px;"">+</div>","null","fixation","","","","","","","","","99","","",""
"learning-instructions","221","1207460","0.0-4.0-3.0-0.0","spark_pilot_norest","10114","1","23","Male","","","","","","","1131.7999999970198","<p> Now, you will travel with a friend who will choose whether you go up or down first. </p>
            <p> On these turns, you will just see the animal that they found. You will still get to choose which chest to search for treasure.</p>","","instructions","","","","","","","","","","","",""
"revaluation","222","1211464","0.0-4.0-4.0-0.0","spark_pilot_norest","10114","1","23","Male","","false","","","","","[1660.7000000029802]","./assets/img/ocean/animals/seahorse.jpg","[""ArrowRight""]","revaluation","ocean","17","{""ArrowUp,ArrowLeft"":26,""ArrowUp,ArrowRight"":10,""ArrowDown,ArrowLeft"":5,""ArrowDown,ArrowRight"":17}","true","ArrowDown,ArrowRight","","original","1","0","","",""
"html-keyboard-response","223","1211970","0.0-4.0-4.0-1.0","spark_pilot_norest","10114","1","23","Male","","","","","","","null","<div style=""font-size:60px;"">+</div>","null","fixation","","","","","","","","","1","","",""
"revaluation","224","1215972","0.0-4.0-4.0-0.1","spark_pilot_norest","10114","1","23","Male","","false","","","","","[606.3999999910593]","./assets/img/ocean/animals/seahorse.jpg","[""ArrowRight""]","revaluation","ocean","17","{""ArrowUp,ArrowLeft"":26,""ArrowUp,ArrowRight"":10,""ArrowDown,ArrowLeft"":5,""ArrowDown,ArrowRight"":17}","true","ArrowDown,ArrowRight","","original","1","2","","",""
"html-keyboard-response","225","1216473","0.0-4.0-4.0-1.1","spark_pilot_norest","10114","1","23","Male","","","","","","","null","<div style=""font-size:60px;"">+</div>","null","fixation","","","","","","","","","3","","",""
"revaluation","226","1220481","0.0-4.0-4.0-0.2","spark_pilot_norest","10114","1","23","Male","","false","","","","","[383.09999999403954]","./assets/img/ocean/animals/seahorse.jpg","[""ArrowLeft""]","revaluation","ocean","5","{""ArrowUp,ArrowLeft"":26,""ArrowUp,ArrowRight"":10,""ArrowDown,ArrowLeft"":5,""ArrowDown,ArrowRight"":17}","false","ArrowDown,ArrowLeft","","original","1","4","","",""
"html-keyboard-response","227","1220982","0.0-4.0-4.0-1.2","spark_pilot_norest","10114","1","23","Male","","","","","","","null","<div style=""font-size:60px;"">+</div>","null","fixation","","","","","","","","","5","","",""
"revaluation","228","1224987","0.0-4.0-4.0-0.3","spark_pilot_norest","10114","1","23","Male","","false","","","","","[508]","./assets/img/ocean/animals/octopus.jpg","[""ArrowRight""]","revaluation","ocean","10","{""ArrowUp,ArrowLeft"":26,""ArrowUp,ArrowRight"":10,""ArrowDown,ArrowLeft"":5,""ArrowDown,ArrowRight"":17}","false","ArrowUp,ArrowRight","","original","1","6","","",""
"html-keyboard-response","229","1225488","0.0-4.0-4.0-1.3","spark_pilot_norest","10114","1","23","Male","","","","","","","null","<div style=""font-size:60px;"">+</div>","null","fixation","","","","","","","","","7","","",""
"revaluation","230","1229491","0.0-4.0-4.0-0.4","spark_pilot_norest","10114","1","23","Male","","false","","","","","[590.5]","./assets/img/ocean/animals/seahorse.jpg","[""ArrowLeft""]","revaluation","ocean","5","{""ArrowUp,ArrowLeft"":26,""ArrowUp,ArrowRight"":10,""ArrowDown,ArrowLeft"":5,""ArrowDown,ArrowRight"":17}","false","ArrowDown,ArrowLeft","","original","1","8","","",""
"html-keyboard-response","231","1229994","0.0-4.0-4.0-1.4","spark_pilot_norest","10114","1","23","Male","","","","","","","null","<div style=""font-size:60px;"">+</div>","null","fixation","","","","","","","","","9","","",""
"revaluation","232","1233998","0.0-4.0-4.0-0.5","spark_pilot_norest","10114","1","23","Male","","false","","","","","[384]","./assets/img/ocean/animals/seahorse.jpg","[""ArrowRight""]","revaluation","ocean","17","{""ArrowUp,ArrowLeft"":26,""ArrowUp,ArrowRight"":10,""ArrowDown,ArrowLeft"":5,""ArrowDown,ArrowRight"":17}","true","ArrowDown,ArrowRight","","original","1","10","","",""
"html-keyboard-response","233","1234500","0.0-4.0-4.0-1.5","spark_pilot_norest","10114","1","23","Male","","","","","","","null","<div style=""font-size:60px;"">+</div>","null","fixation","","","","","","","","","11","","",""
"revaluation","234","1238503","0.0-4.0-4.0-0.6","spark_pilot_norest","10114","1","23","Male","","false","","","","","[558.9000000059605]","./assets/img/ocean/animals/seahorse.jpg","[""ArrowRight""]","revaluation","ocean","17","{""ArrowUp,ArrowLeft"":26,""ArrowUp,ArrowRight"":10,""ArrowDown,ArrowLeft"":5,""ArrowDown,ArrowRight"":17}","true","ArrowDown,ArrowRight","","original","1","12","","",""
"html-keyboard-response","235","1239004","0.0-4.0-4.0-1.6","spark_pilot_norest","10114","1","23","Male","","","","","","","null","<div style=""font-size:60px;"">+</div>","null","fixation","","","","","","","","","13","","",""
"revaluation","236","1243008","0.0-4.0-4.0-0.7","spark_pilot_norest","10114","1","23","Male","","false","","","","","[652]","./assets/img/ocean/animals/octopus.jpg","[""ArrowLeft""]","revaluation","ocean","26","{""ArrowUp,ArrowLeft"":26,""ArrowUp,ArrowRight"":10,""ArrowDown,ArrowLeft"":5,""ArrowDown,ArrowRight"":17}","true","ArrowUp,ArrowLeft","","original","1","14","","",""
"html-keyboard-response","237","1243510","0.0-4.0-4.0-1.7","spark_pilot_norest","10114","1","23","Male","","","","","","","null","<div style=""font-size:60px;"">+</div>","null","fixation","","","","","","","","","15","","",""
"revaluation","238","1247515","0.0-4.0-4.0-0.8","spark_pilot_norest","10114","1","23","Male","","false","","","","","[529.7999999970198]","./assets/img/ocean/animals/octopus.jpg","[""ArrowRight""]","revaluation","ocean","10","{""ArrowUp,ArrowLeft"":26,""ArrowUp,ArrowRight"":10,""ArrowDown,ArrowLeft"":5,""ArrowDown,ArrowRight"":17}","false","ArrowUp,ArrowRight","","original","1","16","","",""
"html-keyboard-response","239","1248016","0.0-4.0-4.0-1.8","spark_pilot_norest","10114","1","23","Male","","","","","","","null","<div style=""font-size:60px;"">+</div>","null","fixation","","","","","","","","","17","","",""
"revaluation","240","1252021","0.0-4.0-4.0-0.9","spark_pilot_norest","10114","1","23","Male","","false","","","","","[476.79999999701977]","./assets/img/ocean/animals/seahorse.jpg","[""ArrowRight""]","revaluation","ocean","17","{""ArrowUp,ArrowLeft"":26,""ArrowUp,ArrowRight"":10,""ArrowDown,ArrowLeft"":5,""ArrowDown,ArrowRight"":17}","true","ArrowDown,ArrowRight","","original","1","18","","",""
"html-keyboard-response","241","1252522","0.0-4.0-4.0-1.9","spark_pilot_norest","10114","1","23","Male","","","","","","","null","<div style=""font-size:60px;"">+</div>","null","fixation","","","","","","","","","19","","",""
"revaluation","242","1256525","0.0-4.0-4.0-0.10","spark_pilot_norest","10114","1","23","Male","","false","","","","","[404.90000000596046]","./assets/img/ocean/animals/octopus.jpg","[""ArrowRight""]","revaluation","ocean","10","{""ArrowUp,ArrowLeft"":26,""ArrowUp,ArrowRight"":10,""ArrowDown,ArrowLeft"":5,""ArrowDown,ArrowRight"":17}","false","ArrowUp,ArrowRight","","original","1","20","","",""
"html-keyboard-response","243","1257027","0.0-4.0-4.0-1.10","spark_pilot_norest","10114","1","23","Male","","","","","","","null","<div style=""font-size:60px;"">+</div>","null","fixation","","","","","","","","","21","","",""
"revaluation","244","1261034","0.0-4.0-4.0-0.11","spark_pilot_norest","10114","1","23","Male","","false","","","","","[475.40000000596046]","./assets/img/ocean/animals/seahorse.jpg","[""ArrowRight""]","revaluation","ocean","17","{""ArrowUp,ArrowLeft"":26,""ArrowUp,ArrowRight"":10,""ArrowDown,ArrowLeft"":5,""ArrowDown,ArrowRight"":17}","true","ArrowDown,ArrowRight","","original","1","22","","",""
"html-keyboard-response","245","1261535","0.0-4.0-4.0-1.11","spark_pilot_norest","10114","1","23","Male","","","","","","","null","<div style=""font-size:60px;"">+</div>","null","fixation","","","","","","","","","23","","",""
"revaluation","246","1265539","0.0-4.0-4.0-0.12","spark_pilot_norest","10114","1","23","Male","","false","","","","","[547.9000000059605]","./assets/img/ocean/animals/octopus.jpg","[""ArrowLeft""]","revaluation","ocean","26","{""ArrowUp,ArrowLeft"":26,""ArrowUp,ArrowRight"":10,""ArrowDown,ArrowLeft"":5,""ArrowDown,ArrowRight"":17}","true","ArrowUp,ArrowLeft","","original","1","24","","",""
"html-keyboard-response","247","1266040","0.0-4.0-4.0-1.12","spark_pilot_norest","10114","1","23","Male","","","","","","","null","<div style=""font-size:60px;"">+</div>","null","fixation","","","","","","","","","25","","",""
"revaluation","248","1270044","0.0-4.0-4.0-0.13","spark_pilot_norest","10114","1","23","Male","","false","","","","","[431.59999999403954]","./assets/img/ocean/animals/octopus.jpg","[""ArrowRight""]","revaluation","ocean","10","{""ArrowUp,ArrowLeft"":26,""ArrowUp,ArrowRight"":10,""ArrowDown,ArrowLeft"":5,""ArrowDown,ArrowRight"":17}","false","ArrowUp,ArrowRight","","original","1","26","","",""
"html-keyboard-response","249","1270545","0.0-4.0-4.0-1.13","spark_pilot_norest","10114","1","23","Male","","","","","","","null","<div style=""font-size:60px;"">+</div>","null","fixation","","","","","","","","","27","","",""
"revaluation","250","1274552","0.0-4.0-4.0-0.14","spark_pilot_norest","10114","1","23","Male","","false","","","","","[530]","./assets/img/ocean/animals/octopus.jpg","[""ArrowRight""]","revaluation","ocean","10","{""ArrowUp,ArrowLeft"":26,""ArrowUp,ArrowRight"":10,""ArrowDown,ArrowLeft"":5,""ArrowDown,ArrowRight"":17}","false","ArrowUp,ArrowRight","","original","1","28","","",""
"html-keyboard-response","251","1275054","0.0-4.0-4.0-1.14","spark_pilot_norest","10114","1","23","Male","","","","","","","null","<div style=""font-size:60px;"">+</div>","null","fixation","","","","","","","","","29","","",""
"revaluation","252","1279059","0.0-4.0-4.0-0.15","spark_pilot_norest","10114","1","23","Male","","false","","","","","[343.20000000298023]","./assets/img/ocean/animals/seahorse.jpg","[""ArrowLeft""]","revaluation","ocean","5","{""ArrowUp,ArrowLeft"":26,""ArrowUp,ArrowRight"":10,""ArrowDown,ArrowLeft"":5,""ArrowDown,ArrowRight"":17}","false","ArrowDown,ArrowLeft","","original","1","30","","",""
"html-keyboard-response","253","1279561","0.0-4.0-4.0-1.15","spark_pilot_norest","10114","1","23","Male","","","","","","","null","<div style=""font-size:60px;"">+</div>","null","fixation","","","","","","","","","31","","",""
"revaluation","254","1283565","0.0-4.0-4.0-0.16","spark_pilot_norest","10114","1","23","Male","","false","","","","","[673.2999999970198]","./assets/img/ocean/animals/octopus.jpg","[""ArrowRight""]","revaluation","ocean","10","{""ArrowUp,ArrowLeft"":26,""ArrowUp,ArrowRight"":10,""ArrowDown,ArrowLeft"":5,""ArrowDown,ArrowRight"":17}","false","ArrowUp,ArrowRight","","original","1","32","","",""
"html-keyboard-response","255","1284066","0.0-4.0-4.0-1.16","spark_pilot_norest","10114","1","23","Male","","","","","","","null","<div style=""font-size:60px;"">+</div>","null","fixation","","","","","","","","","33","","",""
"revaluation","256","1288071","0.0-4.0-4.0-0.17","spark_pilot_norest","10114","1","23","Male","","false","","","","","[578.9000000059605]","./assets/img/ocean/animals/octopus.jpg","[""ArrowRight""]","revaluation","ocean","10","{""ArrowUp,ArrowLeft"":26,""ArrowUp,ArrowRight"":10,""ArrowDown,ArrowLeft"":5,""ArrowDown,ArrowRight"":17}","false","ArrowUp,ArrowRight","","original","1","34","","",""
"html-keyboard-response","257","1288573","0.0-4.0-4.0-1.17","spark_pilot_norest","10114","1","23","Male","","","","","","","null","<div style=""font-size:60px;"">+</div>","null","fixation","","","","","","","","","35","","",""
"learning-instructions","258","1296699","0.0-4.0-5.0-0.0","spark_pilot_norest","10114","1","23","Male","","","","","","","null","<p> You have almost finished this part of the game! </p>
            <p> We are going to ask you to make a few more choices. </p>","","instructions","","","","","","","","","","","",""
"learning-instructions","259","1312669","0.0-4.0-5.0-0.1","spark_pilot_norest","10114","1","23","Male","","","","","","","null","<p> First, you need to decide whether to go up or down. When you see each picture, use the arrow keys to make your choice. </p>
            <p><b>You will not see which animal you found, but try to get to the one that will give you the most treasure.</b></p>","","instructions","","","","","","","","","","","",""
"html-keyboard-response","260","1313671","0.0-4.0-6.0-0.0","spark_pilot_norest","10114","1","23","Male","","","","","","","null","<div style=""font-size:100px;color:red;"">Starting in...</div>","null","","","","","","","","","","","","",""
"html-keyboard-response","261","1314673","0.0-4.0-6.0-1.0","spark_pilot_norest","10114","1","23","Male","","","","","","","null","<div style=""font-size:200px;color:red;"">3</div>","null","","","","","","","","","","","","",""
"html-keyboard-response","262","1315674","0.0-4.0-6.0-2.0","spark_pilot_norest","10114","1","23","Male","","","","","","","null","<div style=""font-size:200px;color:red;"">2</div>","null","","","","","","","","","","","","",""
"html-keyboard-response","263","1316676","0.0-4.0-6.0-3.0","spark_pilot_norest","10114","1","23","Male","","","","","","","null","<div style=""font-size:200px;color:red;"">1</div>","null","","","","","","","","","","","","",""
"revaluation","264","1317384","0.0-4.0-7.0-0.0","spark_pilot_norest","10114","1","23","Male","","false","","","","","[705.6999999880791]","./assets/img/ocean/test/1.jpg","[""ArrowUp""]","first stage test","ocean","0","{""ArrowUp,ArrowLeft"":26,""ArrowUp,ArrowRight"":10,""ArrowDown,ArrowLeft"":5,""ArrowDown,ArrowRight"":17}","true","ArrowUp","false","original","1","","","",""
"html-keyboard-response","265","1317886","0.0-4.0-7.0-1.0","spark_pilot_norest","10114","1","23","Male","","","","","","","null","<div style=""font-size:60px;"">+</div>","null","fixation","","","","","","","","","","","",""
"revaluation","266","1318606","0.0-4.0-7.0-0.1","spark_pilot_norest","10114","1","23","Male","","false","","","","","[716.7999999970198]","./assets/img/ocean/test/3.jpg","[""ArrowDown""]","first stage test","ocean","0","{""ArrowUp,ArrowLeft"":26,""ArrowUp,ArrowRight"":10,""ArrowDown,ArrowLeft"":5,""ArrowDown,ArrowRight"":17}","false","ArrowDown","false","original","1","","","",""
"html-keyboard-response","267","1319107","0.0-4.0-7.0-1.1","spark_pilot_norest","10114","1","23","Male","","","","","","","null","<div style=""font-size:60px;"">+</div>","null","fixation","","","","","","","","","","","",""
"revaluation","268","1319534","0.0-4.0-7.0-0.2","spark_pilot_norest","10114","1","23","Male","","false","","","","","[422.59999999403954]","./assets/img/ocean/test/2.jpg","[""ArrowDown""]","first stage test","ocean","0","{""ArrowUp,ArrowLeft"":26,""ArrowUp,ArrowRight"":10,""ArrowDown,ArrowLeft"":5,""ArrowDown,ArrowRight"":17}","false","ArrowDown","false","original","1","","","",""
"html-keyboard-response","269","1320035","0.0-4.0-7.0-1.2","spark_pilot_norest","10114","1","23","Male","","","","","","","null","<div style=""font-size:60px;"">+</div>","null","fixation","","","","","","","","","","","",""
"revaluation","270","1320336","0.0-4.0-7.0-0.3","spark_pilot_norest","10114","1","23","Male","","false","","","","","[298.29999999701977]","./assets/img/ocean/test/0.jpg","[""ArrowUp""]","first stage test","ocean","0","{""ArrowUp,ArrowLeft"":26,""ArrowUp,ArrowRight"":10,""ArrowDown,ArrowLeft"":5,""ArrowDown,ArrowRight"":17}","true","ArrowUp","false","original","1","","","",""
"html-keyboard-response","271","1320838","0.0-4.0-7.0-1.3","spark_pilot_norest","10114","1","23","Male","","","","","","","null","<div style=""font-size:60px;"">+</div>","null","fixation","","","","","","","","","","","",""
"learning-instructions","272","1334178","0.0-4.0-8.0-0.0","spark_pilot_norest","10114","1","23","Male","","","","","","","null","<p> Now you will see the animals again and can search their chests for treasure. </p>
            <p> This time, you will not see how much treasure you earned, but you will earn more bonus money for making better choices. </p>","","instructions","","","","","","","","","","","",""
"html-keyboard-response","273","1335180","0.0-4.0-9.0-0.0","spark_pilot_norest","10114","1","23","Male","","","","","","","null","<div style=""font-size:100px;color:red;"">Starting in...</div>","null","","","","","","","","","","","","",""
"html-keyboard-response","274","1336181","0.0-4.0-9.0-1.0","spark_pilot_norest","10114","1","23","Male","","","","","","","null","<div style=""font-size:200px;color:red;"">3</div>","null","","","","","","","","","","","","",""
"html-keyboard-response","275","1337183","0.0-4.0-9.0-2.0","spark_pilot_norest","10114","1","23","Male","","","","","","","null","<div style=""font-size:200px;color:red;"">2</div>","null","","","","","","","","","","","","",""
"html-keyboard-response","276","1338185","0.0-4.0-9.0-3.0","spark_pilot_norest","10114","1","23","Male","","","","","","","null","<div style=""font-size:200px;color:red;"">1</div>","null","","","","","","","","","","","","",""
"revaluation","277","1338768","0.0-4.0-10.0-0.0","spark_pilot_norest","10114","1","23","Male","","false","","","","","[578.7000000029802]","./assets/img/ocean/animals/octopus.jpg","[""ArrowRight""]","second stage test","ocean","0","{""ArrowUp,ArrowLeft"":26,""ArrowUp,ArrowRight"":10,""ArrowDown,ArrowLeft"":5,""ArrowDown,ArrowRight"":17}","false","ArrowUp,ArrowRight","","original","1","","","",""
"html-keyboard-response","278","1339270","0.0-4.0-10.0-1.0","spark_pilot_norest","10114","1","23","Male","","","","","","","null","<div style=""font-size:60px;"">+</div>","null","fixation","","","","","","","","","","","",""
"revaluation","279","1339672","0.0-4.0-10.0-0.1","spark_pilot_norest","10114","1","23","Male","","false","","","","","[399.3999999910593]","./assets/img/ocean/animals/octopus.jpg","[""ArrowLeft""]","second stage test","ocean","0","{""ArrowUp,ArrowLeft"":26,""ArrowUp,ArrowRight"":10,""ArrowDown,ArrowLeft"":5,""ArrowDown,ArrowRight"":17}","true","ArrowUp,ArrowLeft","","original","1","","","",""
"html-keyboard-response","280","1340172","0.0-4.0-10.0-1.1","spark_pilot_norest","10114","1","23","Male","","","","","","","null","<div style=""font-size:60px;"">+</div>","null","fixation","","","","","","","","","","","",""
"revaluation","281","1340501","0.0-4.0-10.0-0.2","spark_pilot_norest","10114","1","23","Male","","false","","","","","[326.29999999701977]","./assets/img/ocean/animals/octopus.jpg","[""ArrowLeft""]","second stage test","ocean","0","{""ArrowUp,ArrowLeft"":26,""ArrowUp,ArrowRight"":10,""ArrowDown,ArrowLeft"":5,""ArrowDown,ArrowRight"":17}","true","ArrowUp,ArrowLeft","","original","1","","","",""
"html-keyboard-response","282","1341002","0.0-4.0-10.0-1.2","spark_pilot_norest","10114","1","23","Male","","","","","","","null","<div style=""font-size:60px;"">+</div>","null","fixation","","","","","","","","","","","",""
"revaluation","283","1341480","0.0-4.0-10.0-0.3","spark_pilot_norest","10114","1","23","Male","","false","","","","","[475.79999999701977]","./assets/img/ocean/animals/octopus.jpg","[""ArrowRight""]","second stage test","ocean","0","{""ArrowUp,ArrowLeft"":26,""ArrowUp,ArrowRight"":10,""ArrowDown,ArrowLeft"":5,""ArrowDown,ArrowRight"":17}","false","ArrowUp,ArrowRight","","original","1","","","",""
"html-keyboard-response","284","1341982","0.0-4.0-10.0-1.3","spark_pilot_norest","10114","1","23","Male","","","","","","","null","<div style=""font-size:60px;"">+</div>","null","fixation","","","","","","","","","","","",""
"revaluation","285","1342474","0.0-4.0-10.0-0.4","spark_pilot_norest","10114","1","23","Male","","false","","","","","[490]","./assets/img/ocean/animals/seahorse.jpg","[""ArrowRight""]","second stage test","ocean","0","{""ArrowUp,ArrowLeft"":26,""ArrowUp,ArrowRight"":10,""ArrowDown,ArrowLeft"":5,""ArrowDown,ArrowRight"":17}","true","ArrowDown,ArrowRight","","original","1","","","",""
"html-keyboard-response","286","1342975","0.0-4.0-10.0-1.4","spark_pilot_norest","10114","1","23","Male","","","","","","","null","<div style=""font-size:60px;"">+</div>","null","fixation","","","","","","","","","","","",""
"revaluation","287","1343227","0.0-4.0-10.0-0.5","spark_pilot_norest","10114","1","23","Male","","false","","","","","[249.40000000596046]","./assets/img/ocean/animals/seahorse.jpg","[""ArrowRight""]","second stage test","ocean","0","{""ArrowUp,ArrowLeft"":26,""ArrowUp,ArrowRight"":10,""ArrowDown,ArrowLeft"":5,""ArrowDown,ArrowRight"":17}","true","ArrowDown,ArrowRight","","original","1","","","",""
"html-keyboard-response","288","1343729","0.0-4.0-10.0-1.5","spark_pilot_norest","10114","1","23","Male","","","","","","","null","<div style=""font-size:60px;"">+</div>","null","fixation","","","","","","","","","","","",""
"revaluation","289","1343982","0.0-4.0-10.0-0.6","spark_pilot_norest","10114","1","23","Male","","false","","","","","[250.30000001192093]","./assets/img/ocean/animals/seahorse.jpg","[""ArrowRight""]","second stage test","ocean","0","{""ArrowUp,ArrowLeft"":26,""ArrowUp,ArrowRight"":10,""ArrowDown,ArrowLeft"":5,""ArrowDown,ArrowRight"":17}","true","ArrowDown,ArrowRight","","original","1","","","",""
"html-keyboard-response","290","1344483","0.0-4.0-10.0-1.6","spark_pilot_norest","10114","1","23","Male","","","","","","","null","<div style=""font-size:60px;"">+</div>","null","fixation","","","","","","","","","","","",""
"revaluation","291","1344710","0.0-4.0-10.0-0.7","spark_pilot_norest","10114","1","23","Male","","false","","","","","[224.20000000298023]","./assets/img/ocean/animals/seahorse.jpg","[""ArrowLeft""]","second stage test","ocean","0","{""ArrowUp,ArrowLeft"":26,""ArrowUp,ArrowRight"":10,""ArrowDown,ArrowLeft"":5,""ArrowDown,ArrowRight"":17}","false","ArrowDown,ArrowLeft","","original","1","","","",""
"html-keyboard-response","292","1345211","0.0-4.0-10.0-1.7","spark_pilot_norest","10114","1","23","Male","","","","","","","null","<div style=""font-size:60px;"">+</div>","null","fixation","","","","","","","","","","","",""
"learning-instructions","293","1350469","0.0-4.0-0.1-0.2","spark_pilot_norest","10114","1","23","Male","","","","","","","2480.199999988079","<p> This time you are searching for treasure in the <b>canyon</b>.</p>","","instructions","","","","","","","","","","","",""
"learning-instructions","294","1368871","0.0-4.0-0.1-0.3","spark_pilot_norest","10114","1","23","Male","","","","","","","1142.199999988079","<p><b>New</b> animals with <b>new</b> treasure chests live here. You need to explore to discover where the animal with the best treasure chest is.</p>
                    <p> Like before, once you figure out which animal has the chest with the most treasure, you should try to get to that animal and select that chest! </p>","","instructions","","","","","","","","","","","",""
"learning-instructions","295","1384280","0.0-4.0-1.1-0.1","spark_pilot_norest","10114","1","23","Male","","","","","","","671.7000000029802","<p> Remember, when you see a picture of the place, use the up and down keys to <b>find an animal</b>.</p>
            <p> When you encounter an animal, you should use the left and right keys to <b>select a treasure chest</b>.</p>
            <p> Don't forget to look out for the robber! </p>","","instructions","","","","","","","","","","","",""
"revaluation","296","1390286","0.0-4.0-2.1-0.50","spark_pilot_norest","10114","1","23","Male","","false","","","","","[1394.5999999940395,505.09999999403954]","./assets/img/canyon/memory/26.jpg","[""ArrowUp"",""ArrowRight""]","value training","canyon","10","{""ArrowUp,ArrowLeft"":23,""ArrowUp,ArrowRight"":10,""ArrowDown,ArrowLeft"":8,""ArrowDown,ArrowRight"":30}","false","ArrowUp,ArrowRight","false","revaluation","2","0","","",""
"html-keyboard-response","297","1390788","0.0-4.0-2.1-1.50","spark_pilot_norest","10114","1","23","Male","","","","","","","null","<div style=""font-size:60px;"">+</div>","null","fixation","","","","","","","","","1","","",""
"revaluation","298","1396793","0.0-4.0-2.1-0.51","spark_pilot_norest","10114","1","23","Male","","false","","","","","[317.70000000298023,311.1000000089407]","./assets/img/canyon/memory/2.jpg","[""ArrowDown"",""ArrowLeft""]","value training","canyon","8","{""ArrowUp,ArrowLeft"":23,""ArrowUp,ArrowRight"":10,""ArrowDown,ArrowLeft"":8,""ArrowDown,ArrowRight"":30}","false","ArrowDown,ArrowLeft","false","revaluation","2","2","","",""
"html-keyboard-response","299","1397295","0.0-4.0-2.1-1.51","spark_pilot_norest","10114","1","23","Male","","","","","","","null","<div style=""font-size:60px;"">+</div>","null","fixation","","","","","","","","","3","","",""
"revaluation","300","1401299","0.0-4.0-2.1-0.52","spark_pilot_norest","10114","1","23","Male","","false","","","","","[756.1999999880791]","./assets/img/canyon/catch/5.jpg","[""spaceBar""]","value training","canyon","0","{""ArrowUp,ArrowLeft"":23,""ArrowUp,ArrowRight"":10,""ArrowDown,ArrowLeft"":8,""ArrowDown,ArrowRight"":30}","true","spaceBar","true","revaluation","2","4","","",""
"html-keyboard-response","301","1401801","0.0-4.0-2.1-1.52","spark_pilot_norest","10114","1","23","Male","","","","","","","null","<div style=""font-size:60px;"">+</div>","null","fixation","","","","","","","","","5","","",""
"revaluation","302","1405805","0.0-4.0-2.1-0.53","spark_pilot_norest","10114","1","23","Male","","false","","","","","[411]","./assets/img/canyon/catch/7.jpg","[""ArrowDown""]","value training","canyon","-10","{""ArrowUp,ArrowLeft"":23,""ArrowUp,ArrowRight"":10,""ArrowDown,ArrowLeft"":8,""ArrowDown,ArrowRight"":30}","false","ArrowDown","true","revaluation","2","6","","",""
"html-keyboard-response","303","1406307","0.0-4.0-2.1-1.53","spark_pilot_norest","10114","1","23","Male","","","","","","","null","<div style=""font-size:60px;"">+</div>","null","fixation","","","","","","","","","7","","",""
"revaluation","304","1412314","0.0-4.0-2.1-0.54","spark_pilot_norest","10114","1","23","Male","","false","","","","","[557.2999999970198,290]","./assets/img/canyon/memory/3.jpg","[""ArrowDown"",""ArrowRight""]","value training","canyon","30","{""ArrowUp,ArrowLeft"":23,""ArrowUp,ArrowRight"":10,""ArrowDown,ArrowLeft"":8,""ArrowDown,ArrowRight"":30}","true","ArrowDown,ArrowRight","false","revaluation","2","8","","",""
"html-keyboard-response","305","1412815","0.0-4.0-2.1-1.54","spark_pilot_norest","10114","1","23","Male","","","","","","","null","<div style=""font-size:60px;"">+</div>","null","fixation","","","","","","","","","9","","",""
"revaluation","306","1418823","0.0-4.0-2.1-0.55","spark_pilot_norest","10114","1","23","Male","","false","","","","","[1214.5,297.79999999701977]","./assets/img/canyon/memory/40.jpg","[""ArrowUp"",""ArrowRight""]","value training","canyon","10","{""ArrowUp,ArrowLeft"":23,""ArrowUp,ArrowRight"":10,""ArrowDown,ArrowLeft"":8,""ArrowDown,ArrowRight"":30}","false","ArrowUp,ArrowRight","false","revaluation","2","10","","",""
"html-keyboard-response","307","1419324","0.0-4.0-2.1-1.55","spark_pilot_norest","10114","1","23","Male","","","","","","","null","<div style=""font-size:60px;"">+</div>","null","fixation","","","","","","","","","11","","",""
"revaluation","308","1425333","0.0-4.0-2.1-0.56","spark_pilot_norest","10114","1","23","Male","","false","","","","","[625.5,207.29999999701977]","./assets/img/canyon/memory/31.jpg","[""ArrowDown"",""ArrowLeft""]","value training","canyon","8","{""ArrowUp,ArrowLeft"":23,""ArrowUp,ArrowRight"":10,""ArrowDown,ArrowLeft"":8,""ArrowDown,ArrowRight"":30}","false","ArrowDown,ArrowLeft","false","revaluation","2","12","","",""
"html-keyboard-response","309","1425834","0.0-4.0-2.1-1.56","spark_pilot_norest","10114","1","23","Male","","","","","","","null","<div style=""font-size:60px;"">+</div>","null","fixation","","","","","","","","","13","","",""
"revaluation","310","1431841","0.0-4.0-2.1-0.57","spark_pilot_norest","10114","1","23","Male","","false","","","","","[832.0999999940395,295]","./assets/img/canyon/memory/14.jpg","[""ArrowUp"",""ArrowRight""]","value training","canyon","10","{""ArrowUp,ArrowLeft"":23,""ArrowUp,ArrowRight"":10,""ArrowDown,ArrowLeft"":8,""ArrowDown,ArrowRight"":30}","false","ArrowUp,ArrowRight","false","revaluation","2","14","","",""
"html-keyboard-response","311","1432343","0.0-4.0-2.1-1.57","spark_pilot_norest","10114","1","23","Male","","","","","","","null","<div style=""font-size:60px;"">+</div>","null","fixation","","","","","","","","","15","","",""
"revaluation","312","1438350","0.0-4.0-2.1-0.58","spark_pilot_norest","10114","1","23","Male","","false","","","","","[1339.8999999910593,460.5]","./assets/img/canyon/memory/26.jpg","[""ArrowDown"",""ArrowLeft""]","value training","canyon","8","{""ArrowUp,ArrowLeft"":23,""ArrowUp,ArrowRight"":10,""ArrowDown,ArrowLeft"":8,""ArrowDown,ArrowRight"":30}","false","ArrowDown,ArrowLeft","false","revaluation","2","16","","",""
