"trial_type","trial_index","time_elapsed","internal_node_id","task_version","subject_id","assigned_condition","age","gender","success","timeout","failed_images","failed_audio","failed_video","browser_interaction","rt","stimulus","response","task_part","environment","score","rewardMap","correct","fullState","isCatch","condition","order","trial_num","key_press","ground_truth","bonus"
"pavlovia","0","1418","0.0-0.0","spark_pilot_norest","10587","1","8","Female","","","","","","","","","","","","","","","","","","","","","",""
"preload","1","14039","0.0-1.0","spark_pilot_norest","10587","1","8","Female","true","false","[]","[]","[]","[{""event"":""fullscreenenter"",""trial"":2,""time"":32758}]","","","","","","","","","","","","","","","",""
"fullscreen","2","33654","0.0-2.0","spark_pilot_norest","10587","1","8","Female","true","","","","","","","","","","","","","","","","","","","","",""
"audio-button-response","3","38684","0.0-3.0-0.0-0.0","spark_pilot_norest","10587","1","8","Female","","","","","","","4795","./assets/audio/audiotest/turtle.mp3","2","audio_test","","","","","","","","","","","",""
"learning-instructions","4","53490","0.0-3.0-1.0-0.0","spark_pilot_norest","10587","1","8","Female","","","","","","","7783.300000011921","<p> Welcome! Please remember to stay in fullscreen mode and don't click away from the experiment. </p>","","instructions","","","","","","","","","","","",""
"learning-instructions","5","73462","0.0-3.0-1.0-0.1","spark_pilot_norest","10587","1","8","Female","","","","","","","11520","<p> Today you will be playing a game to earn treasure. </p>
            <p> At the end of the experiment, you will earn a bonus based on how much treasure you find. </p>
            <img src='./assets/img/instructions/treasure.jpg' class='instructions-image'>","","instructions","","","","","","","","","","","",""
"learning-instructions","6","84525","0.0-3.0-1.0-0.2","spark_pilot_norest","10587","1","8","Female","","","","","","","2759","<p> Animals have hidden treasure in treasure chests. </p>
            <p> You need to first find an animal and then choose which of their treasure chests to search. </p>
            <img src='./assets/img/space/animals/cat.jpg' class='instructions-image'>","","instructions","","","","","","","","","","","",""
"learning-instructions","7","100301","0.0-3.0-1.0-0.3","spark_pilot_norest","10587","1","8","Female","","","","","","","2559.600000023842","<p> In each round, you will search for treasure in a different place. In the real game, there will be two rounds. </p>
            <p> You will begin with a separate, practice round where you will search for treasure in outer space. </p>
            <img src='./assets/img/space/0.jpg' class='instructions-image'>","","instructions","","","","","","","","","","","",""
"learning-instructions","8","115610","0.0-3.0-1.0-0.4","spark_pilot_norest","10587","1","8","Female","","","","","","","3836.100000023842","<p> On every turn, you will see a picture of the place that you are in, but the specific image may be different each time. </p>
            <p> For example, both of these images mean you are in outer space. </p>
            <img src='./assets/img/instructions/outerspace.jpg' class='instructions-image'>","","instructions","","","","","","","","","","","",""
"learning-instructions","9","127157","0.0-3.0-1.0-0.5","spark_pilot_norest","10587","1","8","Female","","","","","","","3675","<p> You need to decide which direction to travel in. </p>
            <p> You can choose between going <b>up or down</b> by using the arrow keys. </p>
            <img src='./assets/img/instructions/updown.jpg' class='instructions-image'>","","instructions","","","","","","","","","","","",""
"learning-instructions","10","138269","0.0-3.0-1.0-0.6","spark_pilot_norest","10587","1","8","Female","","","","","","","2242.899999976158","<p> You will have <b>2 seconds</b> to make your choice. </p>
            <p> If you do not make a choice within 2 seconds, you will not find an animal or earn treasure. </p>
            <img src='./assets/img/instructions/2seconds.jpg' class='instructions-image'>","","instructions","","","","","","","","","","","",""
"learning-instructions","11","147411","0.0-3.0-1.0-0.7","spark_pilot_norest","10587","1","8","Female","","","","","","","2055.5","<p> Let’s try practicing that now! </p>
            <p> When you see a picture of the place you are in, press the <b>up</b> key to travel up. </p>
            <img src='./assets/img/instructions/pressUp.jpg' class='instructions-image'>","","instructions","","","","","","","","","","","",""
"revaluation","12","151445","0.0-3.0-2.0-0.0","spark_pilot_norest","10587","1","8","Female","","false","","","","","[1637.800000011921]","./assets/img/space/0.jpg","[""ArrowUp""]","first stage practice","space","0","null","null","ArrowUp","false","","","","","",""
"html-keyboard-response","13","151949","0.0-3.0-2.0-1.0","spark_pilot_norest","10587","1","8","Female","","","","","","","null","<div style=""font-size:60px;"">+</div>","null","fixation","","","","","","","","","","","",""
"revaluation","14","155966","0.0-3.0-2.0-0.1","spark_pilot_norest","10587","1","8","Female","","true","","","","","[]","./assets/img/space/1.jpg","[]","first stage practice","space","-5","null","null","","false","","","","","",""
"html-keyboard-response","15","156476","0.0-3.0-2.0-1.1","spark_pilot_norest","10587","1","8","Female","","","","","","","null","<div style=""font-size:60px;"">+</div>","null","fixation","","","","","","","","","","","",""
"revaluation","16","160494","0.0-3.0-2.0-0.2","spark_pilot_norest","10587","1","8","Female","","false","","","","","[564.4000000357628]","./assets/img/space/2.jpg","[""ArrowUp""]","first stage practice","space","0","null","null","ArrowUp","false","","","","","",""
"html-keyboard-response","17","160999","0.0-3.0-2.0-1.2","spark_pilot_norest","10587","1","8","Female","","","","","","","null","<div style=""font-size:60px;"">+</div>","null","fixation","","","","","","","","","","","",""
"learning-instructions","18","167549","0.0-3.0-3.0-0.0","spark_pilot_norest","10587","1","8","Female","","","","","","","1806.5999999642372","<p> Great job! Now try pressing the <b>down</b> key to travel down. </p>
            <img src='./assets/img/instructions/pressDown.jpg' class='instructions-image'>","","instructions","","","","","","","","","","","",""
"revaluation","19","171565","0.0-3.0-4.0-0.0","spark_pilot_norest","10587","1","8","Female","","false","","","","","[435.80000001192093]","./assets/img/space/3.jpg","[""ArrowDown""]","first stage practice","space","0","null","null","ArrowDown","false","","","","","",""
"html-keyboard-response","20","172069","0.0-3.0-4.0-1.0","spark_pilot_norest","10587","1","8","Female","","","","","","","null","<div style=""font-size:60px;"">+</div>","null","fixation","","","","","","","","","","","",""
"revaluation","21","176087","0.0-3.0-4.0-0.1","spark_pilot_norest","10587","1","8","Female","","false","","","","","[465.5]","./assets/img/space/4.jpg","[""ArrowDown""]","first stage practice","space","0","null","null","ArrowDown","false","","","","","",""
"html-keyboard-response","22","176597","0.0-3.0-4.0-1.1","spark_pilot_norest","10587","1","8","Female","","","","","","","null","<div style=""font-size:60px;"">+</div>","null","fixation","","","","","","","","","","","",""
"revaluation","23","180615","0.0-3.0-4.0-0.2","spark_pilot_norest","10587","1","8","Female","","false","","","","","[1119.4000000357628]","./assets/img/space/5.jpg","[""ArrowDown""]","first stage practice","space","0","null","null","ArrowDown","false","","","","","",""
"html-keyboard-response","24","181120","0.0-3.0-4.0-1.2","spark_pilot_norest","10587","1","8","Female","","","","","","","null","<div style=""font-size:60px;"">+</div>","null","fixation","","","","","","","","","","","",""
"learning-instructions","25","194142","0.0-3.0-5.0-0.0","spark_pilot_norest","10587","1","8","Female","","","","","","","3100.199999988079","<p> The animals don’t move, so the animal in the upper part of a place will stay in the upper part of a place, and the animal in the lower part of a place will stay in the lower part of a place. </p>","","instructions","","","","","","","","","","","",""
"learning-instructions","26","205100","0.0-3.0-5.0-0.1","spark_pilot_norest","10587","1","8","Female","","","","","","","1775","<p> Each animal has two treasure chests for you to choose from. </p>
            <p> The amount of treasure in each chest can range from <b> 0 to 40 pieces.</b></p>","","instructions","","","","","","","","","","","",""
"learning-instructions","27","218706","0.0-3.0-5.0-0.2","spark_pilot_norest","10587","1","8","Female","","","","","","","2359.699999988079","<p> You should decide which chest to search for treasure by using the <b>left</b> and <b>right</b> arrow keys. </p>
            <p><b> Pay attention to which animal is on the screen, as the animals have different treasure chests. </b></p>
            <img src='./assets/img/instructions/leftright.jpg' class='instructions-image'>","","instructions","","","","","","","","","","","",""
"learning-instructions","28","226758","0.0-3.0-5.0-0.3","spark_pilot_norest","10587","1","8","Female","","","","","","","1640","<p> Let’s try practicing that now. </p>
            <p> When you see an animal, choose which chest to search for treasure. </p>
            <img src='./assets/img/instructions/chooseChest.jpg' class='instructions-image'>","","instructions","","","","","","","","","","","",""
"revaluation","29","230782","0.0-3.0-6.0-0.0","spark_pilot_norest","10587","1","8","Female","","false","","","","","[774.1000000238419]","./assets/img/space/animals/cat.jpg","[""ArrowLeft""]","second stage practice","space","3","{""ArrowUp,ArrowLeft"":3,""ArrowUp,ArrowRight"":36,""ArrowDown,ArrowLeft"":15,""ArrowDown,ArrowRight"":23}","false","ArrowUp,ArrowLeft","","","","","","",""
"html-keyboard-response","30","231288","0.0-3.0-6.0-1.0","spark_pilot_norest","10587","1","8","Female","","","","","","","null","<div style=""font-size:60px;"">+</div>","null","fixation","","","","","","","","","","","",""
"revaluation","31","235305","0.0-3.0-6.0-0.1","spark_pilot_norest","10587","1","8","Female","","false","","","","","[482.0999999642372]","./assets/img/space/animals/cat.jpg","[""ArrowRight""]","second stage practice","space","36","{""ArrowUp,ArrowLeft"":3,""ArrowUp,ArrowRight"":36,""ArrowDown,ArrowLeft"":15,""ArrowDown,ArrowRight"":23}","true","ArrowUp,ArrowRight","","","","","","",""
"html-keyboard-response","32","235815","0.0-3.0-6.0-1.1","spark_pilot_norest","10587","1","8","Female","","","","","","","null","<div style=""font-size:60px;"">+</div>","null","fixation","","","","","","","","","","","",""
"revaluation","33","239833","0.0-3.0-6.0-0.2","spark_pilot_norest","10587","1","8","Female","","false","","","","","[419.80000001192093]","./assets/img/space/animals/rabbit.jpg","[""ArrowLeft""]","second stage practice","space","15","{""ArrowUp,ArrowLeft"":3,""ArrowUp,ArrowRight"":36,""ArrowDown,ArrowLeft"":15,""ArrowDown,ArrowRight"":23}","false","ArrowDown,ArrowLeft","","","","","","",""
"html-keyboard-response","34","240344","0.0-3.0-6.0-1.2","spark_pilot_norest","10587","1","8","Female","","","","","","","null","<div style=""font-size:60px;"">+</div>","null","fixation","","","","","","","","","","","",""
"revaluation","35","244361","0.0-3.0-6.0-0.3","spark_pilot_norest","10587","1","8","Female","","false","","","","","[456.80000001192093]","./assets/img/space/animals/rabbit.jpg","[""ArrowRight""]","second stage practice","space","23","{""ArrowUp,ArrowLeft"":3,""ArrowUp,ArrowRight"":36,""ArrowDown,ArrowLeft"":15,""ArrowDown,ArrowRight"":23}","true","ArrowDown,ArrowRight","","","","","","",""
"html-keyboard-response","36","244871","0.0-3.0-6.0-1.3","spark_pilot_norest","10587","1","8","Female","","","","","","","null","<div style=""font-size:60px;"">+</div>","null","fixation","","","","","","","","","","","",""
"learning-instructions","37","263810","0.0-3.0-7.0-0.0","spark_pilot_norest","10587","1","8","Female","","","","","","","2027.5999999642372","<p> Great job. Now let’s try putting it together. </p>
            <p> On each turn, you will first see a picture to remind you of the place you are in, and you need to choose whether to go up or down. </p>
            <p> Then you will see an animal and choose which of its chests to search for treasure. </p>","","instructions","","","","","","","","","","","",""
"learning-instructions","38","273919","0.0-3.0-7.0-0.1","spark_pilot_norest","10587","1","8","Female","","","","","","","1802.8999999761581","<p> When you choose whether to go up or down, try to go to the animal with the chest with the most treasure. </p>
            <p> Try practicing that now! </p>","","instructions","","","","","","","","","","","",""
"revaluation","39","279947","0.0-3.0-8.0-0.0","spark_pilot_norest","10587","1","8","Female","","true","","","","","[1391.5]","./assets/img/space/6.jpg","[""ArrowUp""]","full practice","space","-5","{""ArrowUp,ArrowLeft"":3,""ArrowUp,ArrowRight"":36,""ArrowDown,ArrowLeft"":15,""ArrowDown,ArrowRight"":23}","false","ArrowUp","false","","","","","",""
"html-keyboard-response","40","280457","0.0-3.0-8.0-1.0","spark_pilot_norest","10587","1","8","Female","","","","","","","null","<div style=""font-size:60px;"">+</div>","null","fixation","","","","","","","","","","","",""
"revaluation","41","286483","0.0-3.0-8.0-0.1","spark_pilot_norest","10587","1","8","Female","","false","","","","","[900.0999999642372,794.1000000238419]","./assets/img/space/7.jpg","[""ArrowUp"",""ArrowLeft""]","full practice","space","3","{""ArrowUp,ArrowLeft"":3,""ArrowUp,ArrowRight"":36,""ArrowDown,ArrowLeft"":15,""ArrowDown,ArrowRight"":23}","false","ArrowUp,ArrowLeft","false","","","","","",""
"html-keyboard-response","42","286994","0.0-3.0-8.0-1.1","spark_pilot_norest","10587","1","8","Female","","","","","","","null","<div style=""font-size:60px;"">+</div>","null","fixation","","","","","","","","","","","",""
"revaluation","43","293019","0.0-3.0-8.0-0.2","spark_pilot_norest","10587","1","8","Female","","false","","","","","[1463.7999999523163,1240.9000000357628]","./assets/img/space/8.jpg","[""ArrowUp"",""ArrowRight""]","full practice","space","36","{""ArrowUp,ArrowLeft"":3,""ArrowUp,ArrowRight"":36,""ArrowDown,ArrowLeft"":15,""ArrowDown,ArrowRight"":23}","true","ArrowUp,ArrowRight","false","","","","","",""
"html-keyboard-response","44","293530","0.0-3.0-8.0-1.2","spark_pilot_norest","10587","1","8","Female","","","","","","","null","<div style=""font-size:60px;"">+</div>","null","fixation","","","","","","","","","","","",""
"revaluation","45","297548","0.0-3.0-8.0-0.3","spark_pilot_norest","10587","1","8","Female","","true","","","","","[]","./assets/img/space/9.jpg","[]","full practice","space","-5","{""ArrowUp,ArrowLeft"":3,""ArrowUp,ArrowRight"":36,""ArrowDown,ArrowLeft"":15,""ArrowDown,ArrowRight"":23}","false","","false","","","","","",""
"html-keyboard-response","46","298058","0.0-3.0-8.0-1.3","spark_pilot_norest","10587","1","8","Female","","","","","","","null","<div style=""font-size:60px;"">+</div>","null","fixation","","","","","","","","","","","",""
"revaluation","47","304080","0.0-3.0-8.0-0.4","spark_pilot_norest","10587","1","8","Female","","false","","","","","[519.0999999642372,413.10000002384186]","./assets/img/space/10.jpg","[""ArrowDown"",""ArrowRight""]","full practice","space","23","{""ArrowUp,ArrowLeft"":3,""ArrowUp,ArrowRight"":36,""ArrowDown,ArrowLeft"":15,""ArrowDown,ArrowRight"":23}","false","ArrowDown,ArrowRight","false","","","","","",""
"html-keyboard-response","48","304585","0.0-3.0-8.0-1.4","spark_pilot_norest","10587","1","8","Female","","","","","","","null","<div style=""font-size:60px;"">+</div>","null","fixation","","","","","","","","","","","",""
"learning-instructions","49","317320","0.0-3.0-9.0-0.0","spark_pilot_norest","10587","1","8","Female","","","","","","","2342.699999988079","<p> One last thing: sometimes, you will see a robber. The robber can be anywhere in the picture. </p>
            <p> If you do not stop them, you will lose treasure. </p>
            <img src='./assets/img/instructions/robber.jpg' class='instructions-image'>","","instructions","","","","","","","","","","","",""
"learning-instructions","50","327196","0.0-3.0-9.0-0.1","spark_pilot_norest","10587","1","8","Female","","","","","","","2663.699999988079","<p> If you see the robber, you should <b>press the space bar</b> rather than using the arrow keys. </p>
            <p> Try practicing that now! </p>","","instructions","","","","","","","","","","","",""
"revaluation","51","331209","0.0-3.0-10.0-0.0","spark_pilot_norest","10587","1","8","Female","","false","","","","","[1864.5999999642372]","./assets/img/space/catch/0.jpg","[""spaceBar""]","catch practice","space","0","{""ArrowUp,ArrowLeft"":3,""ArrowUp,ArrowRight"":36,""ArrowDown,ArrowLeft"":15,""ArrowDown,ArrowRight"":23}","true","spaceBar","true","","","","","",""
"html-keyboard-response","52","331712","0.0-3.0-10.0-1.0","spark_pilot_norest","10587","1","8","Female","","","","","","","null","<div style=""font-size:60px;"">+</div>","null","fixation","","","","","","","","","","","",""
"revaluation","53","335729","0.0-3.0-10.0-0.1","spark_pilot_norest","10587","1","8","Female","","false","","","","","[555.2000000476837]","./assets/img/space/catch/1.jpg","[""spaceBar""]","catch practice","space","0","{""ArrowUp,ArrowLeft"":3,""ArrowUp,ArrowRight"":36,""ArrowDown,ArrowLeft"":15,""ArrowDown,ArrowRight"":23}","true","spaceBar","true","","","","","",""
"html-keyboard-response","54","336234","0.0-3.0-10.0-1.1","spark_pilot_norest","10587","1","8","Female","","","","","","","null","<div style=""font-size:60px;"">+</div>","null","fixation","","","","","","","","","","","",""
"revaluation","55","340252","0.0-3.0-10.0-0.2","spark_pilot_norest","10587","1","8","Female","","false","","","","","[841.3000000119209]","./assets/img/space/catch/2.jpg","[""spaceBar""]","catch practice","space","0","{""ArrowUp,ArrowLeft"":3,""ArrowUp,ArrowRight"":36,""ArrowDown,ArrowLeft"":15,""ArrowDown,ArrowRight"":23}","true","spaceBar","true","","","","","",""
"html-keyboard-response","56","340762","0.0-3.0-10.0-1.2","spark_pilot_norest","10587","1","8","Female","","","","","","","null","<div style=""font-size:60px;"">+</div>","null","fixation","","","","","","","","","","","",""
"learning-instructions","57","348587","0.0-3.0-11.0-0.0-0.0","spark_pilot_norest","10587","1","8","Female","","","","","","","2552.899999976158","<p> Now, you will practice a shortened version of the game to get a sense of how it all fits together. </p>","","instructions","","","","","","","","","","","",""
"learning-instructions","58","354640","0.0-3.0-11.0-0.0-0.1","spark_pilot_norest","10587","1","8","Female","","","","","","","2829.399999976158","<p>This time you are searching for treasure in outer space.</p>","","instructions","","","","","","","","","","","",""
"learning-instructions","59","371214","0.0-3.0-11.0-1.0-0.0","spark_pilot_norest","10587","1","8","Female","","","","","","","1726.2999999523163","<p> Remember, when you see a picture of the place, use the up and down keys to <b>find an animal</b>.</p>
            <p> When you encounter an animal, you should use the left and right keys to <b>select a treasure chest</b>.</p>
            <p> Don't forget to look out for the robber! </p>","","instructions","","","","","","","","","","","",""
"revaluation","60","375239","0.0-3.0-11.0-2.0-0.0","spark_pilot_norest","10587","1","8","Female","","true","","","","","[]","./assets/img/space/11.jpg","[]","practice block","space","-5","{""ArrowUp,ArrowLeft"":3,""ArrowUp,ArrowRight"":36,""ArrowDown,ArrowLeft"":15,""ArrowDown,ArrowRight"":23}","false","","false","","","","","",""
"html-keyboard-response","61","375745","0.0-3.0-11.0-2.0-1.0","spark_pilot_norest","10587","1","8","Female","","","","","","","null","<div style=""font-size:60px;"">+</div>","null","fixation","","","","","","","","","","","",""
"revaluation","62","381763","0.0-3.0-11.0-2.0-0.1","spark_pilot_norest","10587","1","8","Female","","false","","","","","[439.69999998807907,1988]","./assets/img/space/12.jpg","[""ArrowDown"",""ArrowRight""]","practice block","space","23","{""ArrowUp,ArrowLeft"":3,""ArrowUp,ArrowRight"":36,""ArrowDown,ArrowLeft"":15,""ArrowDown,ArrowRight"":23}","false","ArrowDown,ArrowRight","false","","","","","",""
"html-keyboard-response","63","382269","0.0-3.0-11.0-2.0-1.1","spark_pilot_norest","10587","1","8","Female","","","","","","","null","<div style=""font-size:60px;"">+</div>","null","fixation","","","","","","","","","","","",""
"revaluation","64","388289","0.0-3.0-11.0-2.0-0.2","spark_pilot_norest","10587","1","8","Female","","false","","","","","[473.5,477.19999998807907]","./assets/img/space/13.jpg","[""ArrowDown"",""ArrowRight""]","practice block","space","23","{""ArrowUp,ArrowLeft"":3,""ArrowUp,ArrowRight"":36,""ArrowDown,ArrowLeft"":15,""ArrowDown,ArrowRight"":23}","false","ArrowDown,ArrowRight","false","","","","","",""
"html-keyboard-response","65","388794","0.0-3.0-11.0-2.0-1.2","spark_pilot_norest","10587","1","8","Female","","","","","","","null","<div style=""font-size:60px;"">+</div>","null","fixation","","","","","","","","","","","",""
"revaluation","66","394820","0.0-3.0-11.0-2.0-0.3","spark_pilot_norest","10587","1","8","Female","","false","","","","","[672.3000000119209,532.1000000238419]","./assets/img/space/14.jpg","[""ArrowDown"",""ArrowRight""]","practice block","space","23","{""ArrowUp,ArrowLeft"":3,""ArrowUp,ArrowRight"":36,""ArrowDown,ArrowLeft"":15,""ArrowDown,ArrowRight"":23}","false","ArrowDown,ArrowRight","false","","","","","",""
"html-keyboard-response","67","395321","0.0-3.0-11.0-2.0-1.3","spark_pilot_norest","10587","1","8","Female","","","","","","","null","<div style=""font-size:60px;"">+</div>","null","fixation","","","","","","","","","","","",""
"revaluation","68","401346","0.0-3.0-11.0-2.0-0.4","spark_pilot_norest","10587","1","8","Female","","false","","","","","[1241.300000011921,666.5]","./assets/img/space/11.jpg","[""ArrowUp"",""ArrowRight""]","practice block","space","36","{""ArrowUp,ArrowLeft"":3,""ArrowUp,ArrowRight"":36,""ArrowDown,ArrowLeft"":15,""ArrowDown,ArrowRight"":23}","true","ArrowUp,ArrowRight","false","","","","","",""
"html-keyboard-response","69","401850","0.0-3.0-11.0-2.0-1.4","spark_pilot_norest","10587","1","8","Female","","","","","","","null","<div style=""font-size:60px;"">+</div>","null","fixation","","","","","","","","","","","",""
"revaluation","70","407876","0.0-3.0-11.0-2.0-0.5","spark_pilot_norest","10587","1","8","Female","","false","","","","","[1043.7999999523163,1128.5]","./assets/img/space/12.jpg","[""ArrowDown"",""ArrowLeft""]","practice block","space","15","{""ArrowUp,ArrowLeft"":3,""ArrowUp,ArrowRight"":36,""ArrowDown,ArrowLeft"":15,""ArrowDown,ArrowRight"":23}","false","ArrowDown,ArrowLeft","false","","","","","",""
"html-keyboard-response","71","408382","0.0-3.0-11.0-2.0-1.5","spark_pilot_norest","10587","1","8","Female","","","","","","","null","<div style=""font-size:60px;"">+</div>","null","fixation","","","","","","","","","","","",""
"revaluation","72","414403","0.0-3.0-11.0-2.0-0.6","spark_pilot_norest","10587","1","8","Female","","false","","","","","[563,818.5]","./assets/img/space/13.jpg","[""ArrowUp"",""ArrowRight""]","practice block","space","36","{""ArrowUp,ArrowLeft"":3,""ArrowUp,ArrowRight"":36,""ArrowDown,ArrowLeft"":15,""ArrowDown,ArrowRight"":23}","true","ArrowUp,ArrowRight","false","","","","","",""
"html-keyboard-response","73","414909","0.0-3.0-11.0-2.0-1.6","spark_pilot_norest","10587","1","8","Female","","","","","","","null","<div style=""font-size:60px;"">+</div>","null","fixation","","","","","","","","","","","",""
"revaluation","74","418923","0.0-3.0-11.0-2.0-0.7","spark_pilot_norest","10587","1","8","Female","","true","","","","","[]","./assets/img/space/14.jpg","[]","practice block","space","-5","{""ArrowUp,ArrowLeft"":3,""ArrowUp,ArrowRight"":36,""ArrowDown,ArrowLeft"":15,""ArrowDown,ArrowRight"":23}","false","","false","","","","","",""
"html-keyboard-response","75","419429","0.0-3.0-11.0-2.0-1.7","spark_pilot_norest","10587","1","8","Female","","","","","","","null","<div style=""font-size:60px;"">+</div>","null","fixation","","","","","","","","","","","",""
"revaluation","76","423457","0.0-3.0-11.0-2.0-0.8","spark_pilot_norest","10587","1","8","Female","","false","","","","","[609.6999999880791]","./assets/img/space/catch/3.jpg","[""ArrowUp""]","practice block","space","-10","{""ArrowUp,ArrowLeft"":3,""ArrowUp,ArrowRight"":36,""ArrowDown,ArrowLeft"":15,""ArrowDown,ArrowRight"":23}","false","ArrowUp","true","","","","","",""
"html-keyboard-response","77","423963","0.0-3.0-11.0-2.0-1.8","spark_pilot_norest","10587","1","8","Female","","","","","","","null","<div style=""font-size:60px;"">+</div>","null","fixation","","","","","","","","","","","",""
"learning-instructions","78","440341","0.0-3.0-11.0-3.0-0.0","spark_pilot_norest","10587","1","8","Female","","","","","","","3194.099999964237","<p> Now, you will travel with a friend who will choose whether you go up or down first. </p>
            <p> On these turns, you will just see the animal that they found. You will still get to choose which chest to search for treasure.</p>","","instructions","","","","","","","","","","","",""
"revaluation","79","444368","0.0-3.0-11.0-4.0-0.0","spark_pilot_norest","10587","1","8","Female","","false","","","","","[1301.2000000476837]","./assets/img/space/animals/cat.jpg","[""ArrowLeft""]","practice block","space","3","{""ArrowUp,ArrowLeft"":3,""ArrowUp,ArrowRight"":36,""ArrowDown,ArrowLeft"":15,""ArrowDown,ArrowRight"":23}","false","ArrowUp,ArrowLeft","","","","","","",""
"html-keyboard-response","80","444879","0.0-3.0-11.0-4.0-1.0","spark_pilot_norest","10587","1","8","Female","","","","","","","null","<div style=""font-size:60px;"">+</div>","null","fixation","","","","","","","","","","","",""
"revaluation","81","448902","0.0-3.0-11.0-4.0-0.1","spark_pilot_norest","10587","1","8","Female","","false","","","","","[115.29999995231628]","./assets/img/space/animals/cat.jpg","[""ArrowRight""]","practice block","space","36","{""ArrowUp,ArrowLeft"":3,""ArrowUp,ArrowRight"":36,""ArrowDown,ArrowLeft"":15,""ArrowDown,ArrowRight"":23}","true","ArrowUp,ArrowRight","","","","","","",""
"html-keyboard-response","82","449412","0.0-3.0-11.0-4.0-1.1","spark_pilot_norest","10587","1","8","Female","","","","","","","null","<div style=""font-size:60px;"">+</div>","null","fixation","","","","","","","","","","","",""
"revaluation","83","453430","0.0-3.0-11.0-4.0-0.2","spark_pilot_norest","10587","1","8","Female","","false","","","","","[4.199999988079071]","./assets/img/space/animals/rabbit.jpg","[""ArrowRight""]","practice block","space","23","{""ArrowUp,ArrowLeft"":3,""ArrowUp,ArrowRight"":36,""ArrowDown,ArrowLeft"":15,""ArrowDown,ArrowRight"":23}","true","ArrowDown,ArrowRight","","","","","","",""
"html-keyboard-response","84","453939","0.0-3.0-11.0-4.0-1.2","spark_pilot_norest","10587","1","8","Female","","","","","","","null","<div style=""font-size:60px;"">+</div>","null","fixation","","","","","","","","","","","",""
"revaluation","85","457958","0.0-3.0-11.0-4.0-0.3","spark_pilot_norest","10587","1","8","Female","","false","","","","","[403.5]","./assets/img/space/animals/rabbit.jpg","[""ArrowRight""]","practice block","space","23","{""ArrowUp,ArrowLeft"":3,""ArrowUp,ArrowRight"":36,""ArrowDown,ArrowLeft"":15,""ArrowDown,ArrowRight"":23}","true","ArrowDown,ArrowRight","","","","","","",""
"html-keyboard-response","86","458462","0.0-3.0-11.0-4.0-1.3","spark_pilot_norest","10587","1","8","Female","","","","","","","null","<div style=""font-size:60px;"">+</div>","null","fixation","","","","","","","","","","","",""
"learning-instructions","87","466630","0.0-3.0-11.0-5.0-0.0","spark_pilot_norest","10587","1","8","Female","","","","","","","null","<p> You have almost finished this part of the game! </p>
            <p> We are going to ask you to make a few more choices. </p>","","instructions","","","","","","","","","","","",""
"learning-instructions","88","483744","0.0-3.0-11.0-5.0-0.1","spark_pilot_norest","10587","1","8","Female","","","","","","","null","<p> First, you need to decide whether to go up or down. When you see each picture, use the arrow keys to make your choice. </p>
            <p><b>You will not see which animal you found, but try to get to the one that will give you the most treasure.</b></p>","","instructions","","","","","","","","","","","",""
"html-keyboard-response","89","484749","0.0-3.0-11.0-6.0-0.0","spark_pilot_norest","10587","1","8","Female","","","","","","","null","<div style=""font-size:100px;color:red;"">Starting in...</div>","null","","","","","","","","","","","","",""
"html-keyboard-response","90","485759","0.0-3.0-11.0-6.0-1.0","spark_pilot_norest","10587","1","8","Female","","","","","","","null","<div style=""font-size:200px;color:red;"">3</div>","null","","","","","","","","","","","","",""
"html-keyboard-response","91","486769","0.0-3.0-11.0-6.0-2.0","spark_pilot_norest","10587","1","8","Female","","","","","","","null","<div style=""font-size:200px;color:red;"">2</div>","null","","","","","","","","","","","","",""
"html-keyboard-response","92","487776","0.0-3.0-11.0-6.0-3.0","spark_pilot_norest","10587","1","8","Female","","","","","","","null","<div style=""font-size:200px;color:red;"">1</div>","null","","","","","","","","","","","","",""
"revaluation","93","488721","0.0-3.0-11.0-7.0","spark_pilot_norest","10587","1","8","Female","","false","","","","","[938.7999999523163]","./assets/img/space/15.jpg","[""ArrowUp""]","practice block","space","0","{""ArrowUp,ArrowLeft"":3,""ArrowUp,ArrowRight"":36,""ArrowDown,ArrowLeft"":15,""ArrowDown,ArrowRight"":23}","true","ArrowUp","false","","","","","",""
"html-keyboard-response","94","489230","0.0-3.0-11.0-8.0","spark_pilot_norest","10587","1","8","Female","","","","","","","null","<div style=""font-size:60px;"">+</div>","null","fixation","","","","","","","","","","","",""
"learning-instructions","95","502669","0.0-3.0-11.0-9.0-0.0","spark_pilot_norest","10587","1","8","Female","","","","","","","null","<p> Now you will see the animals again and can search their chests for treasure. </p>
            <p> This time, you will not see how much treasure you earned, but you will earn more bonus money for making better choices. </p>","","instructions","","","","","","","","","","","",""
"html-keyboard-response","96","503679","0.0-3.0-11.0-10.0-0.0","spark_pilot_norest","10587","1","8","Female","","","","","","","null","<div style=""font-size:100px;color:red;"">Starting in...</div>","null","","","","","","","","","","","","",""
"html-keyboard-response","97","504689","0.0-3.0-11.0-10.0-1.0","spark_pilot_norest","10587","1","8","Female","","","","","","","null","<div style=""font-size:200px;color:red;"">3</div>","null","","","","","","","","","","","","",""
"html-keyboard-response","98","505694","0.0-3.0-11.0-10.0-2.0","spark_pilot_norest","10587","1","8","Female","","","","","","","null","<div style=""font-size:200px;color:red;"">2</div>","null","","","","","","","","","","","","",""
"html-keyboard-response","99","506700","0.0-3.0-11.0-10.0-3.0","spark_pilot_norest","10587","1","8","Female","","","","","","","null","<div style=""font-size:200px;color:red;"">1</div>","null","","","","","","","","","","","","",""
"revaluation","100","507554","0.0-3.0-11.0-11.0-0.0","spark_pilot_norest","10587","1","8","Female","","false","","","","","[828.1000000238419]","./assets/img/space/animals/cat.jpg","[""ArrowRight""]","practice block","space","0","{""ArrowUp,ArrowLeft"":3,""ArrowUp,ArrowRight"":36,""ArrowDown,ArrowLeft"":15,""ArrowDown,ArrowRight"":23}","true","ArrowUp,ArrowRight","","","","","","",""
"html-keyboard-response","101","508061","0.0-3.0-11.0-11.0-1.0","spark_pilot_norest","10587","1","8","Female","","","","","","","null","<div style=""font-size:60px;"">+</div>","null","fixation","","","","","","","","","","","",""
"revaluation","102","509370","0.0-3.0-11.0-11.0-0.1","spark_pilot_norest","10587","1","8","Female","","false","","","","","[1306.5]","./assets/img/space/animals/rabbit.jpg","[""ArrowLeft""]","practice block","space","0","{""ArrowUp,ArrowLeft"":3,""ArrowUp,ArrowRight"":36,""ArrowDown,ArrowLeft"":15,""ArrowDown,ArrowRight"":23}","false","ArrowDown,ArrowLeft","","","","","","",""
"html-keyboard-response","103","509879","0.0-3.0-11.0-11.0-1.1","spark_pilot_norest","10587","1","8","Female","","","","","","","null","<div style=""font-size:60px;"">+</div>","null","fixation","","","","","","","","","","","",""
"learning-instructions","104","516223","0.0-3.0-12.0-0.0","spark_pilot_norest","10587","1","8","Female","","","","","","","1711.0999999642372","<p> Before you start, we're going to ask you a few questions about how the game works. </p>","","instructions","","","","","","","","","","","",""
"comp-q","105","524648","0.0-3.0-13.0-0.0-0.0","spark_pilot_norest","10587","1","8","Female","","","","","","","2786.099999964237","<p> <b> True or False? </b> </p>
            <p> There can be 50 pieces of treasure in a given animal's chest. </p>","1","comp_question","","","","true","","","","","","","",""
"comp-q","106","534255","0.0-3.0-13.0-0.0-1.0","spark_pilot_norest","10587","1","8","Female","","","","","","","2890","<p> <b> That's right! </b> The amount of treasure in each chest can range from 0 to 40 pieces. </p>","0","comp_answer","","","","","","","","","","","",""
"comp-q","107","546170","0.0-3.0-13.0-0.1-0.1","spark_pilot_norest","10587","1","8","Female","","","","","","","4744.900000035763","<p> <b> True or False? </b> </p><p> In this game, all animals have the same amount of treasure in their left and right chests. </p>","1","comp_question","","","","true","","","","","","","",""
"comp-q","108","553021","0.0-3.0-13.0-0.1-1.1","spark_pilot_norest","10587","1","8","Female","","","","","","","1581.800000011921","<p> <b> That's right! </b> Animals have different amounts of treasure in their treasure chests. </p>","0","comp_answer","","","","","","","","","","","",""
"comp-q","109","561026","0.0-3.0-13.0-0.2-0.2","spark_pilot_norest","10587","1","8","Female","","","","","","","2081.099999964237","<p> <b> True or False? </b> </p><p> The same animal will always be there if you go up in the same place. </p>","1","comp_question","","","","false","","","","","","","",""
"comp-q","110","570268","0.0-3.0-13.0-0.2-1.2","spark_pilot_norest","10587","1","8","Female","","","","","","","2886.399999976158","<p> <b>Incorrect.</b> One animal lives in the upper part and one lives in the lower part of every place. </p>","0","comp_answer","","","","","","","","","","","",""
"comp-q","111","579962","0.0-3.0-13.0-0.3-0.3","spark_pilot_norest","10587","1","8","Female","","","","","","","3868.300000011921","<p> <b> True or False? </b> </p><p> The same animal will always be there if you go up in the same place. </p>","0","comp_question","","","","true","","","","","","","",""
"comp-q","112","591726","0.0-3.0-13.0-0.3-1.3","spark_pilot_norest","10587","1","8","Female","","","","","","","5263.199999988079","<p> <b> That's right! </b> One animal lives in the upper part and one lives in the lower part of every place. </p>","0","comp_answer","","","","","","","","","","","",""
"comp-q","113","598310","0.0-3.0-13.0-0.4-0.4","spark_pilot_norest","10587","1","8","Female","","","","","","","1022.7000000476837","<p> <b> True or False? </b> </p><p> If you see a different picture, it means you are in a new place. </p>","1","comp_question","","","","true","","","","","","","",""
"comp-q","114","611696","0.0-3.0-13.0-0.4-1.4","spark_pilot_norest","10587","1","8","Female","","","","","","","2096.2999999523163","<p> <b> That's right! </b> Lots of different images may show the same place. For example,  you may see three different images that all remind you that you are in outer space. </p>","0","comp_answer","","","","","","","","","","","",""
"learning-instructions","115","626402","0.0-3.0-14.0-0.0","spark_pilot_norest","10587","1","8","Female","","","","","","","4785.399999976158","<p> Good job. Remember to do your best because the amount of treasure you earn will be converted into bonus money. </p>
            <p> It’s time to start the real game! </p>","","instructions","","","","","","","","","","","",""
"learning-instructions","116","634540","0.0-4.0-0.0-0.0","spark_pilot_norest","10587","1","8","Female","","","","","","","5400.100000023842","<p> This time you are searching for treasure in the <b>ocean</b>.</p>","","instructions","","","","","","","","","","","",""
"learning-instructions","117","653792","0.0-4.0-0.0-0.1","spark_pilot_norest","10587","1","8","Female","","","","","","","1867.199999988079","<p><b>New</b> animals with <b>new</b> treasure chests live here. You need to explore to discover where the animal with the best treasure chest is.</p>
                    <p> Like before, once you figure out which animal has the chest with the most treasure, you should try to get to that animal and select that chest! </p>","","instructions","","","","","","","","","","","",""
"learning-instructions","118","679496","0.0-4.0-1.0-0.0","spark_pilot_norest","10587","1","8","Female","","","","","","","10973.5","<p> Remember, when you see a picture of the place, use the up and down keys to <b>find an animal</b>.</p>
            <p> When you encounter an animal, you should use the left and right keys to <b>select a treasure chest</b>.</p>
            <p> Don't forget to look out for the robber! </p>","","instructions","","","","","","","","","","","",""
"revaluation","119","683516","0.0-4.0-2.0-0.0","spark_pilot_norest","10587","1","8","Female","","true","","","","","[]","./assets/img/ocean/memory/15.jpg","[]","value training","ocean","-5","{""ArrowUp,ArrowLeft"":26,""ArrowUp,ArrowRight"":10,""ArrowDown,ArrowLeft"":5,""ArrowDown,ArrowRight"":17}","false","","false","original","1","0","","",""
"html-keyboard-response","120","684027","0.0-4.0-2.0-1.0","spark_pilot_norest","10587","1","8","Female","","","","","","","null","<div style=""font-size:60px;"">+</div>","null","fixation","","","","","","","","","1","","",""
"revaluation","121","690053","0.0-4.0-2.0-0.1","spark_pilot_norest","10587","1","8","Female","","false","","","","","[419.69999998807907,601.1999999880791]","./assets/img/ocean/memory/12.jpg","[""ArrowUp"",""ArrowRight""]","value training","ocean","10","{""ArrowUp,ArrowLeft"":26,""ArrowUp,ArrowRight"":10,""ArrowDown,ArrowLeft"":5,""ArrowDown,ArrowRight"":17}","false","ArrowUp,ArrowRight","false","original","1","2","","",""
"html-keyboard-response","122","690565","0.0-4.0-2.0-1.1","spark_pilot_norest","10587","1","8","Female","","","","","","","null","<div style=""font-size:60px;"">+</div>","null","fixation","","","","","","","","","3","","",""
"revaluation","123","696595","0.0-4.0-2.0-0.2","spark_pilot_norest","10587","1","8","Female","","false","","","","","[944.3000000119209,909.4000000357628]","./assets/img/ocean/memory/26.jpg","[""ArrowDown"",""ArrowLeft""]","value training","ocean","5","{""ArrowUp,ArrowLeft"":26,""ArrowUp,ArrowRight"":10,""ArrowDown,ArrowLeft"":5,""ArrowDown,ArrowRight"":17}","false","ArrowDown,ArrowLeft","false","original","1","4","","",""
"html-keyboard-response","124","697100","0.0-4.0-2.0-1.2","spark_pilot_norest","10587","1","8","Female","","","","","","","null","<div style=""font-size:60px;"">+</div>","null","fixation","","","","","","","","","5","","",""
"revaluation","125","703122","0.0-4.0-2.0-0.3","spark_pilot_norest","10587","1","8","Female","","false","","","","","[631.5,1979.5]","./assets/img/ocean/memory/35.jpg","[""ArrowDown"",""ArrowRight""]","value training","ocean","17","{""ArrowUp,ArrowLeft"":26,""ArrowUp,ArrowRight"":10,""ArrowDown,ArrowLeft"":5,""ArrowDown,ArrowRight"":17}","false","ArrowDown,ArrowRight","false","original","1","6","","",""
"html-keyboard-response","126","703626","0.0-4.0-2.0-1.3","spark_pilot_norest","10587","1","8","Female","","","","","","","null","<div style=""font-size:60px;"">+</div>","null","fixation","","","","","","","","","7","","",""
"revaluation","127","709653","0.0-4.0-2.0-0.4","spark_pilot_norest","10587","1","8","Female","","false","","","","","[352.60000002384186,637.4000000357628]","./assets/img/ocean/memory/40.jpg","[""ArrowDown"",""ArrowLeft""]","value training","ocean","5","{""ArrowUp,ArrowLeft"":26,""ArrowUp,ArrowRight"":10,""ArrowDown,ArrowLeft"":5,""ArrowDown,ArrowRight"":17}","false","ArrowDown,ArrowLeft","false","original","1","8","","",""
"html-keyboard-response","128","710163","0.0-4.0-2.0-1.4","spark_pilot_norest","10587","1","8","Female","","","","","","","null","<div style=""font-size:60px;"">+</div>","null","fixation","","","","","","","","","9","","",""
"revaluation","129","716189","0.0-4.0-2.0-0.5","spark_pilot_norest","10587","1","8","Female","","false","","","","","[444.30000001192093,911.7999999523163]","./assets/img/ocean/memory/29.jpg","[""ArrowDown"",""ArrowRight""]","value training","ocean","17","{""ArrowUp,ArrowLeft"":26,""ArrowUp,ArrowRight"":10,""ArrowDown,ArrowLeft"":5,""ArrowDown,ArrowRight"":17}","false","ArrowDown,ArrowRight","false","original","1","10","","",""
"html-keyboard-response","130","716700","0.0-4.0-2.0-1.5","spark_pilot_norest","10587","1","8","Female","","","","","","","null","<div style=""font-size:60px;"">+</div>","null","fixation","","","","","","","","","11","","",""
"revaluation","131","722723","0.0-4.0-2.0-0.6","spark_pilot_norest","10587","1","8","Female","","false","","","","","[1996.199999988079,1219.8999999761581]","./assets/img/ocean/memory/7.jpg","[""ArrowDown"",""ArrowLeft""]","value training","ocean","5","{""ArrowUp,ArrowLeft"":26,""ArrowUp,ArrowRight"":10,""ArrowDown,ArrowLeft"":5,""ArrowDown,ArrowRight"":17}","false","ArrowDown,ArrowLeft","false","original","1","12","","",""
"html-keyboard-response","132","723230","0.0-4.0-2.0-1.6","spark_pilot_norest","10587","1","8","Female","","","","","","","null","<div style=""font-size:60px;"">+</div>","null","fixation","","","","","","","","","13","","",""
"revaluation","133","729251","0.0-4.0-2.0-0.7","spark_pilot_norest","10587","1","8","Female","","false","","","","","[1024.8999999761581,1327.199999988079]","./assets/img/ocean/memory/23.jpg","[""ArrowDown"",""ArrowRight""]","value training","ocean","17","{""ArrowUp,ArrowLeft"":26,""ArrowUp,ArrowRight"":10,""ArrowDown,ArrowLeft"":5,""ArrowDown,ArrowRight"":17}","false","ArrowDown,ArrowRight","false","original","1","14","","",""
"html-keyboard-response","134","729756","0.0-4.0-2.0-1.7","spark_pilot_norest","10587","1","8","Female","","","","","","","null","<div style=""font-size:60px;"">+</div>","null","fixation","","","","","","","","","15","","",""
"revaluation","135","735782","0.0-4.0-2.0-0.8","spark_pilot_norest","10587","1","8","Female","","true","","","","","[610.6000000238419]","./assets/img/ocean/memory/26.jpg","[""ArrowUp""]","value training","ocean","-5","{""ArrowUp,ArrowLeft"":26,""ArrowUp,ArrowRight"":10,""ArrowDown,ArrowLeft"":5,""ArrowDown,ArrowRight"":17}","false","ArrowUp","false","original","1","16","","",""
"html-keyboard-response","136","736292","0.0-4.0-2.0-1.8","spark_pilot_norest","10587","1","8","Female","","","","","","","null","<div style=""font-size:60px;"">+</div>","null","fixation","","","","","","","","","17","","",""
"revaluation","137","742318","0.0-4.0-2.0-0.9","spark_pilot_norest","10587","1","8","Female","","false","","","","","[472.60000002384186,290.39999997615814]","./assets/img/ocean/memory/12.jpg","[""ArrowDown"",""ArrowLeft""]","value training","ocean","5","{""ArrowUp,ArrowLeft"":26,""ArrowUp,ArrowRight"":10,""ArrowDown,ArrowLeft"":5,""ArrowDown,ArrowRight"":17}","false","ArrowDown,ArrowLeft","false","original","1","18","","",""
"html-keyboard-response","138","742829","0.0-4.0-2.0-1.9","spark_pilot_norest","10587","1","8","Female","","","","","","","null","<div style=""font-size:60px;"">+</div>","null","fixation","","","","","","","","","19","","",""
"revaluation","139","748855","0.0-4.0-2.0-0.10","spark_pilot_norest","10587","1","8","Female","","false","","","","","[518.5,597.9000000357628]","./assets/img/ocean/memory/5.jpg","[""ArrowDown"",""ArrowRight""]","value training","ocean","17","{""ArrowUp,ArrowLeft"":26,""ArrowUp,ArrowRight"":10,""ArrowDown,ArrowLeft"":5,""ArrowDown,ArrowRight"":17}","false","ArrowDown,ArrowRight","false","original","1","20","","",""
"html-keyboard-response","140","749363","0.0-4.0-2.0-1.10","spark_pilot_norest","10587","1","8","Female","","","","","","","null","<div style=""font-size:60px;"">+</div>","null","fixation","","","","","","","","","21","","",""
"revaluation","141","755391","0.0-4.0-2.0-0.11","spark_pilot_norest","10587","1","8","Female","","false","","","","","[539.9000000357628,1636.0999999642372]","./assets/img/ocean/memory/29.jpg","[""ArrowUp"",""ArrowLeft""]","value training","ocean","26","{""ArrowUp,ArrowLeft"":26,""ArrowUp,ArrowRight"":10,""ArrowDown,ArrowLeft"":5,""ArrowDown,ArrowRight"":17}","true","ArrowUp,ArrowLeft","false","original","1","22","","",""
"html-keyboard-response","142","755902","0.0-4.0-2.0-1.11","spark_pilot_norest","10587","1","8","Female","","","","","","","null","<div style=""font-size:60px;"">+</div>","null","fixation","","","","","","","","","23","","",""
"revaluation","143","761928","0.0-4.0-2.0-0.12","spark_pilot_norest","10587","1","8","Female","","false","","","","","[620.2000000476837,663.9000000357628]","./assets/img/ocean/memory/35.jpg","[""ArrowDown"",""ArrowRight""]","value training","ocean","17","{""ArrowUp,ArrowLeft"":26,""ArrowUp,ArrowRight"":10,""ArrowDown,ArrowLeft"":5,""ArrowDown,ArrowRight"":17}","false","ArrowDown,ArrowRight","false","original","1","24","","",""
"html-keyboard-response","144","762439","0.0-4.0-2.0-1.12","spark_pilot_norest","10587","1","8","Female","","","","","","","null","<div style=""font-size:60px;"">+</div>","null","fixation","","","","","","","","","25","","",""
"revaluation","145","768470","0.0-4.0-2.0-0.13","spark_pilot_norest","10587","1","8","Female","","false","","","","","[374.19999998807907,1657.300000011921]","./assets/img/ocean/memory/30.jpg","[""ArrowUp"",""ArrowLeft""]","value training","ocean","26","{""ArrowUp,ArrowLeft"":26,""ArrowUp,ArrowRight"":10,""ArrowDown,ArrowLeft"":5,""ArrowDown,ArrowRight"":17}","true","ArrowUp,ArrowLeft","false","original","1","26","","",""
"html-keyboard-response","146","768981","0.0-4.0-2.0-1.13","spark_pilot_norest","10587","1","8","Female","","","","","","","null","<div style=""font-size:60px;"">+</div>","null","fixation","","","","","","","","","27","","",""
"revaluation","147","775013","0.0-4.0-2.0-0.14","spark_pilot_norest","10587","1","8","Female","","false","","","","","[562.1999999880791,724.6999999880791]","./assets/img/ocean/memory/27.jpg","[""ArrowDown"",""ArrowRight""]","value training","ocean","17","{""ArrowUp,ArrowLeft"":26,""ArrowUp,ArrowRight"":10,""ArrowDown,ArrowLeft"":5,""ArrowDown,ArrowRight"":17}","false","ArrowDown,ArrowRight","false","original","1","28","","",""
"html-keyboard-response","148","775517","0.0-4.0-2.0-1.14","spark_pilot_norest","10587","1","8","Female","","","","","","","null","<div style=""font-size:60px;"">+</div>","null","fixation","","","","","","","","","29","","",""
"revaluation","149","779535","0.0-4.0-2.0-0.15","spark_pilot_norest","10587","1","8","Female","","false","","","","","[791.9000000357628]","./assets/img/ocean/catch/4.jpg","[""ArrowUp""]","value training","ocean","-10","{""ArrowUp,ArrowLeft"":26,""ArrowUp,ArrowRight"":10,""ArrowDown,ArrowLeft"":5,""ArrowDown,ArrowRight"":17}","false","ArrowUp","true","original","1","30","","",""
"html-keyboard-response","150","780045","0.0-4.0-2.0-1.15","spark_pilot_norest","10587","1","8","Female","","","","","","","null","<div style=""font-size:60px;"">+</div>","null","fixation","","","","","","","","","31","","",""
"revaluation","151","786071","0.0-4.0-2.0-0.16","spark_pilot_norest","10587","1","8","Female","","false","","","","","[1408.3999999761581,1320]","./assets/img/ocean/memory/15.jpg","[""ArrowDown"",""ArrowRight""]","value training","ocean","17","{""ArrowUp,ArrowLeft"":26,""ArrowUp,ArrowRight"":10,""ArrowDown,ArrowLeft"":5,""ArrowDown,ArrowRight"":17}","false","ArrowDown,ArrowRight","false","original","1","32","","",""
"html-keyboard-response","152","786582","0.0-4.0-2.0-1.16","spark_pilot_norest","10587","1","8","Female","","","","","","","null","<div style=""font-size:60px;"">+</div>","null","fixation","","","","","","","","","33","","",""
"revaluation","153","792604","0.0-4.0-2.0-0.17","spark_pilot_norest","10587","1","8","Female","","false","","","","","[1219,1397.7999999523163]","./assets/img/ocean/memory/6.jpg","[""ArrowUp"",""ArrowRight""]","value training","ocean","10","{""ArrowUp,ArrowLeft"":26,""ArrowUp,ArrowRight"":10,""ArrowDown,ArrowLeft"":5,""ArrowDown,ArrowRight"":17}","false","ArrowUp,ArrowRight","false","original","1","34","","",""
"html-keyboard-response","154","793107","0.0-4.0-2.0-1.17","spark_pilot_norest","10587","1","8","Female","","","","","","","null","<div style=""font-size:60px;"">+</div>","null","fixation","","","","","","","","","35","","",""
"revaluation","155","799133","0.0-4.0-2.0-0.18","spark_pilot_norest","10587","1","8","Female","","false","","","","","[943.1000000238419,1148.7000000476837]","./assets/img/ocean/memory/9.jpg","[""ArrowUp"",""ArrowLeft""]","value training","ocean","26","{""ArrowUp,ArrowLeft"":26,""ArrowUp,ArrowRight"":10,""ArrowDown,ArrowLeft"":5,""ArrowDown,ArrowRight"":17}","true","ArrowUp,ArrowLeft","false","original","1","36","","",""
"html-keyboard-response","156","799638","0.0-4.0-2.0-1.18","spark_pilot_norest","10587","1","8","Female","","","","","","","null","<div style=""font-size:60px;"">+</div>","null","fixation","","","","","","","","","37","","",""
"revaluation","157","803655","0.0-4.0-2.0-0.19","spark_pilot_norest","10587","1","8","Female","","false","","","","","[1667.6000000238419]","./assets/img/ocean/catch/6.jpg","[""spaceBar""]","value training","ocean","0","{""ArrowUp,ArrowLeft"":26,""ArrowUp,ArrowRight"":10,""ArrowDown,ArrowLeft"":5,""ArrowDown,ArrowRight"":17}","true","spaceBar","true","original","1","38","","",""
"html-keyboard-response","158","804166","0.0-4.0-2.0-1.19","spark_pilot_norest","10587","1","8","Female","","","","","","","null","<div style=""font-size:60px;"">+</div>","null","fixation","","","","","","","","","39","","",""
"revaluation","159","810192","0.0-4.0-2.0-0.20","spark_pilot_norest","10587","1","8","Female","","false","","","","","[1613,817.6000000238419]","./assets/img/ocean/memory/13.jpg","[""ArrowDown"",""ArrowRight""]","value training","ocean","17","{""ArrowUp,ArrowLeft"":26,""ArrowUp,ArrowRight"":10,""ArrowDown,ArrowLeft"":5,""ArrowDown,ArrowRight"":17}","false","ArrowDown,ArrowRight","false","original","1","40","","",""
"html-keyboard-response","160","810700","0.0-4.0-2.0-1.20","spark_pilot_norest","10587","1","8","Female","","","","","","","null","<div style=""font-size:60px;"">+</div>","null","fixation","","","","","","","","","41","","",""
"revaluation","161","814720","0.0-4.0-2.0-0.21","spark_pilot_norest","10587","1","8","Female","","false","","","","","[1250.800000011921]","./assets/img/ocean/catch/5.jpg","[""ArrowUp""]","value training","ocean","-10","{""ArrowUp,ArrowLeft"":26,""ArrowUp,ArrowRight"":10,""ArrowDown,ArrowLeft"":5,""ArrowDown,ArrowRight"":17}","false","ArrowUp","true","original","1","42","","",""
"html-keyboard-response","162","815230","0.0-4.0-2.0-1.21","spark_pilot_norest","10587","1","8","Female","","","","","","","null","<div style=""font-size:60px;"">+</div>","null","fixation","","","","","","","","","43","","",""
"revaluation","163","821256","0.0-4.0-2.0-0.22","spark_pilot_norest","10587","1","8","Female","","false","","","","","[866.8999999761581,1234.9000000357628]","./assets/img/ocean/memory/18.jpg","[""ArrowDown"",""ArrowRight""]","value training","ocean","17","{""ArrowUp,ArrowLeft"":26,""ArrowUp,ArrowRight"":10,""ArrowDown,ArrowLeft"":5,""ArrowDown,ArrowRight"":17}","false","ArrowDown,ArrowRight","false","original","1","44","","",""
"html-keyboard-response","164","821766","0.0-4.0-2.0-1.22","spark_pilot_norest","10587","1","8","Female","","","","","","","null","<div style=""font-size:60px;"">+</div>","null","fixation","","","","","","","","","45","","",""
"revaluation","165","827793","0.0-4.0-2.0-0.23","spark_pilot_norest","10587","1","8","Female","","false","","","","","[696.6999999880791,1846.5]","./assets/img/ocean/memory/22.jpg","[""ArrowUp"",""ArrowLeft""]","value training","ocean","26","{""ArrowUp,ArrowLeft"":26,""ArrowUp,ArrowRight"":10,""ArrowDown,ArrowLeft"":5,""ArrowDown,ArrowRight"":17}","true","ArrowUp,ArrowLeft","false","original","1","46","","",""
"html-keyboard-response","166","828304","0.0-4.0-2.0-1.23","spark_pilot_norest","10587","1","8","Female","","","","","","","null","<div style=""font-size:60px;"">+</div>","null","fixation","","","","","","","","","47","","",""
"revaluation","167","834330","0.0-4.0-2.0-0.24","spark_pilot_norest","10587","1","8","Female","","true","","","","","[636.1999999880791]","./assets/img/ocean/memory/23.jpg","[""ArrowDown""]","value training","ocean","-5","{""ArrowUp,ArrowLeft"":26,""ArrowUp,ArrowRight"":10,""ArrowDown,ArrowLeft"":5,""ArrowDown,ArrowRight"":17}","false","ArrowDown","false","original","1","48","","",""
"html-keyboard-response","168","834839","0.0-4.0-2.0-1.24","spark_pilot_norest","10587","1","8","Female","","","","","","","null","<div style=""font-size:60px;"">+</div>","null","fixation","","","","","","","","","49","","",""
"revaluation","169","840866","0.0-4.0-2.0-0.25","spark_pilot_norest","10587","1","8","Female","","false","","","","","[1078,1778.2000000476837]","./assets/img/ocean/memory/9.jpg","[""ArrowUp"",""ArrowLeft""]","value training","ocean","26","{""ArrowUp,ArrowLeft"":26,""ArrowUp,ArrowRight"":10,""ArrowDown,ArrowLeft"":5,""ArrowDown,ArrowRight"":17}","true","ArrowUp,ArrowLeft","false","original","1","50","","",""
"html-keyboard-response","170","841374","0.0-4.0-2.0-1.25","spark_pilot_norest","10587","1","8","Female","","","","","","","null","<div style=""font-size:60px;"">+</div>","null","fixation","","","","","","","","","51","","",""
"revaluation","171","847409","0.0-4.0-2.0-0.26","spark_pilot_norest","10587","1","8","Female","","false","","","","","[476.5,651.6000000238419]","./assets/img/ocean/memory/10.jpg","[""ArrowDown"",""ArrowRight""]","value training","ocean","17","{""ArrowUp,ArrowLeft"":26,""ArrowUp,ArrowRight"":10,""ArrowDown,ArrowLeft"":5,""ArrowDown,ArrowRight"":17}","false","ArrowDown,ArrowRight","false","original","1","52","","",""
"html-keyboard-response","172","847919","0.0-4.0-2.0-1.26","spark_pilot_norest","10587","1","8","Female","","","","","","","null","<div style=""font-size:60px;"">+</div>","null","fixation","","","","","","","","","53","","",""
"revaluation","173","853945","0.0-4.0-2.0-0.27","spark_pilot_norest","10587","1","8","Female","","true","","","","","[888.9000000357628]","./assets/img/ocean/memory/27.jpg","[""ArrowUp""]","value training","ocean","-5","{""ArrowUp,ArrowLeft"":26,""ArrowUp,ArrowRight"":10,""ArrowDown,ArrowLeft"":5,""ArrowDown,ArrowRight"":17}","false","ArrowUp","false","original","1","54","","",""
"html-keyboard-response","174","854456","0.0-4.0-2.0-1.27","spark_pilot_norest","10587","1","8","Female","","","","","","","null","<div style=""font-size:60px;"">+</div>","null","fixation","","","","","","","","","55","","",""
"revaluation","175","860482","0.0-4.0-2.0-0.28","spark_pilot_norest","10587","1","8","Female","","false","","","","","[739.5999999642372,1242.800000011921]","./assets/img/ocean/memory/2.jpg","[""ArrowDown"",""ArrowRight""]","value training","ocean","17","{""ArrowUp,ArrowLeft"":26,""ArrowUp,ArrowRight"":10,""ArrowDown,ArrowLeft"":5,""ArrowDown,ArrowRight"":17}","false","ArrowDown,ArrowRight","false","original","1","56","","",""
"html-keyboard-response","176","860992","0.0-4.0-2.0-1.28","spark_pilot_norest","10587","1","8","Female","","","","","","","null","<div style=""font-size:60px;"">+</div>","null","fixation","","","","","","","","","57","","",""
"revaluation","177","867014","0.0-4.0-2.0-0.29","spark_pilot_norest","10587","1","8","Female","","false","","","","","[651.2000000476837,792]","./assets/img/ocean/memory/25.jpg","[""ArrowDown"",""ArrowRight""]","value training","ocean","17","{""ArrowUp,ArrowLeft"":26,""ArrowUp,ArrowRight"":10,""ArrowDown,ArrowLeft"":5,""ArrowDown,ArrowRight"":17}","false","ArrowDown,ArrowRight","false","original","1","58","","",""
"html-keyboard-response","178","867523","0.0-4.0-2.0-1.29","spark_pilot_norest","10587","1","8","Female","","","","","","","null","<div style=""font-size:60px;"">+</div>","null","fixation","","","","","","","","","59","","",""
"revaluation","179","873554","0.0-4.0-2.0-0.30","spark_pilot_norest","10587","1","8","Female","","false","","","","","[343.9000000357628,929.1999999880791]","./assets/img/ocean/memory/25.jpg","[""ArrowUp"",""ArrowRight""]","value training","ocean","10","{""ArrowUp,ArrowLeft"":26,""ArrowUp,ArrowRight"":10,""ArrowDown,ArrowLeft"":5,""ArrowDown,ArrowRight"":17}","false","ArrowUp,ArrowRight","false","original","1","60","","",""
"html-keyboard-response","180","874065","0.0-4.0-2.0-1.30","spark_pilot_norest","10587","1","8","Female","","","","","","","null","<div style=""font-size:60px;"">+</div>","null","fixation","","","","","","","","","61","","",""
"revaluation","181","878086","0.0-4.0-2.0-0.31","spark_pilot_norest","10587","1","8","Female","","true","","","","","[]","./assets/img/ocean/catch/3.jpg","[]","value training","ocean","-5","{""ArrowUp,ArrowLeft"":26,""ArrowUp,ArrowRight"":10,""ArrowDown,ArrowLeft"":5,""ArrowDown,ArrowRight"":17}","false","","true","original","1","62","","",""
"html-keyboard-response","182","878596","0.0-4.0-2.0-1.31","spark_pilot_norest","10587","1","8","Female","","","","","","","null","<div style=""font-size:60px;"">+</div>","null","fixation","","","","","","","","","63","","",""
"revaluation","183","884625","0.0-4.0-2.0-0.32","spark_pilot_norest","10587","1","8","Female","","false","","","","","[1609.300000011921,1134.7000000476837]","./assets/img/ocean/memory/22.jpg","[""ArrowUp"",""ArrowRight""]","value training","ocean","10","{""ArrowUp,ArrowLeft"":26,""ArrowUp,ArrowRight"":10,""ArrowDown,ArrowLeft"":5,""ArrowDown,ArrowRight"":17}","false","ArrowUp,ArrowRight","false","original","1","64","","",""
"html-keyboard-response","184","885136","0.0-4.0-2.0-1.32","spark_pilot_norest","10587","1","8","Female","","","","","","","null","<div style=""font-size:60px;"">+</div>","null","fixation","","","","","","","","","65","","",""
"revaluation","185","891162","0.0-4.0-2.0-0.33","spark_pilot_norest","10587","1","8","Female","","false","","","","","[591,1520.2000000476837]","./assets/img/ocean/memory/40.jpg","[""ArrowDown"",""ArrowRight""]","value training","ocean","17","{""ArrowUp,ArrowLeft"":26,""ArrowUp,ArrowRight"":10,""ArrowDown,ArrowLeft"":5,""ArrowDown,ArrowRight"":17}","false","ArrowDown,ArrowRight","false","original","1","66","","",""
"html-keyboard-response","186","891672","0.0-4.0-2.0-1.33","spark_pilot_norest","10587","1","8","Female","","","","","","","null","<div style=""font-size:60px;"">+</div>","null","fixation","","","","","","","","","67","","",""
"revaluation","187","897698","0.0-4.0-2.0-0.34","spark_pilot_norest","10587","1","8","Female","","false","","","","","[1816.699999988079,995.6999999880791]","./assets/img/ocean/memory/30.jpg","[""ArrowDown"",""ArrowRight""]","value training","ocean","17","{""ArrowUp,ArrowLeft"":26,""ArrowUp,ArrowRight"":10,""ArrowDown,ArrowLeft"":5,""ArrowDown,ArrowRight"":17}","false","ArrowDown,ArrowRight","false","original","1","68","","",""
"html-keyboard-response","188","898209","0.0-4.0-2.0-1.34","spark_pilot_norest","10587","1","8","Female","","","","","","","null","<div style=""font-size:60px;"">+</div>","null","fixation","","","","","","","","","69","","",""
"revaluation","189","904235","0.0-4.0-2.0-0.35","spark_pilot_norest","10587","1","8","Female","","false","","","","","[588.1999999880791,1151.4000000357628]","./assets/img/ocean/memory/8.jpg","[""ArrowUp"",""ArrowRight""]","value training","ocean","10","{""ArrowUp,ArrowLeft"":26,""ArrowUp,ArrowRight"":10,""ArrowDown,ArrowLeft"":5,""ArrowDown,ArrowRight"":17}","false","ArrowUp,ArrowRight","false","original","1","70","","",""
"html-keyboard-response","190","904746","0.0-4.0-2.0-1.35","spark_pilot_norest","10587","1","8","Female","","","","","","","null","<div style=""font-size:60px;"">+</div>","null","fixation","","","","","","","","","71","","",""
"revaluation","191","910771","0.0-4.0-2.0-0.36","spark_pilot_norest","10587","1","8","Female","","false","","","","","[691.6999999880791,1404]","./assets/img/ocean/memory/7.jpg","[""ArrowDown"",""ArrowLeft""]","value training","ocean","5","{""ArrowUp,ArrowLeft"":26,""ArrowUp,ArrowRight"":10,""ArrowDown,ArrowLeft"":5,""ArrowDown,ArrowRight"":17}","false","ArrowDown,ArrowLeft","false","original","1","72","","",""
"html-keyboard-response","192","911282","0.0-4.0-2.0-1.36","spark_pilot_norest","10587","1","8","Female","","","","","","","null","<div style=""font-size:60px;"">+</div>","null","fixation","","","","","","","","","73","","",""
"revaluation","193","917314","0.0-4.0-2.0-0.37","spark_pilot_norest","10587","1","8","Female","","false","","","","","[1350.5,1940.7000000476837]","./assets/img/ocean/memory/5.jpg","[""ArrowDown"",""ArrowRight""]","value training","ocean","17","{""ArrowUp,ArrowLeft"":26,""ArrowUp,ArrowRight"":10,""ArrowDown,ArrowLeft"":5,""ArrowDown,ArrowRight"":17}","false","ArrowDown,ArrowRight","false","original","1","74","","",""
"html-keyboard-response","194","917824","0.0-4.0-2.0-1.37","spark_pilot_norest","10587","1","8","Female","","","","","","","null","<div style=""font-size:60px;"">+</div>","null","fixation","","","","","","","","","75","","",""
"revaluation","195","921842","0.0-4.0-2.0-0.38","spark_pilot_norest","10587","1","8","Female","","false","","","","","[1413.199999988079]","./assets/img/ocean/catch/0.jpg","[""spaceBar""]","value training","ocean","0","{""ArrowUp,ArrowLeft"":26,""ArrowUp,ArrowRight"":10,""ArrowDown,ArrowLeft"":5,""ArrowDown,ArrowRight"":17}","true","spaceBar","true","original","1","76","","",""
"html-keyboard-response","196","922353","0.0-4.0-2.0-1.38","spark_pilot_norest","10587","1","8","Female","","","","","","","null","<div style=""font-size:60px;"">+</div>","null","fixation","","","","","","","","","77","","",""
"revaluation","197","926370","0.0-4.0-2.0-0.39","spark_pilot_norest","10587","1","8","Female","","false","","","","","[1792.2999999523163]","./assets/img/ocean/catch/2.jpg","[""spaceBar""]","value training","ocean","0","{""ArrowUp,ArrowLeft"":26,""ArrowUp,ArrowRight"":10,""ArrowDown,ArrowLeft"":5,""ArrowDown,ArrowRight"":17}","true","spaceBar","true","original","1","78","","",""
"html-keyboard-response","198","926880","0.0-4.0-2.0-1.39","spark_pilot_norest","10587","1","8","Female","","","","","","","null","<div style=""font-size:60px;"">+</div>","null","fixation","","","","","","","","","79","","",""
"revaluation","199","930898","0.0-4.0-2.0-0.40","spark_pilot_norest","10587","1","8","Female","","false","","","","","[1295.199999988079]","./assets/img/ocean/catch/7.jpg","[""spaceBar""]","value training","ocean","0","{""ArrowUp,ArrowLeft"":26,""ArrowUp,ArrowRight"":10,""ArrowDown,ArrowLeft"":5,""ArrowDown,ArrowRight"":17}","true","spaceBar","true","original","1","80","","",""
"html-keyboard-response","200","931409","0.0-4.0-2.0-1.40","spark_pilot_norest","10587","1","8","Female","","","","","","","null","<div style=""font-size:60px;"">+</div>","null","fixation","","","","","","","","","81","","",""
"revaluation","201","935426","0.0-4.0-2.0-0.41","spark_pilot_norest","10587","1","8","Female","","false","","","","","[740.7999999523163]","./assets/img/ocean/catch/1.jpg","[""spaceBar""]","value training","ocean","0","{""ArrowUp,ArrowLeft"":26,""ArrowUp,ArrowRight"":10,""ArrowDown,ArrowLeft"":5,""ArrowDown,ArrowRight"":17}","true","spaceBar","true","original","1","82","","",""
"html-keyboard-response","202","935937","0.0-4.0-2.0-1.41","spark_pilot_norest","10587","1","8","Female","","","","","","","null","<div style=""font-size:60px;"">+</div>","null","fixation","","","","","","","","","83","","",""
"revaluation","203","939954","0.0-4.0-2.0-0.42","spark_pilot_norest","10587","1","8","Female","","true","","","","","[]","./assets/img/ocean/memory/6.jpg","[]","value training","ocean","-5","{""ArrowUp,ArrowLeft"":26,""ArrowUp,ArrowRight"":10,""ArrowDown,ArrowLeft"":5,""ArrowDown,ArrowRight"":17}","false","","false","original","1","84","","",""
"html-keyboard-response","204","940463","0.0-4.0-2.0-1.42","spark_pilot_norest","10587","1","8","Female","","","","","","","null","<div style=""font-size:60px;"">+</div>","null","fixation","","","","","","","","","85","","",""
"revaluation","205","946490","0.0-4.0-2.0-0.43","spark_pilot_norest","10587","1","8","Female","","false","","","","","[747.6999999880791,1233.800000011921]","./assets/img/ocean/memory/10.jpg","[""ArrowDown"",""ArrowRight""]","value training","ocean","17","{""ArrowUp,ArrowLeft"":26,""ArrowUp,ArrowRight"":10,""ArrowDown,ArrowLeft"":5,""ArrowDown,ArrowRight"":17}","false","ArrowDown,ArrowRight","false","original","1","86","","",""
"html-keyboard-response","206","947001","0.0-4.0-2.0-1.43","spark_pilot_norest","10587","1","8","Female","","","","","","","null","<div style=""font-size:60px;"">+</div>","null","fixation","","","","","","","","","87","","",""
"revaluation","207","953032","0.0-4.0-2.0-0.44","spark_pilot_norest","10587","1","8","Female","","false","","","","","[1274.199999988079,1186.699999988079]","./assets/img/ocean/memory/3.jpg","[""ArrowUp"",""ArrowRight""]","value training","ocean","10","{""ArrowUp,ArrowLeft"":26,""ArrowUp,ArrowRight"":10,""ArrowDown,ArrowLeft"":5,""ArrowDown,ArrowRight"":17}","false","ArrowUp,ArrowRight","false","original","1","88","","",""
"html-keyboard-response","208","953538","0.0-4.0-2.0-1.44","spark_pilot_norest","10587","1","8","Female","","","","","","","null","<div style=""font-size:60px;"">+</div>","null","fixation","","","","","","","","","89","","",""
"revaluation","209","959564","0.0-4.0-2.0-0.45","spark_pilot_norest","10587","1","8","Female","","false","","","","","[871.3999999761581,1024]","./assets/img/ocean/memory/13.jpg","[""ArrowUp"",""ArrowRight""]","value training","ocean","10","{""ArrowUp,ArrowLeft"":26,""ArrowUp,ArrowRight"":10,""ArrowDown,ArrowLeft"":5,""ArrowDown,ArrowRight"":17}","false","ArrowUp,ArrowRight","false","original","1","90","","",""
"html-keyboard-response","210","960074","0.0-4.0-2.0-1.45","spark_pilot_norest","10587","1","8","Female","","","","","","","null","<div style=""font-size:60px;"">+</div>","null","fixation","","","","","","","","","91","","",""
"revaluation","211","966100","0.0-4.0-2.0-0.46","spark_pilot_norest","10587","1","8","Female","","true","","","","","[898.0999999642372]","./assets/img/ocean/memory/8.jpg","[""ArrowDown""]","value training","ocean","-5","{""ArrowUp,ArrowLeft"":26,""ArrowUp,ArrowRight"":10,""ArrowDown,ArrowLeft"":5,""ArrowDown,ArrowRight"":17}","false","ArrowDown","false","original","1","92","","",""
"html-keyboard-response","212","966611","0.0-4.0-2.0-1.46","spark_pilot_norest","10587","1","8","Female","","","","","","","null","<div style=""font-size:60px;"">+</div>","null","fixation","","","","","","","","","93","","",""
"revaluation","213","972633","0.0-4.0-2.0-0.47","spark_pilot_norest","10587","1","8","Female","","false","","","","","[1324.5,1168.6000000238419]","./assets/img/ocean/memory/3.jpg","[""ArrowUp"",""ArrowRight""]","value training","ocean","10","{""ArrowUp,ArrowLeft"":26,""ArrowUp,ArrowRight"":10,""ArrowDown,ArrowLeft"":5,""ArrowDown,ArrowRight"":17}","false","ArrowUp,ArrowRight","false","original","1","94","","",""
"html-keyboard-response","214","973141","0.0-4.0-2.0-1.47","spark_pilot_norest","10587","1","8","Female","","","","","","","null","<div style=""font-size:60px;"">+</div>","null","fixation","","","","","","","","","95","","",""
"revaluation","215","979173","0.0-4.0-2.0-0.48","spark_pilot_norest","10587","1","8","Female","","false","","","","","[1245.800000011921,463.89999997615814]","./assets/img/ocean/memory/2.jpg","[""ArrowUp"",""ArrowRight""]","value training","ocean","10","{""ArrowUp,ArrowLeft"":26,""ArrowUp,ArrowRight"":10,""ArrowDown,ArrowLeft"":5,""ArrowDown,ArrowRight"":17}","false","ArrowUp,ArrowRight","false","original","1","96","","",""
"html-keyboard-response","216","979684","0.0-4.0-2.0-1.48","spark_pilot_norest","10587","1","8","Female","","","","","","","null","<div style=""font-size:60px;"">+</div>","null","fixation","","","","","","","","","97","","",""
"revaluation","217","985704","0.0-4.0-2.0-0.49","spark_pilot_norest","10587","1","8","Female","","false","","","","","[441.19999998807907,1284.8999999761581]","./assets/img/ocean/memory/18.jpg","[""ArrowDown"",""ArrowRight""]","value training","ocean","17","{""ArrowUp,ArrowLeft"":26,""ArrowUp,ArrowRight"":10,""ArrowDown,ArrowLeft"":5,""ArrowDown,ArrowRight"":17}","false","ArrowDown,ArrowRight","false","original","1","98","","",""
"html-keyboard-response","218","986208","0.0-4.0-2.0-1.49","spark_pilot_norest","10587","1","8","Female","","","","","","","null","<div style=""font-size:60px;"">+</div>","null","fixation","","","","","","","","","99","","",""
"learning-instructions","219","1003335","0.0-4.0-3.0-0.0","spark_pilot_norest","10587","1","8","Female","","","","","","","4069.5","<p> Now, you will travel with a friend who will choose whether you go up or down first. </p>
            <p> On these turns, you will just see the animal that they found. You will still get to choose which chest to search for treasure.</p>","","instructions","","","","","","","","","","","",""
"revaluation","220","1007357","0.0-4.0-4.0-0.0","spark_pilot_norest","10587","1","8","Female","","false","","","","","[1322.800000011921]","./assets/img/ocean/animals/octopus.jpg","[""ArrowRight""]","revaluation","ocean","17","{""ArrowUp,ArrowLeft"":26,""ArrowUp,ArrowRight"":10,""ArrowDown,ArrowLeft"":5,""ArrowDown,ArrowRight"":17}","true","ArrowDown,ArrowRight","","original","1","0","","",""
"html-keyboard-response","221","1007868","0.0-4.0-4.0-1.0","spark_pilot_norest","10587","1","8","Female","","","","","","","null","<div style=""font-size:60px;"">+</div>","null","fixation","","","","","","","","","1","","",""
"revaluation","222","1011891","0.0-4.0-4.0-0.1","spark_pilot_norest","10587","1","8","Female","","false","","","","","[690.3999999761581]","./assets/img/ocean/animals/seahorse.jpg","[""ArrowLeft""]","revaluation","ocean","26","{""ArrowUp,ArrowLeft"":26,""ArrowUp,ArrowRight"":10,""ArrowDown,ArrowLeft"":5,""ArrowDown,ArrowRight"":17}","true","ArrowUp,ArrowLeft","","original","1","2","","",""
"html-keyboard-response","223","1012396","0.0-4.0-4.0-1.1","spark_pilot_norest","10587","1","8","Female","","","","","","","null","<div style=""font-size:60px;"">+</div>","null","fixation","","","","","","","","","3","","",""
"revaluation","224","1016413","0.0-4.0-4.0-0.2","spark_pilot_norest","10587","1","8","Female","","false","","","","","[943.1000000238419]","./assets/img/ocean/animals/seahorse.jpg","[""ArrowLeft""]","revaluation","ocean","26","{""ArrowUp,ArrowLeft"":26,""ArrowUp,ArrowRight"":10,""ArrowDown,ArrowLeft"":5,""ArrowDown,ArrowRight"":17}","true","ArrowUp,ArrowLeft","","original","1","4","","",""
"html-keyboard-response","225","1016924","0.0-4.0-4.0-1.2","spark_pilot_norest","10587","1","8","Female","","","","","","","null","<div style=""font-size:60px;"">+</div>","null","fixation","","","","","","","","","5","","",""
"revaluation","226","1020941","0.0-4.0-4.0-0.3","spark_pilot_norest","10587","1","8","Female","","false","","","","","[1157.800000011921]","./assets/img/ocean/animals/seahorse.jpg","[""ArrowLeft""]","revaluation","ocean","26","{""ArrowUp,ArrowLeft"":26,""ArrowUp,ArrowRight"":10,""ArrowDown,ArrowLeft"":5,""ArrowDown,ArrowRight"":17}","true","ArrowUp,ArrowLeft","","original","1","6","","",""
"html-keyboard-response","227","1021452","0.0-4.0-4.0-1.3","spark_pilot_norest","10587","1","8","Female","","","","","","","null","<div style=""font-size:60px;"">+</div>","null","fixation","","","","","","","","","7","","",""
"revaluation","228","1025469","0.0-4.0-4.0-0.4","spark_pilot_norest","10587","1","8","Female","","false","","","","","[528.5]","./assets/img/ocean/animals/octopus.jpg","[""ArrowRight""]","revaluation","ocean","17","{""ArrowUp,ArrowLeft"":26,""ArrowUp,ArrowRight"":10,""ArrowDown,ArrowLeft"":5,""ArrowDown,ArrowRight"":17}","true","ArrowDown,ArrowRight","","original","1","8","","",""
"html-keyboard-response","229","1025980","0.0-4.0-4.0-1.4","spark_pilot_norest","10587","1","8","Female","","","","","","","null","<div style=""font-size:60px;"">+</div>","null","fixation","","","","","","","","","9","","",""
"revaluation","230","1029996","0.0-4.0-4.0-0.5","spark_pilot_norest","10587","1","8","Female","","false","","","","","[1168.300000011921]","./assets/img/ocean/animals/octopus.jpg","[""ArrowLeft""]","revaluation","ocean","5","{""ArrowUp,ArrowLeft"":26,""ArrowUp,ArrowRight"":10,""ArrowDown,ArrowLeft"":5,""ArrowDown,ArrowRight"":17}","false","ArrowDown,ArrowLeft","","original","1","10","","",""
"html-keyboard-response","231","1030506","0.0-4.0-4.0-1.5","spark_pilot_norest","10587","1","8","Female","","","","","","","null","<div style=""font-size:60px;"">+</div>","null","fixation","","","","","","","","","11","","",""
"revaluation","232","1034524","0.0-4.0-4.0-0.6","spark_pilot_norest","10587","1","8","Female","","false","","","","","[374.4000000357628]","./assets/img/ocean/animals/octopus.jpg","[""ArrowRight""]","revaluation","ocean","17","{""ArrowUp,ArrowLeft"":26,""ArrowUp,ArrowRight"":10,""ArrowDown,ArrowLeft"":5,""ArrowDown,ArrowRight"":17}","true","ArrowDown,ArrowRight","","original","1","12","","",""
"html-keyboard-response","233","1035035","0.0-4.0-4.0-1.6","spark_pilot_norest","10587","1","8","Female","","","","","","","null","<div style=""font-size:60px;"">+</div>","null","fixation","","","","","","","","","13","","",""
"revaluation","234","1039052","0.0-4.0-4.0-0.7","spark_pilot_norest","10587","1","8","Female","","false","","","","","[1658.4000000357628]","./assets/img/ocean/animals/octopus.jpg","[""ArrowRight""]","revaluation","ocean","17","{""ArrowUp,ArrowLeft"":26,""ArrowUp,ArrowRight"":10,""ArrowDown,ArrowLeft"":5,""ArrowDown,ArrowRight"":17}","true","ArrowDown,ArrowRight","","original","1","14","","",""
"html-keyboard-response","235","1039563","0.0-4.0-4.0-1.7","spark_pilot_norest","10587","1","8","Female","","","","","","","null","<div style=""font-size:60px;"">+</div>","null","fixation","","","","","","","","","15","","",""
"revaluation","236","1043578","0.0-4.0-4.0-0.8","spark_pilot_norest","10587","1","8","Female","","false","","","","","[1421.199999988079]","./assets/img/ocean/animals/seahorse.jpg","[""ArrowLeft""]","revaluation","ocean","26","{""ArrowUp,ArrowLeft"":26,""ArrowUp,ArrowRight"":10,""ArrowDown,ArrowLeft"":5,""ArrowDown,ArrowRight"":17}","true","ArrowUp,ArrowLeft","","original","1","16","","",""
"html-keyboard-response","237","1044085","0.0-4.0-4.0-1.8","spark_pilot_norest","10587","1","8","Female","","","","","","","null","<div style=""font-size:60px;"">+</div>","null","fixation","","","","","","","","","17","","",""
"revaluation","238","1048102","0.0-4.0-4.0-0.9","spark_pilot_norest","10587","1","8","Female","","false","","","","","[1291.3999999761581]","./assets/img/ocean/animals/seahorse.jpg","[""ArrowLeft""]","revaluation","ocean","26","{""ArrowUp,ArrowLeft"":26,""ArrowUp,ArrowRight"":10,""ArrowDown,ArrowLeft"":5,""ArrowDown,ArrowRight"":17}","true","ArrowUp,ArrowLeft","","original","1","18","","",""
"html-keyboard-response","239","1048613","0.0-4.0-4.0-1.9","spark_pilot_norest","10587","1","8","Female","","","","","","","null","<div style=""font-size:60px;"">+</div>","null","fixation","","","","","","","","","19","","",""
"revaluation","240","1052630","0.0-4.0-4.0-0.10","spark_pilot_norest","10587","1","8","Female","","false","","","","","[987.3000000119209]","./assets/img/ocean/animals/seahorse.jpg","[""ArrowLeft""]","revaluation","ocean","26","{""ArrowUp,ArrowLeft"":26,""ArrowUp,ArrowRight"":10,""ArrowDown,ArrowLeft"":5,""ArrowDown,ArrowRight"":17}","true","ArrowUp,ArrowLeft","","original","1","20","","",""
"html-keyboard-response","241","1053141","0.0-4.0-4.0-1.10","spark_pilot_norest","10587","1","8","Female","","","","","","","null","<div style=""font-size:60px;"">+</div>","null","fixation","","","","","","","","","21","","",""
"revaluation","242","1057158","0.0-4.0-4.0-0.11","spark_pilot_norest","10587","1","8","Female","","false","","","","","[983]","./assets/img/ocean/animals/seahorse.jpg","[""ArrowLeft""]","revaluation","ocean","26","{""ArrowUp,ArrowLeft"":26,""ArrowUp,ArrowRight"":10,""ArrowDown,ArrowLeft"":5,""ArrowDown,ArrowRight"":17}","true","ArrowUp,ArrowLeft","","original","1","22","","",""
"html-keyboard-response","243","1057669","0.0-4.0-4.0-1.11","spark_pilot_norest","10587","1","8","Female","","","","","","","null","<div style=""font-size:60px;"">+</div>","null","fixation","","","","","","","","","23","","",""
"revaluation","244","1061686","0.0-4.0-4.0-0.12","spark_pilot_norest","10587","1","8","Female","","false","","","","","[830.8000000119209]","./assets/img/ocean/animals/octopus.jpg","[""ArrowLeft""]","revaluation","ocean","5","{""ArrowUp,ArrowLeft"":26,""ArrowUp,ArrowRight"":10,""ArrowDown,ArrowLeft"":5,""ArrowDown,ArrowRight"":17}","false","ArrowDown,ArrowLeft","","original","1","24","","",""
"html-keyboard-response","245","1062197","0.0-4.0-4.0-1.12","spark_pilot_norest","10587","1","8","Female","","","","","","","null","<div style=""font-size:60px;"">+</div>","null","fixation","","","","","","","","","25","","",""
"revaluation","246","1066220","0.0-4.0-4.0-0.13","spark_pilot_norest","10587","1","8","Female","","false","","","","","[1205.5]","./assets/img/ocean/animals/seahorse.jpg","[""ArrowLeft""]","revaluation","ocean","26","{""ArrowUp,ArrowLeft"":26,""ArrowUp,ArrowRight"":10,""ArrowDown,ArrowLeft"":5,""ArrowDown,ArrowRight"":17}","true","ArrowUp,ArrowLeft","","original","1","26","","",""
"html-keyboard-response","247","1066725","0.0-4.0-4.0-1.13","spark_pilot_norest","10587","1","8","Female","","","","","","","null","<div style=""font-size:60px;"">+</div>","null","fixation","","","","","","","","","27","","",""
"revaluation","248","1070742","0.0-4.0-4.0-0.14","spark_pilot_norest","10587","1","8","Female","","false","","","","","[997.0999999642372]","./assets/img/ocean/animals/octopus.jpg","[""ArrowRight""]","revaluation","ocean","17","{""ArrowUp,ArrowLeft"":26,""ArrowUp,ArrowRight"":10,""ArrowDown,ArrowLeft"":5,""ArrowDown,ArrowRight"":17}","true","ArrowDown,ArrowRight","","original","1","28","","",""
"html-keyboard-response","249","1071253","0.0-4.0-4.0-1.14","spark_pilot_norest","10587","1","8","Female","","","","","","","null","<div style=""font-size:60px;"">+</div>","null","fixation","","","","","","","","","29","","",""
"revaluation","250","1075269","0.0-4.0-4.0-0.15","spark_pilot_norest","10587","1","8","Female","","false","","","","","[1368.5]","./assets/img/ocean/animals/octopus.jpg","[""ArrowRight""]","revaluation","ocean","17","{""ArrowUp,ArrowLeft"":26,""ArrowUp,ArrowRight"":10,""ArrowDown,ArrowLeft"":5,""ArrowDown,ArrowRight"":17}","true","ArrowDown,ArrowRight","","original","1","30","","",""
"html-keyboard-response","251","1075781","0.0-4.0-4.0-1.15","spark_pilot_norest","10587","1","8","Female","","","","","","","null","<div style=""font-size:60px;"">+</div>","null","fixation","","","","","","","","","31","","",""
"revaluation","252","1079795","0.0-4.0-4.0-0.16","spark_pilot_norest","10587","1","8","Female","","false","","","","","[685.1000000238419]","./assets/img/ocean/animals/octopus.jpg","[""ArrowRight""]","revaluation","ocean","17","{""ArrowUp,ArrowLeft"":26,""ArrowUp,ArrowRight"":10,""ArrowDown,ArrowLeft"":5,""ArrowDown,ArrowRight"":17}","true","ArrowDown,ArrowRight","","original","1","32","","",""
"html-keyboard-response","253","1080303","0.0-4.0-4.0-1.16","spark_pilot_norest","10587","1","8","Female","","","","","","","null","<div style=""font-size:60px;"">+</div>","null","fixation","","","","","","","","","33","","",""
"revaluation","254","1084323","0.0-4.0-4.0-0.17","spark_pilot_norest","10587","1","8","Female","","false","","","","","[912.3999999761581]","./assets/img/ocean/animals/seahorse.jpg","[""ArrowRight""]","revaluation","ocean","10","{""ArrowUp,ArrowLeft"":26,""ArrowUp,ArrowRight"":10,""ArrowDown,ArrowLeft"":5,""ArrowDown,ArrowRight"":17}","false","ArrowUp,ArrowRight","","original","1","34","","",""
"html-keyboard-response","255","1084831","0.0-4.0-4.0-1.17","spark_pilot_norest","10587","1","8","Female","","","","","","","null","<div style=""font-size:60px;"">+</div>","null","fixation","","","","","","","","","35","","",""
"learning-instructions","256","1093060","0.0-4.0-5.0-0.0","spark_pilot_norest","10587","1","8","Female","","","","","","","null","<p> You have almost finished this part of the game! </p>
            <p> We are going to ask you to make a few more choices. </p>","","instructions","","","","","","","","","","","",""
"learning-instructions","257","1109036","0.0-4.0-5.0-0.1","spark_pilot_norest","10587","1","8","Female","","","","","","","null","<p> First, you need to decide whether to go up or down. When you see each picture, use the arrow keys to make your choice. </p>
            <p><b>You will not see which animal you found, but try to get to the one that will give you the most treasure.</b></p>","","instructions","","","","","","","","","","","",""
"html-keyboard-response","258","1110046","0.0-4.0-6.0-0.0","spark_pilot_norest","10587","1","8","Female","","","","","","","null","<div style=""font-size:100px;color:red;"">Starting in...</div>","null","","","","","","","","","","","","",""
"html-keyboard-response","259","1111056","0.0-4.0-6.0-1.0","spark_pilot_norest","10587","1","8","Female","","","","","","","null","<div style=""font-size:200px;color:red;"">3</div>","null","","","","","","","","","","","","",""
"html-keyboard-response","260","1112061","0.0-4.0-6.0-2.0","spark_pilot_norest","10587","1","8","Female","","","","","","","null","<div style=""font-size:200px;color:red;"">2</div>","null","","","","","","","","","","","","",""
"html-keyboard-response","261","1113071","0.0-4.0-6.0-3.0","spark_pilot_norest","10587","1","8","Female","","","","","","","null","<div style=""font-size:200px;color:red;"">1</div>","null","","","","","","","","","","","","",""
"revaluation","262","1113245","0.0-4.0-7.0-0.0","spark_pilot_norest","10587","1","8","Female","","false","","","","","[168.4000000357628]","./assets/img/ocean/test/2.jpg","[""ArrowDown""]","first stage test","ocean","0","{""ArrowUp,ArrowLeft"":26,""ArrowUp,ArrowRight"":10,""ArrowDown,ArrowLeft"":5,""ArrowDown,ArrowRight"":17}","false","ArrowDown","false","original","1","","","",""
"html-keyboard-response","263","1113748","0.0-4.0-7.0-1.0","spark_pilot_norest","10587","1","8","Female","","","","","","","null","<div style=""font-size:60px;"">+</div>","null","fixation","","","","","","","","","","","",""
"revaluation","264","1113780","0.0-4.0-7.0-0.1","spark_pilot_norest","10587","1","8","Female","","false","","","","","[26.19999998807907]","./assets/img/ocean/test/1.jpg","[""ArrowDown""]","first stage test","ocean","0","{""ArrowUp,ArrowLeft"":26,""ArrowUp,ArrowRight"":10,""ArrowDown,ArrowLeft"":5,""ArrowDown,ArrowRight"":17}","false","ArrowDown","false","original","1","","","",""
"html-keyboard-response","265","1114284","0.0-4.0-7.0-1.1","spark_pilot_norest","10587","1","8","Female","","","","","","","null","<div style=""font-size:60px;"">+</div>","null","fixation","","","","","","","","","","","",""
"revaluation","266","1114488","0.0-4.0-7.0-0.2","spark_pilot_norest","10587","1","8","Female","","false","","","","","[200.30000001192093]","./assets/img/ocean/test/0.jpg","[""ArrowDown""]","first stage test","ocean","0","{""ArrowUp,ArrowLeft"":26,""ArrowUp,ArrowRight"":10,""ArrowDown,ArrowLeft"":5,""ArrowDown,ArrowRight"":17}","false","ArrowDown","false","original","1","","","",""
"html-keyboard-response","267","1114996","0.0-4.0-7.0-1.2","spark_pilot_norest","10587","1","8","Female","","","","","","","null","<div style=""font-size:60px;"">+</div>","null","fixation","","","","","","","","","","","",""
"revaluation","268","1115196","0.0-4.0-7.0-0.3","spark_pilot_norest","10587","1","8","Female","","false","","","","","[189.39999997615814]","./assets/img/ocean/test/3.jpg","[""ArrowDown""]","first stage test","ocean","0","{""ArrowUp,ArrowLeft"":26,""ArrowUp,ArrowRight"":10,""ArrowDown,ArrowLeft"":5,""ArrowDown,ArrowRight"":17}","false","ArrowDown","false","original","1","","","",""
"html-keyboard-response","269","1115700","0.0-4.0-7.0-1.3","spark_pilot_norest","10587","1","8","Female","","","","","","","null","<div style=""font-size:60px;"">+</div>","null","fixation","","","","","","","","","","","",""
"learning-instructions","270","1129052","0.0-4.0-8.0-0.0","spark_pilot_norest","10587","1","8","Female","","","","","","","null","<p> Now you will see the animals again and can search their chests for treasure. </p>
            <p> This time, you will not see how much treasure you earned, but you will earn more bonus money for making better choices. </p>","","instructions","","","","","","","","","","","",""
"html-keyboard-response","271","1130064","0.0-4.0-9.0-0.0","spark_pilot_norest","10587","1","8","Female","","","","","","","null","<div style=""font-size:100px;color:red;"">Starting in...</div>","null","","","","","","","","","","","","",""
"html-keyboard-response","272","1131078","0.0-4.0-9.0-1.0","spark_pilot_norest","10587","1","8","Female","","","","","","","null","<div style=""font-size:200px;color:red;"">3</div>","null","","","","","","","","","","","","",""
"html-keyboard-response","273","1132088","0.0-4.0-9.0-2.0","spark_pilot_norest","10587","1","8","Female","","","","","","","null","<div style=""font-size:200px;color:red;"">2</div>","null","","","","","","","","","","","","",""
"html-keyboard-response","274","1133092","0.0-4.0-9.0-3.0","spark_pilot_norest","10587","1","8","Female","","","","","","","null","<div style=""font-size:200px;color:red;"">1</div>","null","","","","","","","","","","","","",""
"revaluation","275","1135002","0.0-4.0-10.0-0.0","spark_pilot_norest","10587","1","8","Female","","false","","","","","[1906]","./assets/img/ocean/animals/seahorse.jpg","[""ArrowLeft""]","second stage test","ocean","0","{""ArrowUp,ArrowLeft"":26,""ArrowUp,ArrowRight"":10,""ArrowDown,ArrowLeft"":5,""ArrowDown,ArrowRight"":17}","true","ArrowUp,ArrowLeft","","original","1","","","",""
"html-keyboard-response","276","1135513","0.0-4.0-10.0-1.0","spark_pilot_norest","10587","1","8","Female","","","","","","","null","<div style=""font-size:60px;"">+</div>","null","fixation","","","","","","","","","","","",""
"revaluation","277","1136074","0.0-4.0-10.0-0.1","spark_pilot_norest","10587","1","8","Female","","false","","","","","[558.5]","./assets/img/ocean/animals/seahorse.jpg","[""ArrowLeft""]","second stage test","ocean","0","{""ArrowUp,ArrowLeft"":26,""ArrowUp,ArrowRight"":10,""ArrowDown,ArrowLeft"":5,""ArrowDown,ArrowRight"":17}","true","ArrowUp,ArrowLeft","","original","1","","","",""
"html-keyboard-response","278","1136581","0.0-4.0-10.0-1.1","spark_pilot_norest","10587","1","8","Female","","","","","","","null","<div style=""font-size:60px;"">+</div>","null","fixation","","","","","","","","","","","",""
"revaluation","279","1137303","0.0-4.0-10.0-0.2","spark_pilot_norest","10587","1","8","Female","","false","","","","","[717.3000000119209]","./assets/img/ocean/animals/seahorse.jpg","[""ArrowLeft""]","second stage test","ocean","0","{""ArrowUp,ArrowLeft"":26,""ArrowUp,ArrowRight"":10,""ArrowDown,ArrowLeft"":5,""ArrowDown,ArrowRight"":17}","true","ArrowUp,ArrowLeft","","original","1","","","",""
"html-keyboard-response","280","1137806","0.0-4.0-10.0-1.2","spark_pilot_norest","10587","1","8","Female","","","","","","","null","<div style=""font-size:60px;"">+</div>","null","fixation","","","","","","","","","","","",""
"revaluation","281","1138316","0.0-4.0-10.0-0.3","spark_pilot_norest","10587","1","8","Female","","false","","","","","[507.19999998807907]","./assets/img/ocean/animals/seahorse.jpg","[""ArrowLeft""]","second stage test","ocean","0","{""ArrowUp,ArrowLeft"":26,""ArrowUp,ArrowRight"":10,""ArrowDown,ArrowLeft"":5,""ArrowDown,ArrowRight"":17}","true","ArrowUp,ArrowLeft","","original","1","","","",""
"html-keyboard-response","282","1138822","0.0-4.0-10.0-1.3","spark_pilot_norest","10587","1","8","Female","","","","","","","null","<div style=""font-size:60px;"">+</div>","null","fixation","","","","","","","","","","","",""
"revaluation","283","1139888","0.0-4.0-10.0-0.4","spark_pilot_norest","10587","1","8","Female","","false","","","","","[1063.4000000357628]","./assets/img/ocean/animals/octopus.jpg","[""ArrowRight""]","second stage test","ocean","0","{""ArrowUp,ArrowLeft"":26,""ArrowUp,ArrowRight"":10,""ArrowDown,ArrowLeft"":5,""ArrowDown,ArrowRight"":17}","true","ArrowDown,ArrowRight","","original","1","","","",""
"html-keyboard-response","284","1140401","0.0-4.0-10.0-1.4","spark_pilot_norest","10587","1","8","Female","","","","","","","null","<div style=""font-size:60px;"">+</div>","null","fixation","","","","","","","","","","","",""
"revaluation","285","1140794","0.0-4.0-10.0-0.5","spark_pilot_norest","10587","1","8","Female","","false","","","","","[390.5]","./assets/img/ocean/animals/octopus.jpg","[""ArrowRight""]","second stage test","ocean","0","{""ArrowUp,ArrowLeft"":26,""ArrowUp,ArrowRight"":10,""ArrowDown,ArrowLeft"":5,""ArrowDown,ArrowRight"":17}","true","ArrowDown,ArrowRight","","original","1","","","",""
"html-keyboard-response","286","1141301","0.0-4.0-10.0-1.5","spark_pilot_norest","10587","1","8","Female","","","","","","","null","<div style=""font-size:60px;"">+</div>","null","fixation","","","","","","","","","","","",""
"revaluation","287","1141728","0.0-4.0-10.0-0.6","spark_pilot_norest","10587","1","8","Female","","false","","","","","[425.2999999523163]","./assets/img/ocean/animals/octopus.jpg","[""ArrowRight""]","second stage test","ocean","0","{""ArrowUp,ArrowLeft"":26,""ArrowUp,ArrowRight"":10,""ArrowDown,ArrowLeft"":5,""ArrowDown,ArrowRight"":17}","true","ArrowDown,ArrowRight","","original","1","","","",""
"html-keyboard-response","288","1142236","0.0-4.0-10.0-1.6","spark_pilot_norest","10587","1","8","Female","","","","","","","null","<div style=""font-size:60px;"">+</div>","null","fixation","","","","","","","","","","","",""
"revaluation","289","1142788","0.0-4.0-10.0-0.7","spark_pilot_norest","10587","1","8","Female","","false","","","","","[548.2000000476837]","./assets/img/ocean/animals/octopus.jpg","[""ArrowRight""]","second stage test","ocean","0","{""ArrowUp,ArrowLeft"":26,""ArrowUp,ArrowRight"":10,""ArrowDown,ArrowLeft"":5,""ArrowDown,ArrowRight"":17}","true","ArrowDown,ArrowRight","","original","1","","","",""
"html-keyboard-response","290","1143292","0.0-4.0-10.0-1.7","spark_pilot_norest","10587","1","8","Female","","","","","","","null","<div style=""font-size:60px;"">+</div>","null","fixation","","","","","","","","","","","",""
"learning-instructions","291","1179793","0.0-4.0-0.1-0.2","spark_pilot_norest","10587","1","8","Female","","","","","","","33701.80000001192","<p> This time you are searching for treasure in the <b>canyon</b>.</p>","","instructions","","","","","","","","","","","",""
"learning-instructions","292","1202321","0.0-4.0-0.1-0.3","spark_pilot_norest","10587","1","8","Female","","","","","","","5202","<p><b>New</b> animals with <b>new</b> treasure chests live here. You need to explore to discover where the animal with the best treasure chest is.</p>
                    <p> Like before, once you figure out which animal has the chest with the most treasure, you should try to get to that animal and select that chest! </p>","","instructions","","","","","","","","","","","",""
"learning-instructions","293","1221021","0.0-4.0-1.1-0.1","spark_pilot_norest","10587","1","8","Female","","","","","","","3966.900000035763","<p> Remember, when you see a picture of the place, use the up and down keys to <b>find an animal</b>.</p>
            <p> When you encounter an animal, you should use the left and right keys to <b>select a treasure chest</b>.</p>
            <p> Don't forget to look out for the robber! </p>","","instructions","","","","","","","","","","","",""
"revaluation","294","1225035","0.0-4.0-2.1-0.50","spark_pilot_norest","10587","1","8","Female","","true","","","","","[]","./assets/img/canyon/memory/30.jpg","[]","value training","canyon","-5","{""ArrowUp,ArrowLeft"":23,""ArrowUp,ArrowRight"":10,""ArrowDown,ArrowLeft"":8,""ArrowDown,ArrowRight"":30}","false","","false","revaluation","2","0","","",""
"html-keyboard-response","295","1225546","0.0-4.0-2.1-1.50","spark_pilot_norest","10587","1","8","Female","","","","","","","null","<div style=""font-size:60px;"">+</div>","null","fixation","","","","","","","","","1","","",""
"revaluation","296","1231578","0.0-4.0-2.1-0.51","spark_pilot_norest","10587","1","8","Female","","false","","","","","[681.9000000357628,1208.3999999761581]","./assets/img/canyon/memory/5.jpg","[""ArrowUp"",""ArrowRight""]","value training","canyon","10","{""ArrowUp,ArrowLeft"":23,""ArrowUp,ArrowRight"":10,""ArrowDown,ArrowLeft"":8,""ArrowDown,ArrowRight"":30}","false","ArrowUp,ArrowRight","false","revaluation","2","2","","",""
"html-keyboard-response","297","1232088","0.0-4.0-2.1-1.51","spark_pilot_norest","10587","1","8","Female","","","","","","","null","<div style=""font-size:60px;"">+</div>","null","fixation","","","","","","","","","3","","",""
"revaluation","298","1238114","0.0-4.0-2.1-0.52","spark_pilot_norest","10587","1","8","Female","","false","","","","","[382.2999999523163,869.6000000238419]","./assets/img/canyon/memory/25.jpg","[""ArrowUp"",""ArrowLeft""]","value training","canyon","23","{""ArrowUp,ArrowLeft"":23,""ArrowUp,ArrowRight"":10,""ArrowDown,ArrowLeft"":8,""ArrowDown,ArrowRight"":30}","false","ArrowUp,ArrowLeft","false","revaluation","2","4","","",""
"html-keyboard-response","299","1238625","0.0-4.0-2.1-1.52","spark_pilot_norest","10587","1","8","Female","","","","","","","null","<div style=""font-size:60px;"">+</div>","null","fixation","","","","","","","","","5","","",""
"revaluation","300","1242642","0.0-4.0-2.1-0.53","spark_pilot_norest","10587","1","8","Female","","false","","","","","[1518.5]","./assets/img/canyon/catch/3.jpg","[""spaceBar""]","value training","canyon","0","{""ArrowUp,ArrowLeft"":23,""ArrowUp,ArrowRight"":10,""ArrowDown,ArrowLeft"":8,""ArrowDown,ArrowRight"":30}","true","spaceBar","true","revaluation","2","6","","",""
"html-keyboard-response","301","1243153","0.0-4.0-2.1-1.53","spark_pilot_norest","10587","1","8","Female","","","","","","","null","<div style=""font-size:60px;"">+</div>","null","fixation","","","","","","","","","7","","",""
"revaluation","302","1249175","0.0-4.0-2.1-0.54","spark_pilot_norest","10587","1","8","Female","","false","","","","","[1819.5,1838.1000000238419]","./assets/img/canyon/memory/25.jpg","[""ArrowUp"",""ArrowLeft""]","value training","canyon","23","{""ArrowUp,ArrowLeft"":23,""ArrowUp,ArrowRight"":10,""ArrowDown,ArrowLeft"":8,""ArrowDown,ArrowRight"":30}","false","ArrowUp,ArrowLeft","false","revaluation","2","8","","",""
"html-keyboard-response","303","1249680","0.0-4.0-2.1-1.54","spark_pilot_norest","10587","1","8","Female","","","","","","","null","<div style=""font-size:60px;"">+</div>","null","fixation","","","","","","","","","9","","",""
"revaluation","304","1255706","0.0-4.0-2.1-0.55","spark_pilot_norest","10587","1","8","Female","","false","","","","","[373.5,1404.4000000357628]","./assets/img/canyon/memory/2.jpg","[""ArrowDown"",""ArrowRight""]","value training","canyon","30","{""ArrowUp,ArrowLeft"":23,""ArrowUp,ArrowRight"":10,""ArrowDown,ArrowLeft"":8,""ArrowDown,ArrowRight"":30}","true","ArrowDown,ArrowRight","false","revaluation","2","10","","",""
"html-keyboard-response","305","1256216","0.0-4.0-2.1-1.55","spark_pilot_norest","10587","1","8","Female","","","","","","","null","<div style=""font-size:60px;"">+</div>","null","fixation","","","","","","","","","11","","",""
"revaluation","306","1260234","0.0-4.0-2.1-0.56","spark_pilot_norest","10587","1","8","Female","","false","","","","","[1796.699999988079]","./assets/img/canyon/catch/5.jpg","[""spaceBar""]","value training","canyon","0","{""ArrowUp,ArrowLeft"":23,""ArrowUp,ArrowRight"":10,""ArrowDown,ArrowLeft"":8,""ArrowDown,ArrowRight"":30}","true","spaceBar","true","revaluation","2","12","","",""
"html-keyboard-response","307","1260744","0.0-4.0-2.1-1.56","spark_pilot_norest","10587","1","8","Female","","","","","","","null","<div style=""font-size:60px;"">+</div>","null","fixation","","","","","","","","","13","","",""
"revaluation","308","1264762","0.0-4.0-2.1-0.57","spark_pilot_norest","10587","1","8","Female","","false","","","","","[1678.5999999642372]","./assets/img/canyon/catch/7.jpg","[""spaceBar""]","value training","canyon","0","{""ArrowUp,ArrowLeft"":23,""ArrowUp,ArrowRight"":10,""ArrowDown,ArrowLeft"":8,""ArrowDown,ArrowRight"":30}","true","spaceBar","true","revaluation","2","14","","",""
"html-keyboard-response","309","1265272","0.0-4.0-2.1-1.57","spark_pilot_norest","10587","1","8","Female","","","","","","","null","<div style=""font-size:60px;"">+</div>","null","fixation","","","","","","","","","15","","",""
"revaluation","310","1269290","0.0-4.0-2.1-0.58","spark_pilot_norest","10587","1","8","Female","","false","","","","","[1333.699999988079]","./assets/img/canyon/catch/0.jpg","[""spaceBar""]","value training","canyon","0","{""ArrowUp,ArrowLeft"":23,""ArrowUp,ArrowRight"":10,""ArrowDown,ArrowLeft"":8,""ArrowDown,ArrowRight"":30}","true","spaceBar","true","revaluation","2","16","","",""
"html-keyboard-response","311","1269801","0.0-4.0-2.1-1.58","spark_pilot_norest","10587","1","8","Female","","","","","","","null","<div style=""font-size:60px;"">+</div>","null","fixation","","","","","","","","","17","","",""
"revaluation","312","1273824","0.0-4.0-2.1-0.59","spark_pilot_norest","10587","1","8","Female","","true","","","","","[]","./assets/img/canyon/memory/40.jpg","[]","value training","canyon","-5","{""ArrowUp,ArrowLeft"":23,""ArrowUp,ArrowRight"":10,""ArrowDown,ArrowLeft"":8,""ArrowDown,ArrowRight"":30}","false","","false","revaluation","2","18","","",""
"html-keyboard-response","313","1274328","0.0-4.0-2.1-1.59","spark_pilot_norest","10587","1","8","Female","","","","","","","null","<div style=""font-size:60px;"">+</div>","null","fixation","","","","","","","","","19","","",""
"revaluation","314","1280354","0.0-4.0-2.1-0.60","spark_pilot_norest","10587","1","8","Female","","false","","","","","[950.0999999642372,1084]","./assets/img/canyon/memory/40.jpg","[""ArrowDown"",""ArrowLeft""]","value training","canyon","8","{""ArrowUp,ArrowLeft"":23,""ArrowUp,ArrowRight"":10,""ArrowDown,ArrowLeft"":8,""ArrowDown,ArrowRight"":30}","false","ArrowDown,ArrowLeft","false","revaluation","2","20","","",""
