"trial_type","trial_index","time_elapsed","internal_node_id","task_version","subject_id","assigned_condition","age","gender","success","timeout","failed_images","failed_audio","failed_video","browser_interaction","rt","stimulus","response","task_part","environment","score","rewardMap","correct","fullState","isCatch","condition","order","trial_num","key_press","ground_truth","bonus"
"pavlovia","0","1400","0.0-0.0","spark_pilot_norest","8398","1","13","Male","","","","","","","","","","","","","","","","","","","","","",""
"preload","1","9130","0.0-1.0","spark_pilot_norest","8398","1","13","Male","true","false","[]","[]","[]","[{""event"":""fullscreenenter"",""trial"":2,""time"":17399},{""event"":""fullscreenexit"",""trial"":3,""time"":25025},{""event"":""blur"",""trial"":3,""time"":26616},{""event"":""focus"",""trial"":3,""time"":54074}]","","","","","","","","","","","","","","","",""
"fullscreen","2","18058","0.0-2.0","spark_pilot_norest","8398","1","13","Male","true","","","","","[{""event"":""fullscreenenter"",""trial"":2,""time"":17399},{""event"":""fullscreenexit"",""trial"":3,""time"":25025},{""event"":""blur"",""trial"":3,""time"":26616},{""event"":""focus"",""trial"":3,""time"":54074}]","","","","","","","","","","","","","","","",""
"audio-button-response","3","54170","0.0-3.0-0.0-0.0","spark_pilot_norest","8398","1","13","Male","","","","","","","35981","./assets/audio/audiotest/turtle.mp3","4","audio_test","","","","","","","","","","","",""
"audio-button-response","4","57010","0.0-3.0-0.1-0.1","spark_pilot_norest","8398","1","13","Male","","","","","","","1811","./assets/audio/audiotest/turtle.mp3","2","audio_test","","","","","","","","","","","",""
"learning-instructions","5","65276","0.0-3.0-1.0-0.0","spark_pilot_norest","8398","1","13","Male","","","","","","","1285","<p> Welcome! Please remember to stay in fullscreen mode and don't click away from the experiment. </p>","","instructions","","","","","","","","","","","",""
"learning-instructions","6","79920","0.0-3.0-1.0-0.1","spark_pilot_norest","8398","1","13","Male","","","","","","","6250.099999999977","<p> Today you will be playing a game to earn treasure. </p>
            <p> At the end of the experiment, you will earn a bonus based on how much treasure you find. </p>
            <img src='./assets/img/instructions/treasure.jpg' class='instructions-image'>","","instructions","","","","","","","","","","","",""
"learning-instructions","7","91748","0.0-3.0-1.0-0.2","spark_pilot_norest","8398","1","13","Male","","","","","","","3568.399999999907","<p> Animals have hidden treasure in treasure chests. </p>
            <p> You need to first find an animal and then choose which of their treasure chests to search. </p>
            <img src='./assets/img/space/animals/cat.jpg' class='instructions-image'>","","instructions","","","","","","","","","","","",""
"learning-instructions","8","107948","0.0-3.0-1.0-0.3","spark_pilot_norest","8398","1","13","Male","","","","","","","3047.8000000000466","<p> In each round, you will search for treasure in a different place. In the real game, there will be two rounds. </p>
            <p> You will begin with a separate, practice round where you will search for treasure in outer space. </p>
            <img src='./assets/img/space/0.jpg' class='instructions-image'>","","instructions","","","","","","","","","","","",""
"learning-instructions","9","121768","0.0-3.0-1.0-0.4","spark_pilot_norest","8398","1","13","Male","","","","","","","2418","<p> On every turn, you will see a picture of the place that you are in, but the specific image may be different each time. </p>
            <p> For example, both of these images mean you are in outer space. </p>
            <img src='./assets/img/instructions/outerspace.jpg' class='instructions-image'>","","instructions","","","","","","","","","","","",""
"learning-instructions","10","131936","0.0-3.0-1.0-0.5","spark_pilot_norest","8398","1","13","Male","","","","","","","2346.0999999999767","<p> You need to decide which direction to travel in. </p>
            <p> You can choose between going <b>up or down</b> by using the arrow keys. </p>
            <img src='./assets/img/instructions/updown.jpg' class='instructions-image'>","","instructions","","","","","","","","","","","",""
"learning-instructions","11","143848","0.0-3.0-1.0-0.6","spark_pilot_norest","8398","1","13","Male","","","","","","","3107.8000000000466","<p> You will have <b>2 seconds</b> to make your choice. </p>
            <p> If you do not make a choice within 2 seconds, you will not find an animal or earn treasure. </p>
            <img src='./assets/img/instructions/2seconds.jpg' class='instructions-image'>","","instructions","","","","","","","","","","","",""
"learning-instructions","12","152322","0.0-3.0-1.0-0.7","spark_pilot_norest","8398","1","13","Male","","","","","","","1372","<p> Let’s try practicing that now! </p>
            <p> When you see a picture of the place you are in, press the <b>up</b> key to travel up. </p>
            <img src='./assets/img/instructions/pressUp.jpg' class='instructions-image'>","","instructions","","","","","","","","","","","",""
"revaluation","13","156350","0.0-3.0-2.0-0.0","spark_pilot_norest","8398","1","13","Male","","false","","","","","[1883.9000000000233]","./assets/img/space/0.jpg","[""ArrowUp""]","first stage practice","space","0","null","null","ArrowUp","false","","","","","",""
"html-keyboard-response","14","156861","0.0-3.0-2.0-1.0","spark_pilot_norest","8398","1","13","Male","","","","","","","null","<div style=""font-size:60px;"">+</div>","null","fixation","","","","","","","","","","","",""
"revaluation","15","160888","0.0-3.0-2.0-0.1","spark_pilot_norest","8398","1","13","Male","","true","","","","","[]","./assets/img/space/1.jpg","[]","first stage practice","space","-5","null","null","","false","","","","","",""
"html-keyboard-response","16","161389","0.0-3.0-2.0-1.1","spark_pilot_norest","8398","1","13","Male","","","","","","","null","<div style=""font-size:60px;"">+</div>","null","fixation","","","","","","","","","","","",""
"revaluation","17","165410","0.0-3.0-2.0-0.2","spark_pilot_norest","8398","1","13","Male","","false","","","","","[878.3000000000466]","./assets/img/space/2.jpg","[""ArrowUp""]","first stage practice","space","0","null","null","ArrowUp","false","","","","","",""
"html-keyboard-response","18","165921","0.0-3.0-2.0-1.2","spark_pilot_norest","8398","1","13","Male","","","","","","","null","<div style=""font-size:60px;"">+</div>","null","fixation","","","","","","","","","","","",""
"learning-instructions","19","172992","0.0-3.0-3.0-0.0","spark_pilot_norest","8398","1","13","Male","","","","","","","2381.5999999999767","<p> Great job! Now try pressing the <b>down</b> key to travel down. </p>
            <img src='./assets/img/instructions/pressDown.jpg' class='instructions-image'>","","instructions","","","","","","","","","","","",""
"revaluation","20","177012","0.0-3.0-4.0-0.0","spark_pilot_norest","8398","1","13","Male","","false","","","","","[860.2000000000698]","./assets/img/space/3.jpg","[""ArrowDown""]","first stage practice","space","0","null","null","ArrowDown","false","","","","","",""
"html-keyboard-response","21","177522","0.0-3.0-4.0-1.0","spark_pilot_norest","8398","1","13","Male","","","","","","","null","<div style=""font-size:60px;"">+</div>","null","fixation","","","","","","","","","","","",""
"revaluation","22","181549","0.0-3.0-4.0-0.1","spark_pilot_norest","8398","1","13","Male","","false","","","","","[345.80000000004657]","./assets/img/space/4.jpg","[""ArrowDown""]","first stage practice","space","0","null","null","ArrowDown","false","","","","","",""
"html-keyboard-response","23","182060","0.0-3.0-4.0-1.1","spark_pilot_norest","8398","1","13","Male","","","","","","","null","<div style=""font-size:60px;"">+</div>","null","fixation","","","","","","","","","","","",""
"revaluation","24","186087","0.0-3.0-4.0-0.2","spark_pilot_norest","8398","1","13","Male","","false","","","","","[509.80000000004657]","./assets/img/space/5.jpg","[""ArrowDown""]","first stage practice","space","0","null","null","ArrowDown","false","","","","","",""
"html-keyboard-response","25","186598","0.0-3.0-4.0-1.2","spark_pilot_norest","8398","1","13","Male","","","","","","","null","<div style=""font-size:60px;"">+</div>","null","fixation","","","","","","","","","","","",""
"learning-instructions","26","198354","0.0-3.0-5.0-0.0","spark_pilot_norest","8398","1","13","Male","","","","","","","1904.4000000000233","<p> The animals don’t move, so the animal in the upper part of a place will stay in the upper part of a place, and the animal in the lower part of a place will stay in the lower part of a place. </p>","","instructions","","","","","","","","","","","",""
"learning-instructions","27","208618","0.0-3.0-5.0-0.1","spark_pilot_norest","8398","1","13","Male","","","","","","","1128.4000000000233","<p> Each animal has two treasure chests for you to choose from. </p>
            <p> The amount of treasure in each chest can range from <b> 0 to 40 pieces.</b></p>","","instructions","","","","","","","","","","","",""
"learning-instructions","28","221304","0.0-3.0-5.0-0.2","spark_pilot_norest","8398","1","13","Male","","","","","","","1493.5999999999767","<p> You should decide which chest to search for treasure by using the <b>left</b> and <b>right</b> arrow keys. </p>
            <p><b> Pay attention to which animal is on the screen, as the animals have different treasure chests. </b></p>
            <img src='./assets/img/instructions/leftright.jpg' class='instructions-image'>","","instructions","","","","","","","","","","","",""
"learning-instructions","29","229660","0.0-3.0-5.0-0.3","spark_pilot_norest","8398","1","13","Male","","","","","","","2000.2999999999302","<p> Let’s try practicing that now. </p>
            <p> When you see an animal, choose which chest to search for treasure. </p>
            <img src='./assets/img/instructions/chooseChest.jpg' class='instructions-image'>","","instructions","","","","","","","","","","","",""
"revaluation","30","233683","0.0-3.0-6.0-0.0","spark_pilot_norest","8398","1","13","Male","","false","","","","","[1152.4000000000233]","./assets/img/space/animals/rabbit.jpg","[""ArrowRight""]","second stage practice","space","23","{""ArrowUp,ArrowLeft"":3,""ArrowUp,ArrowRight"":36,""ArrowDown,ArrowLeft"":15,""ArrowDown,ArrowRight"":23}","true","ArrowDown,ArrowRight","","","","","","",""
"html-keyboard-response","31","234192","0.0-3.0-6.0-1.0","spark_pilot_norest","8398","1","13","Male","","","","","","","null","<div style=""font-size:60px;"">+</div>","null","fixation","","","","","","","","","","","",""
"revaluation","32","238219","0.0-3.0-6.0-0.1","spark_pilot_norest","8398","1","13","Male","","false","","","","","[1132]","./assets/img/space/animals/rabbit.jpg","[""ArrowRight""]","second stage practice","space","23","{""ArrowUp,ArrowLeft"":3,""ArrowUp,ArrowRight"":36,""ArrowDown,ArrowLeft"":15,""ArrowDown,ArrowRight"":23}","true","ArrowDown,ArrowRight","","","","","","",""
"html-keyboard-response","33","238730","0.0-3.0-6.0-1.1","spark_pilot_norest","8398","1","13","Male","","","","","","","null","<div style=""font-size:60px;"">+</div>","null","fixation","","","","","","","","","","","",""
"revaluation","34","242757","0.0-3.0-6.0-0.2","spark_pilot_norest","8398","1","13","Male","","false","","","","","[554.2999999999302]","./assets/img/space/animals/cat.jpg","[""ArrowLeft""]","second stage practice","space","3","{""ArrowUp,ArrowLeft"":3,""ArrowUp,ArrowRight"":36,""ArrowDown,ArrowLeft"":15,""ArrowDown,ArrowRight"":23}","false","ArrowUp,ArrowLeft","","","","","","",""
"html-keyboard-response","35","243268","0.0-3.0-6.0-1.2","spark_pilot_norest","8398","1","13","Male","","","","","","","null","<div style=""font-size:60px;"">+</div>","null","fixation","","","","","","","","","","","",""
"revaluation","36","247295","0.0-3.0-6.0-0.3","spark_pilot_norest","8398","1","13","Male","","false","","","","","[757.3000000000466]","./assets/img/space/animals/cat.jpg","[""ArrowRight""]","second stage practice","space","36","{""ArrowUp,ArrowLeft"":3,""ArrowUp,ArrowRight"":36,""ArrowDown,ArrowLeft"":15,""ArrowDown,ArrowRight"":23}","true","ArrowUp,ArrowRight","","","","","","",""
"html-keyboard-response","37","247806","0.0-3.0-6.0-1.3","spark_pilot_norest","8398","1","13","Male","","","","","","","null","<div style=""font-size:60px;"">+</div>","null","fixation","","","","","","","","","","","",""
"learning-instructions","38","267756","0.0-3.0-7.0-0.0","spark_pilot_norest","8398","1","13","Male","","","","","","","3136.5","<p> Great job. Now let’s try putting it together. </p>
            <p> On each turn, you will first see a picture to remind you of the place you are in, and you need to choose whether to go up or down. </p>
            <p> Then you will see an animal and choose which of its chests to search for treasure. </p>","","instructions","","","","","","","","","","","",""
"learning-instructions","39","278902","0.0-3.0-7.0-0.1","spark_pilot_norest","8398","1","13","Male","","","","","","","2882.4000000000233","<p> When you choose whether to go up or down, try to go to the animal with the chest with the most treasure. </p>
            <p> Try practicing that now! </p>","","instructions","","","","","","","","","","","",""
"revaluation","40","284947","0.0-3.0-8.0-0.0","spark_pilot_norest","8398","1","13","Male","","false","","","","","[1310.8999999999069,702.5]","./assets/img/space/6.jpg","[""ArrowDown"",""ArrowRight""]","full practice","space","23","{""ArrowUp,ArrowLeft"":3,""ArrowUp,ArrowRight"":36,""ArrowDown,ArrowLeft"":15,""ArrowDown,ArrowRight"":23}","false","ArrowDown,ArrowRight","false","","","","","",""
"html-keyboard-response","41","285457","0.0-3.0-8.0-1.0","spark_pilot_norest","8398","1","13","Male","","","","","","","null","<div style=""font-size:60px;"">+</div>","null","fixation","","","","","","","","","","","",""
"revaluation","42","291497","0.0-3.0-8.0-0.1","spark_pilot_norest","8398","1","13","Male","","false","","","","","[458,1823.0999999999767]","./assets/img/space/7.jpg","[""ArrowUp"",""ArrowRight""]","full practice","space","36","{""ArrowUp,ArrowLeft"":3,""ArrowUp,ArrowRight"":36,""ArrowDown,ArrowLeft"":15,""ArrowDown,ArrowRight"":23}","true","ArrowUp,ArrowRight","false","","","","","",""
"html-keyboard-response","43","292009","0.0-3.0-8.0-1.1","spark_pilot_norest","8398","1","13","Male","","","","","","","null","<div style=""font-size:60px;"">+</div>","null","fixation","","","","","","","","","","","",""
"revaluation","44","298050","0.0-3.0-8.0-0.2","spark_pilot_norest","8398","1","13","Male","","false","","","","","[792.0999999999767,599.7000000000698]","./assets/img/space/8.jpg","[""ArrowDown"",""ArrowRight""]","full practice","space","23","{""ArrowUp,ArrowLeft"":3,""ArrowUp,ArrowRight"":36,""ArrowDown,ArrowLeft"":15,""ArrowDown,ArrowRight"":23}","false","ArrowDown,ArrowRight","false","","","","","",""
"html-keyboard-response","45","298560","0.0-3.0-8.0-1.2","spark_pilot_norest","8398","1","13","Male","","","","","","","null","<div style=""font-size:60px;"">+</div>","null","fixation","","","","","","","","","","","",""
"revaluation","46","304601","0.0-3.0-8.0-0.3","spark_pilot_norest","8398","1","13","Male","","false","","","","","[563.4000000000233,1032.1999999999534]","./assets/img/space/9.jpg","[""ArrowDown"",""ArrowLeft""]","full practice","space","15","{""ArrowUp,ArrowLeft"":3,""ArrowUp,ArrowRight"":36,""ArrowDown,ArrowLeft"":15,""ArrowDown,ArrowRight"":23}","false","ArrowDown,ArrowLeft","false","","","","","",""
"html-keyboard-response","47","305112","0.0-3.0-8.0-1.3","spark_pilot_norest","8398","1","13","Male","","","","","","","null","<div style=""font-size:60px;"">+</div>","null","fixation","","","","","","","","","","","",""
"revaluation","48","311117","0.0-3.0-8.0-0.4","spark_pilot_norest","8398","1","13","Male","","true","","","","","[619.5999999999767]","./assets/img/space/10.jpg","[""ArrowDown""]","full practice","space","-5","{""ArrowUp,ArrowLeft"":3,""ArrowUp,ArrowRight"":36,""ArrowDown,ArrowLeft"":15,""ArrowDown,ArrowRight"":23}","false","ArrowDown","false","","","","","",""
"html-keyboard-response","49","311618","0.0-3.0-8.0-1.4","spark_pilot_norest","8398","1","13","Male","","","","","","","null","<div style=""font-size:60px;"">+</div>","null","fixation","","","","","","","","","","","",""
"learning-instructions","50","334202","0.0-3.0-9.0-0.0","spark_pilot_norest","8398","1","13","Male","","","","","","","12241.20000000007","<p> One last thing: sometimes, you will see a robber. The robber can be anywhere in the picture. </p>
            <p> If you do not stop them, you will lose treasure. </p>
            <img src='./assets/img/instructions/robber.jpg' class='instructions-image'>","","instructions","","","","","","","","","","","",""
"learning-instructions","51","343780","0.0-3.0-9.0-0.1","spark_pilot_norest","8398","1","13","Male","","","","","","","2409.3000000000466","<p> If you see the robber, you should <b>press the space bar</b> rather than using the arrow keys. </p>
            <p> Try practicing that now! </p>","","instructions","","","","","","","","","","","",""
"revaluation","52","347796","0.0-3.0-10.0-0.0","spark_pilot_norest","8398","1","13","Male","","false","","","","","[992.5]","./assets/img/space/catch/0.jpg","[""ArrowDown""]","catch practice","space","-10","{""ArrowUp,ArrowLeft"":3,""ArrowUp,ArrowRight"":36,""ArrowDown,ArrowLeft"":15,""ArrowDown,ArrowRight"":23}","false","ArrowDown","true","","","","","",""
"html-keyboard-response","53","348307","0.0-3.0-10.0-1.0","spark_pilot_norest","8398","1","13","Male","","","","","","","null","<div style=""font-size:60px;"">+</div>","null","fixation","","","","","","","","","","","",""
"revaluation","54","352334","0.0-3.0-10.0-0.1","spark_pilot_norest","8398","1","13","Male","","false","","","","","[927.7999999998137]","./assets/img/space/catch/1.jpg","[""ArrowUp""]","catch practice","space","-10","{""ArrowUp,ArrowLeft"":3,""ArrowUp,ArrowRight"":36,""ArrowDown,ArrowLeft"":15,""ArrowDown,ArrowRight"":23}","false","ArrowUp","true","","","","","",""
"html-keyboard-response","55","352845","0.0-3.0-10.0-1.1","spark_pilot_norest","8398","1","13","Male","","","","","","","null","<div style=""font-size:60px;"">+</div>","null","fixation","","","","","","","","","","","",""
"revaluation","56","356873","0.0-3.0-10.0-0.2","spark_pilot_norest","8398","1","13","Male","","true","","","","","[]","./assets/img/space/catch/2.jpg","[]","catch practice","space","-5","{""ArrowUp,ArrowLeft"":3,""ArrowUp,ArrowRight"":36,""ArrowDown,ArrowLeft"":15,""ArrowDown,ArrowRight"":23}","false","","true","","","","","",""
"html-keyboard-response","57","357383","0.0-3.0-10.0-1.2","spark_pilot_norest","8398","1","13","Male","","","","","","","null","<div style=""font-size:60px;"">+</div>","null","fixation","","","","","","","","","","","",""
"learning-instructions","58","380930","0.0-3.0-11.0-0.0-0.0","spark_pilot_norest","8398","1","13","Male","","","","","","","18289.300000000047","<p> Now, you will practice a shortened version of the game to get a sense of how it all fits together. </p>","","instructions","","","","","","","","","","","",""
"learning-instructions","59","385390","0.0-3.0-11.0-0.0-0.1","spark_pilot_norest","8398","1","13","Male","","","","","","","1269.3999999999069","<p>This time you are searching for treasure in outer space.</p>","","instructions","","","","","","","","","","","",""
"learning-instructions","60","401688","0.0-3.0-11.0-1.0-0.0","spark_pilot_norest","8398","1","13","Male","","","","","","","1527.5","<p> Remember, when you see a picture of the place, use the up and down keys to <b>find an animal</b>.</p>
            <p> When you encounter an animal, you should use the left and right keys to <b>select a treasure chest</b>.</p>
            <p> Don't forget to look out for the robber! </p>","","instructions","","","","","","","","","","","",""
"revaluation","61","407719","0.0-3.0-11.0-2.0-0.0","spark_pilot_norest","8398","1","13","Male","","false","","","","","[1596.7000000001863,1017.5999999998603]","./assets/img/space/11.jpg","[""ArrowUp"",""ArrowRight""]","practice block","space","36","{""ArrowUp,ArrowLeft"":3,""ArrowUp,ArrowRight"":36,""ArrowDown,ArrowLeft"":15,""ArrowDown,ArrowRight"":23}","true","ArrowUp,ArrowRight","false","","","","","",""
"html-keyboard-response","62","408230","0.0-3.0-11.0-2.0-1.0","spark_pilot_norest","8398","1","13","Male","","","","","","","null","<div style=""font-size:60px;"">+</div>","null","fixation","","","","","","","","","","","",""
"revaluation","63","414270","0.0-3.0-11.0-2.0-0.1","spark_pilot_norest","8398","1","13","Male","","false","","","","","[1214.2999999998137,706]","./assets/img/space/12.jpg","[""ArrowDown"",""ArrowLeft""]","practice block","space","15","{""ArrowUp,ArrowLeft"":3,""ArrowUp,ArrowRight"":36,""ArrowDown,ArrowLeft"":15,""ArrowDown,ArrowRight"":23}","false","ArrowDown,ArrowLeft","false","","","","","",""
"html-keyboard-response","64","414781","0.0-3.0-11.0-2.0-1.1","spark_pilot_norest","8398","1","13","Male","","","","","","","null","<div style=""font-size:60px;"">+</div>","null","fixation","","","","","","","","","","","",""
"revaluation","65","420822","0.0-3.0-11.0-2.0-0.2","spark_pilot_norest","8398","1","13","Male","","false","","","","","[598.6999999999534,418.9000000001397]","./assets/img/space/13.jpg","[""ArrowUp"",""ArrowRight""]","practice block","space","36","{""ArrowUp,ArrowLeft"":3,""ArrowUp,ArrowRight"":36,""ArrowDown,ArrowLeft"":15,""ArrowDown,ArrowRight"":23}","true","ArrowUp,ArrowRight","false","","","","","",""
"html-keyboard-response","66","421333","0.0-3.0-11.0-2.0-1.2","spark_pilot_norest","8398","1","13","Male","","","","","","","null","<div style=""font-size:60px;"">+</div>","null","fixation","","","","","","","","","","","",""
"revaluation","67","427373","0.0-3.0-11.0-2.0-0.3","spark_pilot_norest","8398","1","13","Male","","false","","","","","[671.0999999998603,475.39999999990687]","./assets/img/space/14.jpg","[""ArrowUp"",""ArrowRight""]","practice block","space","36","{""ArrowUp,ArrowLeft"":3,""ArrowUp,ArrowRight"":36,""ArrowDown,ArrowLeft"":15,""ArrowDown,ArrowRight"":23}","true","ArrowUp,ArrowRight","false","","","","","",""
"html-keyboard-response","68","427884","0.0-3.0-11.0-2.0-1.3","spark_pilot_norest","8398","1","13","Male","","","","","","","null","<div style=""font-size:60px;"">+</div>","null","fixation","","","","","","","","","","","",""
"revaluation","69","433899","0.0-3.0-11.0-2.0-0.4","spark_pilot_norest","8398","1","13","Male","","false","","","","","[504.0999999998603,460]","./assets/img/space/11.jpg","[""ArrowUp"",""ArrowRight""]","practice block","space","36","{""ArrowUp,ArrowLeft"":3,""ArrowUp,ArrowRight"":36,""ArrowDown,ArrowLeft"":15,""ArrowDown,ArrowRight"":23}","true","ArrowUp,ArrowRight","false","","","","","",""
"html-keyboard-response","70","434400","0.0-3.0-11.0-2.0-1.4","spark_pilot_norest","8398","1","13","Male","","","","","","","null","<div style=""font-size:60px;"">+</div>","null","fixation","","","","","","","","","","","",""
"revaluation","71","440404","0.0-3.0-11.0-2.0-0.5","spark_pilot_norest","8398","1","13","Male","","false","","","","","[579.7000000001863,354.5]","./assets/img/space/12.jpg","[""ArrowUp"",""ArrowRight""]","practice block","space","36","{""ArrowUp,ArrowLeft"":3,""ArrowUp,ArrowRight"":36,""ArrowDown,ArrowLeft"":15,""ArrowDown,ArrowRight"":23}","true","ArrowUp,ArrowRight","false","","","","","",""
"html-keyboard-response","72","440906","0.0-3.0-11.0-2.0-1.5","spark_pilot_norest","8398","1","13","Male","","","","","","","null","<div style=""font-size:60px;"">+</div>","null","fixation","","","","","","","","","","","",""
"revaluation","73","446910","0.0-3.0-11.0-2.0-0.6","spark_pilot_norest","8398","1","13","Male","","false","","","","","[498.30000000004657,601.6999999999534]","./assets/img/space/13.jpg","[""ArrowUp"",""ArrowRight""]","practice block","space","36","{""ArrowUp,ArrowLeft"":3,""ArrowUp,ArrowRight"":36,""ArrowDown,ArrowLeft"":15,""ArrowDown,ArrowRight"":23}","true","ArrowUp,ArrowRight","false","","","","","",""
"html-keyboard-response","74","447411","0.0-3.0-11.0-2.0-1.6","spark_pilot_norest","8398","1","13","Male","","","","","","","null","<div style=""font-size:60px;"">+</div>","null","fixation","","","","","","","","","","","",""
"revaluation","75","453417","0.0-3.0-11.0-2.0-0.7","spark_pilot_norest","8398","1","13","Male","","true","","","","","[456.19999999995343]","./assets/img/space/14.jpg","[""ArrowUp""]","practice block","space","-5","{""ArrowUp,ArrowLeft"":3,""ArrowUp,ArrowRight"":36,""ArrowDown,ArrowLeft"":15,""ArrowDown,ArrowRight"":23}","false","ArrowUp","false","","","","","",""
"html-keyboard-response","76","453917","0.0-3.0-11.0-2.0-1.7","spark_pilot_norest","8398","1","13","Male","","","","","","","null","<div style=""font-size:60px;"">+</div>","null","fixation","","","","","","","","","","","",""
"revaluation","77","457920","0.0-3.0-11.0-2.0-0.8","spark_pilot_norest","8398","1","13","Male","","false","","","","","[342.60000000009313]","./assets/img/space/catch/3.jpg","[""ArrowUp""]","practice block","space","-10","{""ArrowUp,ArrowLeft"":3,""ArrowUp,ArrowRight"":36,""ArrowDown,ArrowLeft"":15,""ArrowDown,ArrowRight"":23}","false","ArrowUp","true","","","","","",""
"html-keyboard-response","78","458421","0.0-3.0-11.0-2.0-1.8","spark_pilot_norest","8398","1","13","Male","","","","","","","null","<div style=""font-size:60px;"">+</div>","null","fixation","","","","","","","","","","","",""
"learning-instructions","79","475309","0.0-3.0-11.0-3.0-0.0","spark_pilot_norest","8398","1","13","Male","","","","","","","3950","<p> Now, you will travel with a friend who will choose whether you go up or down first. </p>
            <p> On these turns, you will just see the animal that they found. You will still get to choose which chest to search for treasure.</p>","","instructions","","","","","","","","","","","",""
"revaluation","80","479335","0.0-3.0-11.0-4.0-0.0","spark_pilot_norest","8398","1","13","Male","","false","","","","","[895.7000000001863]","./assets/img/space/animals/rabbit.jpg","[""ArrowRight""]","practice block","space","23","{""ArrowUp,ArrowLeft"":3,""ArrowUp,ArrowRight"":36,""ArrowDown,ArrowLeft"":15,""ArrowDown,ArrowRight"":23}","true","ArrowDown,ArrowRight","","","","","","",""
"html-keyboard-response","81","479846","0.0-3.0-11.0-4.0-1.0","spark_pilot_norest","8398","1","13","Male","","","","","","","null","<div style=""font-size:60px;"">+</div>","null","fixation","","","","","","","","","","","",""
"revaluation","82","483873","0.0-3.0-11.0-4.0-0.1","spark_pilot_norest","8398","1","13","Male","","false","","","","","[934]","./assets/img/space/animals/rabbit.jpg","[""ArrowRight""]","practice block","space","23","{""ArrowUp,ArrowLeft"":3,""ArrowUp,ArrowRight"":36,""ArrowDown,ArrowLeft"":15,""ArrowDown,ArrowRight"":23}","true","ArrowDown,ArrowRight","","","","","","",""
"html-keyboard-response","83","484384","0.0-3.0-11.0-4.0-1.1","spark_pilot_norest","8398","1","13","Male","","","","","","","null","<div style=""font-size:60px;"">+</div>","null","fixation","","","","","","","","","","","",""
"revaluation","84","488406","0.0-3.0-11.0-4.0-0.2","spark_pilot_norest","8398","1","13","Male","","false","","","","","[979.8000000000466]","./assets/img/space/animals/cat.jpg","[""ArrowRight""]","practice block","space","36","{""ArrowUp,ArrowLeft"":3,""ArrowUp,ArrowRight"":36,""ArrowDown,ArrowLeft"":15,""ArrowDown,ArrowRight"":23}","true","ArrowUp,ArrowRight","","","","","","",""
"html-keyboard-response","85","488910","0.0-3.0-11.0-4.0-1.2","spark_pilot_norest","8398","1","13","Male","","","","","","","null","<div style=""font-size:60px;"">+</div>","null","fixation","","","","","","","","","","","",""
"revaluation","86","492934","0.0-3.0-11.0-4.0-0.3","spark_pilot_norest","8398","1","13","Male","","false","","","","","[110.60000000009313]","./assets/img/space/animals/cat.jpg","[""ArrowRight""]","practice block","space","36","{""ArrowUp,ArrowLeft"":3,""ArrowUp,ArrowRight"":36,""ArrowDown,ArrowLeft"":15,""ArrowDown,ArrowRight"":23}","true","ArrowUp,ArrowRight","","","","","","",""
"html-keyboard-response","87","493445","0.0-3.0-11.0-4.0-1.3","spark_pilot_norest","8398","1","13","Male","","","","","","","null","<div style=""font-size:60px;"">+</div>","null","fixation","","","","","","","","","","","",""
"learning-instructions","88","501560","0.0-3.0-11.0-5.0-0.0","spark_pilot_norest","8398","1","13","Male","","","","","","","null","<p> You have almost finished this part of the game! </p>
            <p> We are going to ask you to make a few more choices. </p>","","instructions","","","","","","","","","","","",""
"learning-instructions","89","517559","0.0-3.0-11.0-5.0-0.1","spark_pilot_norest","8398","1","13","Male","","","","","","","null","<p> First, you need to decide whether to go up or down. When you see each picture, use the arrow keys to make your choice. </p>
            <p><b>You will not see which animal you found, but try to get to the one that will give you the most treasure.</b></p>","","instructions","","","","","","","","","","","",""
"html-keyboard-response","90","518566","0.0-3.0-11.0-6.0-0.0","spark_pilot_norest","8398","1","13","Male","","","","","","","null","<div style=""font-size:100px;color:red;"">Starting in...</div>","null","","","","","","","","","","","","",""
"html-keyboard-response","91","519573","0.0-3.0-11.0-6.0-1.0","spark_pilot_norest","8398","1","13","Male","","","","","","","null","<div style=""font-size:200px;color:red;"">3</div>","null","","","","","","","","","","","","",""
"html-keyboard-response","92","520579","0.0-3.0-11.0-6.0-2.0","spark_pilot_norest","8398","1","13","Male","","","","","","","null","<div style=""font-size:200px;color:red;"">2</div>","null","","","","","","","","","","","","",""
"html-keyboard-response","93","521586","0.0-3.0-11.0-6.0-3.0","spark_pilot_norest","8398","1","13","Male","","","","","","","null","<div style=""font-size:200px;color:red;"">1</div>","null","","","","","","","","","","","","",""
"revaluation","94","523078","0.0-3.0-11.0-7.0","spark_pilot_norest","8398","1","13","Male","","false","","","","","[1489.5]","./assets/img/space/15.jpg","[""ArrowDown""]","practice block","space","0","{""ArrowUp,ArrowLeft"":3,""ArrowUp,ArrowRight"":36,""ArrowDown,ArrowLeft"":15,""ArrowDown,ArrowRight"":23}","false","ArrowDown","false","","","","","",""
"html-keyboard-response","95","523584","0.0-3.0-11.0-8.0","spark_pilot_norest","8398","1","13","Male","","","","","","","null","<div style=""font-size:60px;"">+</div>","null","fixation","","","","","","","","","","","",""
"learning-instructions","96","536950","0.0-3.0-11.0-9.0-0.0","spark_pilot_norest","8398","1","13","Male","","","","","","","null","<p> Now you will see the animals again and can search their chests for treasure. </p>
            <p> This time, you will not see how much treasure you earned, but you will earn more bonus money for making better choices. </p>","","instructions","","","","","","","","","","","",""
"html-keyboard-response","97","537957","0.0-3.0-11.0-10.0-0.0","spark_pilot_norest","8398","1","13","Male","","","","","","","null","<div style=""font-size:100px;color:red;"">Starting in...</div>","null","","","","","","","","","","","","",""
"html-keyboard-response","98","538964","0.0-3.0-11.0-10.0-1.0","spark_pilot_norest","8398","1","13","Male","","","","","","","null","<div style=""font-size:200px;color:red;"">3</div>","null","","","","","","","","","","","","",""
"html-keyboard-response","99","539971","0.0-3.0-11.0-10.0-2.0","spark_pilot_norest","8398","1","13","Male","","","","","","","null","<div style=""font-size:200px;color:red;"">2</div>","null","","","","","","","","","","","","",""
"html-keyboard-response","100","540977","0.0-3.0-11.0-10.0-3.0","spark_pilot_norest","8398","1","13","Male","","","","","","","null","<div style=""font-size:200px;color:red;"">1</div>","null","","","","","","","","","","","","",""
"revaluation","101","541494","0.0-3.0-11.0-11.0-0.0","spark_pilot_norest","8398","1","13","Male","","false","","","","","[513.9000000001397]","./assets/img/space/animals/cat.jpg","[""ArrowRight""]","practice block","space","0","{""ArrowUp,ArrowLeft"":3,""ArrowUp,ArrowRight"":36,""ArrowDown,ArrowLeft"":15,""ArrowDown,ArrowRight"":23}","true","ArrowUp,ArrowRight","","","","","","",""
"html-keyboard-response","102","541999","0.0-3.0-11.0-11.0-1.0","spark_pilot_norest","8398","1","13","Male","","","","","","","null","<div style=""font-size:60px;"">+</div>","null","fixation","","","","","","","","","","","",""
"revaluation","103","542582","0.0-3.0-11.0-11.0-0.1","spark_pilot_norest","8398","1","13","Male","","false","","","","","[580.6999999999534]","./assets/img/space/animals/rabbit.jpg","[""ArrowRight""]","practice block","space","0","{""ArrowUp,ArrowLeft"":3,""ArrowUp,ArrowRight"":36,""ArrowDown,ArrowLeft"":15,""ArrowDown,ArrowRight"":23}","true","ArrowDown,ArrowRight","","","","","","",""
"html-keyboard-response","104","543083","0.0-3.0-11.0-11.0-1.1","spark_pilot_norest","8398","1","13","Male","","","","","","","null","<div style=""font-size:60px;"">+</div>","null","fixation","","","","","","","","","","","",""
"learning-instructions","105","549912","0.0-3.0-12.0-0.0","spark_pilot_norest","8398","1","13","Male","","","","","","","2253.5","<p> Before you start, we're going to ask you a few questions about how the game works. </p>","","instructions","","","","","","","","","","","",""
"comp-q","106","556630","0.0-3.0-13.0-0.0-0.0","spark_pilot_norest","8398","1","13","Male","","","","","","","1140","<p> <b> True or False? </b> </p>
            <p> There can be 50 pieces of treasure in a given animal's chest. </p>","1","comp_question","","","","true","","","","","","","",""
"comp-q","107","565350","0.0-3.0-13.0-0.0-1.0","spark_pilot_norest","8398","1","13","Male","","","","","","","2071.1999999999534","<p> <b> That's right! </b> The amount of treasure in each chest can range from 0 to 40 pieces. </p>","0","comp_answer","","","","","","","","","","","",""
"comp-q","108","573552","0.0-3.0-13.0-0.1-0.1","spark_pilot_norest","8398","1","13","Male","","","","","","","1093.5","<p> <b> True or False? </b> </p><p> In this game, all animals have the same amount of treasure in their left and right chests. </p>","1","comp_question","","","","true","","","","","","","",""
"comp-q","109","579664","0.0-3.0-13.0-0.1-1.1","spark_pilot_norest","8398","1","13","Male","","","","","","","885.3000000000466","<p> <b> That's right! </b> Animals have different amounts of treasure in their treasure chests. </p>","0","comp_answer","","","","","","","","","","","",""
"comp-q","110","587068","0.0-3.0-13.0-0.2-0.2","spark_pilot_norest","8398","1","13","Male","","","","","","","1559.5","<p> <b> True or False? </b> </p><p> The same animal will always be there if you go up in the same place. </p>","0","comp_question","","","","true","","","","","","","",""
"comp-q","111","597204","0.0-3.0-13.0-0.2-1.2","spark_pilot_norest","8398","1","13","Male","","","","","","","3695.100000000093","<p> <b> That's right! </b> One animal lives in the upper part and one lives in the lower part of every place. </p>","0","comp_answer","","","","","","","","","","","",""
"comp-q","112","603578","0.0-3.0-13.0-0.3-0.3","spark_pilot_norest","8398","1","13","Male","","","","","","","859.1000000000931","<p> <b> True or False? </b> </p><p> If you see a different picture, it means you are in a new place. </p>","0","comp_question","","","","false","","","","","","","",""
"comp-q","113","616268","0.0-3.0-13.0-0.3-1.3","spark_pilot_norest","8398","1","13","Male","","","","","","","1599.3999999999069","<p> <b>Incorrect.</b> Lots of different images may show the same place. For example,  you may see three different images that all remind you that you are in outer space. </p>","0","comp_answer","","","","","","","","","","","",""
"comp-q","114","623478","0.0-3.0-13.0-0.4-0.4","spark_pilot_norest","8398","1","13","Male","","","","","","","1699.3999999999069","<p> <b> True or False? </b> </p><p> If you see a different picture, it means you are in a new place. </p>","1","comp_question","","","","true","","","","","","","",""
"comp-q","115","637782","0.0-3.0-13.0-0.4-1.4","spark_pilot_norest","8398","1","13","Male","","","","","","","3073.3000000000466","<p> <b> That's right! </b> Lots of different images may show the same place. For example,  you may see three different images that all remind you that you are in outer space. </p>","0","comp_answer","","","","","","","","","","","",""
"learning-instructions","116","653578","0.0-3.0-14.0-0.0","spark_pilot_norest","8398","1","13","Male","","","","","","","5949.300000000047","<p> Good job. Remember to do your best because the amount of treasure you earn will be converted into bonus money. </p>
            <p> It’s time to start the real game! </p>","","instructions","","","","","","","","","","","",""
"learning-instructions","117","658450","0.0-4.0-0.0-0.0","spark_pilot_norest","8398","1","13","Male","","","","","","","2171.3000000000466","<p> This time you are searching for treasure in the <b>ocean</b>.</p>","","instructions","","","","","","","","","","","",""
"learning-instructions","118","678090","0.0-4.0-0.0-0.1","spark_pilot_norest","8398","1","13","Male","","","","","","","2351.5","<p><b>New</b> animals with <b>new</b> treasure chests live here. You need to explore to discover where the animal with the best treasure chest is.</p>
                    <p> Like before, once you figure out which animal has the chest with the most treasure, you should try to get to that animal and select that chest! </p>","","instructions","","","","","","","","","","","",""
"learning-instructions","119","695502","0.0-4.0-1.0-0.0","spark_pilot_norest","8398","1","13","Male","","","","","","","2683.3000000000466","<p> Remember, when you see a picture of the place, use the up and down keys to <b>find an animal</b>.</p>
            <p> When you encounter an animal, you should use the left and right keys to <b>select a treasure chest</b>.</p>
            <p> Don't forget to look out for the robber! </p>","","instructions","","","","","","","","","","","",""
"revaluation","120","701541","0.0-4.0-2.0-0.0","spark_pilot_norest","8398","1","13","Male","","false","","","","","[1646.5,723.5999999998603]","./assets/img/ocean/memory/37.jpg","[""ArrowDown"",""ArrowRight""]","value training","ocean","17","{""ArrowUp,ArrowLeft"":26,""ArrowUp,ArrowRight"":10,""ArrowDown,ArrowLeft"":5,""ArrowDown,ArrowRight"":17}","false","ArrowDown,ArrowRight","false","original","1","0","","",""
"html-keyboard-response","121","702052","0.0-4.0-2.0-1.0","spark_pilot_norest","8398","1","13","Male","","","","","","","null","<div style=""font-size:60px;"">+</div>","null","fixation","","","","","","","","","1","","",""
"revaluation","122","708092","0.0-4.0-2.0-0.1","spark_pilot_norest","8398","1","13","Male","","false","","","","","[471.5999999998603,364.19999999995343]","./assets/img/ocean/memory/7.jpg","[""ArrowDown"",""ArrowLeft""]","value training","ocean","5","{""ArrowUp,ArrowLeft"":26,""ArrowUp,ArrowRight"":10,""ArrowDown,ArrowLeft"":5,""ArrowDown,ArrowRight"":17}","false","ArrowDown,ArrowLeft","false","original","1","2","","",""
"html-keyboard-response","123","708603","0.0-4.0-2.0-1.1","spark_pilot_norest","8398","1","13","Male","","","","","","","null","<div style=""font-size:60px;"">+</div>","null","fixation","","","","","","","","","3","","",""
"revaluation","124","714644","0.0-4.0-2.0-0.2","spark_pilot_norest","8398","1","13","Male","","false","","","","","[400.80000000004657,437.10000000009313]","./assets/img/ocean/memory/32.jpg","[""ArrowUp"",""ArrowRight""]","value training","ocean","10","{""ArrowUp,ArrowLeft"":26,""ArrowUp,ArrowRight"":10,""ArrowDown,ArrowLeft"":5,""ArrowDown,ArrowRight"":17}","false","ArrowUp,ArrowRight","false","original","1","4","","",""
"html-keyboard-response","125","715154","0.0-4.0-2.0-1.2","spark_pilot_norest","8398","1","13","Male","","","","","","","null","<div style=""font-size:60px;"">+</div>","null","fixation","","","","","","","","","5","","",""
"revaluation","126","719181","0.0-4.0-2.0-0.3","spark_pilot_norest","8398","1","13","Male","","false","","","","","[537.6000000000931]","./assets/img/ocean/catch/7.jpg","[""ArrowUp""]","value training","ocean","-10","{""ArrowUp,ArrowLeft"":26,""ArrowUp,ArrowRight"":10,""ArrowDown,ArrowLeft"":5,""ArrowDown,ArrowRight"":17}","false","ArrowUp","true","original","1","6","","",""
"html-keyboard-response","127","719692","0.0-4.0-2.0-1.3","spark_pilot_norest","8398","1","13","Male","","","","","","","null","<div style=""font-size:60px;"">+</div>","null","fixation","","","","","","","","","7","","",""
"revaluation","128","725707","0.0-4.0-2.0-0.4","spark_pilot_norest","8398","1","13","Male","","false","","","","","[495.5999999998603,563.7000000001863]","./assets/img/ocean/memory/25.jpg","[""ArrowDown"",""ArrowRight""]","value training","ocean","17","{""ArrowUp,ArrowLeft"":26,""ArrowUp,ArrowRight"":10,""ArrowDown,ArrowLeft"":5,""ArrowDown,ArrowRight"":17}","false","ArrowDown,ArrowRight","false","original","1","8","","",""
"html-keyboard-response","129","726209","0.0-4.0-2.0-1.4","spark_pilot_norest","8398","1","13","Male","","","","","","","null","<div style=""font-size:60px;"">+</div>","null","fixation","","","","","","","","","9","","",""
"revaluation","130","732213","0.0-4.0-2.0-0.5","spark_pilot_norest","8398","1","13","Male","","false","","","","","[290.5,705.1999999999534]","./assets/img/ocean/memory/19.jpg","[""ArrowUp"",""ArrowLeft""]","value training","ocean","26","{""ArrowUp,ArrowLeft"":26,""ArrowUp,ArrowRight"":10,""ArrowDown,ArrowLeft"":5,""ArrowDown,ArrowRight"":17}","true","ArrowUp,ArrowLeft","false","original","1","10","","",""
"html-keyboard-response","131","732715","0.0-4.0-2.0-1.5","spark_pilot_norest","8398","1","13","Male","","","","","","","null","<div style=""font-size:60px;"">+</div>","null","fixation","","","","","","","","","11","","",""
"revaluation","132","738719","0.0-4.0-2.0-0.6","spark_pilot_norest","8398","1","13","Male","","false","","","","","[441.10000000009313,512.8000000000466]","./assets/img/ocean/memory/19.jpg","[""ArrowDown"",""ArrowRight""]","value training","ocean","17","{""ArrowUp,ArrowLeft"":26,""ArrowUp,ArrowRight"":10,""ArrowDown,ArrowLeft"":5,""ArrowDown,ArrowRight"":17}","false","ArrowDown,ArrowRight","false","original","1","12","","",""
"html-keyboard-response","133","739220","0.0-4.0-2.0-1.6","spark_pilot_norest","8398","1","13","Male","","","","","","","null","<div style=""font-size:60px;"">+</div>","null","fixation","","","","","","","","","13","","",""
"revaluation","134","745224","0.0-4.0-2.0-0.7","spark_pilot_norest","8398","1","13","Male","","false","","","","","[495.89999999990687,446.89999999990687]","./assets/img/ocean/memory/28.jpg","[""ArrowUp"",""ArrowLeft""]","value training","ocean","26","{""ArrowUp,ArrowLeft"":26,""ArrowUp,ArrowRight"":10,""ArrowDown,ArrowLeft"":5,""ArrowDown,ArrowRight"":17}","true","ArrowUp,ArrowLeft","false","original","1","14","","",""
"html-keyboard-response","135","745725","0.0-4.0-2.0-1.7","spark_pilot_norest","8398","1","13","Male","","","","","","","null","<div style=""font-size:60px;"">+</div>","null","fixation","","","","","","","","","15","","",""
"revaluation","136","749728","0.0-4.0-2.0-0.8","spark_pilot_norest","8398","1","13","Male","","false","","","","","[830.7000000001863]","./assets/img/ocean/catch/2.jpg","[""ArrowDown""]","value training","ocean","-10","{""ArrowUp,ArrowLeft"":26,""ArrowUp,ArrowRight"":10,""ArrowDown,ArrowLeft"":5,""ArrowDown,ArrowRight"":17}","false","ArrowDown","true","original","1","16","","",""
"html-keyboard-response","137","750229","0.0-4.0-2.0-1.8","spark_pilot_norest","8398","1","13","Male","","","","","","","null","<div style=""font-size:60px;"">+</div>","null","fixation","","","","","","","","","17","","",""
"revaluation","138","756233","0.0-4.0-2.0-0.9","spark_pilot_norest","8398","1","13","Male","","false","","","","","[1007.5,1070.2999999998137]","./assets/img/ocean/memory/35.jpg","[""ArrowDown"",""ArrowRight""]","value training","ocean","17","{""ArrowUp,ArrowLeft"":26,""ArrowUp,ArrowRight"":10,""ArrowDown,ArrowLeft"":5,""ArrowDown,ArrowRight"":17}","false","ArrowDown,ArrowRight","false","original","1","18","","",""
"html-keyboard-response","139","756735","0.0-4.0-2.0-1.9","spark_pilot_norest","8398","1","13","Male","","","","","","","null","<div style=""font-size:60px;"">+</div>","null","fixation","","","","","","","","","19","","",""
"revaluation","140","760738","0.0-4.0-2.0-0.10","spark_pilot_norest","8398","1","13","Male","","true","","","","","[]","./assets/img/ocean/catch/0.jpg","[]","value training","ocean","-5","{""ArrowUp,ArrowLeft"":26,""ArrowUp,ArrowRight"":10,""ArrowDown,ArrowLeft"":5,""ArrowDown,ArrowRight"":17}","false","","true","original","1","20","","",""
"html-keyboard-response","141","761239","0.0-4.0-2.0-1.10","spark_pilot_norest","8398","1","13","Male","","","","","","","null","<div style=""font-size:60px;"">+</div>","null","fixation","","","","","","","","","21","","",""
"revaluation","142","767242","0.0-4.0-2.0-0.11","spark_pilot_norest","8398","1","13","Male","","false","","","","","[517.8999999999069,541]","./assets/img/ocean/memory/2.jpg","[""ArrowDown"",""ArrowRight""]","value training","ocean","17","{""ArrowUp,ArrowLeft"":26,""ArrowUp,ArrowRight"":10,""ArrowDown,ArrowLeft"":5,""ArrowDown,ArrowRight"":17}","false","ArrowDown,ArrowRight","false","original","1","22","","",""
"html-keyboard-response","143","767744","0.0-4.0-2.0-1.11","spark_pilot_norest","8398","1","13","Male","","","","","","","null","<div style=""font-size:60px;"">+</div>","null","fixation","","","","","","","","","23","","",""
"revaluation","144","773749","0.0-4.0-2.0-0.12","spark_pilot_norest","8398","1","13","Male","","false","","","","","[1268,682.6000000000931]","./assets/img/ocean/memory/17.jpg","[""ArrowDown"",""ArrowRight""]","value training","ocean","17","{""ArrowUp,ArrowLeft"":26,""ArrowUp,ArrowRight"":10,""ArrowDown,ArrowLeft"":5,""ArrowDown,ArrowRight"":17}","false","ArrowDown,ArrowRight","false","original","1","24","","",""
"html-keyboard-response","145","774250","0.0-4.0-2.0-1.12","spark_pilot_norest","8398","1","13","Male","","","","","","","null","<div style=""font-size:60px;"">+</div>","null","fixation","","","","","","","","","25","","",""
"revaluation","146","780255","0.0-4.0-2.0-0.13","spark_pilot_norest","8398","1","13","Male","","false","","","","","[578.1999999999534,473]","./assets/img/ocean/memory/32.jpg","[""ArrowDown"",""ArrowRight""]","value training","ocean","17","{""ArrowUp,ArrowLeft"":26,""ArrowUp,ArrowRight"":10,""ArrowDown,ArrowLeft"":5,""ArrowDown,ArrowRight"":17}","false","ArrowDown,ArrowRight","false","original","1","26","","",""
"html-keyboard-response","147","780756","0.0-4.0-2.0-1.13","spark_pilot_norest","8398","1","13","Male","","","","","","","null","<div style=""font-size:60px;"">+</div>","null","fixation","","","","","","","","","27","","",""
"revaluation","148","786761","0.0-4.0-2.0-0.14","spark_pilot_norest","8398","1","13","Male","","true","","","","","[1072.5]","./assets/img/ocean/memory/2.jpg","[""ArrowDown""]","value training","ocean","-5","{""ArrowUp,ArrowLeft"":26,""ArrowUp,ArrowRight"":10,""ArrowDown,ArrowLeft"":5,""ArrowDown,ArrowRight"":17}","false","ArrowDown","false","original","1","28","","",""
"html-keyboard-response","149","787262","0.0-4.0-2.0-1.14","spark_pilot_norest","8398","1","13","Male","","","","","","","null","<div style=""font-size:60px;"">+</div>","null","fixation","","","","","","","","","29","","",""
"revaluation","150","793265","0.0-4.0-2.0-0.15","spark_pilot_norest","8398","1","13","Male","","false","","","","","[486.60000000009313,518.1999999999534]","./assets/img/ocean/memory/35.jpg","[""ArrowDown"",""ArrowRight""]","value training","ocean","17","{""ArrowUp,ArrowLeft"":26,""ArrowUp,ArrowRight"":10,""ArrowDown,ArrowLeft"":5,""ArrowDown,ArrowRight"":17}","false","ArrowDown,ArrowRight","false","original","1","30","","",""
"html-keyboard-response","151","793766","0.0-4.0-2.0-1.15","spark_pilot_norest","8398","1","13","Male","","","","","","","null","<div style=""font-size:60px;"">+</div>","null","fixation","","","","","","","","","31","","",""
"revaluation","152","799770","0.0-4.0-2.0-0.16","spark_pilot_norest","8398","1","13","Male","","false","","","","","[390,1397.3000000000466]","./assets/img/ocean/memory/36.jpg","[""ArrowDown"",""ArrowRight""]","value training","ocean","17","{""ArrowUp,ArrowLeft"":26,""ArrowUp,ArrowRight"":10,""ArrowDown,ArrowLeft"":5,""ArrowDown,ArrowRight"":17}","false","ArrowDown,ArrowRight","false","original","1","32","","",""
"html-keyboard-response","153","800271","0.0-4.0-2.0-1.16","spark_pilot_norest","8398","1","13","Male","","","","","","","null","<div style=""font-size:60px;"">+</div>","null","fixation","","","","","","","","","33","","",""
"revaluation","154","806275","0.0-4.0-2.0-0.17","spark_pilot_norest","8398","1","13","Male","","false","","","","","[501,339.79999999981374]","./assets/img/ocean/memory/6.jpg","[""ArrowDown"",""ArrowRight""]","value training","ocean","17","{""ArrowUp,ArrowLeft"":26,""ArrowUp,ArrowRight"":10,""ArrowDown,ArrowLeft"":5,""ArrowDown,ArrowRight"":17}","false","ArrowDown,ArrowRight","false","original","1","34","","",""
"html-keyboard-response","155","806777","0.0-4.0-2.0-1.17","spark_pilot_norest","8398","1","13","Male","","","","","","","null","<div style=""font-size:60px;"">+</div>","null","fixation","","","","","","","","","35","","",""
"revaluation","156","812781","0.0-4.0-2.0-0.18","spark_pilot_norest","8398","1","13","Male","","false","","","","","[299.30000000004657,402.29999999981374]","./assets/img/ocean/memory/36.jpg","[""ArrowUp"",""ArrowLeft""]","value training","ocean","26","{""ArrowUp,ArrowLeft"":26,""ArrowUp,ArrowRight"":10,""ArrowDown,ArrowLeft"":5,""ArrowDown,ArrowRight"":17}","true","ArrowUp,ArrowLeft","false","original","1","36","","",""
"html-keyboard-response","157","813282","0.0-4.0-2.0-1.18","spark_pilot_norest","8398","1","13","Male","","","","","","","null","<div style=""font-size:60px;"">+</div>","null","fixation","","","","","","","","","37","","",""
"revaluation","158","819286","0.0-4.0-2.0-0.19","spark_pilot_norest","8398","1","13","Male","","false","","","","","[298.30000000004657,321.5]","./assets/img/ocean/memory/1.jpg","[""ArrowDown"",""ArrowRight""]","value training","ocean","17","{""ArrowUp,ArrowLeft"":26,""ArrowUp,ArrowRight"":10,""ArrowDown,ArrowLeft"":5,""ArrowDown,ArrowRight"":17}","false","ArrowDown,ArrowRight","false","original","1","38","","",""
"html-keyboard-response","159","819787","0.0-4.0-2.0-1.19","spark_pilot_norest","8398","1","13","Male","","","","","","","null","<div style=""font-size:60px;"">+</div>","null","fixation","","","","","","","","","39","","",""
"revaluation","160","823790","0.0-4.0-2.0-0.20","spark_pilot_norest","8398","1","13","Male","","false","","","","","[425.30000000004657]","./assets/img/ocean/catch/4.jpg","[""ArrowDown""]","value training","ocean","-10","{""ArrowUp,ArrowLeft"":26,""ArrowUp,ArrowRight"":10,""ArrowDown,ArrowLeft"":5,""ArrowDown,ArrowRight"":17}","false","ArrowDown","true","original","1","40","","",""
"html-keyboard-response","161","824291","0.0-4.0-2.0-1.20","spark_pilot_norest","8398","1","13","Male","","","","","","","null","<div style=""font-size:60px;"">+</div>","null","fixation","","","","","","","","","41","","",""
"revaluation","162","830294","0.0-4.0-2.0-0.21","spark_pilot_norest","8398","1","13","Male","","false","","","","","[434,1073.1000000000931]","./assets/img/ocean/memory/0.jpg","[""ArrowDown"",""ArrowRight""]","value training","ocean","17","{""ArrowUp,ArrowLeft"":26,""ArrowUp,ArrowRight"":10,""ArrowDown,ArrowLeft"":5,""ArrowDown,ArrowRight"":17}","false","ArrowDown,ArrowRight","false","original","1","42","","",""
"html-keyboard-response","163","830796","0.0-4.0-2.0-1.21","spark_pilot_norest","8398","1","13","Male","","","","","","","null","<div style=""font-size:60px;"">+</div>","null","fixation","","","","","","","","","43","","",""
"revaluation","164","836803","0.0-4.0-2.0-0.22","spark_pilot_norest","8398","1","13","Male","","false","","","","","[592.8999999999069,1140.6000000000931]","./assets/img/ocean/memory/14.jpg","[""ArrowDown"",""ArrowLeft""]","value training","ocean","5","{""ArrowUp,ArrowLeft"":26,""ArrowUp,ArrowRight"":10,""ArrowDown,ArrowLeft"":5,""ArrowDown,ArrowRight"":17}","false","ArrowDown,ArrowLeft","false","original","1","44","","",""
"html-keyboard-response","165","837304","0.0-4.0-2.0-1.22","spark_pilot_norest","8398","1","13","Male","","","","","","","null","<div style=""font-size:60px;"">+</div>","null","fixation","","","","","","","","","45","","",""
"revaluation","166","843307","0.0-4.0-2.0-0.23","spark_pilot_norest","8398","1","13","Male","","false","","","","","[461,612.3000000000466]","./assets/img/ocean/memory/40.jpg","[""ArrowDown"",""ArrowRight""]","value training","ocean","17","{""ArrowUp,ArrowLeft"":26,""ArrowUp,ArrowRight"":10,""ArrowDown,ArrowLeft"":5,""ArrowDown,ArrowRight"":17}","false","ArrowDown,ArrowRight","false","original","1","46","","",""
"html-keyboard-response","167","843809","0.0-4.0-2.0-1.23","spark_pilot_norest","8398","1","13","Male","","","","","","","null","<div style=""font-size:60px;"">+</div>","null","fixation","","","","","","","","","47","","",""
"revaluation","168","849814","0.0-4.0-2.0-0.24","spark_pilot_norest","8398","1","13","Male","","false","","","","","[363.39999999990687,610.1999999999534]","./assets/img/ocean/memory/3.jpg","[""ArrowUp"",""ArrowLeft""]","value training","ocean","26","{""ArrowUp,ArrowLeft"":26,""ArrowUp,ArrowRight"":10,""ArrowDown,ArrowLeft"":5,""ArrowDown,ArrowRight"":17}","true","ArrowUp,ArrowLeft","false","original","1","48","","",""
"html-keyboard-response","169","850315","0.0-4.0-2.0-1.24","spark_pilot_norest","8398","1","13","Male","","","","","","","null","<div style=""font-size:60px;"">+</div>","null","fixation","","","","","","","","","49","","",""
"revaluation","170","856318","0.0-4.0-2.0-0.25","spark_pilot_norest","8398","1","13","Male","","false","","","","","[409.60000000009313,425.30000000004657]","./assets/img/ocean/memory/21.jpg","[""ArrowUp"",""ArrowLeft""]","value training","ocean","26","{""ArrowUp,ArrowLeft"":26,""ArrowUp,ArrowRight"":10,""ArrowDown,ArrowLeft"":5,""ArrowDown,ArrowRight"":17}","true","ArrowUp,ArrowLeft","false","original","1","50","","",""
"html-keyboard-response","171","856819","0.0-4.0-2.0-1.25","spark_pilot_norest","8398","1","13","Male","","","","","","","null","<div style=""font-size:60px;"">+</div>","null","fixation","","","","","","","","","51","","",""
"revaluation","172","862823","0.0-4.0-2.0-0.26","spark_pilot_norest","8398","1","13","Male","","false","","","","","[329.30000000004657,376.39999999990687]","./assets/img/ocean/memory/22.jpg","[""ArrowUp"",""ArrowLeft""]","value training","ocean","26","{""ArrowUp,ArrowLeft"":26,""ArrowUp,ArrowRight"":10,""ArrowDown,ArrowLeft"":5,""ArrowDown,ArrowRight"":17}","true","ArrowUp,ArrowLeft","false","original","1","52","","",""
"html-keyboard-response","173","863324","0.0-4.0-2.0-1.26","spark_pilot_norest","8398","1","13","Male","","","","","","","null","<div style=""font-size:60px;"">+</div>","null","fixation","","","","","","","","","53","","",""
"revaluation","174","869327","0.0-4.0-2.0-0.27","spark_pilot_norest","8398","1","13","Male","","false","","","","","[584.6999999999534,743.3999999999069]","./assets/img/ocean/memory/41.jpg","[""ArrowUp"",""ArrowLeft""]","value training","ocean","26","{""ArrowUp,ArrowLeft"":26,""ArrowUp,ArrowRight"":10,""ArrowDown,ArrowLeft"":5,""ArrowDown,ArrowRight"":17}","true","ArrowUp,ArrowLeft","false","original","1","54","","",""
"html-keyboard-response","175","869828","0.0-4.0-2.0-1.27","spark_pilot_norest","8398","1","13","Male","","","","","","","null","<div style=""font-size:60px;"">+</div>","null","fixation","","","","","","","","","55","","",""
"revaluation","176","875832","0.0-4.0-2.0-0.28","spark_pilot_norest","8398","1","13","Male","","false","","","","","[448.20000000018626,415.5]","./assets/img/ocean/memory/25.jpg","[""ArrowUp"",""ArrowLeft""]","value training","ocean","26","{""ArrowUp,ArrowLeft"":26,""ArrowUp,ArrowRight"":10,""ArrowDown,ArrowLeft"":5,""ArrowDown,ArrowRight"":17}","true","ArrowUp,ArrowLeft","false","original","1","56","","",""
"html-keyboard-response","177","876333","0.0-4.0-2.0-1.28","spark_pilot_norest","8398","1","13","Male","","","","","","","null","<div style=""font-size:60px;"">+</div>","null","fixation","","","","","","","","","57","","",""
"revaluation","178","882337","0.0-4.0-2.0-0.29","spark_pilot_norest","8398","1","13","Male","","false","","","","","[399.80000000004657,414.60000000009313]","./assets/img/ocean/memory/12.jpg","[""ArrowUp"",""ArrowLeft""]","value training","ocean","26","{""ArrowUp,ArrowLeft"":26,""ArrowUp,ArrowRight"":10,""ArrowDown,ArrowLeft"":5,""ArrowDown,ArrowRight"":17}","true","ArrowUp,ArrowLeft","false","original","1","58","","",""
"html-keyboard-response","179","882838","0.0-4.0-2.0-1.29","spark_pilot_norest","8398","1","13","Male","","","","","","","null","<div style=""font-size:60px;"">+</div>","null","fixation","","","","","","","","","59","","",""
"revaluation","180","888842","0.0-4.0-2.0-0.30","spark_pilot_norest","8398","1","13","Male","","false","","","","","[558.3999999999069,693.6000000000931]","./assets/img/ocean/memory/28.jpg","[""ArrowUp"",""ArrowLeft""]","value training","ocean","26","{""ArrowUp,ArrowLeft"":26,""ArrowUp,ArrowRight"":10,""ArrowDown,ArrowLeft"":5,""ArrowDown,ArrowRight"":17}","true","ArrowUp,ArrowLeft","false","original","1","60","","",""
"html-keyboard-response","181","889343","0.0-4.0-2.0-1.30","spark_pilot_norest","8398","1","13","Male","","","","","","","null","<div style=""font-size:60px;"">+</div>","null","fixation","","","","","","","","","61","","",""
"revaluation","182","895347","0.0-4.0-2.0-0.31","spark_pilot_norest","8398","1","13","Male","","false","","","","","[709.3999999999069,565.1999999999534]","./assets/img/ocean/memory/6.jpg","[""ArrowUp"",""ArrowLeft""]","value training","ocean","26","{""ArrowUp,ArrowLeft"":26,""ArrowUp,ArrowRight"":10,""ArrowDown,ArrowLeft"":5,""ArrowDown,ArrowRight"":17}","true","ArrowUp,ArrowLeft","false","original","1","62","","",""
"html-keyboard-response","183","895848","0.0-4.0-2.0-1.31","spark_pilot_norest","8398","1","13","Male","","","","","","","null","<div style=""font-size:60px;"">+</div>","null","fixation","","","","","","","","","63","","",""
"revaluation","184","901852","0.0-4.0-2.0-0.32","spark_pilot_norest","8398","1","13","Male","","false","","","","","[524.6999999999534,475.19999999995343]","./assets/img/ocean/memory/22.jpg","[""ArrowUp"",""ArrowLeft""]","value training","ocean","26","{""ArrowUp,ArrowLeft"":26,""ArrowUp,ArrowRight"":10,""ArrowDown,ArrowLeft"":5,""ArrowDown,ArrowRight"":17}","true","ArrowUp,ArrowLeft","false","original","1","64","","",""
"html-keyboard-response","185","902353","0.0-4.0-2.0-1.32","spark_pilot_norest","8398","1","13","Male","","","","","","","null","<div style=""font-size:60px;"">+</div>","null","fixation","","","","","","","","","65","","",""
"revaluation","186","908356","0.0-4.0-2.0-0.33","spark_pilot_norest","8398","1","13","Male","","false","","","","","[443.4000000001397,594.9000000001397]","./assets/img/ocean/memory/8.jpg","[""ArrowUp"",""ArrowLeft""]","value training","ocean","26","{""ArrowUp,ArrowLeft"":26,""ArrowUp,ArrowRight"":10,""ArrowDown,ArrowLeft"":5,""ArrowDown,ArrowRight"":17}","true","ArrowUp,ArrowLeft","false","original","1","66","","",""
"html-keyboard-response","187","908858","0.0-4.0-2.0-1.33","spark_pilot_norest","8398","1","13","Male","","","","","","","null","<div style=""font-size:60px;"">+</div>","null","fixation","","","","","","","","","67","","",""
"revaluation","188","914862","0.0-4.0-2.0-0.34","spark_pilot_norest","8398","1","13","Male","","true","","","","","[625.8000000000466]","./assets/img/ocean/memory/37.jpg","[""ArrowUp""]","value training","ocean","-5","{""ArrowUp,ArrowLeft"":26,""ArrowUp,ArrowRight"":10,""ArrowDown,ArrowLeft"":5,""ArrowDown,ArrowRight"":17}","false","ArrowUp","false","original","1","68","","",""
"html-keyboard-response","189","915363","0.0-4.0-2.0-1.34","spark_pilot_norest","8398","1","13","Male","","","","","","","null","<div style=""font-size:60px;"">+</div>","null","fixation","","","","","","","","","69","","",""
"revaluation","190","919366","0.0-4.0-2.0-0.35","spark_pilot_norest","8398","1","13","Male","","false","","","","","[1761.8000000000466]","./assets/img/ocean/catch/3.jpg","[""ArrowUp""]","value training","ocean","-10","{""ArrowUp,ArrowLeft"":26,""ArrowUp,ArrowRight"":10,""ArrowDown,ArrowLeft"":5,""ArrowDown,ArrowRight"":17}","false","ArrowUp","true","original","1","70","","",""
"html-keyboard-response","191","919867","0.0-4.0-2.0-1.35","spark_pilot_norest","8398","1","13","Male","","","","","","","null","<div style=""font-size:60px;"">+</div>","null","fixation","","","","","","","","","71","","",""
"revaluation","192","925872","0.0-4.0-2.0-0.36","spark_pilot_norest","8398","1","13","Male","","false","","","","","[513.5,433.19999999995343]","./assets/img/ocean/memory/7.jpg","[""ArrowUp"",""ArrowLeft""]","value training","ocean","26","{""ArrowUp,ArrowLeft"":26,""ArrowUp,ArrowRight"":10,""ArrowDown,ArrowLeft"":5,""ArrowDown,ArrowRight"":17}","true","ArrowUp,ArrowLeft","false","original","1","72","","",""
"html-keyboard-response","193","926373","0.0-4.0-2.0-1.36","spark_pilot_norest","8398","1","13","Male","","","","","","","null","<div style=""font-size:60px;"">+</div>","null","fixation","","","","","","","","","73","","",""
"revaluation","194","932377","0.0-4.0-2.0-0.37","spark_pilot_norest","8398","1","13","Male","","false","","","","","[406.9000000001397,646.8000000000466]","./assets/img/ocean/memory/3.jpg","[""ArrowUp"",""ArrowLeft""]","value training","ocean","26","{""ArrowUp,ArrowLeft"":26,""ArrowUp,ArrowRight"":10,""ArrowDown,ArrowLeft"":5,""ArrowDown,ArrowRight"":17}","true","ArrowUp,ArrowLeft","false","original","1","74","","",""
"html-keyboard-response","195","932878","0.0-4.0-2.0-1.37","spark_pilot_norest","8398","1","13","Male","","","","","","","null","<div style=""font-size:60px;"">+</div>","null","fixation","","","","","","","","","75","","",""
"revaluation","196","938883","0.0-4.0-2.0-0.38","spark_pilot_norest","8398","1","13","Male","","false","","","","","[414.10000000009313,789.5]","./assets/img/ocean/memory/1.jpg","[""ArrowUp"",""ArrowLeft""]","value training","ocean","26","{""ArrowUp,ArrowLeft"":26,""ArrowUp,ArrowRight"":10,""ArrowDown,ArrowLeft"":5,""ArrowDown,ArrowRight"":17}","true","ArrowUp,ArrowLeft","false","original","1","76","","",""
"html-keyboard-response","197","939384","0.0-4.0-2.0-1.38","spark_pilot_norest","8398","1","13","Male","","","","","","","null","<div style=""font-size:60px;"">+</div>","null","fixation","","","","","","","","","77","","",""
"revaluation","198","945388","0.0-4.0-2.0-0.39","spark_pilot_norest","8398","1","13","Male","","false","","","","","[612.6999999999534,571.6000000000931]","./assets/img/ocean/memory/17.jpg","[""ArrowUp"",""ArrowLeft""]","value training","ocean","26","{""ArrowUp,ArrowLeft"":26,""ArrowUp,ArrowRight"":10,""ArrowDown,ArrowLeft"":5,""ArrowDown,ArrowRight"":17}","true","ArrowUp,ArrowLeft","false","original","1","78","","",""
"html-keyboard-response","199","945889","0.0-4.0-2.0-1.39","spark_pilot_norest","8398","1","13","Male","","","","","","","null","<div style=""font-size:60px;"">+</div>","null","fixation","","","","","","","","","79","","",""
"revaluation","200","949892","0.0-4.0-2.0-0.40","spark_pilot_norest","8398","1","13","Male","","false","","","","","[891.3000000000466]","./assets/img/ocean/catch/5.jpg","[""ArrowUp""]","value training","ocean","-10","{""ArrowUp,ArrowLeft"":26,""ArrowUp,ArrowRight"":10,""ArrowDown,ArrowLeft"":5,""ArrowDown,ArrowRight"":17}","false","ArrowUp","true","original","1","80","","",""
"html-keyboard-response","201","950393","0.0-4.0-2.0-1.40","spark_pilot_norest","8398","1","13","Male","","","","","","","null","<div style=""font-size:60px;"">+</div>","null","fixation","","","","","","","","","81","","",""
"revaluation","202","956396","0.0-4.0-2.0-0.41","spark_pilot_norest","8398","1","13","Male","","false","","","","","[683.3000000000466,1291]","./assets/img/ocean/memory/21.jpg","[""ArrowUp"",""ArrowLeft""]","value training","ocean","26","{""ArrowUp,ArrowLeft"":26,""ArrowUp,ArrowRight"":10,""ArrowDown,ArrowLeft"":5,""ArrowDown,ArrowRight"":17}","true","ArrowUp,ArrowLeft","false","original","1","82","","",""
"html-keyboard-response","203","956898","0.0-4.0-2.0-1.41","spark_pilot_norest","8398","1","13","Male","","","","","","","null","<div style=""font-size:60px;"">+</div>","null","fixation","","","","","","","","","83","","",""
"revaluation","204","962902","0.0-4.0-2.0-0.42","spark_pilot_norest","8398","1","13","Male","","false","","","","","[978.9000000001397,433.69999999995343]","./assets/img/ocean/memory/8.jpg","[""ArrowDown"",""ArrowRight""]","value training","ocean","17","{""ArrowUp,ArrowLeft"":26,""ArrowUp,ArrowRight"":10,""ArrowDown,ArrowLeft"":5,""ArrowDown,ArrowRight"":17}","false","ArrowDown,ArrowRight","false","original","1","84","","",""
"html-keyboard-response","205","963403","0.0-4.0-2.0-1.42","spark_pilot_norest","8398","1","13","Male","","","","","","","null","<div style=""font-size:60px;"">+</div>","null","fixation","","","","","","","","","85","","",""
"revaluation","206","967406","0.0-4.0-2.0-0.43","spark_pilot_norest","8398","1","13","Male","","false","","","","","[857.5999999998603]","./assets/img/ocean/catch/1.jpg","[""ArrowUp""]","value training","ocean","-10","{""ArrowUp,ArrowLeft"":26,""ArrowUp,ArrowRight"":10,""ArrowDown,ArrowLeft"":5,""ArrowDown,ArrowRight"":17}","false","ArrowUp","true","original","1","86","","",""
"html-keyboard-response","207","967907","0.0-4.0-2.0-1.43","spark_pilot_norest","8398","1","13","Male","","","","","","","null","<div style=""font-size:60px;"">+</div>","null","fixation","","","","","","","","","87","","",""
"revaluation","208","973911","0.0-4.0-2.0-0.44","spark_pilot_norest","8398","1","13","Male","","false","","","","","[584.6999999999534,759.8000000000466]","./assets/img/ocean/memory/40.jpg","[""ArrowDown"",""ArrowRight""]","value training","ocean","17","{""ArrowUp,ArrowLeft"":26,""ArrowUp,ArrowRight"":10,""ArrowDown,ArrowLeft"":5,""ArrowDown,ArrowRight"":17}","false","ArrowDown,ArrowRight","false","original","1","88","","",""
"html-keyboard-response","209","974412","0.0-4.0-2.0-1.44","spark_pilot_norest","8398","1","13","Male","","","","","","","null","<div style=""font-size:60px;"">+</div>","null","fixation","","","","","","","","","89","","",""
"revaluation","210","980417","0.0-4.0-2.0-0.45","spark_pilot_norest","8398","1","13","Male","","false","","","","","[711.8999999999069,487.5]","./assets/img/ocean/memory/0.jpg","[""ArrowDown"",""ArrowRight""]","value training","ocean","17","{""ArrowUp,ArrowLeft"":26,""ArrowUp,ArrowRight"":10,""ArrowDown,ArrowLeft"":5,""ArrowDown,ArrowRight"":17}","false","ArrowDown,ArrowRight","false","original","1","90","","",""
"html-keyboard-response","211","980918","0.0-4.0-2.0-1.45","spark_pilot_norest","8398","1","13","Male","","","","","","","null","<div style=""font-size:60px;"">+</div>","null","fixation","","","","","","","","","91","","",""
"revaluation","212","984922","0.0-4.0-2.0-0.46","spark_pilot_norest","8398","1","13","Male","","false","","","","","[1254]","./assets/img/ocean/catch/6.jpg","[""ArrowDown""]","value training","ocean","-10","{""ArrowUp,ArrowLeft"":26,""ArrowUp,ArrowRight"":10,""ArrowDown,ArrowLeft"":5,""ArrowDown,ArrowRight"":17}","false","ArrowDown","true","original","1","92","","",""
"html-keyboard-response","213","985423","0.0-4.0-2.0-1.46","spark_pilot_norest","8398","1","13","Male","","","","","","","null","<div style=""font-size:60px;"">+</div>","null","fixation","","","","","","","","","93","","",""
"revaluation","214","991428","0.0-4.0-2.0-0.47","spark_pilot_norest","8398","1","13","Male","","false","","","","","[1629,1107.6999999999534]","./assets/img/ocean/memory/12.jpg","[""ArrowUp"",""ArrowRight""]","value training","ocean","10","{""ArrowUp,ArrowLeft"":26,""ArrowUp,ArrowRight"":10,""ArrowDown,ArrowLeft"":5,""ArrowDown,ArrowRight"":17}","false","ArrowUp,ArrowRight","false","original","1","94","","",""
"html-keyboard-response","215","991929","0.0-4.0-2.0-1.47","spark_pilot_norest","8398","1","13","Male","","","","","","","null","<div style=""font-size:60px;"">+</div>","null","fixation","","","","","","","","","95","","",""
"revaluation","216","997934","0.0-4.0-2.0-0.48","spark_pilot_norest","8398","1","13","Male","","false","","","","","[347.5,427.10000000009313]","./assets/img/ocean/memory/14.jpg","[""ArrowUp"",""ArrowRight""]","value training","ocean","10","{""ArrowUp,ArrowLeft"":26,""ArrowUp,ArrowRight"":10,""ArrowDown,ArrowLeft"":5,""ArrowDown,ArrowRight"":17}","false","ArrowUp,ArrowRight","false","original","1","96","","",""
"html-keyboard-response","217","998435","0.0-4.0-2.0-1.48","spark_pilot_norest","8398","1","13","Male","","","","","","","null","<div style=""font-size:60px;"">+</div>","null","fixation","","","","","","","","","97","","",""
"revaluation","218","1004438","0.0-4.0-2.0-0.49","spark_pilot_norest","8398","1","13","Male","","false","","","","","[321.9000000001397,368.70000000018626]","./assets/img/ocean/memory/41.jpg","[""ArrowUp"",""ArrowLeft""]","value training","ocean","26","{""ArrowUp,ArrowLeft"":26,""ArrowUp,ArrowRight"":10,""ArrowDown,ArrowLeft"":5,""ArrowDown,ArrowRight"":17}","true","ArrowUp,ArrowLeft","false","original","1","98","","",""
"html-keyboard-response","219","1004940","0.0-4.0-2.0-1.49","spark_pilot_norest","8398","1","13","Male","","","","","","","null","<div style=""font-size:60px;"">+</div>","null","fixation","","","","","","","","","99","","",""
"learning-instructions","220","1028118","0.0-4.0-3.0-0.0","spark_pilot_norest","8398","1","13","Male","","","","","","","10269.299999999814","<p> Now, you will travel with a friend who will choose whether you go up or down first. </p>
            <p> On these turns, you will just see the animal that they found. You will still get to choose which chest to search for treasure.</p>","","instructions","","","","","","","","","","","",""
"revaluation","221","1032147","0.0-4.0-4.0-0.0","spark_pilot_norest","8398","1","13","Male","","false","","","","","[1286.4000000001397]","./assets/img/ocean/animals/octopus.jpg","[""ArrowLeft""]","revaluation","ocean","5","{""ArrowUp,ArrowLeft"":26,""ArrowUp,ArrowRight"":10,""ArrowDown,ArrowLeft"":5,""ArrowDown,ArrowRight"":17}","false","ArrowDown,ArrowLeft","","original","1","0","","",""
"html-keyboard-response","222","1032658","0.0-4.0-4.0-1.0","spark_pilot_norest","8398","1","13","Male","","","","","","","null","<div style=""font-size:60px;"">+</div>","null","fixation","","","","","","","","","1","","",""
"revaluation","223","1036685","0.0-4.0-4.0-0.1","spark_pilot_norest","8398","1","13","Male","","false","","","","","[1154.5]","./assets/img/ocean/animals/seahorse.jpg","[""ArrowLeft""]","revaluation","ocean","26","{""ArrowUp,ArrowLeft"":26,""ArrowUp,ArrowRight"":10,""ArrowDown,ArrowLeft"":5,""ArrowDown,ArrowRight"":17}","true","ArrowUp,ArrowLeft","","original","1","2","","",""
"html-keyboard-response","224","1037196","0.0-4.0-4.0-1.1","spark_pilot_norest","8398","1","13","Male","","","","","","","null","<div style=""font-size:60px;"">+</div>","null","fixation","","","","","","","","","3","","",""
"revaluation","225","1041223","0.0-4.0-4.0-0.2","spark_pilot_norest","8398","1","13","Male","","false","","","","","[712.6000000000931]","./assets/img/ocean/animals/octopus.jpg","[""ArrowRight""]","revaluation","ocean","17","{""ArrowUp,ArrowLeft"":26,""ArrowUp,ArrowRight"":10,""ArrowDown,ArrowLeft"":5,""ArrowDown,ArrowRight"":17}","true","ArrowDown,ArrowRight","","original","1","4","","",""
"html-keyboard-response","226","1041734","0.0-4.0-4.0-1.2","spark_pilot_norest","8398","1","13","Male","","","","","","","null","<div style=""font-size:60px;"">+</div>","null","fixation","","","","","","","","","5","","",""
"revaluation","227","1045761","0.0-4.0-4.0-0.3","spark_pilot_norest","8398","1","13","Male","","false","","","","","[575]","./assets/img/ocean/animals/octopus.jpg","[""ArrowRight""]","revaluation","ocean","17","{""ArrowUp,ArrowLeft"":26,""ArrowUp,ArrowRight"":10,""ArrowDown,ArrowLeft"":5,""ArrowDown,ArrowRight"":17}","true","ArrowDown,ArrowRight","","original","1","6","","",""
"html-keyboard-response","228","1046271","0.0-4.0-4.0-1.3","spark_pilot_norest","8398","1","13","Male","","","","","","","null","<div style=""font-size:60px;"">+</div>","null","fixation","","","","","","","","","7","","",""
"revaluation","229","1050274","0.0-4.0-4.0-0.4","spark_pilot_norest","8398","1","13","Male","","false","","","","","[452.70000000018626]","./assets/img/ocean/animals/octopus.jpg","[""ArrowRight""]","revaluation","ocean","17","{""ArrowUp,ArrowLeft"":26,""ArrowUp,ArrowRight"":10,""ArrowDown,ArrowLeft"":5,""ArrowDown,ArrowRight"":17}","true","ArrowDown,ArrowRight","","original","1","8","","",""
"html-keyboard-response","230","1050776","0.0-4.0-4.0-1.4","spark_pilot_norest","8398","1","13","Male","","","","","","","null","<div style=""font-size:60px;"">+</div>","null","fixation","","","","","","","","","9","","",""
"revaluation","231","1054779","0.0-4.0-4.0-0.5","spark_pilot_norest","8398","1","13","Male","","false","","","","","[980.3000000000466]","./assets/img/ocean/animals/seahorse.jpg","[""ArrowLeft""]","revaluation","ocean","26","{""ArrowUp,ArrowLeft"":26,""ArrowUp,ArrowRight"":10,""ArrowDown,ArrowLeft"":5,""ArrowDown,ArrowRight"":17}","true","ArrowUp,ArrowLeft","","original","1","10","","",""
"html-keyboard-response","232","1055280","0.0-4.0-4.0-1.5","spark_pilot_norest","8398","1","13","Male","","","","","","","null","<div style=""font-size:60px;"">+</div>","null","fixation","","","","","","","","","11","","",""
"revaluation","233","1059283","0.0-4.0-4.0-0.6","spark_pilot_norest","8398","1","13","Male","","false","","","","","[675.8999999999069]","./assets/img/ocean/animals/seahorse.jpg","[""ArrowLeft""]","revaluation","ocean","26","{""ArrowUp,ArrowLeft"":26,""ArrowUp,ArrowRight"":10,""ArrowDown,ArrowLeft"":5,""ArrowDown,ArrowRight"":17}","true","ArrowUp,ArrowLeft","","original","1","12","","",""
"html-keyboard-response","234","1059784","0.0-4.0-4.0-1.6","spark_pilot_norest","8398","1","13","Male","","","","","","","null","<div style=""font-size:60px;"">+</div>","null","fixation","","","","","","","","","13","","",""
"revaluation","235","1063787","0.0-4.0-4.0-0.7","spark_pilot_norest","8398","1","13","Male","","false","","","","","[483.89999999990687]","./assets/img/ocean/animals/octopus.jpg","[""ArrowRight""]","revaluation","ocean","17","{""ArrowUp,ArrowLeft"":26,""ArrowUp,ArrowRight"":10,""ArrowDown,ArrowLeft"":5,""ArrowDown,ArrowRight"":17}","true","ArrowDown,ArrowRight","","original","1","14","","",""
"html-keyboard-response","236","1064288","0.0-4.0-4.0-1.7","spark_pilot_norest","8398","1","13","Male","","","","","","","null","<div style=""font-size:60px;"">+</div>","null","fixation","","","","","","","","","15","","",""
"revaluation","237","1068291","0.0-4.0-4.0-0.8","spark_pilot_norest","8398","1","13","Male","","false","","","","","[588.5]","./assets/img/ocean/animals/seahorse.jpg","[""ArrowLeft""]","revaluation","ocean","26","{""ArrowUp,ArrowLeft"":26,""ArrowUp,ArrowRight"":10,""ArrowDown,ArrowLeft"":5,""ArrowDown,ArrowRight"":17}","true","ArrowUp,ArrowLeft","","original","1","16","","",""
"html-keyboard-response","238","1068793","0.0-4.0-4.0-1.8","spark_pilot_norest","8398","1","13","Male","","","","","","","null","<div style=""font-size:60px;"">+</div>","null","fixation","","","","","","","","","17","","",""
"revaluation","239","1072796","0.0-4.0-4.0-0.9","spark_pilot_norest","8398","1","13","Male","","false","","","","","[827.3999999999069]","./assets/img/ocean/animals/octopus.jpg","[""ArrowRight""]","revaluation","ocean","17","{""ArrowUp,ArrowLeft"":26,""ArrowUp,ArrowRight"":10,""ArrowDown,ArrowLeft"":5,""ArrowDown,ArrowRight"":17}","true","ArrowDown,ArrowRight","","original","1","18","","",""
"html-keyboard-response","240","1073298","0.0-4.0-4.0-1.9","spark_pilot_norest","8398","1","13","Male","","","","","","","null","<div style=""font-size:60px;"">+</div>","null","fixation","","","","","","","","","19","","",""
"revaluation","241","1077300","0.0-4.0-4.0-0.10","spark_pilot_norest","8398","1","13","Male","","false","","","","","[578.3999999999069]","./assets/img/ocean/animals/seahorse.jpg","[""ArrowLeft""]","revaluation","ocean","26","{""ArrowUp,ArrowLeft"":26,""ArrowUp,ArrowRight"":10,""ArrowDown,ArrowLeft"":5,""ArrowDown,ArrowRight"":17}","true","ArrowUp,ArrowLeft","","original","1","20","","",""
"html-keyboard-response","242","1077802","0.0-4.0-4.0-1.10","spark_pilot_norest","8398","1","13","Male","","","","","","","null","<div style=""font-size:60px;"">+</div>","null","fixation","","","","","","","","","21","","",""
"revaluation","243","1081805","0.0-4.0-4.0-0.11","spark_pilot_norest","8398","1","13","Male","","false","","","","","[706.6000000000931]","./assets/img/ocean/animals/seahorse.jpg","[""ArrowLeft""]","revaluation","ocean","26","{""ArrowUp,ArrowLeft"":26,""ArrowUp,ArrowRight"":10,""ArrowDown,ArrowLeft"":5,""ArrowDown,ArrowRight"":17}","true","ArrowUp,ArrowLeft","","original","1","22","","",""
"html-keyboard-response","244","1082306","0.0-4.0-4.0-1.11","spark_pilot_norest","8398","1","13","Male","","","","","","","null","<div style=""font-size:60px;"">+</div>","null","fixation","","","","","","","","","23","","",""
"revaluation","245","1086309","0.0-4.0-4.0-0.12","spark_pilot_norest","8398","1","13","Male","","false","","","","","[410.79999999981374]","./assets/img/ocean/animals/octopus.jpg","[""ArrowRight""]","revaluation","ocean","17","{""ArrowUp,ArrowLeft"":26,""ArrowUp,ArrowRight"":10,""ArrowDown,ArrowLeft"":5,""ArrowDown,ArrowRight"":17}","true","ArrowDown,ArrowRight","","original","1","24","","",""
"html-keyboard-response","246","1086811","0.0-4.0-4.0-1.12","spark_pilot_norest","8398","1","13","Male","","","","","","","null","<div style=""font-size:60px;"">+</div>","null","fixation","","","","","","","","","25","","",""
"revaluation","247","1090814","0.0-4.0-4.0-0.13","spark_pilot_norest","8398","1","13","Male","","false","","","","","[505.69999999995343]","./assets/img/ocean/animals/seahorse.jpg","[""ArrowLeft""]","revaluation","ocean","26","{""ArrowUp,ArrowLeft"":26,""ArrowUp,ArrowRight"":10,""ArrowDown,ArrowLeft"":5,""ArrowDown,ArrowRight"":17}","true","ArrowUp,ArrowLeft","","original","1","26","","",""
"html-keyboard-response","248","1091315","0.0-4.0-4.0-1.13","spark_pilot_norest","8398","1","13","Male","","","","","","","null","<div style=""font-size:60px;"">+</div>","null","fixation","","","","","","","","","27","","",""
"revaluation","249","1095318","0.0-4.0-4.0-0.14","spark_pilot_norest","8398","1","13","Male","","false","","","","","[817.6000000000931]","./assets/img/ocean/animals/seahorse.jpg","[""ArrowLeft""]","revaluation","ocean","26","{""ArrowUp,ArrowLeft"":26,""ArrowUp,ArrowRight"":10,""ArrowDown,ArrowLeft"":5,""ArrowDown,ArrowRight"":17}","true","ArrowUp,ArrowLeft","","original","1","28","","",""
"html-keyboard-response","250","1095820","0.0-4.0-4.0-1.14","spark_pilot_norest","8398","1","13","Male","","","","","","","null","<div style=""font-size:60px;"">+</div>","null","fixation","","","","","","","","","29","","",""
"revaluation","251","1099823","0.0-4.0-4.0-0.15","spark_pilot_norest","8398","1","13","Male","","false","","","","","[808.5]","./assets/img/ocean/animals/seahorse.jpg","[""ArrowLeft""]","revaluation","ocean","26","{""ArrowUp,ArrowLeft"":26,""ArrowUp,ArrowRight"":10,""ArrowDown,ArrowLeft"":5,""ArrowDown,ArrowRight"":17}","true","ArrowUp,ArrowLeft","","original","1","30","","",""
"html-keyboard-response","252","1100324","0.0-4.0-4.0-1.15","spark_pilot_norest","8398","1","13","Male","","","","","","","null","<div style=""font-size:60px;"">+</div>","null","fixation","","","","","","","","","31","","",""
"revaluation","253","1104327","0.0-4.0-4.0-0.16","spark_pilot_norest","8398","1","13","Male","","false","","","","","[976.5]","./assets/img/ocean/animals/octopus.jpg","[""ArrowRight""]","revaluation","ocean","17","{""ArrowUp,ArrowLeft"":26,""ArrowUp,ArrowRight"":10,""ArrowDown,ArrowLeft"":5,""ArrowDown,ArrowRight"":17}","true","ArrowDown,ArrowRight","","original","1","32","","",""
"html-keyboard-response","254","1104829","0.0-4.0-4.0-1.16","spark_pilot_norest","8398","1","13","Male","","","","","","","null","<div style=""font-size:60px;"">+</div>","null","fixation","","","","","","","","","33","","",""
"revaluation","255","1108832","0.0-4.0-4.0-0.17","spark_pilot_norest","8398","1","13","Male","","false","","","","","[1127.5]","./assets/img/ocean/animals/octopus.jpg","[""ArrowLeft""]","revaluation","ocean","5","{""ArrowUp,ArrowLeft"":26,""ArrowUp,ArrowRight"":10,""ArrowDown,ArrowLeft"":5,""ArrowDown,ArrowRight"":17}","false","ArrowDown,ArrowLeft","","original","1","34","","",""
"html-keyboard-response","256","1109333","0.0-4.0-4.0-1.17","spark_pilot_norest","8398","1","13","Male","","","","","","","null","<div style=""font-size:60px;"">+</div>","null","fixation","","","","","","","","","35","","",""
"learning-instructions","257","1117485","0.0-4.0-5.0-0.0","spark_pilot_norest","8398","1","13","Male","","","","","","","null","<p> You have almost finished this part of the game! </p>
            <p> We are going to ask you to make a few more choices. </p>","","instructions","","","","","","","","","","","",""
"learning-instructions","258","1133453","0.0-4.0-5.0-0.1","spark_pilot_norest","8398","1","13","Male","","","","","","","null","<p> First, you need to decide whether to go up or down. When you see each picture, use the arrow keys to make your choice. </p>
            <p><b>You will not see which animal you found, but try to get to the one that will give you the most treasure.</b></p>","","instructions","","","","","","","","","","","",""
"html-keyboard-response","259","1134460","0.0-4.0-6.0-0.0","spark_pilot_norest","8398","1","13","Male","","","","","","","null","<div style=""font-size:100px;color:red;"">Starting in...</div>","null","","","","","","","","","","","","",""
"html-keyboard-response","260","1135467","0.0-4.0-6.0-1.0","spark_pilot_norest","8398","1","13","Male","","","","","","","null","<div style=""font-size:200px;color:red;"">3</div>","null","","","","","","","","","","","","",""
"html-keyboard-response","261","1136473","0.0-4.0-6.0-2.0","spark_pilot_norest","8398","1","13","Male","","","","","","","null","<div style=""font-size:200px;color:red;"">2</div>","null","","","","","","","","","","","","",""
"html-keyboard-response","262","1137480","0.0-4.0-6.0-3.0","spark_pilot_norest","8398","1","13","Male","","","","","","","null","<div style=""font-size:200px;color:red;"">1</div>","null","","","","","","","","","","","","",""
"revaluation","263","1138310","0.0-4.0-7.0-0.0","spark_pilot_norest","8398","1","13","Male","","false","","","","","[828.3000000000466]","./assets/img/ocean/test/1.jpg","[""ArrowUp""]","first stage test","ocean","0","{""ArrowUp,ArrowLeft"":26,""ArrowUp,ArrowRight"":10,""ArrowDown,ArrowLeft"":5,""ArrowDown,ArrowRight"":17}","true","ArrowUp","false","original","1","","","",""
"html-keyboard-response","264","1138812","0.0-4.0-7.0-1.0","spark_pilot_norest","8398","1","13","Male","","","","","","","null","<div style=""font-size:60px;"">+</div>","null","fixation","","","","","","","","","","","",""
"revaluation","265","1139414","0.0-4.0-7.0-0.1","spark_pilot_norest","8398","1","13","Male","","false","","","","","[600.3000000000466]","./assets/img/ocean/test/0.jpg","[""ArrowUp""]","first stage test","ocean","0","{""ArrowUp,ArrowLeft"":26,""ArrowUp,ArrowRight"":10,""ArrowDown,ArrowLeft"":5,""ArrowDown,ArrowRight"":17}","true","ArrowUp","false","original","1","","","",""
"html-keyboard-response","266","1139927","0.0-4.0-7.0-1.1","spark_pilot_norest","8398","1","13","Male","","","","","","","null","<div style=""font-size:60px;"">+</div>","null","fixation","","","","","","","","","","","",""
"revaluation","267","1140526","0.0-4.0-7.0-0.2","spark_pilot_norest","8398","1","13","Male","","false","","","","","[597.2000000001863]","./assets/img/ocean/test/3.jpg","[""ArrowUp""]","first stage test","ocean","0","{""ArrowUp,ArrowLeft"":26,""ArrowUp,ArrowRight"":10,""ArrowDown,ArrowLeft"":5,""ArrowDown,ArrowRight"":17}","true","ArrowUp","false","original","1","","","",""
"html-keyboard-response","268","1141027","0.0-4.0-7.0-1.2","spark_pilot_norest","8398","1","13","Male","","","","","","","null","<div style=""font-size:60px;"">+</div>","null","fixation","","","","","","","","","","","",""
"revaluation","269","1141390","0.0-4.0-7.0-0.3","spark_pilot_norest","8398","1","13","Male","","false","","","","","[361.60000000009313]","./assets/img/ocean/test/2.jpg","[""ArrowDown""]","first stage test","ocean","0","{""ArrowUp,ArrowLeft"":26,""ArrowUp,ArrowRight"":10,""ArrowDown,ArrowLeft"":5,""ArrowDown,ArrowRight"":17}","false","ArrowDown","false","original","1","","","",""
"html-keyboard-response","270","1141894","0.0-4.0-7.0-1.3","spark_pilot_norest","8398","1","13","Male","","","","","","","null","<div style=""font-size:60px;"">+</div>","null","fixation","","","","","","","","","","","",""
"learning-instructions","271","1155245","0.0-4.0-8.0-0.0","spark_pilot_norest","8398","1","13","Male","","","","","","","null","<p> Now you will see the animals again and can search their chests for treasure. </p>
            <p> This time, you will not see how much treasure you earned, but you will earn more bonus money for making better choices. </p>","","instructions","","","","","","","","","","","",""
"html-keyboard-response","272","1156252","0.0-4.0-9.0-0.0","spark_pilot_norest","8398","1","13","Male","","","","","","","null","<div style=""font-size:100px;color:red;"">Starting in...</div>","null","","","","","","","","","","","","",""
"html-keyboard-response","273","1157258","0.0-4.0-9.0-1.0","spark_pilot_norest","8398","1","13","Male","","","","","","","null","<div style=""font-size:200px;color:red;"">3</div>","null","","","","","","","","","","","","",""
"html-keyboard-response","274","1158265","0.0-4.0-9.0-2.0","spark_pilot_norest","8398","1","13","Male","","","","","","","null","<div style=""font-size:200px;color:red;"">2</div>","null","","","","","","","","","","","","",""
"html-keyboard-response","275","1159272","0.0-4.0-9.0-3.0","spark_pilot_norest","8398","1","13","Male","","","","","","","null","<div style=""font-size:200px;color:red;"">1</div>","null","","","","","","","","","","","","",""
"revaluation","276","1159830","0.0-4.0-10.0-0.0","spark_pilot_norest","8398","1","13","Male","","false","","","","","[555.3000000000466]","./assets/img/ocean/animals/seahorse.jpg","[""ArrowRight""]","second stage test","ocean","0","{""ArrowUp,ArrowLeft"":26,""ArrowUp,ArrowRight"":10,""ArrowDown,ArrowLeft"":5,""ArrowDown,ArrowRight"":17}","false","ArrowUp,ArrowRight","","original","1","","","",""
"html-keyboard-response","277","1160341","0.0-4.0-10.0-1.0","spark_pilot_norest","8398","1","13","Male","","","","","","","null","<div style=""font-size:60px;"">+</div>","null","fixation","","","","","","","","","","","",""
"revaluation","278","1160798","0.0-4.0-10.0-0.1","spark_pilot_norest","8398","1","13","Male","","false","","","","","[454.80000000004657]","./assets/img/ocean/animals/seahorse.jpg","[""ArrowRight""]","second stage test","ocean","0","{""ArrowUp,ArrowLeft"":26,""ArrowUp,ArrowRight"":10,""ArrowDown,ArrowLeft"":5,""ArrowDown,ArrowRight"":17}","false","ArrowUp,ArrowRight","","original","1","","","",""
"html-keyboard-response","279","1161301","0.0-4.0-10.0-1.1","spark_pilot_norest","8398","1","13","Male","","","","","","","null","<div style=""font-size:60px;"">+</div>","null","fixation","","","","","","","","","","","",""
"revaluation","280","1161710","0.0-4.0-10.0-0.2","spark_pilot_norest","8398","1","13","Male","","false","","","","","[408]","./assets/img/ocean/animals/seahorse.jpg","[""ArrowRight""]","second stage test","ocean","0","{""ArrowUp,ArrowLeft"":26,""ArrowUp,ArrowRight"":10,""ArrowDown,ArrowLeft"":5,""ArrowDown,ArrowRight"":17}","false","ArrowUp,ArrowRight","","original","1","","","",""
"html-keyboard-response","281","1162214","0.0-4.0-10.0-1.2","spark_pilot_norest","8398","1","13","Male","","","","","","","null","<div style=""font-size:60px;"">+</div>","null","fixation","","","","","","","","","","","",""
"revaluation","282","1162534","0.0-4.0-10.0-0.3","spark_pilot_norest","8398","1","13","Male","","false","","","","","[318]","./assets/img/ocean/animals/seahorse.jpg","[""ArrowRight""]","second stage test","ocean","0","{""ArrowUp,ArrowLeft"":26,""ArrowUp,ArrowRight"":10,""ArrowDown,ArrowLeft"":5,""ArrowDown,ArrowRight"":17}","false","ArrowUp,ArrowRight","","original","1","","","",""
"html-keyboard-response","283","1163035","0.0-4.0-10.0-1.3","spark_pilot_norest","8398","1","13","Male","","","","","","","null","<div style=""font-size:60px;"">+</div>","null","fixation","","","","","","","","","","","",""
"revaluation","284","1163894","0.0-4.0-10.0-0.4","spark_pilot_norest","8398","1","13","Male","","false","","","","","[857]","./assets/img/ocean/animals/octopus.jpg","[""ArrowLeft""]","second stage test","ocean","0","{""ArrowUp,ArrowLeft"":26,""ArrowUp,ArrowRight"":10,""ArrowDown,ArrowLeft"":5,""ArrowDown,ArrowRight"":17}","false","ArrowDown,ArrowLeft","","original","1","","","",""
"html-keyboard-response","285","1164398","0.0-4.0-10.0-1.4","spark_pilot_norest","8398","1","13","Male","","","","","","","null","<div style=""font-size:60px;"">+</div>","null","fixation","","","","","","","","","","","",""
"revaluation","286","1164926","0.0-4.0-10.0-0.5","spark_pilot_norest","8398","1","13","Male","","false","","","","","[526]","./assets/img/ocean/animals/octopus.jpg","[""ArrowRight""]","second stage test","ocean","0","{""ArrowUp,ArrowLeft"":26,""ArrowUp,ArrowRight"":10,""ArrowDown,ArrowLeft"":5,""ArrowDown,ArrowRight"":17}","true","ArrowDown,ArrowRight","","original","1","","","",""
"html-keyboard-response","287","1165436","0.0-4.0-10.0-1.5","spark_pilot_norest","8398","1","13","Male","","","","","","","null","<div style=""font-size:60px;"">+</div>","null","fixation","","","","","","","","","","","",""
"revaluation","288","1165798","0.0-4.0-10.0-0.6","spark_pilot_norest","8398","1","13","Male","","false","","","","","[360.5]","./assets/img/ocean/animals/octopus.jpg","[""ArrowRight""]","second stage test","ocean","0","{""ArrowUp,ArrowLeft"":26,""ArrowUp,ArrowRight"":10,""ArrowDown,ArrowLeft"":5,""ArrowDown,ArrowRight"":17}","true","ArrowDown,ArrowRight","","original","1","","","",""
"html-keyboard-response","289","1166303","0.0-4.0-10.0-1.6","spark_pilot_norest","8398","1","13","Male","","","","","","","null","<div style=""font-size:60px;"">+</div>","null","fixation","","","","","","","","","","","",""
"revaluation","290","1166718","0.0-4.0-10.0-0.7","spark_pilot_norest","8398","1","13","Male","","false","","","","","[413.30000000004657]","./assets/img/ocean/animals/octopus.jpg","[""ArrowRight""]","second stage test","ocean","0","{""ArrowUp,ArrowLeft"":26,""ArrowUp,ArrowRight"":10,""ArrowDown,ArrowLeft"":5,""ArrowDown,ArrowRight"":17}","true","ArrowDown,ArrowRight","","original","1","","","",""
"html-keyboard-response","291","1167232","0.0-4.0-10.0-1.7","spark_pilot_norest","8398","1","13","Male","","","","","","","null","<div style=""font-size:60px;"">+</div>","null","fixation","","","","","","","","","","","",""
"learning-instructions","292","1171880","0.0-4.0-0.1-0.2","spark_pilot_norest","8398","1","13","Male","","","","","","","1880.3999999999069","<p> This time you are searching for treasure in the <b>canyon</b>.</p>","","instructions","","","","","","","","","","","",""
"learning-instructions","293","1194588","0.0-4.0-0.1-0.3","spark_pilot_norest","8398","1","13","Male","","","","","","","5457.699999999953","<p><b>New</b> animals with <b>new</b> treasure chests live here. You need to explore to discover where the animal with the best treasure chest is.</p>
                    <p> Like before, once you figure out which animal has the chest with the most treasure, you should try to get to that animal and select that chest! </p>","","instructions","","","","","","","","","","","",""
"learning-instructions","294","1214034","0.0-4.0-1.1-0.1","spark_pilot_norest","8398","1","13","Male","","","","","","","4724.299999999814","<p> Remember, when you see a picture of the place, use the up and down keys to <b>find an animal</b>.</p>
            <p> When you encounter an animal, you should use the left and right keys to <b>select a treasure chest</b>.</p>
            <p> Don't forget to look out for the robber! </p>","","instructions","","","","","","","","","","","",""
"revaluation","295","1218064","0.0-4.0-2.1-0.50","spark_pilot_norest","8398","1","13","Male","","true","","","","","[]","./assets/img/canyon/memory/17.jpg","[]","value training","canyon","-5","{""ArrowUp,ArrowLeft"":23,""ArrowUp,ArrowRight"":10,""ArrowDown,ArrowLeft"":8,""ArrowDown,ArrowRight"":30}","false","","false","revaluation","2","0","","",""
"html-keyboard-response","296","1218575","0.0-4.0-2.1-1.50","spark_pilot_norest","8398","1","13","Male","","","","","","","null","<div style=""font-size:60px;"">+</div>","null","fixation","","","","","","","","","1","","",""
"revaluation","297","1224614","0.0-4.0-2.1-0.51","spark_pilot_norest","8398","1","13","Male","","false","","","","","[477.5,1129.0999999998603]","./assets/img/canyon/memory/35.jpg","[""ArrowUp"",""ArrowRight""]","value training","canyon","10","{""ArrowUp,ArrowLeft"":23,""ArrowUp,ArrowRight"":10,""ArrowDown,ArrowLeft"":8,""ArrowDown,ArrowRight"":30}","false","ArrowUp,ArrowRight","false","revaluation","2","2","","",""
"html-keyboard-response","298","1225126","0.0-4.0-2.1-1.51","spark_pilot_norest","8398","1","13","Male","","","","","","","null","<div style=""font-size:60px;"">+</div>","null","fixation","","","","","","","","","3","","",""
"revaluation","299","1231167","0.0-4.0-2.1-0.52","spark_pilot_norest","8398","1","13","Male","","false","","","","","[445.89999999990687,1002.1999999999534]","./assets/img/canyon/memory/36.jpg","[""ArrowUp"",""ArrowLeft""]","value training","canyon","23","{""ArrowUp,ArrowLeft"":23,""ArrowUp,ArrowRight"":10,""ArrowDown,ArrowLeft"":8,""ArrowDown,ArrowRight"":30}","false","ArrowUp,ArrowLeft","false","revaluation","2","4","","",""
"html-keyboard-response","300","1231678","0.0-4.0-2.1-1.52","spark_pilot_norest","8398","1","13","Male","","","","","","","null","<div style=""font-size:60px;"">+</div>","null","fixation","","","","","","","","","5","","",""
"revaluation","301","1237718","0.0-4.0-2.1-0.53","spark_pilot_norest","8398","1","13","Male","","false","","","","","[278.4000000001397,346.60000000009313]","./assets/img/canyon/memory/28.jpg","[""ArrowUp"",""ArrowLeft""]","value training","canyon","23","{""ArrowUp,ArrowLeft"":23,""ArrowUp,ArrowRight"":10,""ArrowDown,ArrowLeft"":8,""ArrowDown,ArrowRight"":30}","false","ArrowUp,ArrowLeft","false","revaluation","2","6","","",""
"html-keyboard-response","302","1238229","0.0-4.0-2.1-1.53","spark_pilot_norest","8398","1","13","Male","","","","","","","null","<div style=""font-size:60px;"">+</div>","null","fixation","","","","","","","","","7","","",""
"revaluation","303","1244234","0.0-4.0-2.1-0.54","spark_pilot_norest","8398","1","13","Male","","false","","","","","[575.3000000000466,477.80000000004657]","./assets/img/canyon/memory/40.jpg","[""ArrowUp"",""ArrowLeft""]","value training","canyon","23","{""ArrowUp,ArrowLeft"":23,""ArrowUp,ArrowRight"":10,""ArrowDown,ArrowLeft"":8,""ArrowDown,ArrowRight"":30}","false","ArrowUp,ArrowLeft","false","revaluation","2","8","","",""
"html-keyboard-response","304","1244735","0.0-4.0-2.1-1.54","spark_pilot_norest","8398","1","13","Male","","","","","","","null","<div style=""font-size:60px;"">+</div>","null","fixation","","","","","","","","","9","","",""
"revaluation","305","1250740","0.0-4.0-2.1-0.55","spark_pilot_norest","8398","1","13","Male","","false","","","","","[421.39999999990687,300.20000000018626]","./assets/img/canyon/memory/1.jpg","[""ArrowUp"",""ArrowLeft""]","value training","canyon","23","{""ArrowUp,ArrowLeft"":23,""ArrowUp,ArrowRight"":10,""ArrowDown,ArrowLeft"":8,""ArrowDown,ArrowRight"":30}","false","ArrowUp,ArrowLeft","false","revaluation","2","10","","",""
"html-keyboard-response","306","1251241","0.0-4.0-2.1-1.55","spark_pilot_norest","8398","1","13","Male","","","","","","","null","<div style=""font-size:60px;"">+</div>","null","fixation","","","","","","","","","11","","",""
"revaluation","307","1257244","0.0-4.0-2.1-0.56","spark_pilot_norest","8398","1","13","Male","","false","","","","","[499.69999999995343,418.30000000004657]","./assets/img/canyon/memory/35.jpg","[""ArrowDown"",""ArrowRight""]","value training","canyon","30","{""ArrowUp,ArrowLeft"":23,""ArrowUp,ArrowRight"":10,""ArrowDown,ArrowLeft"":8,""ArrowDown,ArrowRight"":30}","true","ArrowDown,ArrowRight","false","revaluation","2","12","","",""
"html-keyboard-response","308","1257746","0.0-4.0-2.1-1.56","spark_pilot_norest","8398","1","13","Male","","","","","","","null","<div style=""font-size:60px;"">+</div>","null","fixation","","","","","","","","","13","","",""
"revaluation","309","1263750","0.0-4.0-2.1-0.57","spark_pilot_norest","8398","1","13","Male","","false","","","","","[450.60000000009313,401.9000000001397]","./assets/img/canyon/memory/8.jpg","[""ArrowDown"",""ArrowRight""]","value training","canyon","30","{""ArrowUp,ArrowLeft"":23,""ArrowUp,ArrowRight"":10,""ArrowDown,ArrowLeft"":8,""ArrowDown,ArrowRight"":30}","true","ArrowDown,ArrowRight","false","revaluation","2","14","","",""
"html-keyboard-response","310","1264251","0.0-4.0-2.1-1.57","spark_pilot_norest","8398","1","13","Male","","","","","","","null","<div style=""font-size:60px;"">+</div>","null","fixation","","","","","","","","","15","","",""
"revaluation","311","1270255","0.0-4.0-2.1-0.58","spark_pilot_norest","8398","1","13","Male","","false","","","","","[578,409.0999999998603]","./assets/img/canyon/memory/6.jpg","[""ArrowDown"",""ArrowRight""]","value training","canyon","30","{""ArrowUp,ArrowLeft"":23,""ArrowUp,ArrowRight"":10,""ArrowDown,ArrowLeft"":8,""ArrowDown,ArrowRight"":30}","true","ArrowDown,ArrowRight","false","revaluation","2","16","","",""
"html-keyboard-response","312","1270756","0.0-4.0-2.1-1.58","spark_pilot_norest","8398","1","13","Male","","","","","","","null","<div style=""font-size:60px;"">+</div>","null","fixation","","","","","","","","","17","","",""
"revaluation","313","1276761","0.0-4.0-2.1-0.59","spark_pilot_norest","8398","1","13","Male","","false","","","","","[552.6999999999534,1375.6000000000931]","./assets/img/canyon/memory/19.jpg","[""ArrowDown"",""ArrowRight""]","value training","canyon","30","{""ArrowUp,ArrowLeft"":23,""ArrowUp,ArrowRight"":10,""ArrowDown,ArrowLeft"":8,""ArrowDown,ArrowRight"":30}","true","ArrowDown,ArrowRight","false","revaluation","2","18","","",""
