"trial_type","trial_index","time_elapsed","internal_node_id","task_version","subject_id","assigned_condition","age","gender","success","timeout","failed_images","failed_audio","failed_video","browser_interaction","rt","stimulus","response","task_part","environment","score","rewardMap","correct","fullState","isCatch","condition","order","trial_num","key_press","ground_truth","bonus"
"pavlovia","0","933","0.0-0.0","spark_pilot_norest","10690","3","8","Female","","","","","","","","","","","","","","","","","","","","","",""
"preload","1","29525","0.0-1.0","spark_pilot_norest","10690","3","8","Female","true","false","[]","[]","[]","[{""event"":""fullscreenenter"",""trial"":2,""time"":32608},{""event"":""blur"",""trial"":384,""time"":1511788},{""event"":""focus"",""trial"":384,""time"":1511793},{""event"":""fullscreenexit"",""trial"":384,""time"":1511803}]","","","","","","","","","","","","","","","",""
"fullscreen","2","33592","0.0-2.0","spark_pilot_norest","10690","3","8","Female","true","","","","","","","","","","","","","","","","","","","","",""
"audio-button-response","3","39078","0.0-3.0-0.0-0.0","spark_pilot_norest","10690","3","8","Female","","","","","","","5061","./assets/audio/audiotest/turtle.mp3","2","audio_test","","","","","","","","","","","",""
"learning-instructions","4","48919","0.0-3.0-1.0-0.0","spark_pilot_norest","10690","3","8","Female","","","","","","","2842.1999999284744","<p> Welcome! Please remember to stay in fullscreen mode and don't click away from the experiment. </p>","","instructions","","","","","","","","","","","",""
"learning-instructions","5","59763","0.0-3.0-1.0-0.1","spark_pilot_norest","10690","3","8","Female","","","","","","","2446.8000000715256","<p> Today you will be playing a game to earn treasure. </p>
            <p> At the end of the experiment, you will earn a bonus based on how much treasure you find. </p>
            <img src='./assets/img/instructions/treasure.jpg' class='instructions-image'>","","instructions","","","","","","","","","","","",""
"learning-instructions","6","71282","0.0-3.0-1.0-0.2","spark_pilot_norest","10690","3","8","Female","","","","","","","3265.7000000476837","<p> Animals have hidden treasure in treasure chests. </p>
            <p> You need to first find an animal and then choose which of their treasure chests to search. </p>
            <img src='./assets/img/space/animals/cat.jpg' class='instructions-image'>","","instructions","","","","","","","","","","","",""
"learning-instructions","7","87557","0.0-3.0-1.0-0.3","spark_pilot_norest","10690","3","8","Female","","","","","","","3129.6999999284744","<p> In each round, you will search for treasure in a different place. In the real game, there will be two rounds. </p>
            <p> You will begin with a separate, practice round where you will search for treasure in outer space. </p>
            <img src='./assets/img/space/0.jpg' class='instructions-image'>","","instructions","","","","","","","","","","","",""
"learning-instructions","8","101332","0.0-3.0-1.0-0.4","spark_pilot_norest","10690","3","8","Female","","","","","","","2376.2999999523163","<p> On every turn, you will see a picture of the place that you are in, but the specific image may be different each time. </p>
            <p> For example, both of these images mean you are in outer space. </p>
            <img src='./assets/img/instructions/outerspace.jpg' class='instructions-image'>","","instructions","","","","","","","","","","","",""
"learning-instructions","9","112954","0.0-3.0-1.0-0.5","spark_pilot_norest","10690","3","8","Female","","","","","","","3806.7000000476837","<p> You need to decide which direction to travel in. </p>
            <p> You can choose between going <b>up or down</b> by using the arrow keys. </p>
            <img src='./assets/img/instructions/updown.jpg' class='instructions-image'>","","instructions","","","","","","","","","","","",""
"learning-instructions","10","127121","0.0-3.0-1.0-0.6","spark_pilot_norest","10690","3","8","Female","","","","","","","5374.700000047684","<p> You will have <b>2 seconds</b> to make your choice. </p>
            <p> If you do not make a choice within 2 seconds, you will not find an animal or earn treasure. </p>
            <img src='./assets/img/instructions/2seconds.jpg' class='instructions-image'>","","instructions","","","","","","","","","","","",""
"learning-instructions","11","143839","0.0-3.0-1.0-0.7","spark_pilot_norest","10690","3","8","Female","","","","","","","9692.299999952316","<p> Let’s try practicing that now! </p>
            <p> When you see a picture of the place you are in, press the <b>up</b> key to travel up. </p>
            <img src='./assets/img/instructions/pressUp.jpg' class='instructions-image'>","","instructions","","","","","","","","","","","",""
"revaluation","12","147863","0.0-3.0-2.0-0.0","spark_pilot_norest","10690","3","8","Female","","false","","","","","[1571.3999999761581]","./assets/img/space/0.jpg","[""ArrowUp""]","first stage practice","space","0","null","null","ArrowUp","false","","","","","",""
"html-keyboard-response","13","148379","0.0-3.0-2.0-1.0","spark_pilot_norest","10690","3","8","Female","","","","","","","null","<div style=""font-size:60px;"">+</div>","null","fixation","","","","","","","","","","","",""
"revaluation","14","152399","0.0-3.0-2.0-0.1","spark_pilot_norest","10690","3","8","Female","","false","","","","","[1833.7000000476837]","./assets/img/space/1.jpg","[""ArrowUp""]","first stage practice","space","0","null","null","ArrowUp","false","","","","","",""
"html-keyboard-response","15","152904","0.0-3.0-2.0-1.1","spark_pilot_norest","10690","3","8","Female","","","","","","","null","<div style=""font-size:60px;"">+</div>","null","fixation","","","","","","","","","","","",""
"revaluation","16","156931","0.0-3.0-2.0-0.2","spark_pilot_norest","10690","3","8","Female","","false","","","","","[1618.7000000476837]","./assets/img/space/2.jpg","[""ArrowUp""]","first stage practice","space","0","null","null","ArrowUp","false","","","","","",""
"html-keyboard-response","17","157439","0.0-3.0-2.0-1.2","spark_pilot_norest","10690","3","8","Female","","","","","","","null","<div style=""font-size:60px;"">+</div>","null","fixation","","","","","","","","","","","",""
"learning-instructions","18","165382","0.0-3.0-3.0-0.0","spark_pilot_norest","10690","3","8","Female","","","","","","","3255.2000000476837","<p> Great job! Now try pressing the <b>down</b> key to travel down. </p>
            <img src='./assets/img/instructions/pressDown.jpg' class='instructions-image'>","","instructions","","","","","","","","","","","",""
"revaluation","19","169408","0.0-3.0-4.0-0.0","spark_pilot_norest","10690","3","8","Female","","false","","","","","[831]","./assets/img/space/3.jpg","[""ArrowDown""]","first stage practice","space","0","null","null","ArrowDown","false","","","","","",""
"html-keyboard-response","20","169915","0.0-3.0-4.0-1.0","spark_pilot_norest","10690","3","8","Female","","","","","","","null","<div style=""font-size:60px;"">+</div>","null","fixation","","","","","","","","","","","",""
"revaluation","21","173939","0.0-3.0-4.0-0.1","spark_pilot_norest","10690","3","8","Female","","false","","","","","[575]","./assets/img/space/4.jpg","[""ArrowDown""]","first stage practice","space","0","null","null","ArrowDown","false","","","","","",""
"html-keyboard-response","22","174448","0.0-3.0-4.0-1.1","spark_pilot_norest","10690","3","8","Female","","","","","","","null","<div style=""font-size:60px;"">+</div>","null","fixation","","","","","","","","","","","",""
"revaluation","23","178470","0.0-3.0-4.0-0.2","spark_pilot_norest","10690","3","8","Female","","false","","","","","[787.3999999761581]","./assets/img/space/5.jpg","[""ArrowDown""]","first stage practice","space","0","null","null","ArrowDown","false","","","","","",""
"html-keyboard-response","24","178976","0.0-3.0-4.0-1.2","spark_pilot_norest","10690","3","8","Female","","","","","","","null","<div style=""font-size:60px;"">+</div>","null","fixation","","","","","","","","","","","",""
"learning-instructions","25","190416","0.0-3.0-5.0-0.0","spark_pilot_norest","10690","3","8","Female","","","","","","","1580.2000000476837","<p> The animals don’t move, so the animal in the upper part of a place will stay in the upper part of a place, and the animal in the lower part of a place will stay in the lower part of a place. </p>","","instructions","","","","","","","","","","","",""
"learning-instructions","26","202191","0.0-3.0-5.0-0.1","spark_pilot_norest","10690","3","8","Female","","","","","","","2645.600000023842","<p> Each animal has two treasure chests for you to choose from. </p>
            <p> The amount of treasure in each chest can range from <b> 0 to 40 pieces.</b></p>","","instructions","","","","","","","","","","","",""
"learning-instructions","27","216876","0.0-3.0-5.0-0.2","spark_pilot_norest","10690","3","8","Female","","","","","","","3489.600000023842","<p> You should decide which chest to search for treasure by using the <b>left</b> and <b>right</b> arrow keys. </p>
            <p><b> Pay attention to which animal is on the screen, as the animals have different treasure chests. </b></p>
            <img src='./assets/img/instructions/leftright.jpg' class='instructions-image'>","","instructions","","","","","","","","","","","",""
"learning-instructions","28","226102","0.0-3.0-5.0-0.3","spark_pilot_norest","10690","3","8","Female","","","","","","","2866.3000000715256","<p> Let’s try practicing that now. </p>
            <p> When you see an animal, choose which chest to search for treasure. </p>
            <img src='./assets/img/instructions/chooseChest.jpg' class='instructions-image'>","","instructions","","","","","","","","","","","",""
"revaluation","29","230120","0.0-3.0-6.0-0.0","spark_pilot_norest","10690","3","8","Female","","false","","","","","[1414.7000000476837]","./assets/img/space/animals/cat.jpg","[""ArrowLeft""]","second stage practice","space","3","{""ArrowUp,ArrowLeft"":3,""ArrowUp,ArrowRight"":36,""ArrowDown,ArrowLeft"":15,""ArrowDown,ArrowRight"":23}","false","ArrowUp,ArrowLeft","","","","","","",""
"html-keyboard-response","30","230625","0.0-3.0-6.0-1.0","spark_pilot_norest","10690","3","8","Female","","","","","","","null","<div style=""font-size:60px;"">+</div>","null","fixation","","","","","","","","","","","",""
"revaluation","31","234655","0.0-3.0-6.0-0.1","spark_pilot_norest","10690","3","8","Female","","false","","","","","[1458.5]","./assets/img/space/animals/cat.jpg","[""ArrowRight""]","second stage practice","space","36","{""ArrowUp,ArrowLeft"":3,""ArrowUp,ArrowRight"":36,""ArrowDown,ArrowLeft"":15,""ArrowDown,ArrowRight"":23}","true","ArrowUp,ArrowRight","","","","","","",""
"html-keyboard-response","32","235168","0.0-3.0-6.0-1.1","spark_pilot_norest","10690","3","8","Female","","","","","","","null","<div style=""font-size:60px;"">+</div>","null","fixation","","","","","","","","","","","",""
"revaluation","33","239186","0.0-3.0-6.0-0.2","spark_pilot_norest","10690","3","8","Female","","false","","","","","[769.8999999761581]","./assets/img/space/animals/rabbit.jpg","[""ArrowLeft""]","second stage practice","space","15","{""ArrowUp,ArrowLeft"":3,""ArrowUp,ArrowRight"":36,""ArrowDown,ArrowLeft"":15,""ArrowDown,ArrowRight"":23}","false","ArrowDown,ArrowLeft","","","","","","",""
"html-keyboard-response","34","239691","0.0-3.0-6.0-1.2","spark_pilot_norest","10690","3","8","Female","","","","","","","null","<div style=""font-size:60px;"">+</div>","null","fixation","","","","","","","","","","","",""
"revaluation","35","243714","0.0-3.0-6.0-0.3","spark_pilot_norest","10690","3","8","Female","","false","","","","","[798.1000000238419]","./assets/img/space/animals/rabbit.jpg","[""ArrowRight""]","second stage practice","space","23","{""ArrowUp,ArrowLeft"":3,""ArrowUp,ArrowRight"":36,""ArrowDown,ArrowLeft"":15,""ArrowDown,ArrowRight"":23}","true","ArrowDown,ArrowRight","","","","","","",""
"html-keyboard-response","36","244221","0.0-3.0-6.0-1.3","spark_pilot_norest","10690","3","8","Female","","","","","","","null","<div style=""font-size:60px;"">+</div>","null","fixation","","","","","","","","","","","",""
"learning-instructions","37","263573","0.0-3.0-7.0-0.0","spark_pilot_norest","10690","3","8","Female","","","","","","","2557.2999999523163","<p> Great job. Now let’s try putting it together. </p>
            <p> On each turn, you will first see a picture to remind you of the place you are in, and you need to choose whether to go up or down. </p>
            <p> Then you will see an animal and choose which of its chests to search for treasure. </p>","","instructions","","","","","","","","","","","",""
"learning-instructions","38","274257","0.0-3.0-7.0-0.1","spark_pilot_norest","10690","3","8","Female","","","","","","","2431.7000000476837","<p> When you choose whether to go up or down, try to go to the animal with the chest with the most treasure. </p>
            <p> Try practicing that now! </p>","","instructions","","","","","","","","","","","",""
"revaluation","39","280267","0.0-3.0-8.0-0.0","spark_pilot_norest","10690","3","8","Female","","false","","","","","[1337.2000000476837,1573.7000000476837]","./assets/img/space/6.jpg","[""ArrowDown"",""ArrowLeft""]","full practice","space","15","{""ArrowUp,ArrowLeft"":3,""ArrowUp,ArrowRight"":36,""ArrowDown,ArrowLeft"":15,""ArrowDown,ArrowRight"":23}","false","ArrowDown,ArrowLeft","false","","","","","",""
"html-keyboard-response","40","280772","0.0-3.0-8.0-1.0","spark_pilot_norest","10690","3","8","Female","","","","","","","null","<div style=""font-size:60px;"">+</div>","null","fixation","","","","","","","","","","","",""
"revaluation","41","286788","0.0-3.0-8.0-0.1","spark_pilot_norest","10690","3","8","Female","","false","","","","","[1109.2000000476837,1137.7999999523163]","./assets/img/space/7.jpg","[""ArrowDown"",""ArrowRight""]","full practice","space","23","{""ArrowUp,ArrowLeft"":3,""ArrowUp,ArrowRight"":36,""ArrowDown,ArrowLeft"":15,""ArrowDown,ArrowRight"":23}","false","ArrowDown,ArrowRight","false","","","","","",""
"html-keyboard-response","42","287294","0.0-3.0-8.0-1.1","spark_pilot_norest","10690","3","8","Female","","","","","","","null","<div style=""font-size:60px;"">+</div>","null","fixation","","","","","","","","","","","",""
"revaluation","43","293320","0.0-3.0-8.0-0.2","spark_pilot_norest","10690","3","8","Female","","false","","","","","[757.2999999523163,1062.1000000238419]","./assets/img/space/8.jpg","[""ArrowUp"",""ArrowLeft""]","full practice","space","3","{""ArrowUp,ArrowLeft"":3,""ArrowUp,ArrowRight"":36,""ArrowDown,ArrowLeft"":15,""ArrowDown,ArrowRight"":23}","false","ArrowUp,ArrowLeft","false","","","","","",""
"html-keyboard-response","44","293836","0.0-3.0-8.0-1.2","spark_pilot_norest","10690","3","8","Female","","","","","","","null","<div style=""font-size:60px;"">+</div>","null","fixation","","","","","","","","","","","",""
"revaluation","45","299882","0.0-3.0-8.0-0.3","spark_pilot_norest","10690","3","8","Female","","false","","","","","[940.3999999761581,1176.2999999523163]","./assets/img/space/9.jpg","[""ArrowUp"",""ArrowRight""]","full practice","space","36","{""ArrowUp,ArrowLeft"":3,""ArrowUp,ArrowRight"":36,""ArrowDown,ArrowLeft"":15,""ArrowDown,ArrowRight"":23}","true","ArrowUp,ArrowRight","false","","","","","",""
"html-keyboard-response","46","300385","0.0-3.0-8.0-1.3","spark_pilot_norest","10690","3","8","Female","","","","","","","null","<div style=""font-size:60px;"">+</div>","null","fixation","","","","","","","","","","","",""
"revaluation","47","306390","0.0-3.0-8.0-0.4","spark_pilot_norest","10690","3","8","Female","","false","","","","","[1545.6000000238419,1208.7999999523163]","./assets/img/space/10.jpg","[""ArrowUp"",""ArrowRight""]","full practice","space","36","{""ArrowUp,ArrowLeft"":3,""ArrowUp,ArrowRight"":36,""ArrowDown,ArrowLeft"":15,""ArrowDown,ArrowRight"":23}","true","ArrowUp,ArrowRight","false","","","","","",""
"html-keyboard-response","48","306892","0.0-3.0-8.0-1.4","spark_pilot_norest","10690","3","8","Female","","","","","","","null","<div style=""font-size:60px;"">+</div>","null","fixation","","","","","","","","","","","",""
"learning-instructions","49","319774","0.0-3.0-9.0-0.0","spark_pilot_norest","10690","3","8","Female","","","","","","","2430.4000000953674","<p> One last thing: sometimes, you will see a robber. The robber can be anywhere in the picture. </p>
            <p> If you do not stop them, you will lose treasure. </p>
            <img src='./assets/img/instructions/robber.jpg' class='instructions-image'>","","instructions","","","","","","","","","","","",""
"learning-instructions","50","328959","0.0-3.0-9.0-0.1","spark_pilot_norest","10690","3","8","Female","","","","","","","2026.8999999761581","<p> If you see the robber, you should <b>press the space bar</b> rather than using the arrow keys. </p>
            <p> Try practicing that now! </p>","","instructions","","","","","","","","","","","",""
"revaluation","51","332985","0.0-3.0-10.0-0.0","spark_pilot_norest","10690","3","8","Female","","false","","","","","[1597.3000000715256]","./assets/img/space/catch/0.jpg","[""spaceBar""]","catch practice","space","0","{""ArrowUp,ArrowLeft"":3,""ArrowUp,ArrowRight"":36,""ArrowDown,ArrowLeft"":15,""ArrowDown,ArrowRight"":23}","true","spaceBar","true","","","","","",""
"html-keyboard-response","52","333490","0.0-3.0-10.0-1.0","spark_pilot_norest","10690","3","8","Female","","","","","","","null","<div style=""font-size:60px;"">+</div>","null","fixation","","","","","","","","","","","",""
"revaluation","53","337506","0.0-3.0-10.0-0.1","spark_pilot_norest","10690","3","8","Female","","false","","","","","[1591.8999999761581]","./assets/img/space/catch/1.jpg","[""spaceBar""]","catch practice","space","0","{""ArrowUp,ArrowLeft"":3,""ArrowUp,ArrowRight"":36,""ArrowDown,ArrowLeft"":15,""ArrowDown,ArrowRight"":23}","true","spaceBar","true","","","","","",""
"html-keyboard-response","54","338007","0.0-3.0-10.0-1.1","spark_pilot_norest","10690","3","8","Female","","","","","","","null","<div style=""font-size:60px;"">+</div>","null","fixation","","","","","","","","","","","",""
"revaluation","55","342026","0.0-3.0-10.0-0.2","spark_pilot_norest","10690","3","8","Female","","false","","","","","[792.5]","./assets/img/space/catch/2.jpg","[""spaceBar""]","catch practice","space","0","{""ArrowUp,ArrowLeft"":3,""ArrowUp,ArrowRight"":36,""ArrowDown,ArrowLeft"":15,""ArrowDown,ArrowRight"":23}","true","spaceBar","true","","","","","",""
"html-keyboard-response","56","342536","0.0-3.0-10.0-1.2","spark_pilot_norest","10690","3","8","Female","","","","","","","null","<div style=""font-size:60px;"">+</div>","null","fixation","","","","","","","","","","","",""
"learning-instructions","57","350013","0.0-3.0-11.0-0.0-0.0","spark_pilot_norest","10690","3","8","Female","","","","","","","2220.6999999284744","<p> Now, you will practice a shortened version of the game to get a sense of how it all fits together. </p>","","instructions","","","","","","","","","","","",""
"learning-instructions","58","355016","0.0-3.0-11.0-0.0-0.1","spark_pilot_norest","10690","3","8","Female","","","","","","","1823.5","<p>This time you are searching for treasure in outer space.</p>","","instructions","","","","","","","","","","","",""
"learning-instructions","59","372324","0.0-3.0-11.0-1.0-0.0","spark_pilot_norest","10690","3","8","Female","","","","","","","2551.1999999284744","<p> Remember, when you see a picture of the place, use the up and down keys to <b>find an animal</b>.</p>
            <p> When you encounter an animal, you should use the left and right keys to <b>select a treasure chest</b>.</p>
            <p> Don't forget to look out for the robber! </p>","","instructions","","","","","","","","","","","",""
"revaluation","60","378352","0.0-3.0-11.0-2.0-0.0","spark_pilot_norest","10690","3","8","Female","","false","","","","","[1941.8999999761581,1639]","./assets/img/space/11.jpg","[""ArrowUp"",""ArrowRight""]","practice block","space","36","{""ArrowUp,ArrowLeft"":3,""ArrowUp,ArrowRight"":36,""ArrowDown,ArrowLeft"":15,""ArrowDown,ArrowRight"":23}","true","ArrowUp,ArrowRight","false","","","","","",""
"html-keyboard-response","61","378856","0.0-3.0-11.0-2.0-1.0","spark_pilot_norest","10690","3","8","Female","","","","","","","null","<div style=""font-size:60px;"">+</div>","null","fixation","","","","","","","","","","","",""
"revaluation","62","384895","0.0-3.0-11.0-2.0-0.1","spark_pilot_norest","10690","3","8","Female","","false","","","","","[1555.5,1065]","./assets/img/space/12.jpg","[""ArrowUp"",""ArrowRight""]","practice block","space","36","{""ArrowUp,ArrowLeft"":3,""ArrowUp,ArrowRight"":36,""ArrowDown,ArrowLeft"":15,""ArrowDown,ArrowRight"":23}","true","ArrowUp,ArrowRight","false","","","","","",""
"html-keyboard-response","63","385402","0.0-3.0-11.0-2.0-1.1","spark_pilot_norest","10690","3","8","Female","","","","","","","null","<div style=""font-size:60px;"">+</div>","null","fixation","","","","","","","","","","","",""
"revaluation","64","391429","0.0-3.0-11.0-2.0-0.2","spark_pilot_norest","10690","3","8","Female","","false","","","","","[998.2999999523163,1285.7000000476837]","./assets/img/space/13.jpg","[""ArrowDown"",""ArrowLeft""]","practice block","space","15","{""ArrowUp,ArrowLeft"":3,""ArrowUp,ArrowRight"":36,""ArrowDown,ArrowLeft"":15,""ArrowDown,ArrowRight"":23}","false","ArrowDown,ArrowLeft","false","","","","","",""
"html-keyboard-response","65","391935","0.0-3.0-11.0-2.0-1.2","spark_pilot_norest","10690","3","8","Female","","","","","","","null","<div style=""font-size:60px;"">+</div>","null","fixation","","","","","","","","","","","",""
"revaluation","66","397959","0.0-3.0-11.0-2.0-0.3","spark_pilot_norest","10690","3","8","Female","","false","","","","","[1810.1999999284744,1208.8999999761581]","./assets/img/space/14.jpg","[""ArrowUp"",""ArrowRight""]","practice block","space","36","{""ArrowUp,ArrowLeft"":3,""ArrowUp,ArrowRight"":36,""ArrowDown,ArrowLeft"":15,""ArrowDown,ArrowRight"":23}","true","ArrowUp,ArrowRight","false","","","","","",""
"html-keyboard-response","67","398472","0.0-3.0-11.0-2.0-1.3","spark_pilot_norest","10690","3","8","Female","","","","","","","null","<div style=""font-size:60px;"">+</div>","null","fixation","","","","","","","","","","","",""
"revaluation","68","404479","0.0-3.0-11.0-2.0-0.4","spark_pilot_norest","10690","3","8","Female","","false","","","","","[853.1000000238419,192.69999992847443]","./assets/img/space/11.jpg","[""ArrowDown"",""ArrowLeft""]","practice block","space","15","{""ArrowUp,ArrowLeft"":3,""ArrowUp,ArrowRight"":36,""ArrowDown,ArrowLeft"":15,""ArrowDown,ArrowRight"":23}","false","ArrowDown,ArrowLeft","false","","","","","",""
"html-keyboard-response","69","404980","0.0-3.0-11.0-2.0-1.4","spark_pilot_norest","10690","3","8","Female","","","","","","","null","<div style=""font-size:60px;"">+</div>","null","fixation","","","","","","","","","","","",""
"revaluation","70","408985","0.0-3.0-11.0-2.0-0.5","spark_pilot_norest","10690","3","8","Female","","true","","","","","[]","./assets/img/space/12.jpg","[]","practice block","space","-5","{""ArrowUp,ArrowLeft"":3,""ArrowUp,ArrowRight"":36,""ArrowDown,ArrowLeft"":15,""ArrowDown,ArrowRight"":23}","false","","false","","","","","",""
"html-keyboard-response","71","409488","0.0-3.0-11.0-2.0-1.5","spark_pilot_norest","10690","3","8","Female","","","","","","","null","<div style=""font-size:60px;"">+</div>","null","fixation","","","","","","","","","","","",""
"revaluation","72","413494","0.0-3.0-11.0-2.0-0.6","spark_pilot_norest","10690","3","8","Female","","true","","","","","[]","./assets/img/space/13.jpg","[]","practice block","space","-5","{""ArrowUp,ArrowLeft"":3,""ArrowUp,ArrowRight"":36,""ArrowDown,ArrowLeft"":15,""ArrowDown,ArrowRight"":23}","false","","false","","","","","",""
"html-keyboard-response","73","413997","0.0-3.0-11.0-2.0-1.6","spark_pilot_norest","10690","3","8","Female","","","","","","","null","<div style=""font-size:60px;"">+</div>","null","fixation","","","","","","","","","","","",""
"revaluation","74","420006","0.0-3.0-11.0-2.0-0.7","spark_pilot_norest","10690","3","8","Female","","false","","","","","[788.6000000238419,518.1000000238419]","./assets/img/space/14.jpg","[""ArrowUp"",""ArrowRight""]","practice block","space","36","{""ArrowUp,ArrowLeft"":3,""ArrowUp,ArrowRight"":36,""ArrowDown,ArrowLeft"":15,""ArrowDown,ArrowRight"":23}","true","ArrowUp,ArrowRight","false","","","","","",""
"html-keyboard-response","75","420507","0.0-3.0-11.0-2.0-1.7","spark_pilot_norest","10690","3","8","Female","","","","","","","null","<div style=""font-size:60px;"">+</div>","null","fixation","","","","","","","","","","","",""
"revaluation","76","424511","0.0-3.0-11.0-2.0-0.8","spark_pilot_norest","10690","3","8","Female","","false","","","","","[1769.6000000238419]","./assets/img/space/catch/3.jpg","[""spaceBar""]","practice block","space","0","{""ArrowUp,ArrowLeft"":3,""ArrowUp,ArrowRight"":36,""ArrowDown,ArrowLeft"":15,""ArrowDown,ArrowRight"":23}","true","spaceBar","true","","","","","",""
"html-keyboard-response","77","425013","0.0-3.0-11.0-2.0-1.8","spark_pilot_norest","10690","3","8","Female","","","","","","","null","<div style=""font-size:60px;"">+</div>","null","fixation","","","","","","","","","","","",""
"learning-instructions","78","441851","0.0-3.0-11.0-3.0-0.0","spark_pilot_norest","10690","3","8","Female","","","","","","","3822.1999999284744","<p> Now, you will travel with a friend who will choose whether you go up or down first. </p>
            <p> On these turns, you will just see the animal that they found. You will still get to choose which chest to search for treasure.</p>","","instructions","","","","","","","","","","","",""
"revaluation","79","445882","0.0-3.0-11.0-4.0-0.0","spark_pilot_norest","10690","3","8","Female","","true","","","","","[]","./assets/img/space/animals/rabbit.jpg","[]","practice block","space","-5","{""ArrowUp,ArrowLeft"":3,""ArrowUp,ArrowRight"":36,""ArrowDown,ArrowLeft"":15,""ArrowDown,ArrowRight"":23}","false","ArrowDown","","","","","","",""
"html-keyboard-response","80","446389","0.0-3.0-11.0-4.0-1.0","spark_pilot_norest","10690","3","8","Female","","","","","","","null","<div style=""font-size:60px;"">+</div>","null","fixation","","","","","","","","","","","",""
"revaluation","81","450414","0.0-3.0-11.0-4.0-0.1","spark_pilot_norest","10690","3","8","Female","","false","","","","","[1018.5999999046326]","./assets/img/space/animals/cat.jpg","[""ArrowLeft""]","practice block","space","3","{""ArrowUp,ArrowLeft"":3,""ArrowUp,ArrowRight"":36,""ArrowDown,ArrowLeft"":15,""ArrowDown,ArrowRight"":23}","false","ArrowUp,ArrowLeft","","","","","","",""
"html-keyboard-response","82","450927","0.0-3.0-11.0-4.0-1.1","spark_pilot_norest","10690","3","8","Female","","","","","","","null","<div style=""font-size:60px;"">+</div>","null","fixation","","","","","","","","","","","",""
"revaluation","83","454956","0.0-3.0-11.0-4.0-0.2","spark_pilot_norest","10690","3","8","Female","","false","","","","","[630.6000000238419]","./assets/img/space/animals/cat.jpg","[""ArrowRight""]","practice block","space","36","{""ArrowUp,ArrowLeft"":3,""ArrowUp,ArrowRight"":36,""ArrowDown,ArrowLeft"":15,""ArrowDown,ArrowRight"":23}","true","ArrowUp,ArrowRight","","","","","","",""
"html-keyboard-response","84","455462","0.0-3.0-11.0-4.0-1.2","spark_pilot_norest","10690","3","8","Female","","","","","","","null","<div style=""font-size:60px;"">+</div>","null","fixation","","","","","","","","","","","",""
"revaluation","85","459494","0.0-3.0-11.0-4.0-0.3","spark_pilot_norest","10690","3","8","Female","","false","","","","","[991.3999999761581]","./assets/img/space/animals/rabbit.jpg","[""ArrowLeft""]","practice block","space","15","{""ArrowUp,ArrowLeft"":3,""ArrowUp,ArrowRight"":36,""ArrowDown,ArrowLeft"":15,""ArrowDown,ArrowRight"":23}","false","ArrowDown,ArrowLeft","","","","","","",""
"html-keyboard-response","86","460003","0.0-3.0-11.0-4.0-1.3","spark_pilot_norest","10690","3","8","Female","","","","","","","null","<div style=""font-size:60px;"">+</div>","null","fixation","","","","","","","","","","","",""
"learning-instructions","87","468151","0.0-3.0-11.0-5.0-0.0","spark_pilot_norest","10690","3","8","Female","","","","","","","null","<p> You have almost finished this part of the game! </p>
            <p> We are going to ask you to make a few more choices. </p>","","instructions","","","","","","","","","","","",""
"learning-instructions","88","484143","0.0-3.0-11.0-5.0-0.1","spark_pilot_norest","10690","3","8","Female","","","","","","","null","<p> First, you need to decide whether to go up or down. When you see each picture, use the arrow keys to make your choice. </p>
            <p><b>You will not see which animal you found, but try to get to the one that will give you the most treasure.</b></p>","","instructions","","","","","","","","","","","",""
"html-keyboard-response","89","485150","0.0-3.0-11.0-6.0-0.0","spark_pilot_norest","10690","3","8","Female","","","","","","","null","<div style=""font-size:100px;color:red;"">Starting in...</div>","null","","","","","","","","","","","","",""
"html-keyboard-response","90","486156","0.0-3.0-11.0-6.0-1.0","spark_pilot_norest","10690","3","8","Female","","","","","","","null","<div style=""font-size:200px;color:red;"">3</div>","null","","","","","","","","","","","","",""
"html-keyboard-response","91","487157","0.0-3.0-11.0-6.0-2.0","spark_pilot_norest","10690","3","8","Female","","","","","","","null","<div style=""font-size:200px;color:red;"">2</div>","null","","","","","","","","","","","","",""
"html-keyboard-response","92","488170","0.0-3.0-11.0-6.0-3.0","spark_pilot_norest","10690","3","8","Female","","","","","","","null","<div style=""font-size:200px;color:red;"">1</div>","null","","","","","","","","","","","","",""
"revaluation","93","489038","0.0-3.0-11.0-7.0","spark_pilot_norest","10690","3","8","Female","","false","","","","","[863.3999999761581]","./assets/img/space/15.jpg","[""ArrowUp""]","practice block","space","0","{""ArrowUp,ArrowLeft"":3,""ArrowUp,ArrowRight"":36,""ArrowDown,ArrowLeft"":15,""ArrowDown,ArrowRight"":23}","true","ArrowUp","false","","","","","",""
"html-keyboard-response","94","489540","0.0-3.0-11.0-8.0","spark_pilot_norest","10690","3","8","Female","","","","","","","null","<div style=""font-size:60px;"">+</div>","null","fixation","","","","","","","","","","","",""
"learning-instructions","95","502919","0.0-3.0-11.0-9.0-0.0","spark_pilot_norest","10690","3","8","Female","","","","","","","null","<p> Now you will see the animals again and can search their chests for treasure. </p>
            <p> This time, you will not see how much treasure you earned, but you will earn more bonus money for making better choices. </p>","","instructions","","","","","","","","","","","",""
"html-keyboard-response","96","503927","0.0-3.0-11.0-10.0-0.0","spark_pilot_norest","10690","3","8","Female","","","","","","","null","<div style=""font-size:100px;color:red;"">Starting in...</div>","null","","","","","","","","","","","","",""
"html-keyboard-response","97","504931","0.0-3.0-11.0-10.0-1.0","spark_pilot_norest","10690","3","8","Female","","","","","","","null","<div style=""font-size:200px;color:red;"">3</div>","null","","","","","","","","","","","","",""
"html-keyboard-response","98","505943","0.0-3.0-11.0-10.0-2.0","spark_pilot_norest","10690","3","8","Female","","","","","","","null","<div style=""font-size:200px;color:red;"">2</div>","null","","","","","","","","","","","","",""
"html-keyboard-response","99","506955","0.0-3.0-11.0-10.0-3.0","spark_pilot_norest","10690","3","8","Female","","","","","","","null","<div style=""font-size:200px;color:red;"">1</div>","null","","","","","","","","","","","","",""
"revaluation","100","507510","0.0-3.0-11.0-11.0-0.0","spark_pilot_norest","10690","3","8","Female","","false","","","","","[548]","./assets/img/space/animals/cat.jpg","[""ArrowLeft""]","practice block","space","0","{""ArrowUp,ArrowLeft"":3,""ArrowUp,ArrowRight"":36,""ArrowDown,ArrowLeft"":15,""ArrowDown,ArrowRight"":23}","false","ArrowUp,ArrowLeft","","","","","","",""
"html-keyboard-response","101","508017","0.0-3.0-11.0-11.0-1.0","spark_pilot_norest","10690","3","8","Female","","","","","","","null","<div style=""font-size:60px;"">+</div>","null","fixation","","","","","","","","","","","",""
"revaluation","102","508997","0.0-3.0-11.0-11.0-0.1","spark_pilot_norest","10690","3","8","Female","","false","","","","","[974.0999999046326]","./assets/img/space/animals/rabbit.jpg","[""ArrowRight""]","practice block","space","0","{""ArrowUp,ArrowLeft"":3,""ArrowUp,ArrowRight"":36,""ArrowDown,ArrowLeft"":15,""ArrowDown,ArrowRight"":23}","true","ArrowDown,ArrowRight","","","","","","",""
"html-keyboard-response","103","509503","0.0-3.0-11.0-11.0-1.1","spark_pilot_norest","10690","3","8","Female","","","","","","","null","<div style=""font-size:60px;"">+</div>","null","fixation","","","","","","","","","","","",""
"learning-instructions","104","516768","0.0-3.0-12.0-0.0","spark_pilot_norest","10690","3","8","Female","","","","","","","2689.100000023842","<p> Before you start, we're going to ask you a few questions about how the game works. </p>","","instructions","","","","","","","","","","","",""
"comp-q","105","526818","0.0-3.0-13.0-0.0-0.0","spark_pilot_norest","10690","3","8","Female","","","","","","","4462.700000047684","<p> <b> True or False? </b> </p>
            <p> There can be 50 pieces of treasure in a given animal's chest. </p>","1","comp_question","","","","true","","","","","","","",""
"comp-q","106","536099","0.0-3.0-13.0-0.0-1.0","spark_pilot_norest","10690","3","8","Female","","","","","","","2630.2000000476837","<p> <b> That's right! </b> The amount of treasure in each chest can range from 0 to 40 pieces. </p>","0","comp_answer","","","","","","","","","","","",""
"comp-q","107","548126","0.0-3.0-13.0-0.1-0.1","spark_pilot_norest","10690","3","8","Female","","","","","","","4906.200000047684","<p> <b> True or False? </b> </p><p> In this game, all animals have the same amount of treasure in their left and right chests. </p>","1","comp_question","","","","true","","","","","","","",""
"comp-q","108","559715","0.0-3.0-13.0-0.1-1.1","spark_pilot_norest","10690","3","8","Female","","","","","","","6365.299999952316","<p> <b> That's right! </b> Animals have different amounts of treasure in their treasure chests. </p>","0","comp_answer","","","","","","","","","","","",""
"comp-q","109","568110","0.0-3.0-13.0-0.2-0.2","spark_pilot_norest","10690","3","8","Female","","","","","","","2560.2000000476837","<p> <b> True or False? </b> </p><p> The same animal will always be there if you go up in the same place. </p>","1","comp_question","","","","false","","","","","","","",""
"comp-q","110","579051","0.0-3.0-13.0-0.2-1.2","spark_pilot_norest","10690","3","8","Female","","","","","","","4650.5","<p> <b>Incorrect.</b> One animal lives in the upper part and one lives in the lower part of every place. </p>","0","comp_answer","","","","","","","","","","","",""
"comp-q","111","587489","0.0-3.0-13.0-0.3-0.3","spark_pilot_norest","10690","3","8","Female","","","","","","","2618.9000000953674","<p> <b> True or False? </b> </p><p> The same animal will always be there if you go up in the same place. </p>","1","comp_question","","","","false","","","","","","","",""
"comp-q","112","596426","0.0-3.0-13.0-0.3-1.3","spark_pilot_norest","10690","3","8","Female","","","","","","","2656.3000000715256","<p> <b>Incorrect.</b> One animal lives in the upper part and one lives in the lower part of every place. </p>","0","comp_answer","","","","","","","","","","","",""
"comp-q","113","605033","0.0-3.0-13.0-0.4-0.4","spark_pilot_norest","10690","3","8","Female","","","","","","","2792.7000000476837","<p> <b> True or False? </b> </p><p> The same animal will always be there if you go up in the same place. </p>","0","comp_question","","","","true","","","","","","","",""
"comp-q","114","613850","0.0-3.0-13.0-0.4-1.4","spark_pilot_norest","10690","3","8","Female","","","","","","","2380.3000000715256","<p> <b> That's right! </b> One animal lives in the upper part and one lives in the lower part of every place. </p>","0","comp_answer","","","","","","","","","","","",""
"comp-q","115","620604","0.0-3.0-13.0-0.5-0.5","spark_pilot_norest","10690","3","8","Female","","","","","","","1244.6000000238419","<p> <b> True or False? </b> </p><p> If you see a different picture, it means you are in a new place. </p>","0","comp_question","","","","false","","","","","","","",""
"comp-q","116","635626","0.0-3.0-13.0-0.5-1.5","spark_pilot_norest","10690","3","8","Female","","","","","","","3946.2999999523163","<p> <b>Incorrect.</b> Lots of different images may show the same place. For example,  you may see three different images that all remind you that you are in outer space. </p>","0","comp_answer","","","","","","","","","","","",""
"comp-q","117","643797","0.0-3.0-13.0-0.6-0.6","spark_pilot_norest","10690","3","8","Female","","","","","","","2676.3000000715256","<p> <b> True or False? </b> </p><p> If you see a different picture, it means you are in a new place. </p>","1","comp_question","","","","true","","","","","","","",""
"comp-q","118","659726","0.0-3.0-13.0-0.6-1.6","spark_pilot_norest","10690","3","8","Female","","","","","","","4706","<p> <b> That's right! </b> Lots of different images may show the same place. For example,  you may see three different images that all remind you that you are in outer space. </p>","0","comp_answer","","","","","","","","","","","",""
"learning-instructions","119","672864","0.0-3.0-14.0-0.0","spark_pilot_norest","10690","3","8","Female","","","","","","","3304.0999999046326","<p> Good job. Remember to do your best because the amount of treasure you earn will be converted into bonus money. </p>
            <p> It’s time to start the real game! </p>","","instructions","","","","","","","","","","","",""
"learning-instructions","120","677456","0.0-4.0-0.0-0.0","spark_pilot_norest","10690","3","8","Female","","","","","","","1897","<p> This time you are searching for treasure in the <b>ocean</b>.</p>","","instructions","","","","","","","","","","","",""
"learning-instructions","121","697181","0.0-4.0-0.0-0.1","spark_pilot_norest","10690","3","8","Female","","","","","","","2440.899999976158","<p><b>New</b> animals with <b>new</b> treasure chests live here. You need to explore to discover where the animal with the best treasure chest is.</p>
                    <p> Like before, once you figure out which animal has the chest with the most treasure, you should try to get to that animal and select that chest! </p>","","instructions","","","","","","","","","","","",""
"learning-instructions","122","713456","0.0-4.0-1.0-0.0","spark_pilot_norest","10690","3","8","Female","","","","","","","1546.8999999761581","<p> Remember, when you see a picture of the place, use the up and down keys to <b>find an animal</b>.</p>
            <p> When you encounter an animal, you should use the left and right keys to <b>select a treasure chest</b>.</p>
            <p> Don't forget to look out for the robber! </p>","","instructions","","","","","","","","","","","",""
"revaluation","123","717486","0.0-4.0-2.0-0.0","spark_pilot_norest","10690","3","8","Female","","true","","","","","[]","./assets/img/ocean/memory/13.jpg","[]","value training","ocean","-5","{""ArrowUp,ArrowLeft"":23,""ArrowUp,ArrowRight"":10,""ArrowDown,ArrowLeft"":8,""ArrowDown,ArrowRight"":30}","false","","false","original","1","0","","",""
"html-keyboard-response","124","718005","0.0-4.0-2.0-1.0","spark_pilot_norest","10690","3","8","Female","","","","","","","null","<div style=""font-size:60px;"">+</div>","null","fixation","","","","","","","","","1","","",""
"revaluation","125","724026","0.0-4.0-2.0-0.1","spark_pilot_norest","10690","3","8","Female","","false","","","","","[793.1000000238419,1757.8999999761581]","./assets/img/ocean/memory/15.jpg","[""ArrowDown"",""ArrowLeft""]","value training","ocean","8","{""ArrowUp,ArrowLeft"":23,""ArrowUp,ArrowRight"":10,""ArrowDown,ArrowLeft"":8,""ArrowDown,ArrowRight"":30}","false","ArrowDown,ArrowLeft","false","original","1","2","","",""
"html-keyboard-response","126","724541","0.0-4.0-2.0-1.1","spark_pilot_norest","10690","3","8","Female","","","","","","","null","<div style=""font-size:60px;"">+</div>","null","fixation","","","","","","","","","3","","",""
"revaluation","127","730578","0.0-4.0-2.0-0.2","spark_pilot_norest","10690","3","8","Female","","false","","","","","[1002.1999999284744,1055.8999999761581]","./assets/img/ocean/memory/2.jpg","[""ArrowUp"",""ArrowRight""]","value training","ocean","10","{""ArrowUp,ArrowLeft"":23,""ArrowUp,ArrowRight"":10,""ArrowDown,ArrowLeft"":8,""ArrowDown,ArrowRight"":30}","false","ArrowUp,ArrowRight","false","original","1","4","","",""
"html-keyboard-response","128","731084","0.0-4.0-2.0-1.2","spark_pilot_norest","10690","3","8","Female","","","","","","","null","<div style=""font-size:60px;"">+</div>","null","fixation","","","","","","","","","5","","",""
"revaluation","129","737102","0.0-4.0-2.0-0.3","spark_pilot_norest","10690","3","8","Female","","false","","","","","[821.3999999761581,983.2000000476837]","./assets/img/ocean/memory/29.jpg","[""ArrowUp"",""ArrowLeft""]","value training","ocean","23","{""ArrowUp,ArrowLeft"":23,""ArrowUp,ArrowRight"":10,""ArrowDown,ArrowLeft"":8,""ArrowDown,ArrowRight"":30}","false","ArrowUp,ArrowLeft","false","original","1","6","","",""
"html-keyboard-response","130","737608","0.0-4.0-2.0-1.3","spark_pilot_norest","10690","3","8","Female","","","","","","","null","<div style=""font-size:60px;"">+</div>","null","fixation","","","","","","","","","7","","",""
"revaluation","131","743634","0.0-4.0-2.0-0.4","spark_pilot_norest","10690","3","8","Female","","false","","","","","[770.8999999761581,1192.6999999284744]","./assets/img/ocean/memory/8.jpg","[""ArrowDown"",""ArrowRight""]","value training","ocean","30","{""ArrowUp,ArrowLeft"":23,""ArrowUp,ArrowRight"":10,""ArrowDown,ArrowLeft"":8,""ArrowDown,ArrowRight"":30}","true","ArrowDown,ArrowRight","false","original","1","8","","",""
"html-keyboard-response","132","744136","0.0-4.0-2.0-1.4","spark_pilot_norest","10690","3","8","Female","","","","","","","null","<div style=""font-size:60px;"">+</div>","null","fixation","","","","","","","","","9","","",""
"revaluation","133","750144","0.0-4.0-2.0-0.5","spark_pilot_norest","10690","3","8","Female","","false","","","","","[1245.1000000238419,1093.3999999761581]","./assets/img/ocean/memory/21.jpg","[""ArrowUp"",""ArrowRight""]","value training","ocean","10","{""ArrowUp,ArrowLeft"":23,""ArrowUp,ArrowRight"":10,""ArrowDown,ArrowLeft"":8,""ArrowDown,ArrowRight"":30}","false","ArrowUp,ArrowRight","false","original","1","10","","",""
"html-keyboard-response","134","750645","0.0-4.0-2.0-1.5","spark_pilot_norest","10690","3","8","Female","","","","","","","null","<div style=""font-size:60px;"">+</div>","null","fixation","","","","","","","","","11","","",""
"revaluation","135","756650","0.0-4.0-2.0-0.6","spark_pilot_norest","10690","3","8","Female","","false","","","","","[1187.1999999284744,923.8999999761581]","./assets/img/ocean/memory/39.jpg","[""ArrowDown"",""ArrowLeft""]","value training","ocean","8","{""ArrowUp,ArrowLeft"":23,""ArrowUp,ArrowRight"":10,""ArrowDown,ArrowLeft"":8,""ArrowDown,ArrowRight"":30}","false","ArrowDown,ArrowLeft","false","original","1","12","","",""
"html-keyboard-response","136","757152","0.0-4.0-2.0-1.6","spark_pilot_norest","10690","3","8","Female","","","","","","","null","<div style=""font-size:60px;"">+</div>","null","fixation","","","","","","","","","13","","",""
"revaluation","137","761157","0.0-4.0-2.0-0.7","spark_pilot_norest","10690","3","8","Female","","false","","","","","[1821.5]","./assets/img/ocean/catch/5.jpg","[""spaceBar""]","value training","ocean","0","{""ArrowUp,ArrowLeft"":23,""ArrowUp,ArrowRight"":10,""ArrowDown,ArrowLeft"":8,""ArrowDown,ArrowRight"":30}","true","spaceBar","true","original","1","14","","",""
"html-keyboard-response","138","761659","0.0-4.0-2.0-1.7","spark_pilot_norest","10690","3","8","Female","","","","","","","null","<div style=""font-size:60px;"">+</div>","null","fixation","","","","","","","","","15","","",""
"revaluation","139","767666","0.0-4.0-2.0-0.8","spark_pilot_norest","10690","3","8","Female","","false","","","","","[1560.8000000715256,973.5]","./assets/img/ocean/memory/19.jpg","[""ArrowUp"",""ArrowRight""]","value training","ocean","10","{""ArrowUp,ArrowLeft"":23,""ArrowUp,ArrowRight"":10,""ArrowDown,ArrowLeft"":8,""ArrowDown,ArrowRight"":30}","false","ArrowUp,ArrowRight","false","original","1","16","","",""
"html-keyboard-response","140","768168","0.0-4.0-2.0-1.8","spark_pilot_norest","10690","3","8","Female","","","","","","","null","<div style=""font-size:60px;"">+</div>","null","fixation","","","","","","","","","17","","",""
"revaluation","141","774175","0.0-4.0-2.0-0.9","spark_pilot_norest","10690","3","8","Female","","false","","","","","[1225.5,773.3999999761581]","./assets/img/ocean/memory/5.jpg","[""ArrowUp"",""ArrowLeft""]","value training","ocean","23","{""ArrowUp,ArrowLeft"":23,""ArrowUp,ArrowRight"":10,""ArrowDown,ArrowLeft"":8,""ArrowDown,ArrowRight"":30}","false","ArrowUp,ArrowLeft","false","original","1","18","","",""
"html-keyboard-response","142","774676","0.0-4.0-2.0-1.9","spark_pilot_norest","10690","3","8","Female","","","","","","","null","<div style=""font-size:60px;"">+</div>","null","fixation","","","","","","","","","19","","",""
"revaluation","143","780684","0.0-4.0-2.0-0.10","spark_pilot_norest","10690","3","8","Female","","false","","","","","[752,470.39999997615814]","./assets/img/ocean/memory/41.jpg","[""ArrowDown"",""ArrowRight""]","value training","ocean","30","{""ArrowUp,ArrowLeft"":23,""ArrowUp,ArrowRight"":10,""ArrowDown,ArrowLeft"":8,""ArrowDown,ArrowRight"":30}","true","ArrowDown,ArrowRight","false","original","1","20","","",""
"html-keyboard-response","144","781186","0.0-4.0-2.0-1.10","spark_pilot_norest","10690","3","8","Female","","","","","","","null","<div style=""font-size:60px;"">+</div>","null","fixation","","","","","","","","","21","","",""
"revaluation","145","787193","0.0-4.0-2.0-0.11","spark_pilot_norest","10690","3","8","Female","","false","","","","","[1014.5,551]","./assets/img/ocean/memory/16.jpg","[""ArrowDown"",""ArrowLeft""]","value training","ocean","8","{""ArrowUp,ArrowLeft"":23,""ArrowUp,ArrowRight"":10,""ArrowDown,ArrowLeft"":8,""ArrowDown,ArrowRight"":30}","false","ArrowDown,ArrowLeft","false","original","1","22","","",""
"html-keyboard-response","146","787695","0.0-4.0-2.0-1.11","spark_pilot_norest","10690","3","8","Female","","","","","","","null","<div style=""font-size:60px;"">+</div>","null","fixation","","","","","","","","","23","","",""
"revaluation","147","793703","0.0-4.0-2.0-0.12","spark_pilot_norest","10690","3","8","Female","","false","","","","","[845,613.7000000476837]","./assets/img/ocean/memory/40.jpg","[""ArrowDown"",""ArrowRight""]","value training","ocean","30","{""ArrowUp,ArrowLeft"":23,""ArrowUp,ArrowRight"":10,""ArrowDown,ArrowLeft"":8,""ArrowDown,ArrowRight"":30}","true","ArrowDown,ArrowRight","false","original","1","24","","",""
"html-keyboard-response","148","794205","0.0-4.0-2.0-1.12","spark_pilot_norest","10690","3","8","Female","","","","","","","null","<div style=""font-size:60px;"">+</div>","null","fixation","","","","","","","","","25","","",""
"revaluation","149","800215","0.0-4.0-2.0-0.13","spark_pilot_norest","10690","3","8","Female","","false","","","","","[821.7000000476837,990.2999999523163]","./assets/img/ocean/memory/16.jpg","[""ArrowDown"",""ArrowLeft""]","value training","ocean","8","{""ArrowUp,ArrowLeft"":23,""ArrowUp,ArrowRight"":10,""ArrowDown,ArrowLeft"":8,""ArrowDown,ArrowRight"":30}","false","ArrowDown,ArrowLeft","false","original","1","26","","",""
"html-keyboard-response","150","800717","0.0-4.0-2.0-1.13","spark_pilot_norest","10690","3","8","Female","","","","","","","null","<div style=""font-size:60px;"">+</div>","null","fixation","","","","","","","","","27","","",""
"revaluation","151","804724","0.0-4.0-2.0-0.14","spark_pilot_norest","10690","3","8","Female","","true","","","","","[]","./assets/img/ocean/memory/8.jpg","[]","value training","ocean","-5","{""ArrowUp,ArrowLeft"":23,""ArrowUp,ArrowRight"":10,""ArrowDown,ArrowLeft"":8,""ArrowDown,ArrowRight"":30}","false","","false","original","1","28","","",""
"html-keyboard-response","152","805226","0.0-4.0-2.0-1.14","spark_pilot_norest","10690","3","8","Female","","","","","","","null","<div style=""font-size:60px;"">+</div>","null","fixation","","","","","","","","","29","","",""
"revaluation","153","809230","0.0-4.0-2.0-0.15","spark_pilot_norest","10690","3","8","Female","","false","","","","","[796.3999999761581]","./assets/img/ocean/catch/1.jpg","[""spaceBar""]","value training","ocean","0","{""ArrowUp,ArrowLeft"":23,""ArrowUp,ArrowRight"":10,""ArrowDown,ArrowLeft"":8,""ArrowDown,ArrowRight"":30}","true","spaceBar","true","original","1","30","","",""
"html-keyboard-response","154","809732","0.0-4.0-2.0-1.15","spark_pilot_norest","10690","3","8","Female","","","","","","","null","<div style=""font-size:60px;"">+</div>","null","fixation","","","","","","","","","31","","",""
"revaluation","155","815740","0.0-4.0-2.0-0.16","spark_pilot_norest","10690","3","8","Female","","false","","","","","[1313.0999999046326,948.2000000476837]","./assets/img/ocean/memory/27.jpg","[""ArrowDown"",""ArrowLeft""]","value training","ocean","8","{""ArrowUp,ArrowLeft"":23,""ArrowUp,ArrowRight"":10,""ArrowDown,ArrowLeft"":8,""ArrowDown,ArrowRight"":30}","false","ArrowDown,ArrowLeft","false","original","1","32","","",""
"html-keyboard-response","156","816241","0.0-4.0-2.0-1.16","spark_pilot_norest","10690","3","8","Female","","","","","","","null","<div style=""font-size:60px;"">+</div>","null","fixation","","","","","","","","","33","","",""
"revaluation","157","820248","0.0-4.0-2.0-0.17","spark_pilot_norest","10690","3","8","Female","","false","","","","","[1042.3999999761581]","./assets/img/ocean/catch/4.jpg","[""spaceBar""]","value training","ocean","0","{""ArrowUp,ArrowLeft"":23,""ArrowUp,ArrowRight"":10,""ArrowDown,ArrowLeft"":8,""ArrowDown,ArrowRight"":30}","true","spaceBar","true","original","1","34","","",""
"html-keyboard-response","158","820750","0.0-4.0-2.0-1.17","spark_pilot_norest","10690","3","8","Female","","","","","","","null","<div style=""font-size:60px;"">+</div>","null","fixation","","","","","","","","","35","","",""
"revaluation","159","826757","0.0-4.0-2.0-0.18","spark_pilot_norest","10690","3","8","Female","","false","","","","","[1281.2000000476837,559.7999999523163]","./assets/img/ocean/memory/31.jpg","[""ArrowUp"",""ArrowRight""]","value training","ocean","10","{""ArrowUp,ArrowLeft"":23,""ArrowUp,ArrowRight"":10,""ArrowDown,ArrowLeft"":8,""ArrowDown,ArrowRight"":30}","false","ArrowUp,ArrowRight","false","original","1","36","","",""
"html-keyboard-response","160","827259","0.0-4.0-2.0-1.18","spark_pilot_norest","10690","3","8","Female","","","","","","","null","<div style=""font-size:60px;"">+</div>","null","fixation","","","","","","","","","37","","",""
"revaluation","161","831266","0.0-4.0-2.0-0.19","spark_pilot_norest","10690","3","8","Female","","false","","","","","[986.2000000476837]","./assets/img/ocean/catch/3.jpg","[""spaceBar""]","value training","ocean","0","{""ArrowUp,ArrowLeft"":23,""ArrowUp,ArrowRight"":10,""ArrowDown,ArrowLeft"":8,""ArrowDown,ArrowRight"":30}","true","spaceBar","true","original","1","38","","",""
"html-keyboard-response","162","831768","0.0-4.0-2.0-1.19","spark_pilot_norest","10690","3","8","Female","","","","","","","null","<div style=""font-size:60px;"">+</div>","null","fixation","","","","","","","","","39","","",""
"revaluation","163","835774","0.0-4.0-2.0-0.20","spark_pilot_norest","10690","3","8","Female","","true","","","","","[]","./assets/img/ocean/memory/26.jpg","[]","value training","ocean","-5","{""ArrowUp,ArrowLeft"":23,""ArrowUp,ArrowRight"":10,""ArrowDown,ArrowLeft"":8,""ArrowDown,ArrowRight"":30}","false","","false","original","1","40","","",""
"html-keyboard-response","164","836276","0.0-4.0-2.0-1.20","spark_pilot_norest","10690","3","8","Female","","","","","","","null","<div style=""font-size:60px;"">+</div>","null","fixation","","","","","","","","","41","","",""
"revaluation","165","842284","0.0-4.0-2.0-0.21","spark_pilot_norest","10690","3","8","Female","","false","","","","","[1937.8999999761581,1374.6000000238419]","./assets/img/ocean/memory/14.jpg","[""ArrowDown"",""ArrowRight""]","value training","ocean","30","{""ArrowUp,ArrowLeft"":23,""ArrowUp,ArrowRight"":10,""ArrowDown,ArrowLeft"":8,""ArrowDown,ArrowRight"":30}","true","ArrowDown,ArrowRight","false","original","1","42","","",""
"html-keyboard-response","166","842786","0.0-4.0-2.0-1.21","spark_pilot_norest","10690","3","8","Female","","","","","","","null","<div style=""font-size:60px;"">+</div>","null","fixation","","","","","","","","","43","","",""
"revaluation","167","846793","0.0-4.0-2.0-0.22","spark_pilot_norest","10690","3","8","Female","","true","","","","","[]","./assets/img/ocean/memory/28.jpg","[]","value training","ocean","-5","{""ArrowUp,ArrowLeft"":23,""ArrowUp,ArrowRight"":10,""ArrowDown,ArrowLeft"":8,""ArrowDown,ArrowRight"":30}","false","","false","original","1","44","","",""
"html-keyboard-response","168","847295","0.0-4.0-2.0-1.22","spark_pilot_norest","10690","3","8","Female","","","","","","","null","<div style=""font-size:60px;"">+</div>","null","fixation","","","","","","","","","45","","",""
"revaluation","169","853304","0.0-4.0-2.0-0.23","spark_pilot_norest","10690","3","8","Female","","false","","","","","[862.5,656.5]","./assets/img/ocean/memory/28.jpg","[""ArrowDown"",""ArrowLeft""]","value training","ocean","8","{""ArrowUp,ArrowLeft"":23,""ArrowUp,ArrowRight"":10,""ArrowDown,ArrowLeft"":8,""ArrowDown,ArrowRight"":30}","false","ArrowDown,ArrowLeft","false","original","1","46","","",""
"html-keyboard-response","170","853806","0.0-4.0-2.0-1.23","spark_pilot_norest","10690","3","8","Female","","","","","","","null","<div style=""font-size:60px;"">+</div>","null","fixation","","","","","","","","","47","","",""
"revaluation","171","857814","0.0-4.0-2.0-0.24","spark_pilot_norest","10690","3","8","Female","","true","","","","","[]","./assets/img/ocean/memory/31.jpg","[]","value training","ocean","-5","{""ArrowUp,ArrowLeft"":23,""ArrowUp,ArrowRight"":10,""ArrowDown,ArrowLeft"":8,""ArrowDown,ArrowRight"":30}","false","","false","original","1","48","","",""
"html-keyboard-response","172","858315","0.0-4.0-2.0-1.24","spark_pilot_norest","10690","3","8","Female","","","","","","","null","<div style=""font-size:60px;"">+</div>","null","fixation","","","","","","","","","49","","",""
"revaluation","173","864323","0.0-4.0-2.0-0.25","spark_pilot_norest","10690","3","8","Female","","false","","","","","[800.4000000953674,540.7999999523163]","./assets/img/ocean/memory/36.jpg","[""ArrowDown"",""ArrowRight""]","value training","ocean","30","{""ArrowUp,ArrowLeft"":23,""ArrowUp,ArrowRight"":10,""ArrowDown,ArrowLeft"":8,""ArrowDown,ArrowRight"":30}","true","ArrowDown,ArrowRight","false","original","1","50","","",""
"html-keyboard-response","174","864824","0.0-4.0-2.0-1.25","spark_pilot_norest","10690","3","8","Female","","","","","","","null","<div style=""font-size:60px;"">+</div>","null","fixation","","","","","","","","","51","","",""
"revaluation","175","870841","0.0-4.0-2.0-0.26","spark_pilot_norest","10690","3","8","Female","","false","","","","","[1060.5999999046326,749]","./assets/img/ocean/memory/13.jpg","[""ArrowDown"",""ArrowRight""]","value training","ocean","30","{""ArrowUp,ArrowLeft"":23,""ArrowUp,ArrowRight"":10,""ArrowDown,ArrowLeft"":8,""ArrowDown,ArrowRight"":30}","true","ArrowDown,ArrowRight","false","original","1","52","","",""
"html-keyboard-response","176","871343","0.0-4.0-2.0-1.26","spark_pilot_norest","10690","3","8","Female","","","","","","","null","<div style=""font-size:60px;"">+</div>","null","fixation","","","","","","","","","53","","",""
"revaluation","177","877349","0.0-4.0-2.0-0.27","spark_pilot_norest","10690","3","8","Female","","true","","","","","[1236.7999999523163]","./assets/img/ocean/memory/22.jpg","[""ArrowUp""]","value training","ocean","-5","{""ArrowUp,ArrowLeft"":23,""ArrowUp,ArrowRight"":10,""ArrowDown,ArrowLeft"":8,""ArrowDown,ArrowRight"":30}","false","ArrowUp","false","original","1","54","","",""
"html-keyboard-response","178","877851","0.0-4.0-2.0-1.27","spark_pilot_norest","10690","3","8","Female","","","","","","","null","<div style=""font-size:60px;"">+</div>","null","fixation","","","","","","","","","55","","",""
"revaluation","179","883859","0.0-4.0-2.0-0.28","spark_pilot_norest","10690","3","8","Female","","false","","","","","[938,538.8999999761581]","./assets/img/ocean/memory/17.jpg","[""ArrowUp"",""ArrowLeft""]","value training","ocean","23","{""ArrowUp,ArrowLeft"":23,""ArrowUp,ArrowRight"":10,""ArrowDown,ArrowLeft"":8,""ArrowDown,ArrowRight"":30}","false","ArrowUp,ArrowLeft","false","original","1","56","","",""
"html-keyboard-response","180","884364","0.0-4.0-2.0-1.28","spark_pilot_norest","10690","3","8","Female","","","","","","","null","<div style=""font-size:60px;"">+</div>","null","fixation","","","","","","","","","57","","",""
"revaluation","181","890372","0.0-4.0-2.0-0.29","spark_pilot_norest","10690","3","8","Female","","false","","","","","[866.8999999761581,788]","./assets/img/ocean/memory/40.jpg","[""ArrowDown"",""ArrowRight""]","value training","ocean","30","{""ArrowUp,ArrowLeft"":23,""ArrowUp,ArrowRight"":10,""ArrowDown,ArrowLeft"":8,""ArrowDown,ArrowRight"":30}","true","ArrowDown,ArrowRight","false","original","1","58","","",""
"html-keyboard-response","182","890874","0.0-4.0-2.0-1.29","spark_pilot_norest","10690","3","8","Female","","","","","","","null","<div style=""font-size:60px;"">+</div>","null","fixation","","","","","","","","","59","","",""
"revaluation","183","896893","0.0-4.0-2.0-0.30","spark_pilot_norest","10690","3","8","Female","","false","","","","","[1465.8999999761581,958]","./assets/img/ocean/memory/29.jpg","[""ArrowDown"",""ArrowRight""]","value training","ocean","30","{""ArrowUp,ArrowLeft"":23,""ArrowUp,ArrowRight"":10,""ArrowDown,ArrowLeft"":8,""ArrowDown,ArrowRight"":30}","true","ArrowDown,ArrowRight","false","original","1","60","","",""
"html-keyboard-response","184","897395","0.0-4.0-2.0-1.30","spark_pilot_norest","10690","3","8","Female","","","","","","","null","<div style=""font-size:60px;"">+</div>","null","fixation","","","","","","","","","61","","",""
"revaluation","185","903399","0.0-4.0-2.0-0.31","spark_pilot_norest","10690","3","8","Female","","false","","","","","[807.8999999761581,735.7000000476837]","./assets/img/ocean/memory/22.jpg","[""ArrowUp"",""ArrowRight""]","value training","ocean","10","{""ArrowUp,ArrowLeft"":23,""ArrowUp,ArrowRight"":10,""ArrowDown,ArrowLeft"":8,""ArrowDown,ArrowRight"":30}","false","ArrowUp,ArrowRight","false","original","1","62","","",""
"html-keyboard-response","186","903902","0.0-4.0-2.0-1.31","spark_pilot_norest","10690","3","8","Female","","","","","","","null","<div style=""font-size:60px;"">+</div>","null","fixation","","","","","","","","","63","","",""
"revaluation","187","907909","0.0-4.0-2.0-0.32","spark_pilot_norest","10690","3","8","Female","","false","","","","","[962.6999999284744]","./assets/img/ocean/catch/7.jpg","[""spaceBar""]","value training","ocean","0","{""ArrowUp,ArrowLeft"":23,""ArrowUp,ArrowRight"":10,""ArrowDown,ArrowLeft"":8,""ArrowDown,ArrowRight"":30}","true","spaceBar","true","original","1","64","","",""
"html-keyboard-response","188","908412","0.0-4.0-2.0-1.32","spark_pilot_norest","10690","3","8","Female","","","","","","","null","<div style=""font-size:60px;"">+</div>","null","fixation","","","","","","","","","65","","",""
"revaluation","189","914419","0.0-4.0-2.0-0.33","spark_pilot_norest","10690","3","8","Female","","false","","","","","[1023.7000000476837,677.1000000238419]","./assets/img/ocean/memory/39.jpg","[""ArrowUp"",""ArrowRight""]","value training","ocean","10","{""ArrowUp,ArrowLeft"":23,""ArrowUp,ArrowRight"":10,""ArrowDown,ArrowLeft"":8,""ArrowDown,ArrowRight"":30}","false","ArrowUp,ArrowRight","false","original","1","66","","",""
"html-keyboard-response","190","914921","0.0-4.0-2.0-1.33","spark_pilot_norest","10690","3","8","Female","","","","","","","null","<div style=""font-size:60px;"">+</div>","null","fixation","","","","","","","","","67","","",""
"revaluation","191","918928","0.0-4.0-2.0-0.34","spark_pilot_norest","10690","3","8","Female","","true","","","","","[]","./assets/img/ocean/memory/36.jpg","[]","value training","ocean","-5","{""ArrowUp,ArrowLeft"":23,""ArrowUp,ArrowRight"":10,""ArrowDown,ArrowLeft"":8,""ArrowDown,ArrowRight"":30}","false","","false","original","1","68","","",""
"html-keyboard-response","192","919430","0.0-4.0-2.0-1.34","spark_pilot_norest","10690","3","8","Female","","","","","","","null","<div style=""font-size:60px;"">+</div>","null","fixation","","","","","","","","","69","","",""
"revaluation","193","925437","0.0-4.0-2.0-0.35","spark_pilot_norest","10690","3","8","Female","","false","","","","","[966.1999999284744,807.7999999523163]","./assets/img/ocean/memory/2.jpg","[""ArrowUp"",""ArrowRight""]","value training","ocean","10","{""ArrowUp,ArrowLeft"":23,""ArrowUp,ArrowRight"":10,""ArrowDown,ArrowLeft"":8,""ArrowDown,ArrowRight"":30}","false","ArrowUp,ArrowRight","false","original","1","70","","",""
"html-keyboard-response","194","925938","0.0-4.0-2.0-1.35","spark_pilot_norest","10690","3","8","Female","","","","","","","null","<div style=""font-size:60px;"">+</div>","null","fixation","","","","","","","","","71","","",""
"revaluation","195","931943","0.0-4.0-2.0-0.36","spark_pilot_norest","10690","3","8","Female","","false","","","","","[862.8999999761581,994.3000000715256]","./assets/img/ocean/memory/27.jpg","[""ArrowDown"",""ArrowRight""]","value training","ocean","30","{""ArrowUp,ArrowLeft"":23,""ArrowUp,ArrowRight"":10,""ArrowDown,ArrowLeft"":8,""ArrowDown,ArrowRight"":30}","true","ArrowDown,ArrowRight","false","original","1","72","","",""
"html-keyboard-response","196","932445","0.0-4.0-2.0-1.36","spark_pilot_norest","10690","3","8","Female","","","","","","","null","<div style=""font-size:60px;"">+</div>","null","fixation","","","","","","","","","73","","",""
"revaluation","197","938452","0.0-4.0-2.0-0.37","spark_pilot_norest","10690","3","8","Female","","false","","","","","[1390.8999999761581,1753.5]","./assets/img/ocean/memory/15.jpg","[""ArrowUp"",""ArrowLeft""]","value training","ocean","23","{""ArrowUp,ArrowLeft"":23,""ArrowUp,ArrowRight"":10,""ArrowDown,ArrowLeft"":8,""ArrowDown,ArrowRight"":30}","false","ArrowUp,ArrowLeft","false","original","1","74","","",""
"html-keyboard-response","198","938955","0.0-4.0-2.0-1.37","spark_pilot_norest","10690","3","8","Female","","","","","","","null","<div style=""font-size:60px;"">+</div>","null","fixation","","","","","","","","","75","","",""
"revaluation","199","944972","0.0-4.0-2.0-0.38","spark_pilot_norest","10690","3","8","Female","","false","","","","","[709.5,557.5]","./assets/img/ocean/memory/7.jpg","[""ArrowUp"",""ArrowRight""]","value training","ocean","10","{""ArrowUp,ArrowLeft"":23,""ArrowUp,ArrowRight"":10,""ArrowDown,ArrowLeft"":8,""ArrowDown,ArrowRight"":30}","false","ArrowUp,ArrowRight","false","original","1","76","","",""
"html-keyboard-response","200","945473","0.0-4.0-2.0-1.38","spark_pilot_norest","10690","3","8","Female","","","","","","","null","<div style=""font-size:60px;"">+</div>","null","fixation","","","","","","","","","77","","",""
"revaluation","201","949477","0.0-4.0-2.0-0.39","spark_pilot_norest","10690","3","8","Female","","false","","","","","[725.1000000238419]","./assets/img/ocean/catch/0.jpg","[""spaceBar""]","value training","ocean","0","{""ArrowUp,ArrowLeft"":23,""ArrowUp,ArrowRight"":10,""ArrowDown,ArrowLeft"":8,""ArrowDown,ArrowRight"":30}","true","spaceBar","true","original","1","78","","",""
"html-keyboard-response","202","949979","0.0-4.0-2.0-1.39","spark_pilot_norest","10690","3","8","Female","","","","","","","null","<div style=""font-size:60px;"">+</div>","null","fixation","","","","","","","","","79","","",""
"revaluation","203","955986","0.0-4.0-2.0-0.40","spark_pilot_norest","10690","3","8","Female","","false","","","","","[1085.8999999761581,904.6000000238419]","./assets/img/ocean/memory/17.jpg","[""ArrowDown"",""ArrowLeft""]","value training","ocean","8","{""ArrowUp,ArrowLeft"":23,""ArrowUp,ArrowRight"":10,""ArrowDown,ArrowLeft"":8,""ArrowDown,ArrowRight"":30}","false","ArrowDown,ArrowLeft","false","original","1","80","","",""
"html-keyboard-response","204","956487","0.0-4.0-2.0-1.40","spark_pilot_norest","10690","3","8","Female","","","","","","","null","<div style=""font-size:60px;"">+</div>","null","fixation","","","","","","","","","81","","",""
"revaluation","205","962494","0.0-4.0-2.0-0.41","spark_pilot_norest","10690","3","8","Female","","false","","","","","[1036,685.1999999284744]","./assets/img/ocean/memory/19.jpg","[""ArrowUp"",""ArrowRight""]","value training","ocean","10","{""ArrowUp,ArrowLeft"":23,""ArrowUp,ArrowRight"":10,""ArrowDown,ArrowLeft"":8,""ArrowDown,ArrowRight"":30}","false","ArrowUp,ArrowRight","false","original","1","82","","",""
"html-keyboard-response","206","962996","0.0-4.0-2.0-1.41","spark_pilot_norest","10690","3","8","Female","","","","","","","null","<div style=""font-size:60px;"">+</div>","null","fixation","","","","","","","","","83","","",""
"revaluation","207","969002","0.0-4.0-2.0-0.42","spark_pilot_norest","10690","3","8","Female","","false","","","","","[980,980.1999999284744]","./assets/img/ocean/memory/26.jpg","[""ArrowUp"",""ArrowRight""]","value training","ocean","10","{""ArrowUp,ArrowLeft"":23,""ArrowUp,ArrowRight"":10,""ArrowDown,ArrowLeft"":8,""ArrowDown,ArrowRight"":30}","false","ArrowUp,ArrowRight","false","original","1","84","","",""
"html-keyboard-response","208","969504","0.0-4.0-2.0-1.42","spark_pilot_norest","10690","3","8","Female","","","","","","","null","<div style=""font-size:60px;"">+</div>","null","fixation","","","","","","","","","85","","",""
"revaluation","209","973511","0.0-4.0-2.0-0.43","spark_pilot_norest","10690","3","8","Female","","false","","","","","[1370]","./assets/img/ocean/catch/6.jpg","[""spaceBar""]","value training","ocean","0","{""ArrowUp,ArrowLeft"":23,""ArrowUp,ArrowRight"":10,""ArrowDown,ArrowLeft"":8,""ArrowDown,ArrowRight"":30}","true","spaceBar","true","original","1","86","","",""
"html-keyboard-response","210","974014","0.0-4.0-2.0-1.43","spark_pilot_norest","10690","3","8","Female","","","","","","","null","<div style=""font-size:60px;"">+</div>","null","fixation","","","","","","","","","87","","",""
"revaluation","211","980022","0.0-4.0-2.0-0.44","spark_pilot_norest","10690","3","8","Female","","false","","","","","[1875.3999999761581,1031.2000000476837]","./assets/img/ocean/memory/14.jpg","[""ArrowDown"",""ArrowLeft""]","value training","ocean","8","{""ArrowUp,ArrowLeft"":23,""ArrowUp,ArrowRight"":10,""ArrowDown,ArrowLeft"":8,""ArrowDown,ArrowRight"":30}","false","ArrowDown,ArrowLeft","false","original","1","88","","",""
"html-keyboard-response","212","980524","0.0-4.0-2.0-1.44","spark_pilot_norest","10690","3","8","Female","","","","","","","null","<div style=""font-size:60px;"">+</div>","null","fixation","","","","","","","","","89","","",""
"revaluation","213","984530","0.0-4.0-2.0-0.45","spark_pilot_norest","10690","3","8","Female","","false","","","","","[908.3000000715256]","./assets/img/ocean/catch/2.jpg","[""spaceBar""]","value training","ocean","0","{""ArrowUp,ArrowLeft"":23,""ArrowUp,ArrowRight"":10,""ArrowDown,ArrowLeft"":8,""ArrowDown,ArrowRight"":30}","true","spaceBar","true","original","1","90","","",""
"html-keyboard-response","214","985032","0.0-4.0-2.0-1.45","spark_pilot_norest","10690","3","8","Female","","","","","","","null","<div style=""font-size:60px;"">+</div>","null","fixation","","","","","","","","","91","","",""
"revaluation","215","991035","0.0-4.0-2.0-0.46","spark_pilot_norest","10690","3","8","Female","","false","","","","","[753.5,606.6000000238419]","./assets/img/ocean/memory/7.jpg","[""ArrowUp"",""ArrowRight""]","value training","ocean","10","{""ArrowUp,ArrowLeft"":23,""ArrowUp,ArrowRight"":10,""ArrowDown,ArrowLeft"":8,""ArrowDown,ArrowRight"":30}","false","ArrowUp,ArrowRight","false","original","1","92","","",""
"html-keyboard-response","216","991537","0.0-4.0-2.0-1.46","spark_pilot_norest","10690","3","8","Female","","","","","","","null","<div style=""font-size:60px;"">+</div>","null","fixation","","","","","","","","","93","","",""
"revaluation","217","997543","0.0-4.0-2.0-0.47","spark_pilot_norest","10690","3","8","Female","","false","","","","","[904,615.8999999761581]","./assets/img/ocean/memory/5.jpg","[""ArrowUp"",""ArrowRight""]","value training","ocean","10","{""ArrowUp,ArrowLeft"":23,""ArrowUp,ArrowRight"":10,""ArrowDown,ArrowLeft"":8,""ArrowDown,ArrowRight"":30}","false","ArrowUp,ArrowRight","false","original","1","94","","",""
"html-keyboard-response","218","998045","0.0-4.0-2.0-1.47","spark_pilot_norest","10690","3","8","Female","","","","","","","null","<div style=""font-size:60px;"">+</div>","null","fixation","","","","","","","","","95","","",""
"revaluation","219","1004065","0.0-4.0-2.0-0.48","spark_pilot_norest","10690","3","8","Female","","false","","","","","[632.5,529.3999999761581]","./assets/img/ocean/memory/21.jpg","[""ArrowDown"",""ArrowLeft""]","value training","ocean","8","{""ArrowUp,ArrowLeft"":23,""ArrowUp,ArrowRight"":10,""ArrowDown,ArrowLeft"":8,""ArrowDown,ArrowRight"":30}","false","ArrowDown,ArrowLeft","false","original","1","96","","",""
"html-keyboard-response","220","1004567","0.0-4.0-2.0-1.48","spark_pilot_norest","10690","3","8","Female","","","","","","","null","<div style=""font-size:60px;"">+</div>","null","fixation","","","","","","","","","97","","",""
"revaluation","221","1010587","0.0-4.0-2.0-0.49","spark_pilot_norest","10690","3","8","Female","","false","","","","","[542.8000000715256,564.5999999046326]","./assets/img/ocean/memory/41.jpg","[""ArrowUp"",""ArrowRight""]","value training","ocean","10","{""ArrowUp,ArrowLeft"":23,""ArrowUp,ArrowRight"":10,""ArrowDown,ArrowLeft"":8,""ArrowDown,ArrowRight"":30}","false","ArrowUp,ArrowRight","false","original","1","98","","",""
"html-keyboard-response","222","1011089","0.0-4.0-2.0-1.49","spark_pilot_norest","10690","3","8","Female","","","","","","","null","<div style=""font-size:60px;"">+</div>","null","fixation","","","","","","","","","99","","",""
"learning-instructions","223","1026622","0.0-4.0-3.0-0.0","spark_pilot_norest","10690","3","8","Female","","","","","","","2245","<p> Now, you will travel with a friend who will choose whether you go up or down first. </p>
            <p> On these turns, you will just see the animal that they found. You will still get to choose which chest to search for treasure.</p>","","instructions","","","","","","","","","","","",""
"revaluation","224","1030636","0.0-4.0-4.0-0.0","spark_pilot_norest","10690","3","8","Female","","false","","","","","[1871.8999999761581]","./assets/img/ocean/animals/octopus.jpg","[""ArrowRight""]","revaluation","ocean","10","{""ArrowUp,ArrowLeft"":23,""ArrowUp,ArrowRight"":10,""ArrowDown,ArrowLeft"":8,""ArrowDown,ArrowRight"":30}","false","ArrowUp,ArrowRight","","original","1","0","","",""
"html-keyboard-response","225","1031141","0.0-4.0-4.0-1.0","spark_pilot_norest","10690","3","8","Female","","","","","","","null","<div style=""font-size:60px;"">+</div>","null","fixation","","","","","","","","","1","","",""
"revaluation","226","1035157","0.0-4.0-4.0-0.1","spark_pilot_norest","10690","3","8","Female","","false","","","","","[1917.3000000715256]","./assets/img/ocean/animals/octopus.jpg","[""ArrowLeft""]","revaluation","ocean","23","{""ArrowUp,ArrowLeft"":23,""ArrowUp,ArrowRight"":10,""ArrowDown,ArrowLeft"":8,""ArrowDown,ArrowRight"":30}","true","ArrowUp,ArrowLeft","","original","1","2","","",""
"html-keyboard-response","227","1035671","0.0-4.0-4.0-1.1","spark_pilot_norest","10690","3","8","Female","","","","","","","null","<div style=""font-size:60px;"">+</div>","null","fixation","","","","","","","","","3","","",""
"revaluation","228","1039694","0.0-4.0-4.0-0.2","spark_pilot_norest","10690","3","8","Female","","false","","","","","[639.5]","./assets/img/ocean/animals/seahorse.jpg","[""ArrowRight""]","revaluation","ocean","30","{""ArrowUp,ArrowLeft"":23,""ArrowUp,ArrowRight"":10,""ArrowDown,ArrowLeft"":8,""ArrowDown,ArrowRight"":30}","true","ArrowDown,ArrowRight","","original","1","4","","",""
"html-keyboard-response","229","1040200","0.0-4.0-4.0-1.2","spark_pilot_norest","10690","3","8","Female","","","","","","","null","<div style=""font-size:60px;"">+</div>","null","fixation","","","","","","","","","5","","",""
"revaluation","230","1044217","0.0-4.0-4.0-0.3","spark_pilot_norest","10690","3","8","Female","","false","","","","","[688.1000000238419]","./assets/img/ocean/animals/seahorse.jpg","[""ArrowRight""]","revaluation","ocean","30","{""ArrowUp,ArrowLeft"":23,""ArrowUp,ArrowRight"":10,""ArrowDown,ArrowLeft"":8,""ArrowDown,ArrowRight"":30}","true","ArrowDown,ArrowRight","","original","1","6","","",""
"html-keyboard-response","231","1044723","0.0-4.0-4.0-1.3","spark_pilot_norest","10690","3","8","Female","","","","","","","null","<div style=""font-size:60px;"">+</div>","null","fixation","","","","","","","","","7","","",""
"revaluation","232","1048745","0.0-4.0-4.0-0.4","spark_pilot_norest","10690","3","8","Female","","false","","","","","[530.2000000476837]","./assets/img/ocean/animals/octopus.jpg","[""ArrowLeft""]","revaluation","ocean","23","{""ArrowUp,ArrowLeft"":23,""ArrowUp,ArrowRight"":10,""ArrowDown,ArrowLeft"":8,""ArrowDown,ArrowRight"":30}","true","ArrowUp,ArrowLeft","","original","1","8","","",""
"html-keyboard-response","233","1049247","0.0-4.0-4.0-1.4","spark_pilot_norest","10690","3","8","Female","","","","","","","null","<div style=""font-size:60px;"">+</div>","null","fixation","","","","","","","","","9","","",""
"revaluation","234","1053262","0.0-4.0-4.0-0.5","spark_pilot_norest","10690","3","8","Female","","false","","","","","[1725.2999999523163]","./assets/img/ocean/animals/seahorse.jpg","[""ArrowRight""]","revaluation","ocean","30","{""ArrowUp,ArrowLeft"":23,""ArrowUp,ArrowRight"":10,""ArrowDown,ArrowLeft"":8,""ArrowDown,ArrowRight"":30}","true","ArrowDown,ArrowRight","","original","1","10","","",""
"html-keyboard-response","235","1053767","0.0-4.0-4.0-1.5","spark_pilot_norest","10690","3","8","Female","","","","","","","null","<div style=""font-size:60px;"">+</div>","null","fixation","","","","","","","","","11","","",""
"revaluation","236","1057776","0.0-4.0-4.0-0.6","spark_pilot_norest","10690","3","8","Female","","false","","","","","[916]","./assets/img/ocean/animals/seahorse.jpg","[""ArrowRight""]","revaluation","ocean","30","{""ArrowUp,ArrowLeft"":23,""ArrowUp,ArrowRight"":10,""ArrowDown,ArrowLeft"":8,""ArrowDown,ArrowRight"":30}","true","ArrowDown,ArrowRight","","original","1","12","","",""
"html-keyboard-response","237","1058277","0.0-4.0-4.0-1.6","spark_pilot_norest","10690","3","8","Female","","","","","","","null","<div style=""font-size:60px;"">+</div>","null","fixation","","","","","","","","","13","","",""
"revaluation","238","1062281","0.0-4.0-4.0-0.7","spark_pilot_norest","10690","3","8","Female","","false","","","","","[586.5]","./assets/img/ocean/animals/seahorse.jpg","[""ArrowRight""]","revaluation","ocean","30","{""ArrowUp,ArrowLeft"":23,""ArrowUp,ArrowRight"":10,""ArrowDown,ArrowLeft"":8,""ArrowDown,ArrowRight"":30}","true","ArrowDown,ArrowRight","","original","1","14","","",""
"html-keyboard-response","239","1062783","0.0-4.0-4.0-1.7","spark_pilot_norest","10690","3","8","Female","","","","","","","null","<div style=""font-size:60px;"">+</div>","null","fixation","","","","","","","","","15","","",""
"revaluation","240","1066791","0.0-4.0-4.0-0.8","spark_pilot_norest","10690","3","8","Female","","false","","","","","[1509.8999999761581]","./assets/img/ocean/animals/octopus.jpg","[""ArrowRight""]","revaluation","ocean","10","{""ArrowUp,ArrowLeft"":23,""ArrowUp,ArrowRight"":10,""ArrowDown,ArrowLeft"":8,""ArrowDown,ArrowRight"":30}","false","ArrowUp,ArrowRight","","original","1","16","","",""
"html-keyboard-response","241","1067293","0.0-4.0-4.0-1.8","spark_pilot_norest","10690","3","8","Female","","","","","","","null","<div style=""font-size:60px;"">+</div>","null","fixation","","","","","","","","","17","","",""
"revaluation","242","1071301","0.0-4.0-4.0-0.9","spark_pilot_norest","10690","3","8","Female","","false","","","","","[1036.5]","./assets/img/ocean/animals/octopus.jpg","[""ArrowLeft""]","revaluation","ocean","23","{""ArrowUp,ArrowLeft"":23,""ArrowUp,ArrowRight"":10,""ArrowDown,ArrowLeft"":8,""ArrowDown,ArrowRight"":30}","true","ArrowUp,ArrowLeft","","original","1","18","","",""
"html-keyboard-response","243","1071803","0.0-4.0-4.0-1.9","spark_pilot_norest","10690","3","8","Female","","","","","","","null","<div style=""font-size:60px;"">+</div>","null","fixation","","","","","","","","","19","","",""
"revaluation","244","1075811","0.0-4.0-4.0-0.10","spark_pilot_norest","10690","3","8","Female","","false","","","","","[596.5999999046326]","./assets/img/ocean/animals/octopus.jpg","[""ArrowLeft""]","revaluation","ocean","23","{""ArrowUp,ArrowLeft"":23,""ArrowUp,ArrowRight"":10,""ArrowDown,ArrowLeft"":8,""ArrowDown,ArrowRight"":30}","true","ArrowUp,ArrowLeft","","original","1","20","","",""
"html-keyboard-response","245","1076312","0.0-4.0-4.0-1.10","spark_pilot_norest","10690","3","8","Female","","","","","","","null","<div style=""font-size:60px;"">+</div>","null","fixation","","","","","","","","","21","","",""
"revaluation","246","1080316","0.0-4.0-4.0-0.11","spark_pilot_norest","10690","3","8","Female","","false","","","","","[724.2999999523163]","./assets/img/ocean/animals/octopus.jpg","[""ArrowLeft""]","revaluation","ocean","23","{""ArrowUp,ArrowLeft"":23,""ArrowUp,ArrowRight"":10,""ArrowDown,ArrowLeft"":8,""ArrowDown,ArrowRight"":30}","true","ArrowUp,ArrowLeft","","original","1","22","","",""
"html-keyboard-response","247","1080819","0.0-4.0-4.0-1.11","spark_pilot_norest","10690","3","8","Female","","","","","","","null","<div style=""font-size:60px;"">+</div>","null","fixation","","","","","","","","","23","","",""
"revaluation","248","1084823","0.0-4.0-4.0-0.12","spark_pilot_norest","10690","3","8","Female","","false","","","","","[568.0999999046326]","./assets/img/ocean/animals/seahorse.jpg","[""ArrowRight""]","revaluation","ocean","30","{""ArrowUp,ArrowLeft"":23,""ArrowUp,ArrowRight"":10,""ArrowDown,ArrowLeft"":8,""ArrowDown,ArrowRight"":30}","true","ArrowDown,ArrowRight","","original","1","24","","",""
"html-keyboard-response","249","1085325","0.0-4.0-4.0-1.12","spark_pilot_norest","10690","3","8","Female","","","","","","","null","<div style=""font-size:60px;"">+</div>","null","fixation","","","","","","","","","25","","",""
"revaluation","250","1089331","0.0-4.0-4.0-0.13","spark_pilot_norest","10690","3","8","Female","","false","","","","","[636.6000000238419]","./assets/img/ocean/animals/seahorse.jpg","[""ArrowRight""]","revaluation","ocean","30","{""ArrowUp,ArrowLeft"":23,""ArrowUp,ArrowRight"":10,""ArrowDown,ArrowLeft"":8,""ArrowDown,ArrowRight"":30}","true","ArrowDown,ArrowRight","","original","1","26","","",""
"html-keyboard-response","251","1089834","0.0-4.0-4.0-1.13","spark_pilot_norest","10690","3","8","Female","","","","","","","null","<div style=""font-size:60px;"">+</div>","null","fixation","","","","","","","","","27","","",""
"revaluation","252","1093840","0.0-4.0-4.0-0.14","spark_pilot_norest","10690","3","8","Female","","false","","","","","[1559.0999999046326]","./assets/img/ocean/animals/octopus.jpg","[""ArrowRight""]","revaluation","ocean","10","{""ArrowUp,ArrowLeft"":23,""ArrowUp,ArrowRight"":10,""ArrowDown,ArrowLeft"":8,""ArrowDown,ArrowRight"":30}","false","ArrowUp,ArrowRight","","original","1","28","","",""
"html-keyboard-response","253","1094343","0.0-4.0-4.0-1.14","spark_pilot_norest","10690","3","8","Female","","","","","","","null","<div style=""font-size:60px;"">+</div>","null","fixation","","","","","","","","","29","","",""
"revaluation","254","1098366","0.0-4.0-4.0-0.15","spark_pilot_norest","10690","3","8","Female","","false","","","","","[1258.8999999761581]","./assets/img/ocean/animals/seahorse.jpg","[""ArrowLeft""]","revaluation","ocean","8","{""ArrowUp,ArrowLeft"":23,""ArrowUp,ArrowRight"":10,""ArrowDown,ArrowLeft"":8,""ArrowDown,ArrowRight"":30}","false","ArrowDown,ArrowLeft","","original","1","30","","",""
"html-keyboard-response","255","1098869","0.0-4.0-4.0-1.15","spark_pilot_norest","10690","3","8","Female","","","","","","","null","<div style=""font-size:60px;"">+</div>","null","fixation","","","","","","","","","31","","",""
"revaluation","256","1102876","0.0-4.0-4.0-0.16","spark_pilot_norest","10690","3","8","Female","","false","","","","","[1251.4000000953674]","./assets/img/ocean/animals/seahorse.jpg","[""ArrowRight""]","revaluation","ocean","30","{""ArrowUp,ArrowLeft"":23,""ArrowUp,ArrowRight"":10,""ArrowDown,ArrowLeft"":8,""ArrowDown,ArrowRight"":30}","true","ArrowDown,ArrowRight","","original","1","32","","",""
"html-keyboard-response","257","1103378","0.0-4.0-4.0-1.16","spark_pilot_norest","10690","3","8","Female","","","","","","","null","<div style=""font-size:60px;"">+</div>","null","fixation","","","","","","","","","33","","",""
"revaluation","258","1107385","0.0-4.0-4.0-0.17","spark_pilot_norest","10690","3","8","Female","","false","","","","","[641.6000000238419]","./assets/img/ocean/animals/octopus.jpg","[""ArrowRight""]","revaluation","ocean","10","{""ArrowUp,ArrowLeft"":23,""ArrowUp,ArrowRight"":10,""ArrowDown,ArrowLeft"":8,""ArrowDown,ArrowRight"":30}","false","ArrowUp,ArrowRight","","original","1","34","","",""
"html-keyboard-response","259","1107886","0.0-4.0-4.0-1.17","spark_pilot_norest","10690","3","8","Female","","","","","","","null","<div style=""font-size:60px;"">+</div>","null","fixation","","","","","","","","","35","","",""
"learning-instructions","260","1116412","0.0-4.0-5.0-0.0","spark_pilot_norest","10690","3","8","Female","","","","","","","null","<p> You have almost finished this part of the game! </p>
            <p> We are going to ask you to make a few more choices. </p>","","instructions","","","","","","","","","","","",""
"learning-instructions","261","1132396","0.0-4.0-5.0-0.1","spark_pilot_norest","10690","3","8","Female","","","","","","","null","<p> First, you need to decide whether to go up or down. When you see each picture, use the arrow keys to make your choice. </p>
            <p><b>You will not see which animal you found, but try to get to the one that will give you the most treasure.</b></p>","","instructions","","","","","","","","","","","",""
"html-keyboard-response","262","1133412","0.0-4.0-6.0-0.0","spark_pilot_norest","10690","3","8","Female","","","","","","","null","<div style=""font-size:100px;color:red;"">Starting in...</div>","null","","","","","","","","","","","","",""
"html-keyboard-response","263","1134425","0.0-4.0-6.0-1.0","spark_pilot_norest","10690","3","8","Female","","","","","","","null","<div style=""font-size:200px;color:red;"">3</div>","null","","","","","","","","","","","","",""
"html-keyboard-response","264","1135440","0.0-4.0-6.0-2.0","spark_pilot_norest","10690","3","8","Female","","","","","","","null","<div style=""font-size:200px;color:red;"">2</div>","null","","","","","","","","","","","","",""
"html-keyboard-response","265","1136443","0.0-4.0-6.0-3.0","spark_pilot_norest","10690","3","8","Female","","","","","","","null","<div style=""font-size:200px;color:red;"">1</div>","null","","","","","","","","","","","","",""
"revaluation","266","1137076","0.0-4.0-7.0-0.0","spark_pilot_norest","10690","3","8","Female","","false","","","","","[630.5]","./assets/img/ocean/test/2.jpg","[""ArrowDown""]","first stage test","ocean","0","{""ArrowUp,ArrowLeft"":23,""ArrowUp,ArrowRight"":10,""ArrowDown,ArrowLeft"":8,""ArrowDown,ArrowRight"":30}","true","ArrowDown","false","original","1","","","",""
"html-keyboard-response","267","1137580","0.0-4.0-7.0-1.0","spark_pilot_norest","10690","3","8","Female","","","","","","","null","<div style=""font-size:60px;"">+</div>","null","fixation","","","","","","","","","","","",""
"revaluation","268","1138571","0.0-4.0-7.0-0.1","spark_pilot_norest","10690","3","8","Female","","false","","","","","[986.2000000476837]","./assets/img/ocean/test/0.jpg","[""ArrowDown""]","first stage test","ocean","0","{""ArrowUp,ArrowLeft"":23,""ArrowUp,ArrowRight"":10,""ArrowDown,ArrowLeft"":8,""ArrowDown,ArrowRight"":30}","true","ArrowDown","false","original","1","","","",""
"html-keyboard-response","269","1139078","0.0-4.0-7.0-1.1","spark_pilot_norest","10690","3","8","Female","","","","","","","null","<div style=""font-size:60px;"">+</div>","null","fixation","","","","","","","","","","","",""
"revaluation","270","1139812","0.0-4.0-7.0-0.2","spark_pilot_norest","10690","3","8","Female","","false","","","","","[728.7999999523163]","./assets/img/ocean/test/1.jpg","[""ArrowDown""]","first stage test","ocean","0","{""ArrowUp,ArrowLeft"":23,""ArrowUp,ArrowRight"":10,""ArrowDown,ArrowLeft"":8,""ArrowDown,ArrowRight"":30}","true","ArrowDown","false","original","1","","","",""
"html-keyboard-response","271","1140322","0.0-4.0-7.0-1.2","spark_pilot_norest","10690","3","8","Female","","","","","","","null","<div style=""font-size:60px;"">+</div>","null","fixation","","","","","","","","","","","",""
"revaluation","272","1141088","0.0-4.0-7.0-0.3","spark_pilot_norest","10690","3","8","Female","","false","","","","","[758.8999999761581]","./assets/img/ocean/test/3.jpg","[""ArrowUp""]","first stage test","ocean","0","{""ArrowUp,ArrowLeft"":23,""ArrowUp,ArrowRight"":10,""ArrowDown,ArrowLeft"":8,""ArrowDown,ArrowRight"":30}","false","ArrowUp","false","original","1","","","",""
"html-keyboard-response","273","1141597","0.0-4.0-7.0-1.3","spark_pilot_norest","10690","3","8","Female","","","","","","","null","<div style=""font-size:60px;"">+</div>","null","fixation","","","","","","","","","","","",""
"learning-instructions","274","1154948","0.0-4.0-8.0-0.0","spark_pilot_norest","10690","3","8","Female","","","","","","","null","<p> Now you will see the animals again and can search their chests for treasure. </p>
            <p> This time, you will not see how much treasure you earned, but you will earn more bonus money for making better choices. </p>","","instructions","","","","","","","","","","","",""
"html-keyboard-response","275","1155954","0.0-4.0-9.0-0.0","spark_pilot_norest","10690","3","8","Female","","","","","","","null","<div style=""font-size:100px;color:red;"">Starting in...</div>","null","","","","","","","","","","","","",""
"html-keyboard-response","276","1156960","0.0-4.0-9.0-1.0","spark_pilot_norest","10690","3","8","Female","","","","","","","null","<div style=""font-size:200px;color:red;"">3</div>","null","","","","","","","","","","","","",""
"html-keyboard-response","277","1157963","0.0-4.0-9.0-2.0","spark_pilot_norest","10690","3","8","Female","","","","","","","null","<div style=""font-size:200px;color:red;"">2</div>","null","","","","","","","","","","","","",""
"html-keyboard-response","278","1158966","0.0-4.0-9.0-3.0","spark_pilot_norest","10690","3","8","Female","","","","","","","null","<div style=""font-size:200px;color:red;"">1</div>","null","","","","","","","","","","","","",""
"revaluation","279","1160929","0.0-4.0-10.0-0.0","spark_pilot_norest","10690","3","8","Female","","false","","","","","[1961]","./assets/img/ocean/animals/octopus.jpg","[""ArrowRight""]","second stage test","ocean","0","{""ArrowUp,ArrowLeft"":23,""ArrowUp,ArrowRight"":10,""ArrowDown,ArrowLeft"":8,""ArrowDown,ArrowRight"":30}","false","ArrowUp,ArrowRight","","original","1","","","",""
"html-keyboard-response","280","1161434","0.0-4.0-10.0-1.0","spark_pilot_norest","10690","3","8","Female","","","","","","","null","<div style=""font-size:60px;"">+</div>","null","fixation","","","","","","","","","","","",""
"revaluation","281","1162535","0.0-4.0-10.0-0.1","spark_pilot_norest","10690","3","8","Female","","false","","","","","[1095.6000000238419]","./assets/img/ocean/animals/octopus.jpg","[""ArrowRight""]","second stage test","ocean","0","{""ArrowUp,ArrowLeft"":23,""ArrowUp,ArrowRight"":10,""ArrowDown,ArrowLeft"":8,""ArrowDown,ArrowRight"":30}","false","ArrowUp,ArrowRight","","original","1","","","",""
"html-keyboard-response","282","1163041","0.0-4.0-10.0-1.1","spark_pilot_norest","10690","3","8","Female","","","","","","","null","<div style=""font-size:60px;"">+</div>","null","fixation","","","","","","","","","","","",""
"revaluation","283","1164014","0.0-4.0-10.0-0.2","spark_pilot_norest","10690","3","8","Female","","false","","","","","[970.7999999523163]","./assets/img/ocean/animals/octopus.jpg","[""ArrowLeft""]","second stage test","ocean","0","{""ArrowUp,ArrowLeft"":23,""ArrowUp,ArrowRight"":10,""ArrowDown,ArrowLeft"":8,""ArrowDown,ArrowRight"":30}","true","ArrowUp,ArrowLeft","","original","1","","","",""
"html-keyboard-response","284","1164519","0.0-4.0-10.0-1.2","spark_pilot_norest","10690","3","8","Female","","","","","","","null","<div style=""font-size:60px;"">+</div>","null","fixation","","","","","","","","","","","",""
"revaluation","285","1165398","0.0-4.0-10.0-0.3","spark_pilot_norest","10690","3","8","Female","","false","","","","","[876.2999999523163]","./assets/img/ocean/animals/octopus.jpg","[""ArrowRight""]","second stage test","ocean","0","{""ArrowUp,ArrowLeft"":23,""ArrowUp,ArrowRight"":10,""ArrowDown,ArrowLeft"":8,""ArrowDown,ArrowRight"":30}","false","ArrowUp,ArrowRight","","original","1","","","",""
"html-keyboard-response","286","1165902","0.0-4.0-10.0-1.3","spark_pilot_norest","10690","3","8","Female","","","","","","","null","<div style=""font-size:60px;"">+</div>","null","fixation","","","","","","","","","","","",""
"revaluation","287","1167180","0.0-4.0-10.0-0.4","spark_pilot_norest","10690","3","8","Female","","false","","","","","[1272.8999999761581]","./assets/img/ocean/animals/seahorse.jpg","[""ArrowLeft""]","second stage test","ocean","0","{""ArrowUp,ArrowLeft"":23,""ArrowUp,ArrowRight"":10,""ArrowDown,ArrowLeft"":8,""ArrowDown,ArrowRight"":30}","false","ArrowDown,ArrowLeft","","original","1","","","",""
"html-keyboard-response","288","1167686","0.0-4.0-10.0-1.4","spark_pilot_norest","10690","3","8","Female","","","","","","","null","<div style=""font-size:60px;"">+</div>","null","fixation","","","","","","","","","","","",""
"revaluation","289","1168768","0.0-4.0-10.0-0.5","spark_pilot_norest","10690","3","8","Female","","false","","","","","[1076.3999999761581]","./assets/img/ocean/animals/seahorse.jpg","[""ArrowRight""]","second stage test","ocean","0","{""ArrowUp,ArrowLeft"":23,""ArrowUp,ArrowRight"":10,""ArrowDown,ArrowLeft"":8,""ArrowDown,ArrowRight"":30}","true","ArrowDown,ArrowRight","","original","1","","","",""
"html-keyboard-response","290","1169272","0.0-4.0-10.0-1.5","spark_pilot_norest","10690","3","8","Female","","","","","","","null","<div style=""font-size:60px;"">+</div>","null","fixation","","","","","","","","","","","",""
"revaluation","291","1171114","0.0-4.0-10.0-0.6","spark_pilot_norest","10690","3","8","Female","","false","","","","","[1839.8000000715256]","./assets/img/ocean/animals/seahorse.jpg","[""ArrowLeft""]","second stage test","ocean","0","{""ArrowUp,ArrowLeft"":23,""ArrowUp,ArrowRight"":10,""ArrowDown,ArrowLeft"":8,""ArrowDown,ArrowRight"":30}","false","ArrowDown,ArrowLeft","","original","1","","","",""
"html-keyboard-response","292","1171625","0.0-4.0-10.0-1.6","spark_pilot_norest","10690","3","8","Female","","","","","","","null","<div style=""font-size:60px;"">+</div>","null","fixation","","","","","","","","","","","",""
"revaluation","293","1172818","0.0-4.0-10.0-0.7","spark_pilot_norest","10690","3","8","Female","","false","","","","","[1191.1999999284744]","./assets/img/ocean/animals/seahorse.jpg","[""ArrowRight""]","second stage test","ocean","0","{""ArrowUp,ArrowLeft"":23,""ArrowUp,ArrowRight"":10,""ArrowDown,ArrowLeft"":8,""ArrowDown,ArrowRight"":30}","true","ArrowDown,ArrowRight","","original","1","","","",""
"html-keyboard-response","294","1173324","0.0-4.0-10.0-1.7","spark_pilot_norest","10690","3","8","Female","","","","","","","null","<div style=""font-size:60px;"">+</div>","null","fixation","","","","","","","","","","","",""
"learning-instructions","295","1180618","0.0-4.0-0.1-0.2","spark_pilot_norest","10690","3","8","Female","","","","","","","4532.100000023842","<p> This time you are searching for treasure in the <b>canyon</b>.</p>","","instructions","","","","","","","","","","","",""
"learning-instructions","296","1200675","0.0-4.0-0.1-0.3","spark_pilot_norest","10690","3","8","Female","","","","","","","2808.399999976158","<p><b>New</b> animals with <b>new</b> treasure chests live here. You need to explore to discover where the animal with the best treasure chest is.</p>
                    <p> Like before, once you figure out which animal has the chest with the most treasure, you should try to get to that animal and select that chest! </p>","","instructions","","","","","","","","","","","",""
"learning-instructions","297","1220551","0.0-4.0-1.1-0.1","spark_pilot_norest","10690","3","8","Female","","","","","","","5145.900000095367","<p> Remember, when you see a picture of the place, use the up and down keys to <b>find an animal</b>.</p>
            <p> When you encounter an animal, you should use the left and right keys to <b>select a treasure chest</b>.</p>
            <p> Don't forget to look out for the robber! </p>","","instructions","","","","","","","","","","","",""
"revaluation","298","1226580","0.0-4.0-2.1-0.50","spark_pilot_norest","10690","3","8","Female","","false","","","","","[1384.7999999523163,946]","./assets/img/canyon/memory/22.jpg","[""ArrowUp"",""ArrowLeft""]","value training","canyon","26","{""ArrowUp,ArrowLeft"":26,""ArrowUp,ArrowRight"":10,""ArrowDown,ArrowLeft"":5,""ArrowDown,ArrowRight"":17}","true","ArrowUp,ArrowLeft","false","revaluation","2","0","","",""
"html-keyboard-response","299","1227088","0.0-4.0-2.1-1.50","spark_pilot_norest","10690","3","8","Female","","","","","","","null","<div style=""font-size:60px;"">+</div>","null","fixation","","","","","","","","","1","","",""
"revaluation","300","1233121","0.0-4.0-2.1-0.51","spark_pilot_norest","10690","3","8","Female","","false","","","","","[832.3999999761581,779.7000000476837]","./assets/img/canyon/memory/41.jpg","[""ArrowDown"",""ArrowRight""]","value training","canyon","17","{""ArrowUp,ArrowLeft"":26,""ArrowUp,ArrowRight"":10,""ArrowDown,ArrowLeft"":5,""ArrowDown,ArrowRight"":17}","false","ArrowDown,ArrowRight","false","revaluation","2","2","","",""
"html-keyboard-response","301","1233629","0.0-4.0-2.1-1.51","spark_pilot_norest","10690","3","8","Female","","","","","","","null","<div style=""font-size:60px;"">+</div>","null","fixation","","","","","","","","","3","","",""
"revaluation","302","1237641","0.0-4.0-2.1-0.52","spark_pilot_norest","10690","3","8","Female","","true","","","","","[]","./assets/img/canyon/memory/40.jpg","[]","value training","canyon","-5","{""ArrowUp,ArrowLeft"":26,""ArrowUp,ArrowRight"":10,""ArrowDown,ArrowLeft"":5,""ArrowDown,ArrowRight"":17}","false","","false","revaluation","2","4","","",""
"html-keyboard-response","303","1238150","0.0-4.0-2.1-1.52","spark_pilot_norest","10690","3","8","Female","","","","","","","null","<div style=""font-size:60px;"">+</div>","null","fixation","","","","","","","","","5","","",""
"revaluation","304","1244186","0.0-4.0-2.1-0.53","spark_pilot_norest","10690","3","8","Female","","false","","","","","[805.8999999761581,787.5]","./assets/img/canyon/memory/26.jpg","[""ArrowUp"",""ArrowRight""]","value training","canyon","10","{""ArrowUp,ArrowLeft"":26,""ArrowUp,ArrowRight"":10,""ArrowDown,ArrowLeft"":5,""ArrowDown,ArrowRight"":17}","false","ArrowUp,ArrowRight","false","revaluation","2","6","","",""
"html-keyboard-response","305","1244693","0.0-4.0-2.1-1.53","spark_pilot_norest","10690","3","8","Female","","","","","","","null","<div style=""font-size:60px;"">+</div>","null","fixation","","","","","","","","","7","","",""
"revaluation","306","1250700","0.0-4.0-2.1-0.54","spark_pilot_norest","10690","3","8","Female","","false","","","","","[1961,1138.1000000238419]","./assets/img/canyon/memory/21.jpg","[""ArrowDown"",""ArrowLeft""]","value training","canyon","5","{""ArrowUp,ArrowLeft"":26,""ArrowUp,ArrowRight"":10,""ArrowDown,ArrowLeft"":5,""ArrowDown,ArrowRight"":17}","false","ArrowDown,ArrowLeft","false","revaluation","2","8","","",""
"html-keyboard-response","307","1251202","0.0-4.0-2.1-1.54","spark_pilot_norest","10690","3","8","Female","","","","","","","null","<div style=""font-size:60px;"">+</div>","null","fixation","","","","","","","","","9","","",""
"revaluation","308","1257209","0.0-4.0-2.1-0.55","spark_pilot_norest","10690","3","8","Female","","false","","","","","[1382.5,1038.5999999046326]","./assets/img/canyon/memory/27.jpg","[""ArrowUp"",""ArrowRight""]","value training","canyon","10","{""ArrowUp,ArrowLeft"":26,""ArrowUp,ArrowRight"":10,""ArrowDown,ArrowLeft"":5,""ArrowDown,ArrowRight"":17}","false","ArrowUp,ArrowRight","false","revaluation","2","10","","",""
"html-keyboard-response","309","1257711","0.0-4.0-2.1-1.55","spark_pilot_norest","10690","3","8","Female","","","","","","","null","<div style=""font-size:60px;"">+</div>","null","fixation","","","","","","","","","11","","",""
"revaluation","310","1263718","0.0-4.0-2.1-0.56","spark_pilot_norest","10690","3","8","Female","","true","","","","","[1446.8999999761581]","./assets/img/canyon/memory/7.jpg","[""ArrowUp""]","value training","canyon","-5","{""ArrowUp,ArrowLeft"":26,""ArrowUp,ArrowRight"":10,""ArrowDown,ArrowLeft"":5,""ArrowDown,ArrowRight"":17}","false","ArrowUp","false","revaluation","2","12","","",""
"html-keyboard-response","311","1264220","0.0-4.0-2.1-1.56","spark_pilot_norest","10690","3","8","Female","","","","","","","null","<div style=""font-size:60px;"">+</div>","null","fixation","","","","","","","","","13","","",""
"revaluation","312","1268226","0.0-4.0-2.1-0.57","spark_pilot_norest","10690","3","8","Female","","false","","","","","[973.1000000238419]","./assets/img/canyon/catch/6.jpg","[""spaceBar""]","value training","canyon","0","{""ArrowUp,ArrowLeft"":26,""ArrowUp,ArrowRight"":10,""ArrowDown,ArrowLeft"":5,""ArrowDown,ArrowRight"":17}","true","spaceBar","true","revaluation","2","14","","",""
"html-keyboard-response","313","1268728","0.0-4.0-2.1-1.57","spark_pilot_norest","10690","3","8","Female","","","","","","","null","<div style=""font-size:60px;"">+</div>","null","fixation","","","","","","","","","15","","",""
