"trial_type","trial_index","time_elapsed","internal_node_id","task_version","subject_id","assigned_condition","age","gender","success","timeout","failed_images","failed_audio","failed_video","browser_interaction","rt","stimulus","response","task_part","environment","score","rewardMap","correct","fullState","isCatch","condition","order","trial_num","key_press","ground_truth","bonus"
"pavlovia","0","1843","0.0-0.0","spark_pilot_norest","9000","6","21","Male","","","","","","","","","","","","","","","","","","","","","",""
"preload","1","25641","0.0-1.0","spark_pilot_norest","9000","6","21","Male","true","false","[]","[]","[]","[{""event"":""fullscreenenter"",""trial"":2,""time"":31540}]","","","","","","","","","","","","","","","",""
"fullscreen","2","32482","0.0-2.0","spark_pilot_norest","9000","6","21","Male","true","","","","","","","","","","","","","","","","","","","","",""
"audio-button-response","3","34732","0.0-3.0-0.0-0.0","spark_pilot_norest","9000","6","21","Male","","","","","","","2197","./assets/audio/audiotest/turtle.mp3","2","audio_test","","","","","","","","","","","",""
"learning-instructions","4","46432","0.0-3.0-1.0-0.0","spark_pilot_norest","9000","6","21","Male","","","","","","","4592.599999997765","<p> Welcome! Please remember to stay in fullscreen mode and don't click away from the experiment. </p>","","instructions","","","","","","","","","","","",""
"learning-instructions","5","56025","0.0-3.0-1.0-0.1","spark_pilot_norest","9000","6","21","Male","","","","","","","1075.6000000014901","<p> Today you will be playing a game to earn treasure. </p>
            <p> At the end of the experiment, you will earn a bonus based on how much treasure you find. </p>
            <img src='./assets/img/instructions/treasure.jpg' class='instructions-image'>","","instructions","","","","","","","","","","","",""
"learning-instructions","6","65331","0.0-3.0-1.0-0.2","spark_pilot_norest","9000","6","21","Male","","","","","","","963.1000000014901","<p> Animals have hidden treasure in treasure chests. </p>
            <p> You need to first find an animal and then choose which of their treasure chests to search. </p>
            <img src='./assets/img/space/animals/cat.jpg' class='instructions-image'>","","instructions","","","","","","","","","","","",""
"learning-instructions","7","79231","0.0-3.0-1.0-0.3","spark_pilot_norest","9000","6","21","Male","","","","","","","602.2999999970198","<p> In each round, you will search for treasure in a different place. In the real game, there will be two rounds. </p>
            <p> You will begin with a separate, practice round where you will search for treasure in outer space. </p>
            <img src='./assets/img/space/0.jpg' class='instructions-image'>","","instructions","","","","","","","","","","","",""
"learning-instructions","8","91562","0.0-3.0-1.0-0.4","spark_pilot_norest","9000","6","21","Male","","","","","","","805.7999999970198","<p> On every turn, you will see a picture of the place that you are in, but the specific image may be different each time. </p>
            <p> For example, both of these images mean you are in outer space. </p>
            <img src='./assets/img/instructions/outerspace.jpg' class='instructions-image'>","","instructions","","","","","","","","","","","",""
"learning-instructions","9","99963","0.0-3.0-1.0-0.5","spark_pilot_norest","9000","6","21","Male","","","","","","","490.5","<p> You need to decide which direction to travel in. </p>
            <p> You can choose between going <b>up or down</b> by using the arrow keys. </p>
            <img src='./assets/img/instructions/updown.jpg' class='instructions-image'>","","instructions","","","","","","","","","","","",""
"learning-instructions","10","109347","0.0-3.0-1.0-0.6","spark_pilot_norest","9000","6","21","Male","","","","","","","468.8999999985099","<p> You will have <b>2 seconds</b> to make your choice. </p>
            <p> If you do not make a choice within 2 seconds, you will not find an animal or earn treasure. </p>
            <img src='./assets/img/instructions/2seconds.jpg' class='instructions-image'>","","instructions","","","","","","","","","","","",""
"learning-instructions","11","117276","0.0-3.0-1.0-0.7","spark_pilot_norest","9000","6","21","Male","","","","","","","780.3000000007451","<p> Let’s try practicing that now! </p>
            <p> When you see a picture of the place you are in, press the <b>up</b> key to travel up. </p>
            <img src='./assets/img/instructions/pressUp.jpg' class='instructions-image'>","","instructions","","","","","","","","","","","",""
"revaluation","12","121339","0.0-3.0-2.0-0.0","spark_pilot_norest","9000","6","21","Male","","true","","","","","[]","./assets/img/space/0.jpg","[]","first stage practice","space","-5","null","null","","false","","","","","",""
"html-keyboard-response","13","121850","0.0-3.0-2.0-1.0","spark_pilot_norest","9000","6","21","Male","","","","","","","null","<div style=""font-size:60px;"">+</div>","null","fixation","","","","","","","","","","","",""
"revaluation","14","125883","0.0-3.0-2.0-0.1","spark_pilot_norest","9000","6","21","Male","","false","","","","","[604.6999999992549]","./assets/img/space/1.jpg","[""ArrowUp""]","first stage practice","space","0","null","null","ArrowUp","false","","","","","",""
"html-keyboard-response","15","126390","0.0-3.0-2.0-1.1","spark_pilot_norest","9000","6","21","Male","","","","","","","null","<div style=""font-size:60px;"">+</div>","null","fixation","","","","","","","","","","","",""
"revaluation","16","130409","0.0-3.0-2.0-0.2","spark_pilot_norest","9000","6","21","Male","","false","","","","","[1124.300000000745]","./assets/img/space/2.jpg","[""ArrowUp""]","first stage practice","space","0","null","null","ArrowUp","false","","","","","",""
"html-keyboard-response","17","130914","0.0-3.0-2.0-1.2","spark_pilot_norest","9000","6","21","Male","","","","","","","null","<div style=""font-size:60px;"">+</div>","null","fixation","","","","","","","","","","","",""
"learning-instructions","18","138156","0.0-3.0-3.0-0.0","spark_pilot_norest","9000","6","21","Male","","","","","","","2459.89999999851","<p> Great job! Now try pressing the <b>down</b> key to travel down. </p>
            <img src='./assets/img/instructions/pressDown.jpg' class='instructions-image'>","","instructions","","","","","","","","","","","",""
"revaluation","19","142174","0.0-3.0-4.0-0.0","spark_pilot_norest","9000","6","21","Male","","false","","","","","[478.80000000074506]","./assets/img/space/3.jpg","[""ArrowDown""]","first stage practice","space","0","null","null","ArrowDown","false","","","","","",""
"html-keyboard-response","20","142682","0.0-3.0-4.0-1.0","spark_pilot_norest","9000","6","21","Male","","","","","","","null","<div style=""font-size:60px;"">+</div>","null","fixation","","","","","","","","","","","",""
"revaluation","21","146722","0.0-3.0-4.0-0.1","spark_pilot_norest","9000","6","21","Male","","false","","","","","[682.1999999992549]","./assets/img/space/4.jpg","[""ArrowDown""]","first stage practice","space","0","null","null","ArrowDown","false","","","","","",""
"html-keyboard-response","22","147226","0.0-3.0-4.0-1.1","spark_pilot_norest","9000","6","21","Male","","","","","","","null","<div style=""font-size:60px;"">+</div>","null","fixation","","","","","","","","","","","",""
"revaluation","23","151250","0.0-3.0-4.0-0.2","spark_pilot_norest","9000","6","21","Male","","false","","","","","[679.3000000007451]","./assets/img/space/5.jpg","[""ArrowDown""]","first stage practice","space","0","null","null","ArrowDown","false","","","","","",""
"html-keyboard-response","24","151756","0.0-3.0-4.0-1.2","spark_pilot_norest","9000","6","21","Male","","","","","","","null","<div style=""font-size:60px;"">+</div>","null","fixation","","","","","","","","","","","",""
"learning-instructions","25","164173","0.0-3.0-5.0-0.0","spark_pilot_norest","9000","6","21","Male","","","","","","","2440.599999997765","<p> The animals don’t move, so the animal in the upper part of a place will stay in the upper part of a place, and the animal in the lower part of a place will stay in the lower part of a place. </p>","","instructions","","","","","","","","","","","",""
"learning-instructions","26","175209","0.0-3.0-5.0-0.1","spark_pilot_norest","9000","6","21","Male","","","","","","","1817.6000000014901","<p> Each animal has two treasure chests for you to choose from. </p>
            <p> The amount of treasure in each chest can range from <b> 0 to 40 pieces.</b></p>","","instructions","","","","","","","","","","","",""
"learning-instructions","27","187538","0.0-3.0-5.0-0.2","spark_pilot_norest","9000","6","21","Male","","","","","","","994.3000000007451","<p> You should decide which chest to search for treasure by using the <b>left</b> and <b>right</b> arrow keys. </p>
            <p><b> Pay attention to which animal is on the screen, as the animals have different treasure chests. </b></p>
            <img src='./assets/img/instructions/leftright.jpg' class='instructions-image'>","","instructions","","","","","","","","","","","",""
"learning-instructions","28","194508","0.0-3.0-5.0-0.3","spark_pilot_norest","9000","6","21","Male","","","","","","","509.1000000014901","<p> Let’s try practicing that now. </p>
            <p> When you see an animal, choose which chest to search for treasure. </p>
            <img src='./assets/img/instructions/chooseChest.jpg' class='instructions-image'>","","instructions","","","","","","","","","","","",""
"revaluation","29","198533","0.0-3.0-6.0-0.0","spark_pilot_norest","9000","6","21","Male","","false","","","","","[941.9000000022352]","./assets/img/space/animals/rabbit.jpg","[""ArrowRight""]","second stage practice","space","23","{""ArrowUp,ArrowLeft"":3,""ArrowUp,ArrowRight"":36,""ArrowDown,ArrowLeft"":15,""ArrowDown,ArrowRight"":23}","true","ArrowDown,ArrowRight","","","","","","",""
"html-keyboard-response","30","199041","0.0-3.0-6.0-1.0","spark_pilot_norest","9000","6","21","Male","","","","","","","null","<div style=""font-size:60px;"">+</div>","null","fixation","","","","","","","","","","","",""
"revaluation","31","203059","0.0-3.0-6.0-0.1","spark_pilot_norest","9000","6","21","Male","","false","","","","","[1136.3999999985099]","./assets/img/space/animals/cat.jpg","[""ArrowRight""]","second stage practice","space","36","{""ArrowUp,ArrowLeft"":3,""ArrowUp,ArrowRight"":36,""ArrowDown,ArrowLeft"":15,""ArrowDown,ArrowRight"":23}","true","ArrowUp,ArrowRight","","","","","","",""
"html-keyboard-response","32","203570","0.0-3.0-6.0-1.1","spark_pilot_norest","9000","6","21","Male","","","","","","","null","<div style=""font-size:60px;"">+</div>","null","fixation","","","","","","","","","","","",""
"revaluation","33","207593","0.0-3.0-6.0-0.2","spark_pilot_norest","9000","6","21","Male","","false","","","","","[446]","./assets/img/space/animals/cat.jpg","[""ArrowRight""]","second stage practice","space","36","{""ArrowUp,ArrowLeft"":3,""ArrowUp,ArrowRight"":36,""ArrowDown,ArrowLeft"":15,""ArrowDown,ArrowRight"":23}","true","ArrowUp,ArrowRight","","","","","","",""
"html-keyboard-response","34","208098","0.0-3.0-6.0-1.2","spark_pilot_norest","9000","6","21","Male","","","","","","","null","<div style=""font-size:60px;"">+</div>","null","fixation","","","","","","","","","","","",""
"revaluation","35","212123","0.0-3.0-6.0-0.3","spark_pilot_norest","9000","6","21","Male","","false","","","","","[1209.8999999985099]","./assets/img/space/animals/rabbit.jpg","[""ArrowLeft""]","second stage practice","space","15","{""ArrowUp,ArrowLeft"":3,""ArrowUp,ArrowRight"":36,""ArrowDown,ArrowLeft"":15,""ArrowDown,ArrowRight"":23}","false","ArrowDown,ArrowLeft","","","","","","",""
"html-keyboard-response","36","212634","0.0-3.0-6.0-1.3","spark_pilot_norest","9000","6","21","Male","","","","","","","null","<div style=""font-size:60px;"">+</div>","null","fixation","","","","","","","","","","","",""
"learning-instructions","37","231516","0.0-3.0-7.0-0.0","spark_pilot_norest","9000","6","21","Male","","","","","","","1890.2000000029802","<p> Great job. Now let’s try putting it together. </p>
            <p> On each turn, you will first see a picture to remind you of the place you are in, and you need to choose whether to go up or down. </p>
            <p> Then you will see an animal and choose which of its chests to search for treasure. </p>","","instructions","","","","","","","","","","","",""
"learning-instructions","38","240561","0.0-3.0-7.0-0.1","spark_pilot_norest","9000","6","21","Male","","","","","","","674.3000000007451","<p> When you choose whether to go up or down, try to go to the animal with the chest with the most treasure. </p>
            <p> Try practicing that now! </p>","","instructions","","","","","","","","","","","",""
"revaluation","39","246587","0.0-3.0-8.0-0.0","spark_pilot_norest","9000","6","21","Male","","false","","","","","[1360.300000000745,641.8999999985099]","./assets/img/space/6.jpg","[""ArrowDown"",""ArrowRight""]","full practice","space","23","{""ArrowUp,ArrowLeft"":3,""ArrowUp,ArrowRight"":36,""ArrowDown,ArrowLeft"":15,""ArrowDown,ArrowRight"":23}","false","ArrowDown,ArrowRight","false","","","","","",""
"html-keyboard-response","40","247092","0.0-3.0-8.0-1.0","spark_pilot_norest","9000","6","21","Male","","","","","","","null","<div style=""font-size:60px;"">+</div>","null","fixation","","","","","","","","","","","",""
"revaluation","41","253109","0.0-3.0-8.0-0.1","spark_pilot_norest","9000","6","21","Male","","false","","","","","[883.3999999985099,766.8000000007451]","./assets/img/space/7.jpg","[""ArrowUp"",""ArrowLeft""]","full practice","space","3","{""ArrowUp,ArrowLeft"":3,""ArrowUp,ArrowRight"":36,""ArrowDown,ArrowLeft"":15,""ArrowDown,ArrowRight"":23}","false","ArrowUp,ArrowLeft","false","","","","","",""
"html-keyboard-response","42","253618","0.0-3.0-8.0-1.1","spark_pilot_norest","9000","6","21","Male","","","","","","","null","<div style=""font-size:60px;"">+</div>","null","fixation","","","","","","","","","","","",""
"revaluation","43","259643","0.0-3.0-8.0-0.2","spark_pilot_norest","9000","6","21","Male","","false","","","","","[1110.199999999255,583.7999999970198]","./assets/img/space/8.jpg","[""ArrowDown"",""ArrowRight""]","full practice","space","23","{""ArrowUp,ArrowLeft"":3,""ArrowUp,ArrowRight"":36,""ArrowDown,ArrowLeft"":15,""ArrowDown,ArrowRight"":23}","false","ArrowDown,ArrowRight","false","","","","","",""
"html-keyboard-response","44","260154","0.0-3.0-8.0-1.2","spark_pilot_norest","9000","6","21","Male","","","","","","","null","<div style=""font-size:60px;"">+</div>","null","fixation","","","","","","","","","","","",""
"revaluation","45","266176","0.0-3.0-8.0-0.3","spark_pilot_norest","9000","6","21","Male","","false","","","","","[643.1999999992549,1143.199999999255]","./assets/img/space/9.jpg","[""ArrowUp"",""ArrowRight""]","full practice","space","36","{""ArrowUp,ArrowLeft"":3,""ArrowUp,ArrowRight"":36,""ArrowDown,ArrowLeft"":15,""ArrowDown,ArrowRight"":23}","true","ArrowUp,ArrowRight","false","","","","","",""
"html-keyboard-response","46","266682","0.0-3.0-8.0-1.3","spark_pilot_norest","9000","6","21","Male","","","","","","","null","<div style=""font-size:60px;"">+</div>","null","fixation","","","","","","","","","","","",""
"revaluation","47","272707","0.0-3.0-8.0-0.4","spark_pilot_norest","9000","6","21","Male","","false","","","","","[601.3000000007451,873.8999999985099]","./assets/img/space/10.jpg","[""ArrowDown"",""ArrowLeft""]","full practice","space","15","{""ArrowUp,ArrowLeft"":3,""ArrowUp,ArrowRight"":36,""ArrowDown,ArrowLeft"":15,""ArrowDown,ArrowRight"":23}","false","ArrowDown,ArrowLeft","false","","","","","",""
"html-keyboard-response","48","273218","0.0-3.0-8.0-1.4","spark_pilot_norest","9000","6","21","Male","","","","","","","null","<div style=""font-size:60px;"">+</div>","null","fixation","","","","","","","","","","","",""
"learning-instructions","49","285594","0.0-3.0-9.0-0.0","spark_pilot_norest","9000","6","21","Male","","","","","","","1965.8999999985099","<p> One last thing: sometimes, you will see a robber. The robber can be anywhere in the picture. </p>
            <p> If you do not stop them, you will lose treasure. </p>
            <img src='./assets/img/instructions/robber.jpg' class='instructions-image'>","","instructions","","","","","","","","","","","",""
"learning-instructions","50","293561","0.0-3.0-9.0-0.1","spark_pilot_norest","9000","6","21","Male","","","","","","","697.8000000007451","<p> If you see the robber, you should <b>press the space bar</b> rather than using the arrow keys. </p>
            <p> Try practicing that now! </p>","","instructions","","","","","","","","","","","",""
"revaluation","51","297576","0.0-3.0-10.0-0.0","spark_pilot_norest","9000","6","21","Male","","false","","","","","[613.5]","./assets/img/space/catch/0.jpg","[""spaceBar""]","catch practice","space","0","{""ArrowUp,ArrowLeft"":3,""ArrowUp,ArrowRight"":36,""ArrowDown,ArrowLeft"":15,""ArrowDown,ArrowRight"":23}","true","spaceBar","true","","","","","",""
"html-keyboard-response","52","298082","0.0-3.0-10.0-1.0","spark_pilot_norest","9000","6","21","Male","","","","","","","null","<div style=""font-size:60px;"">+</div>","null","fixation","","","","","","","","","","","",""
"revaluation","53","302098","0.0-3.0-10.0-0.1","spark_pilot_norest","9000","6","21","Male","","false","","","","","[471.8999999985099]","./assets/img/space/catch/1.jpg","[""spaceBar""]","catch practice","space","0","{""ArrowUp,ArrowLeft"":3,""ArrowUp,ArrowRight"":36,""ArrowDown,ArrowLeft"":15,""ArrowDown,ArrowRight"":23}","true","spaceBar","true","","","","","",""
"html-keyboard-response","54","302608","0.0-3.0-10.0-1.1","spark_pilot_norest","9000","6","21","Male","","","","","","","null","<div style=""font-size:60px;"">+</div>","null","fixation","","","","","","","","","","","",""
"revaluation","55","306626","0.0-3.0-10.0-0.2","spark_pilot_norest","9000","6","21","Male","","false","","","","","[530.3000000007451]","./assets/img/space/catch/2.jpg","[""spaceBar""]","catch practice","space","0","{""ArrowUp,ArrowLeft"":3,""ArrowUp,ArrowRight"":36,""ArrowDown,ArrowLeft"":15,""ArrowDown,ArrowRight"":23}","true","spaceBar","true","","","","","",""
"html-keyboard-response","56","307138","0.0-3.0-10.0-1.2","spark_pilot_norest","9000","6","21","Male","","","","","","","null","<div style=""font-size:60px;"">+</div>","null","fixation","","","","","","","","","","","",""
"learning-instructions","57","315116","0.0-3.0-11.0-0.0-0.0","spark_pilot_norest","9000","6","21","Male","","","","","","","2592.5","<p> Now, you will practice a shortened version of the game to get a sense of how it all fits together. </p>","","instructions","","","","","","","","","","","",""
"learning-instructions","58","320084","0.0-3.0-11.0-0.0-0.1","spark_pilot_norest","9000","6","21","Male","","","","","","","1714.6000000014901","<p>This time you are searching for treasure in outer space.</p>","","instructions","","","","","","","","","","","",""
"learning-instructions","59","336161","0.0-3.0-11.0-1.0-0.0","spark_pilot_norest","9000","6","21","Male","","","","","","","1173.1000000014901","<p> Remember, when you see a picture of the place, use the up and down keys to <b>find an animal</b>.</p>
            <p> When you encounter an animal, you should use the left and right keys to <b>select a treasure chest</b>.</p>
            <p> Don't forget to look out for the robber! </p>","","instructions","","","","","","","","","","","",""
"revaluation","60","342178","0.0-3.0-11.0-2.0-0.0","spark_pilot_norest","9000","6","21","Male","","false","","","","","[1074.7999999970198,695.3000000007451]","./assets/img/space/11.jpg","[""ArrowDown"",""ArrowRight""]","practice block","space","23","{""ArrowUp,ArrowLeft"":3,""ArrowUp,ArrowRight"":36,""ArrowDown,ArrowLeft"":15,""ArrowDown,ArrowRight"":23}","false","ArrowDown,ArrowRight","false","","","","","",""
"html-keyboard-response","61","342689","0.0-3.0-11.0-2.0-1.0","spark_pilot_norest","9000","6","21","Male","","","","","","","null","<div style=""font-size:60px;"">+</div>","null","fixation","","","","","","","","","","","",""
"revaluation","62","348711","0.0-3.0-11.0-2.0-0.1","spark_pilot_norest","9000","6","21","Male","","false","","","","","[787,809.3000000007451]","./assets/img/space/12.jpg","[""ArrowUp"",""ArrowLeft""]","practice block","space","3","{""ArrowUp,ArrowLeft"":3,""ArrowUp,ArrowRight"":36,""ArrowDown,ArrowLeft"":15,""ArrowDown,ArrowRight"":23}","false","ArrowUp,ArrowLeft","false","","","","","",""
"html-keyboard-response","63","349218","0.0-3.0-11.0-2.0-1.1","spark_pilot_norest","9000","6","21","Male","","","","","","","null","<div style=""font-size:60px;"">+</div>","null","fixation","","","","","","","","","","","",""
"revaluation","64","355261","0.0-3.0-11.0-2.0-0.2","spark_pilot_norest","9000","6","21","Male","","false","","","","","[753.0999999977648,653.1999999992549]","./assets/img/space/13.jpg","[""ArrowUp"",""ArrowRight""]","practice block","space","36","{""ArrowUp,ArrowLeft"":3,""ArrowUp,ArrowRight"":36,""ArrowDown,ArrowLeft"":15,""ArrowDown,ArrowRight"":23}","true","ArrowUp,ArrowRight","false","","","","","",""
"html-keyboard-response","65","355770","0.0-3.0-11.0-2.0-1.2","spark_pilot_norest","9000","6","21","Male","","","","","","","null","<div style=""font-size:60px;"">+</div>","null","fixation","","","","","","","","","","","",""
"revaluation","66","361794","0.0-3.0-11.0-2.0-0.3","spark_pilot_norest","9000","6","21","Male","","false","","","","","[1009.4000000022352,655.6999999992549]","./assets/img/space/14.jpg","[""ArrowUp"",""ArrowRight""]","practice block","space","36","{""ArrowUp,ArrowLeft"":3,""ArrowUp,ArrowRight"":36,""ArrowDown,ArrowLeft"":15,""ArrowDown,ArrowRight"":23}","true","ArrowUp,ArrowRight","false","","","","","",""
"html-keyboard-response","67","362298","0.0-3.0-11.0-2.0-1.3","spark_pilot_norest","9000","6","21","Male","","","","","","","null","<div style=""font-size:60px;"">+</div>","null","fixation","","","","","","","","","","","",""
"revaluation","68","368322","0.0-3.0-11.0-2.0-0.4","spark_pilot_norest","9000","6","21","Male","","false","","","","","[808.8000000007451,860]","./assets/img/space/11.jpg","[""ArrowDown"",""ArrowLeft""]","practice block","space","15","{""ArrowUp,ArrowLeft"":3,""ArrowUp,ArrowRight"":36,""ArrowDown,ArrowLeft"":15,""ArrowDown,ArrowRight"":23}","false","ArrowDown,ArrowLeft","false","","","","","",""
"html-keyboard-response","69","368826","0.0-3.0-11.0-2.0-1.4","spark_pilot_norest","9000","6","21","Male","","","","","","","null","<div style=""font-size:60px;"">+</div>","null","fixation","","","","","","","","","","","",""
"revaluation","70","374845","0.0-3.0-11.0-2.0-0.5","spark_pilot_norest","9000","6","21","Male","","false","","","","","[746.3000000007451,538.6000000014901]","./assets/img/space/12.jpg","[""ArrowUp"",""ArrowRight""]","practice block","space","36","{""ArrowUp,ArrowLeft"":3,""ArrowUp,ArrowRight"":36,""ArrowDown,ArrowLeft"":15,""ArrowDown,ArrowRight"":23}","true","ArrowUp,ArrowRight","false","","","","","",""
"html-keyboard-response","71","375354","0.0-3.0-11.0-2.0-1.5","spark_pilot_norest","9000","6","21","Male","","","","","","","null","<div style=""font-size:60px;"">+</div>","null","fixation","","","","","","","","","","","",""
"revaluation","72","381378","0.0-3.0-11.0-2.0-0.6","spark_pilot_norest","9000","6","21","Male","","false","","","","","[810.6999999992549,511.29999999701977]","./assets/img/space/13.jpg","[""ArrowDown"",""ArrowRight""]","practice block","space","23","{""ArrowUp,ArrowLeft"":3,""ArrowUp,ArrowRight"":36,""ArrowDown,ArrowLeft"":15,""ArrowDown,ArrowRight"":23}","false","ArrowDown,ArrowRight","false","","","","","",""
"html-keyboard-response","73","381891","0.0-3.0-11.0-2.0-1.6","spark_pilot_norest","9000","6","21","Male","","","","","","","null","<div style=""font-size:60px;"">+</div>","null","fixation","","","","","","","","","","","",""
"revaluation","74","387931","0.0-3.0-11.0-2.0-0.7","spark_pilot_norest","9000","6","21","Male","","false","","","","","[584,476.19999999925494]","./assets/img/space/14.jpg","[""ArrowUp"",""ArrowRight""]","practice block","space","36","{""ArrowUp,ArrowLeft"":3,""ArrowUp,ArrowRight"":36,""ArrowDown,ArrowLeft"":15,""ArrowDown,ArrowRight"":23}","true","ArrowUp,ArrowRight","false","","","","","",""
"html-keyboard-response","75","388441","0.0-3.0-11.0-2.0-1.7","spark_pilot_norest","9000","6","21","Male","","","","","","","null","<div style=""font-size:60px;"">+</div>","null","fixation","","","","","","","","","","","",""
"revaluation","76","392461","0.0-3.0-11.0-2.0-0.8","spark_pilot_norest","9000","6","21","Male","","false","","","","","[459.29999999701977]","./assets/img/space/catch/3.jpg","[""spaceBar""]","practice block","space","0","{""ArrowUp,ArrowLeft"":3,""ArrowUp,ArrowRight"":36,""ArrowDown,ArrowLeft"":15,""ArrowDown,ArrowRight"":23}","true","spaceBar","true","","","","","",""
"html-keyboard-response","77","392969","0.0-3.0-11.0-2.0-1.8","spark_pilot_norest","9000","6","21","Male","","","","","","","null","<div style=""font-size:60px;"">+</div>","null","fixation","","","","","","","","","","","",""
"learning-instructions","78","408834","0.0-3.0-11.0-3.0-0.0","spark_pilot_norest","9000","6","21","Male","","","","","","","2801.7000000029802","<p> Now, you will travel with a friend who will choose whether you go up or down first. </p>
            <p> On these turns, you will just see the animal that they found. You will still get to choose which chest to search for treasure.</p>","","instructions","","","","","","","","","","","",""
"revaluation","79","412858","0.0-3.0-11.0-4.0-0.0","spark_pilot_norest","9000","6","21","Male","","false","","","","","[889]","./assets/img/space/animals/cat.jpg","[""ArrowRight""]","practice block","space","36","{""ArrowUp,ArrowLeft"":3,""ArrowUp,ArrowRight"":36,""ArrowDown,ArrowLeft"":15,""ArrowDown,ArrowRight"":23}","true","ArrowUp,ArrowRight","","","","","","",""
"html-keyboard-response","80","413370","0.0-3.0-11.0-4.0-1.0","spark_pilot_norest","9000","6","21","Male","","","","","","","null","<div style=""font-size:60px;"">+</div>","null","fixation","","","","","","","","","","","",""
"revaluation","81","417395","0.0-3.0-11.0-4.0-0.1","spark_pilot_norest","9000","6","21","Male","","false","","","","","[412]","./assets/img/space/animals/rabbit.jpg","[""ArrowRight""]","practice block","space","23","{""ArrowUp,ArrowLeft"":3,""ArrowUp,ArrowRight"":36,""ArrowDown,ArrowLeft"":15,""ArrowDown,ArrowRight"":23}","true","ArrowDown,ArrowRight","","","","","","",""
"html-keyboard-response","82","417905","0.0-3.0-11.0-4.0-1.1","spark_pilot_norest","9000","6","21","Male","","","","","","","null","<div style=""font-size:60px;"">+</div>","null","fixation","","","","","","","","","","","",""
"revaluation","83","421928","0.0-3.0-11.0-4.0-0.2","spark_pilot_norest","9000","6","21","Male","","false","","","","","[502.3999999985099]","./assets/img/space/animals/rabbit.jpg","[""ArrowRight""]","practice block","space","23","{""ArrowUp,ArrowLeft"":3,""ArrowUp,ArrowRight"":36,""ArrowDown,ArrowLeft"":15,""ArrowDown,ArrowRight"":23}","true","ArrowDown,ArrowRight","","","","","","",""
"html-keyboard-response","84","422434","0.0-3.0-11.0-4.0-1.2","spark_pilot_norest","9000","6","21","Male","","","","","","","null","<div style=""font-size:60px;"">+</div>","null","fixation","","","","","","","","","","","",""
"revaluation","85","426459","0.0-3.0-11.0-4.0-0.3","spark_pilot_norest","9000","6","21","Male","","false","","","","","[539.6000000014901]","./assets/img/space/animals/cat.jpg","[""ArrowLeft""]","practice block","space","3","{""ArrowUp,ArrowLeft"":3,""ArrowUp,ArrowRight"":36,""ArrowDown,ArrowLeft"":15,""ArrowDown,ArrowRight"":23}","false","ArrowUp,ArrowLeft","","","","","","",""
"html-keyboard-response","86","426970","0.0-3.0-11.0-4.0-1.3","spark_pilot_norest","9000","6","21","Male","","","","","","","null","<div style=""font-size:60px;"">+</div>","null","fixation","","","","","","","","","","","",""
"learning-instructions","87","435178","0.0-3.0-11.0-5.0-0.0","spark_pilot_norest","9000","6","21","Male","","","","","","","null","<p> You have almost finished this part of the game! </p>
            <p> We are going to ask you to make a few more choices. </p>","","instructions","","","","","","","","","","","",""
"learning-instructions","88","451317","0.0-3.0-11.0-5.0-0.1","spark_pilot_norest","9000","6","21","Male","","","","","","","null","<p> First, you need to decide whether to go up or down. When you see each picture, use the arrow keys to make your choice. </p>
            <p><b>You will not see which animal you found, but try to get to the one that will give you the most treasure.</b></p>","","instructions","","","","","","","","","","","",""
"html-keyboard-response","89","452322","0.0-3.0-11.0-6.0-0.0","spark_pilot_norest","9000","6","21","Male","","","","","","","null","<div style=""font-size:100px;color:red;"">Starting in...</div>","null","","","","","","","","","","","","",""
"html-keyboard-response","90","453327","0.0-3.0-11.0-6.0-1.0","spark_pilot_norest","9000","6","21","Male","","","","","","","null","<div style=""font-size:200px;color:red;"">3</div>","null","","","","","","","","","","","","",""
"html-keyboard-response","91","454329","0.0-3.0-11.0-6.0-2.0","spark_pilot_norest","9000","6","21","Male","","","","","","","null","<div style=""font-size:200px;color:red;"">2</div>","null","","","","","","","","","","","","",""
"html-keyboard-response","92","455338","0.0-3.0-11.0-6.0-3.0","spark_pilot_norest","9000","6","21","Male","","","","","","","null","<div style=""font-size:200px;color:red;"">1</div>","null","","","","","","","","","","","","",""
"revaluation","93","456095","0.0-3.0-11.0-7.0","spark_pilot_norest","9000","6","21","Male","","false","","","","","[739.8000000007451]","./assets/img/space/15.jpg","[""ArrowUp""]","practice block","space","0","{""ArrowUp,ArrowLeft"":3,""ArrowUp,ArrowRight"":36,""ArrowDown,ArrowLeft"":15,""ArrowDown,ArrowRight"":23}","true","ArrowUp","false","","","","","",""
"html-keyboard-response","94","456601","0.0-3.0-11.0-8.0","spark_pilot_norest","9000","6","21","Male","","","","","","","null","<div style=""font-size:60px;"">+</div>","null","fixation","","","","","","","","","","","",""
"learning-instructions","95","470113","0.0-3.0-11.0-9.0-0.0","spark_pilot_norest","9000","6","21","Male","","","","","","","null","<p> Now you will see the animals again and can search their chests for treasure. </p>
            <p> This time, you will not see how much treasure you earned, but you will earn more bonus money for making better choices. </p>","","instructions","","","","","","","","","","","",""
"html-keyboard-response","96","471122","0.0-3.0-11.0-10.0-0.0","spark_pilot_norest","9000","6","21","Male","","","","","","","null","<div style=""font-size:100px;color:red;"">Starting in...</div>","null","","","","","","","","","","","","",""
"html-keyboard-response","97","472127","0.0-3.0-11.0-10.0-1.0","spark_pilot_norest","9000","6","21","Male","","","","","","","null","<div style=""font-size:200px;color:red;"">3</div>","null","","","","","","","","","","","","",""
"html-keyboard-response","98","473129","0.0-3.0-11.0-10.0-2.0","spark_pilot_norest","9000","6","21","Male","","","","","","","null","<div style=""font-size:200px;color:red;"">2</div>","null","","","","","","","","","","","","",""
"html-keyboard-response","99","474138","0.0-3.0-11.0-10.0-3.0","spark_pilot_norest","9000","6","21","Male","","","","","","","null","<div style=""font-size:200px;color:red;"">1</div>","null","","","","","","","","","","","","",""
"revaluation","100","474899","0.0-3.0-11.0-11.0-0.0","spark_pilot_norest","9000","6","21","Male","","false","","","","","[742.8999999985099]","./assets/img/space/animals/cat.jpg","[""ArrowRight""]","practice block","space","0","{""ArrowUp,ArrowLeft"":3,""ArrowUp,ArrowRight"":36,""ArrowDown,ArrowLeft"":15,""ArrowDown,ArrowRight"":23}","true","ArrowUp,ArrowRight","","","","","","",""
"html-keyboard-response","101","475402","0.0-3.0-11.0-11.0-1.0","spark_pilot_norest","9000","6","21","Male","","","","","","","null","<div style=""font-size:60px;"">+</div>","null","fixation","","","","","","","","","","","",""
"revaluation","102","475976","0.0-3.0-11.0-11.0-0.1","spark_pilot_norest","9000","6","21","Male","","false","","","","","[564.9000000022352]","./assets/img/space/animals/rabbit.jpg","[""ArrowRight""]","practice block","space","0","{""ArrowUp,ArrowLeft"":3,""ArrowUp,ArrowRight"":36,""ArrowDown,ArrowLeft"":15,""ArrowDown,ArrowRight"":23}","true","ArrowDown,ArrowRight","","","","","","",""
"html-keyboard-response","103","476483","0.0-3.0-11.0-11.0-1.1","spark_pilot_norest","9000","6","21","Male","","","","","","","null","<div style=""font-size:60px;"">+</div>","null","fixation","","","","","","","","","","","",""
"learning-instructions","104","483371","0.0-3.0-12.0-0.0","spark_pilot_norest","9000","6","21","Male","","","","","","","2224.699999999255","<p> Before you start, we're going to ask you a few questions about how the game works. </p>","","instructions","","","","","","","","","","","",""
"comp-q","105","490756","0.0-3.0-13.0-0.0-0.0","spark_pilot_norest","9000","6","21","Male","","","","","","","1667.5999999977648","<p> <b> True or False? </b> </p>
            <p> There can be 50 pieces of treasure in a given animal's chest. </p>","1","comp_question","","","","true","","","","","","","",""
"comp-q","106","499326","0.0-3.0-13.0-0.0-1.0","spark_pilot_norest","9000","6","21","Male","","","","","","","1816.5999999977648","<p> <b> That's right! </b> The amount of treasure in each chest can range from 0 to 40 pieces. </p>","0","comp_answer","","","","","","","","","","","",""
"comp-q","107","508179","0.0-3.0-13.0-0.1-0.1","spark_pilot_norest","9000","6","21","Male","","","","","","","1635.699999999255","<p> <b> True or False? </b> </p><p> In this game, all animals have the same amount of treasure in their left and right chests. </p>","1","comp_question","","","","true","","","","","","","",""
"comp-q","108","514566","0.0-3.0-13.0-0.1-1.1","spark_pilot_norest","9000","6","21","Male","","","","","","","1069","<p> <b> That's right! </b> Animals have different amounts of treasure in their treasure chests. </p>","0","comp_answer","","","","","","","","","","","",""
"comp-q","109","521428","0.0-3.0-13.0-0.2-0.2","spark_pilot_norest","9000","6","21","Male","","","","","","","922.3000000007451","<p> <b> True or False? </b> </p><p> The same animal will always be there if you go up in the same place. </p>","1","comp_question","","","","false","","","","","","","",""
"comp-q","110","529256","0.0-3.0-13.0-0.2-1.2","spark_pilot_norest","9000","6","21","Male","","","","","","","1454.300000000745","<p> <b>Incorrect.</b> One animal lives in the upper part and one lives in the lower part of every place. </p>","0","comp_answer","","","","","","","","","","","",""
"comp-q","111","537183","0.0-3.0-13.0-0.3-0.3","spark_pilot_norest","9000","6","21","Male","","","","","","","2095.199999999255","<p> <b> True or False? </b> </p><p> The same animal will always be there if you go up in the same place. </p>","0","comp_question","","","","true","","","","","","","",""
"comp-q","112","545412","0.0-3.0-13.0-0.3-1.3","spark_pilot_norest","9000","6","21","Male","","","","","","","1695.9000000022352","<p> <b> That's right! </b> One animal lives in the upper part and one lives in the lower part of every place. </p>","0","comp_answer","","","","","","","","","","","",""
"comp-q","113","551790","0.0-3.0-13.0-0.4-0.4","spark_pilot_norest","9000","6","21","Male","","","","","","","787.1000000014901","<p> <b> True or False? </b> </p><p> If you see a different picture, it means you are in a new place. </p>","0","comp_question","","","","false","","","","","","","",""
"comp-q","114","564192","0.0-3.0-13.0-0.4-1.4","spark_pilot_norest","9000","6","21","Male","","","","","","","1190.5999999977648","<p> <b>Incorrect.</b> Lots of different images may show the same place. For example,  you may see three different images that all remind you that you are in outer space. </p>","0","comp_answer","","","","","","","","","","","",""
"comp-q","115","570579","0.0-3.0-13.0-0.5-0.5","spark_pilot_norest","9000","6","21","Male","","","","","","","879","<p> <b> True or False? </b> </p><p> If you see a different picture, it means you are in a new place. </p>","1","comp_question","","","","true","","","","","","","",""
"comp-q","116","585849","0.0-3.0-13.0-0.5-1.5","spark_pilot_norest","9000","6","21","Male","","","","","","","3892.60000000149","<p> <b> That's right! </b> Lots of different images may show the same place. For example,  you may see three different images that all remind you that you are in outer space. </p>","0","comp_answer","","","","","","","","","","","",""
"learning-instructions","117","597566","0.0-3.0-14.0-0.0","spark_pilot_norest","9000","6","21","Male","","","","","","","1753","<p> Good job. Remember to do your best because the amount of treasure you earn will be converted into bonus money. </p>
            <p> It’s time to start the real game! </p>","","instructions","","","","","","","","","","","",""
"learning-instructions","118","602456","0.0-4.0-0.0-0.0","spark_pilot_norest","9000","6","21","Male","","","","","","","2045","<p> This time you are searching for treasure in the <b>canyon</b>.</p>","","instructions","","","","","","","","","","","",""
"learning-instructions","119","620765","0.0-4.0-0.0-0.1","spark_pilot_norest","9000","6","21","Male","","","","","","","781.2000000029802","<p><b>New</b> animals with <b>new</b> treasure chests live here. You need to explore to discover where the animal with the best treasure chest is.</p>
                    <p> Like before, once you figure out which animal has the chest with the most treasure, you should try to get to that animal and select that chest! </p>","","instructions","","","","","","","","","","","",""
"learning-instructions","120","636497","0.0-4.0-1.0-0.0","spark_pilot_norest","9000","6","21","Male","","","","","","","993.3000000007451","<p> Remember, when you see a picture of the place, use the up and down keys to <b>find an animal</b>.</p>
            <p> When you encounter an animal, you should use the left and right keys to <b>select a treasure chest</b>.</p>
            <p> Don't forget to look out for the robber! </p>","","instructions","","","","","","","","","","","",""
"revaluation","121","642531","0.0-4.0-2.0-0.0","spark_pilot_norest","9000","6","21","Male","","false","","","","","[1309.800000000745,697.1000000014901]","./assets/img/canyon/memory/33.jpg","[""ArrowUp"",""ArrowRight""]","value training","canyon","10","{""ArrowUp,ArrowLeft"":23,""ArrowUp,ArrowRight"":10,""ArrowDown,ArrowLeft"":8,""ArrowDown,ArrowRight"":30}","false","ArrowUp,ArrowRight","false","revaluation","1","0","","",""
"html-keyboard-response","122","643046","0.0-4.0-2.0-1.0","spark_pilot_norest","9000","6","21","Male","","","","","","","null","<div style=""font-size:60px;"">+</div>","null","fixation","","","","","","","","","1","","",""
"revaluation","123","649066","0.0-4.0-2.0-0.1","spark_pilot_norest","9000","6","21","Male","","false","","","","","[725,387.69999999925494]","./assets/img/canyon/memory/0.jpg","[""ArrowUp"",""ArrowLeft""]","value training","canyon","23","{""ArrowUp,ArrowLeft"":23,""ArrowUp,ArrowRight"":10,""ArrowDown,ArrowLeft"":8,""ArrowDown,ArrowRight"":30}","false","ArrowUp,ArrowLeft","false","revaluation","1","2","","",""
"html-keyboard-response","124","649577","0.0-4.0-2.0-1.1","spark_pilot_norest","9000","6","21","Male","","","","","","","null","<div style=""font-size:60px;"">+</div>","null","fixation","","","","","","","","","3","","",""
"revaluation","125","655603","0.0-4.0-2.0-0.2","spark_pilot_norest","9000","6","21","Male","","false","","","","","[1129.300000000745,701.6000000014901]","./assets/img/canyon/memory/23.jpg","[""ArrowDown"",""ArrowLeft""]","value training","canyon","8","{""ArrowUp,ArrowLeft"":23,""ArrowUp,ArrowRight"":10,""ArrowDown,ArrowLeft"":8,""ArrowDown,ArrowRight"":30}","false","ArrowDown,ArrowLeft","false","revaluation","1","4","","",""
"html-keyboard-response","126","656114","0.0-4.0-2.0-1.2","spark_pilot_norest","9000","6","21","Male","","","","","","","null","<div style=""font-size:60px;"">+</div>","null","fixation","","","","","","","","","5","","",""
"revaluation","127","662146","0.0-4.0-2.0-0.3","spark_pilot_norest","9000","6","21","Male","","false","","","","","[577.7999999970198,906.3000000007451]","./assets/img/canyon/memory/41.jpg","[""ArrowDown"",""ArrowRight""]","value training","canyon","30","{""ArrowUp,ArrowLeft"":23,""ArrowUp,ArrowRight"":10,""ArrowDown,ArrowLeft"":8,""ArrowDown,ArrowRight"":30}","true","ArrowDown,ArrowRight","false","revaluation","1","6","","",""
"html-keyboard-response","128","662658","0.0-4.0-2.0-1.3","spark_pilot_norest","9000","6","21","Male","","","","","","","null","<div style=""font-size:60px;"">+</div>","null","fixation","","","","","","","","","7","","",""
"revaluation","129","666682","0.0-4.0-2.0-0.4","spark_pilot_norest","9000","6","21","Male","","false","","","","","[633.3999999985099]","./assets/img/canyon/catch/2.jpg","[""ArrowUp""]","value training","canyon","-10","{""ArrowUp,ArrowLeft"":23,""ArrowUp,ArrowRight"":10,""ArrowDown,ArrowLeft"":8,""ArrowDown,ArrowRight"":30}","false","ArrowUp","true","revaluation","1","8","","",""
"html-keyboard-response","130","667185","0.0-4.0-2.0-1.4","spark_pilot_norest","9000","6","21","Male","","","","","","","null","<div style=""font-size:60px;"">+</div>","null","fixation","","","","","","","","","9","","",""
"revaluation","131","673199","0.0-4.0-2.0-0.5","spark_pilot_norest","9000","6","21","Male","","false","","","","","[692.0999999977648,433.5999999977648]","./assets/img/canyon/memory/5.jpg","[""ArrowUp"",""ArrowLeft""]","value training","canyon","23","{""ArrowUp,ArrowLeft"":23,""ArrowUp,ArrowRight"":10,""ArrowDown,ArrowLeft"":8,""ArrowDown,ArrowRight"":30}","false","ArrowUp,ArrowLeft","false","revaluation","1","10","","",""
"html-keyboard-response","132","673705","0.0-4.0-2.0-1.5","spark_pilot_norest","9000","6","21","Male","","","","","","","null","<div style=""font-size:60px;"">+</div>","null","fixation","","","","","","","","","11","","",""
"revaluation","133","677714","0.0-4.0-2.0-0.6","spark_pilot_norest","9000","6","21","Male","","false","","","","","[602.7000000029802]","./assets/img/canyon/catch/5.jpg","[""spaceBar""]","value training","canyon","0","{""ArrowUp,ArrowLeft"":23,""ArrowUp,ArrowRight"":10,""ArrowDown,ArrowLeft"":8,""ArrowDown,ArrowRight"":30}","true","spaceBar","true","revaluation","1","12","","",""
"html-keyboard-response","134","678218","0.0-4.0-2.0-1.6","spark_pilot_norest","9000","6","21","Male","","","","","","","null","<div style=""font-size:60px;"">+</div>","null","fixation","","","","","","","","","13","","",""
"revaluation","135","684242","0.0-4.0-2.0-0.7","spark_pilot_norest","9000","6","21","Male","","false","","","","","[590.1999999992549,255.5]","./assets/img/canyon/memory/35.jpg","[""ArrowDown"",""ArrowRight""]","value training","canyon","30","{""ArrowUp,ArrowLeft"":23,""ArrowUp,ArrowRight"":10,""ArrowDown,ArrowLeft"":8,""ArrowDown,ArrowRight"":30}","true","ArrowDown,ArrowRight","false","revaluation","1","14","","",""
"html-keyboard-response","136","684746","0.0-4.0-2.0-1.7","spark_pilot_norest","9000","6","21","Male","","","","","","","null","<div style=""font-size:60px;"">+</div>","null","fixation","","","","","","","","","15","","",""
"revaluation","137","688765","0.0-4.0-2.0-0.8","spark_pilot_norest","9000","6","21","Male","","false","","","","","[505.19999999925494]","./assets/img/canyon/catch/0.jpg","[""spaceBar""]","value training","canyon","0","{""ArrowUp,ArrowLeft"":23,""ArrowUp,ArrowRight"":10,""ArrowDown,ArrowLeft"":8,""ArrowDown,ArrowRight"":30}","true","spaceBar","true","revaluation","1","16","","",""
"html-keyboard-response","138","689273","0.0-4.0-2.0-1.8","spark_pilot_norest","9000","6","21","Male","","","","","","","null","<div style=""font-size:60px;"">+</div>","null","fixation","","","","","","","","","17","","",""
"revaluation","139","695299","0.0-4.0-2.0-0.9","spark_pilot_norest","9000","6","21","Male","","false","","","","","[611.9000000022352,277.5]","./assets/img/canyon/memory/34.jpg","[""ArrowDown"",""ArrowRight""]","value training","canyon","30","{""ArrowUp,ArrowLeft"":23,""ArrowUp,ArrowRight"":10,""ArrowDown,ArrowLeft"":8,""ArrowDown,ArrowRight"":30}","true","ArrowDown,ArrowRight","false","revaluation","1","18","","",""
"html-keyboard-response","140","695810","0.0-4.0-2.0-1.9","spark_pilot_norest","9000","6","21","Male","","","","","","","null","<div style=""font-size:60px;"">+</div>","null","fixation","","","","","","","","","19","","",""
"revaluation","141","701832","0.0-4.0-2.0-0.10","spark_pilot_norest","9000","6","21","Male","","false","","","","","[827.8000000007451,349.30000000074506]","./assets/img/canyon/memory/41.jpg","[""ArrowDown"",""ArrowRight""]","value training","canyon","30","{""ArrowUp,ArrowLeft"":23,""ArrowUp,ArrowRight"":10,""ArrowDown,ArrowLeft"":8,""ArrowDown,ArrowRight"":30}","true","ArrowDown,ArrowRight","false","revaluation","1","20","","",""
"html-keyboard-response","142","702338","0.0-4.0-2.0-1.10","spark_pilot_norest","9000","6","21","Male","","","","","","","null","<div style=""font-size:60px;"">+</div>","null","fixation","","","","","","","","","21","","",""
"revaluation","143","706348","0.0-4.0-2.0-0.11","spark_pilot_norest","9000","6","21","Male","","false","","","","","[728.6000000014901]","./assets/img/canyon/catch/3.jpg","[""spaceBar""]","value training","canyon","0","{""ArrowUp,ArrowLeft"":23,""ArrowUp,ArrowRight"":10,""ArrowDown,ArrowLeft"":8,""ArrowDown,ArrowRight"":30}","true","spaceBar","true","revaluation","1","22","","",""
"html-keyboard-response","144","706857","0.0-4.0-2.0-1.11","spark_pilot_norest","9000","6","21","Male","","","","","","","null","<div style=""font-size:60px;"">+</div>","null","fixation","","","","","","","","","23","","",""
"revaluation","145","712891","0.0-4.0-2.0-0.12","spark_pilot_norest","9000","6","21","Male","","false","","","","","[884.2000000029802,243.60000000149012]","./assets/img/canyon/memory/6.jpg","[""ArrowDown"",""ArrowRight""]","value training","canyon","30","{""ArrowUp,ArrowLeft"":23,""ArrowUp,ArrowRight"":10,""ArrowDown,ArrowLeft"":8,""ArrowDown,ArrowRight"":30}","true","ArrowDown,ArrowRight","false","revaluation","1","24","","",""
"html-keyboard-response","146","713398","0.0-4.0-2.0-1.12","spark_pilot_norest","9000","6","21","Male","","","","","","","null","<div style=""font-size:60px;"">+</div>","null","fixation","","","","","","","","","25","","",""
"revaluation","147","719416","0.0-4.0-2.0-0.13","spark_pilot_norest","9000","6","21","Male","","false","","","","","[1035.199999999255,354.30000000074506]","./assets/img/canyon/memory/10.jpg","[""ArrowDown"",""ArrowRight""]","value training","canyon","30","{""ArrowUp,ArrowLeft"":23,""ArrowUp,ArrowRight"":10,""ArrowDown,ArrowLeft"":8,""ArrowDown,ArrowRight"":30}","true","ArrowDown,ArrowRight","false","revaluation","1","26","","",""
"html-keyboard-response","148","719922","0.0-4.0-2.0-1.13","spark_pilot_norest","9000","6","21","Male","","","","","","","null","<div style=""font-size:60px;"">+</div>","null","fixation","","","","","","","","","27","","",""
"revaluation","149","725939","0.0-4.0-2.0-0.14","spark_pilot_norest","9000","6","21","Male","","false","","","","","[797.8000000007451,305.70000000298023]","./assets/img/canyon/memory/21.jpg","[""ArrowDown"",""ArrowRight""]","value training","canyon","30","{""ArrowUp,ArrowLeft"":23,""ArrowUp,ArrowRight"":10,""ArrowDown,ArrowLeft"":8,""ArrowDown,ArrowRight"":30}","true","ArrowDown,ArrowRight","false","revaluation","1","28","","",""
"html-keyboard-response","150","726448","0.0-4.0-2.0-1.14","spark_pilot_norest","9000","6","21","Male","","","","","","","null","<div style=""font-size:60px;"">+</div>","null","fixation","","","","","","","","","29","","",""
"revaluation","151","732475","0.0-4.0-2.0-0.15","spark_pilot_norest","9000","6","21","Male","","false","","","","","[783.5999999977648,320.69999999925494]","./assets/img/canyon/memory/10.jpg","[""ArrowDown"",""ArrowRight""]","value training","canyon","30","{""ArrowUp,ArrowLeft"":23,""ArrowUp,ArrowRight"":10,""ArrowDown,ArrowLeft"":8,""ArrowDown,ArrowRight"":30}","true","ArrowDown,ArrowRight","false","revaluation","1","30","","",""
"html-keyboard-response","152","732981","0.0-4.0-2.0-1.15","spark_pilot_norest","9000","6","21","Male","","","","","","","null","<div style=""font-size:60px;"">+</div>","null","fixation","","","","","","","","","31","","",""
"revaluation","153","739000","0.0-4.0-2.0-0.16","spark_pilot_norest","9000","6","21","Male","","false","","","","","[839.5999999977648,268.5999999977648]","./assets/img/canyon/memory/40.jpg","[""ArrowDown"",""ArrowRight""]","value training","canyon","30","{""ArrowUp,ArrowLeft"":23,""ArrowUp,ArrowRight"":10,""ArrowDown,ArrowLeft"":8,""ArrowDown,ArrowRight"":30}","true","ArrowDown,ArrowRight","false","revaluation","1","32","","",""
"html-keyboard-response","154","739505","0.0-4.0-2.0-1.16","spark_pilot_norest","9000","6","21","Male","","","","","","","null","<div style=""font-size:60px;"">+</div>","null","fixation","","","","","","","","","33","","",""
"revaluation","155","745531","0.0-4.0-2.0-0.17","spark_pilot_norest","9000","6","21","Male","","false","","","","","[886.9000000022352,805.7999999970198]","./assets/img/canyon/memory/11.jpg","[""ArrowDown"",""ArrowRight""]","value training","canyon","30","{""ArrowUp,ArrowLeft"":23,""ArrowUp,ArrowRight"":10,""ArrowDown,ArrowLeft"":8,""ArrowDown,ArrowRight"":30}","true","ArrowDown,ArrowRight","false","revaluation","1","34","","",""
"html-keyboard-response","156","746041","0.0-4.0-2.0-1.17","spark_pilot_norest","9000","6","21","Male","","","","","","","null","<div style=""font-size:60px;"">+</div>","null","fixation","","","","","","","","","35","","",""
"revaluation","157","752075","0.0-4.0-2.0-0.18","spark_pilot_norest","9000","6","21","Male","","false","","","","","[939.3999999985099,242.59999999776483]","./assets/img/canyon/memory/19.jpg","[""ArrowDown"",""ArrowRight""]","value training","canyon","30","{""ArrowUp,ArrowLeft"":23,""ArrowUp,ArrowRight"":10,""ArrowDown,ArrowLeft"":8,""ArrowDown,ArrowRight"":30}","true","ArrowDown,ArrowRight","false","revaluation","1","36","","",""
"html-keyboard-response","158","752582","0.0-4.0-2.0-1.18","spark_pilot_norest","9000","6","21","Male","","","","","","","null","<div style=""font-size:60px;"">+</div>","null","fixation","","","","","","","","","37","","",""
"revaluation","159","758602","0.0-4.0-2.0-0.19","spark_pilot_norest","9000","6","21","Male","","false","","","","","[1163.1000000014901,369.19999999925494]","./assets/img/canyon/memory/33.jpg","[""ArrowDown"",""ArrowLeft""]","value training","canyon","8","{""ArrowUp,ArrowLeft"":23,""ArrowUp,ArrowRight"":10,""ArrowDown,ArrowLeft"":8,""ArrowDown,ArrowRight"":30}","false","ArrowDown,ArrowLeft","false","revaluation","1","38","","",""
"html-keyboard-response","160","759114","0.0-4.0-2.0-1.19","spark_pilot_norest","9000","6","21","Male","","","","","","","null","<div style=""font-size:60px;"">+</div>","null","fixation","","","","","","","","","39","","",""
"revaluation","161","765132","0.0-4.0-2.0-0.20","spark_pilot_norest","9000","6","21","Male","","false","","","","","[1061.2999999970198,303.19999999925494]","./assets/img/canyon/memory/13.jpg","[""ArrowUp"",""ArrowLeft""]","value training","canyon","23","{""ArrowUp,ArrowLeft"":23,""ArrowUp,ArrowRight"":10,""ArrowDown,ArrowLeft"":8,""ArrowDown,ArrowRight"":30}","false","ArrowUp,ArrowLeft","false","revaluation","1","40","","",""
"html-keyboard-response","162","765641","0.0-4.0-2.0-1.20","spark_pilot_norest","9000","6","21","Male","","","","","","","null","<div style=""font-size:60px;"">+</div>","null","fixation","","","","","","","","","41","","",""
"revaluation","163","771658","0.0-4.0-2.0-0.21","spark_pilot_norest","9000","6","21","Male","","false","","","","","[455.1000000014901,251.39999999850988]","./assets/img/canyon/memory/40.jpg","[""ArrowDown"",""ArrowRight""]","value training","canyon","30","{""ArrowUp,ArrowLeft"":23,""ArrowUp,ArrowRight"":10,""ArrowDown,ArrowLeft"":8,""ArrowDown,ArrowRight"":30}","true","ArrowDown,ArrowRight","false","revaluation","1","42","","",""
"html-keyboard-response","164","772165","0.0-4.0-2.0-1.21","spark_pilot_norest","9000","6","21","Male","","","","","","","null","<div style=""font-size:60px;"">+</div>","null","fixation","","","","","","","","","43","","",""
"revaluation","165","778186","0.0-4.0-2.0-0.22","spark_pilot_norest","9000","6","21","Male","","false","","","","","[443.20000000298023,485.5]","./assets/img/canyon/memory/29.jpg","[""ArrowDown"",""ArrowRight""]","value training","canyon","30","{""ArrowUp,ArrowLeft"":23,""ArrowUp,ArrowRight"":10,""ArrowDown,ArrowLeft"":8,""ArrowDown,ArrowRight"":30}","true","ArrowDown,ArrowRight","false","revaluation","1","44","","",""
"html-keyboard-response","166","778690","0.0-4.0-2.0-1.22","spark_pilot_norest","9000","6","21","Male","","","","","","","null","<div style=""font-size:60px;"">+</div>","null","fixation","","","","","","","","","45","","",""
"revaluation","167","782714","0.0-4.0-2.0-0.23","spark_pilot_norest","9000","6","21","Male","","false","","","","","[629]","./assets/img/canyon/catch/1.jpg","[""spaceBar""]","value training","canyon","0","{""ArrowUp,ArrowLeft"":23,""ArrowUp,ArrowRight"":10,""ArrowDown,ArrowLeft"":8,""ArrowDown,ArrowRight"":30}","true","spaceBar","true","revaluation","1","46","","",""
"html-keyboard-response","168","783217","0.0-4.0-2.0-1.23","spark_pilot_norest","9000","6","21","Male","","","","","","","null","<div style=""font-size:60px;"">+</div>","null","fixation","","","","","","","","","47","","",""
"revaluation","169","789242","0.0-4.0-2.0-0.24","spark_pilot_norest","9000","6","21","Male","","false","","","","","[618.6999999992549,266.6000000014901]","./assets/img/canyon/memory/19.jpg","[""ArrowDown"",""ArrowRight""]","value training","canyon","30","{""ArrowUp,ArrowLeft"":23,""ArrowUp,ArrowRight"":10,""ArrowDown,ArrowLeft"":8,""ArrowDown,ArrowRight"":30}","true","ArrowDown,ArrowRight","false","revaluation","1","48","","",""
"html-keyboard-response","170","789749","0.0-4.0-2.0-1.24","spark_pilot_norest","9000","6","21","Male","","","","","","","null","<div style=""font-size:60px;"">+</div>","null","fixation","","","","","","","","","49","","",""
"revaluation","171","795770","0.0-4.0-2.0-0.25","spark_pilot_norest","9000","6","21","Male","","false","","","","","[787.7000000029802,391.8999999985099]","./assets/img/canyon/memory/21.jpg","[""ArrowDown"",""ArrowRight""]","value training","canyon","30","{""ArrowUp,ArrowLeft"":23,""ArrowUp,ArrowRight"":10,""ArrowDown,ArrowLeft"":8,""ArrowDown,ArrowRight"":30}","true","ArrowDown,ArrowRight","false","revaluation","1","50","","",""
"html-keyboard-response","172","796282","0.0-4.0-2.0-1.25","spark_pilot_norest","9000","6","21","Male","","","","","","","null","<div style=""font-size:60px;"">+</div>","null","fixation","","","","","","","","","51","","",""
"revaluation","173","802300","0.0-4.0-2.0-0.26","spark_pilot_norest","9000","6","21","Male","","false","","","","","[603.3000000007451,351.5]","./assets/img/canyon/memory/15.jpg","[""ArrowDown"",""ArrowRight""]","value training","canyon","30","{""ArrowUp,ArrowLeft"":23,""ArrowUp,ArrowRight"":10,""ArrowDown,ArrowLeft"":8,""ArrowDown,ArrowRight"":30}","true","ArrowDown,ArrowRight","false","revaluation","1","52","","",""
"html-keyboard-response","174","802809","0.0-4.0-2.0-1.26","spark_pilot_norest","9000","6","21","Male","","","","","","","null","<div style=""font-size:60px;"">+</div>","null","fixation","","","","","","","","","53","","",""
"revaluation","175","808835","0.0-4.0-2.0-0.27","spark_pilot_norest","9000","6","21","Male","","false","","","","","[897.8000000007451,360.0999999977648]","./assets/img/canyon/memory/2.jpg","[""ArrowDown"",""ArrowRight""]","value training","canyon","30","{""ArrowUp,ArrowLeft"":23,""ArrowUp,ArrowRight"":10,""ArrowDown,ArrowLeft"":8,""ArrowDown,ArrowRight"":30}","true","ArrowDown,ArrowRight","false","revaluation","1","54","","",""
"html-keyboard-response","176","809345","0.0-4.0-2.0-1.27","spark_pilot_norest","9000","6","21","Male","","","","","","","null","<div style=""font-size:60px;"">+</div>","null","fixation","","","","","","","","","55","","",""
"revaluation","177","813367","0.0-4.0-2.0-0.28","spark_pilot_norest","9000","6","21","Male","","false","","","","","[1369.800000000745]","./assets/img/canyon/catch/4.jpg","[""spaceBar""]","value training","canyon","0","{""ArrowUp,ArrowLeft"":23,""ArrowUp,ArrowRight"":10,""ArrowDown,ArrowLeft"":8,""ArrowDown,ArrowRight"":30}","true","spaceBar","true","revaluation","1","56","","",""
"html-keyboard-response","178","813874","0.0-4.0-2.0-1.28","spark_pilot_norest","9000","6","21","Male","","","","","","","null","<div style=""font-size:60px;"">+</div>","null","fixation","","","","","","","","","57","","",""
"revaluation","179","817884","0.0-4.0-2.0-0.29","spark_pilot_norest","9000","6","21","Male","","false","","","","","[1193]","./assets/img/canyon/catch/7.jpg","[""spaceBar""]","value training","canyon","0","{""ArrowUp,ArrowLeft"":23,""ArrowUp,ArrowRight"":10,""ArrowDown,ArrowLeft"":8,""ArrowDown,ArrowRight"":30}","true","spaceBar","true","revaluation","1","58","","",""
"html-keyboard-response","180","818394","0.0-4.0-2.0-1.29","spark_pilot_norest","9000","6","21","Male","","","","","","","null","<div style=""font-size:60px;"">+</div>","null","fixation","","","","","","","","","59","","",""
"revaluation","181","824416","0.0-4.0-2.0-0.30","spark_pilot_norest","9000","6","21","Male","","false","","","","","[787.5999999977648,377]","./assets/img/canyon/memory/5.jpg","[""ArrowDown"",""ArrowRight""]","value training","canyon","30","{""ArrowUp,ArrowLeft"":23,""ArrowUp,ArrowRight"":10,""ArrowDown,ArrowLeft"":8,""ArrowDown,ArrowRight"":30}","true","ArrowDown,ArrowRight","false","revaluation","1","60","","",""
"html-keyboard-response","182","824921","0.0-4.0-2.0-1.30","spark_pilot_norest","9000","6","21","Male","","","","","","","null","<div style=""font-size:60px;"">+</div>","null","fixation","","","","","","","","","61","","",""
"revaluation","183","830938","0.0-4.0-2.0-0.31","spark_pilot_norest","9000","6","21","Male","","false","","","","","[820.3999999985099,484.1000000014901]","./assets/img/canyon/memory/7.jpg","[""ArrowDown"",""ArrowRight""]","value training","canyon","30","{""ArrowUp,ArrowLeft"":23,""ArrowUp,ArrowRight"":10,""ArrowDown,ArrowLeft"":8,""ArrowDown,ArrowRight"":30}","true","ArrowDown,ArrowRight","false","revaluation","1","62","","",""
"html-keyboard-response","184","831450","0.0-4.0-2.0-1.31","spark_pilot_norest","9000","6","21","Male","","","","","","","null","<div style=""font-size:60px;"">+</div>","null","fixation","","","","","","","","","63","","",""
"revaluation","185","837482","0.0-4.0-2.0-0.32","spark_pilot_norest","9000","6","21","Male","","false","","","","","[1153.800000000745,403.5]","./assets/img/canyon/memory/15.jpg","[""ArrowDown"",""ArrowRight""]","value training","canyon","30","{""ArrowUp,ArrowLeft"":23,""ArrowUp,ArrowRight"":10,""ArrowDown,ArrowLeft"":8,""ArrowDown,ArrowRight"":30}","true","ArrowDown,ArrowRight","false","revaluation","1","64","","",""
"html-keyboard-response","186","837985","0.0-4.0-2.0-1.32","spark_pilot_norest","9000","6","21","Male","","","","","","","null","<div style=""font-size:60px;"">+</div>","null","fixation","","","","","","","","","65","","",""
"revaluation","187","844002","0.0-4.0-2.0-0.33","spark_pilot_norest","9000","6","21","Male","","false","","","","","[871.1000000014901,553]","./assets/img/canyon/memory/36.jpg","[""ArrowDown"",""ArrowRight""]","value training","canyon","30","{""ArrowUp,ArrowLeft"":23,""ArrowUp,ArrowRight"":10,""ArrowDown,ArrowLeft"":8,""ArrowDown,ArrowRight"":30}","true","ArrowDown,ArrowRight","false","revaluation","1","66","","",""
"html-keyboard-response","188","844514","0.0-4.0-2.0-1.33","spark_pilot_norest","9000","6","21","Male","","","","","","","null","<div style=""font-size:60px;"">+</div>","null","fixation","","","","","","","","","67","","",""
"revaluation","189","850539","0.0-4.0-2.0-0.34","spark_pilot_norest","9000","6","21","Male","","false","","","","","[1236.0999999977648,811]","./assets/img/canyon/memory/0.jpg","[""ArrowDown"",""ArrowRight""]","value training","canyon","30","{""ArrowUp,ArrowLeft"":23,""ArrowUp,ArrowRight"":10,""ArrowDown,ArrowLeft"":8,""ArrowDown,ArrowRight"":30}","true","ArrowDown,ArrowRight","false","revaluation","1","68","","",""
"html-keyboard-response","190","851051","0.0-4.0-2.0-1.34","spark_pilot_norest","9000","6","21","Male","","","","","","","null","<div style=""font-size:60px;"">+</div>","null","fixation","","","","","","","","","69","","",""
"revaluation","191","857084","0.0-4.0-2.0-0.35","spark_pilot_norest","9000","6","21","Male","","false","","","","","[818.3000000007451,584.3999999985099]","./assets/img/canyon/memory/7.jpg","[""ArrowDown"",""ArrowRight""]","value training","canyon","30","{""ArrowUp,ArrowLeft"":23,""ArrowUp,ArrowRight"":10,""ArrowDown,ArrowLeft"":8,""ArrowDown,ArrowRight"":30}","true","ArrowDown,ArrowRight","false","revaluation","1","70","","",""
"html-keyboard-response","192","857594","0.0-4.0-2.0-1.35","spark_pilot_norest","9000","6","21","Male","","","","","","","null","<div style=""font-size:60px;"">+</div>","null","fixation","","","","","","","","","71","","",""
"revaluation","193","861618","0.0-4.0-2.0-0.36","spark_pilot_norest","9000","6","21","Male","","true","","","","","[]","./assets/img/canyon/memory/37.jpg","[]","value training","canyon","-5","{""ArrowUp,ArrowLeft"":23,""ArrowUp,ArrowRight"":10,""ArrowDown,ArrowLeft"":8,""ArrowDown,ArrowRight"":30}","false","","false","revaluation","1","72","","",""
"html-keyboard-response","194","862129","0.0-4.0-2.0-1.36","spark_pilot_norest","9000","6","21","Male","","","","","","","null","<div style=""font-size:60px;"">+</div>","null","fixation","","","","","","","","","73","","",""
"revaluation","195","868152","0.0-4.0-2.0-0.37","spark_pilot_norest","9000","6","21","Male","","false","","","","","[626.1999999992549,405.19999999925494]","./assets/img/canyon/memory/23.jpg","[""ArrowDown"",""ArrowRight""]","value training","canyon","30","{""ArrowUp,ArrowLeft"":23,""ArrowUp,ArrowRight"":10,""ArrowDown,ArrowLeft"":8,""ArrowDown,ArrowRight"":30}","true","ArrowDown,ArrowRight","false","revaluation","1","74","","",""
"html-keyboard-response","196","868657","0.0-4.0-2.0-1.37","spark_pilot_norest","9000","6","21","Male","","","","","","","null","<div style=""font-size:60px;"">+</div>","null","fixation","","","","","","","","","75","","",""
"revaluation","197","874682","0.0-4.0-2.0-0.38","spark_pilot_norest","9000","6","21","Male","","false","","","","","[500.69999999925494,936.5]","./assets/img/canyon/memory/13.jpg","[""ArrowDown"",""ArrowRight""]","value training","canyon","30","{""ArrowUp,ArrowLeft"":23,""ArrowUp,ArrowRight"":10,""ArrowDown,ArrowLeft"":8,""ArrowDown,ArrowRight"":30}","true","ArrowDown,ArrowRight","false","revaluation","1","76","","",""
"html-keyboard-response","198","875194","0.0-4.0-2.0-1.38","spark_pilot_norest","9000","6","21","Male","","","","","","","null","<div style=""font-size:60px;"">+</div>","null","fixation","","","","","","","","","77","","",""
"revaluation","199","881218","0.0-4.0-2.0-0.39","spark_pilot_norest","9000","6","21","Male","","false","","","","","[631.8999999985099,322.6000000014901]","./assets/img/canyon/memory/36.jpg","[""ArrowDown"",""ArrowRight""]","value training","canyon","30","{""ArrowUp,ArrowLeft"":23,""ArrowUp,ArrowRight"":10,""ArrowDown,ArrowLeft"":8,""ArrowDown,ArrowRight"":30}","true","ArrowDown,ArrowRight","false","revaluation","1","78","","",""
"html-keyboard-response","200","881721","0.0-4.0-2.0-1.39","spark_pilot_norest","9000","6","21","Male","","","","","","","null","<div style=""font-size:60px;"">+</div>","null","fixation","","","","","","","","","79","","",""
"revaluation","201","887752","0.0-4.0-2.0-0.40","spark_pilot_norest","9000","6","21","Male","","false","","","","","[639.8000000007451,425.19999999925494]","./assets/img/canyon/memory/35.jpg","[""ArrowDown"",""ArrowRight""]","value training","canyon","30","{""ArrowUp,ArrowLeft"":23,""ArrowUp,ArrowRight"":10,""ArrowDown,ArrowLeft"":8,""ArrowDown,ArrowRight"":30}","true","ArrowDown,ArrowRight","false","revaluation","1","80","","",""
"html-keyboard-response","202","888257","0.0-4.0-2.0-1.40","spark_pilot_norest","9000","6","21","Male","","","","","","","null","<div style=""font-size:60px;"">+</div>","null","fixation","","","","","","","","","81","","",""
"revaluation","203","894282","0.0-4.0-2.0-0.41","spark_pilot_norest","9000","6","21","Male","","false","","","","","[378,324.3999999985099]","./assets/img/canyon/memory/11.jpg","[""ArrowDown"",""ArrowRight""]","value training","canyon","30","{""ArrowUp,ArrowLeft"":23,""ArrowUp,ArrowRight"":10,""ArrowDown,ArrowLeft"":8,""ArrowDown,ArrowRight"":30}","true","ArrowDown,ArrowRight","false","revaluation","1","82","","",""
"html-keyboard-response","204","894794","0.0-4.0-2.0-1.41","spark_pilot_norest","9000","6","21","Male","","","","","","","null","<div style=""font-size:60px;"">+</div>","null","fixation","","","","","","","","","83","","",""
"revaluation","205","900826","0.0-4.0-2.0-0.42","spark_pilot_norest","9000","6","21","Male","","false","","","","","[484.9000000022352,489.30000000074506]","./assets/img/canyon/memory/34.jpg","[""ArrowDown"",""ArrowRight""]","value training","canyon","30","{""ArrowUp,ArrowLeft"":23,""ArrowUp,ArrowRight"":10,""ArrowDown,ArrowLeft"":8,""ArrowDown,ArrowRight"":30}","true","ArrowDown,ArrowRight","false","revaluation","1","84","","",""
"html-keyboard-response","206","901333","0.0-4.0-2.0-1.42","spark_pilot_norest","9000","6","21","Male","","","","","","","null","<div style=""font-size:60px;"">+</div>","null","fixation","","","","","","","","","85","","",""
"revaluation","207","907354","0.0-4.0-2.0-0.43","spark_pilot_norest","9000","6","21","Male","","false","","","","","[731,372.19999999925494]","./assets/img/canyon/memory/29.jpg","[""ArrowDown"",""ArrowRight""]","value training","canyon","30","{""ArrowUp,ArrowLeft"":23,""ArrowUp,ArrowRight"":10,""ArrowDown,ArrowLeft"":8,""ArrowDown,ArrowRight"":30}","true","ArrowDown,ArrowRight","false","revaluation","1","86","","",""
"html-keyboard-response","208","907858","0.0-4.0-2.0-1.43","spark_pilot_norest","9000","6","21","Male","","","","","","","null","<div style=""font-size:60px;"">+</div>","null","fixation","","","","","","","","","87","","",""
"revaluation","209","911867","0.0-4.0-2.0-0.44","spark_pilot_norest","9000","6","21","Male","","false","","","","","[1336.5]","./assets/img/canyon/catch/6.jpg","[""spaceBar""]","value training","canyon","0","{""ArrowUp,ArrowLeft"":23,""ArrowUp,ArrowRight"":10,""ArrowDown,ArrowLeft"":8,""ArrowDown,ArrowRight"":30}","true","spaceBar","true","revaluation","1","88","","",""
"html-keyboard-response","210","912377","0.0-4.0-2.0-1.44","spark_pilot_norest","9000","6","21","Male","","","","","","","null","<div style=""font-size:60px;"">+</div>","null","fixation","","","","","","","","","89","","",""
"revaluation","211","918411","0.0-4.0-2.0-0.45","spark_pilot_norest","9000","6","21","Male","","false","","","","","[610.5,416.69999999925494]","./assets/img/canyon/memory/30.jpg","[""ArrowDown"",""ArrowRight""]","value training","canyon","30","{""ArrowUp,ArrowLeft"":23,""ArrowUp,ArrowRight"":10,""ArrowDown,ArrowLeft"":8,""ArrowDown,ArrowRight"":30}","true","ArrowDown,ArrowRight","false","revaluation","1","90","","",""
"html-keyboard-response","212","918916","0.0-4.0-2.0-1.45","spark_pilot_norest","9000","6","21","Male","","","","","","","null","<div style=""font-size:60px;"">+</div>","null","fixation","","","","","","","","","91","","",""
"revaluation","213","924938","0.0-4.0-2.0-0.46","spark_pilot_norest","9000","6","21","Male","","false","","","","","[832.5,407.1000000014901]","./assets/img/canyon/memory/37.jpg","[""ArrowDown"",""ArrowRight""]","value training","canyon","30","{""ArrowUp,ArrowLeft"":23,""ArrowUp,ArrowRight"":10,""ArrowDown,ArrowLeft"":8,""ArrowDown,ArrowRight"":30}","true","ArrowDown,ArrowRight","false","revaluation","1","92","","",""
"html-keyboard-response","214","925450","0.0-4.0-2.0-1.46","spark_pilot_norest","9000","6","21","Male","","","","","","","null","<div style=""font-size:60px;"">+</div>","null","fixation","","","","","","","","","93","","",""
"revaluation","215","931468","0.0-4.0-2.0-0.47","spark_pilot_norest","9000","6","21","Male","","false","","","","","[848.9000000022352,459]","./assets/img/canyon/memory/6.jpg","[""ArrowDown"",""ArrowRight""]","value training","canyon","30","{""ArrowUp,ArrowLeft"":23,""ArrowUp,ArrowRight"":10,""ArrowDown,ArrowLeft"":8,""ArrowDown,ArrowRight"":30}","true","ArrowDown,ArrowRight","false","revaluation","1","94","","",""
"html-keyboard-response","216","931978","0.0-4.0-2.0-1.47","spark_pilot_norest","9000","6","21","Male","","","","","","","null","<div style=""font-size:60px;"">+</div>","null","fixation","","","","","","","","","95","","",""
"revaluation","217","938002","0.0-4.0-2.0-0.48","spark_pilot_norest","9000","6","21","Male","","false","","","","","[598.1999999992549,627.8000000007451]","./assets/img/canyon/memory/2.jpg","[""ArrowDown"",""ArrowRight""]","value training","canyon","30","{""ArrowUp,ArrowLeft"":23,""ArrowUp,ArrowRight"":10,""ArrowDown,ArrowLeft"":8,""ArrowDown,ArrowRight"":30}","true","ArrowDown,ArrowRight","false","revaluation","1","96","","",""
"html-keyboard-response","218","938513","0.0-4.0-2.0-1.48","spark_pilot_norest","9000","6","21","Male","","","","","","","null","<div style=""font-size:60px;"">+</div>","null","fixation","","","","","","","","","97","","",""
"revaluation","219","944535","0.0-4.0-2.0-0.49","spark_pilot_norest","9000","6","21","Male","","false","","","","","[1307.8999999985099,757.1999999992549]","./assets/img/canyon/memory/30.jpg","[""ArrowDown"",""ArrowRight""]","value training","canyon","30","{""ArrowUp,ArrowLeft"":23,""ArrowUp,ArrowRight"":10,""ArrowDown,ArrowLeft"":8,""ArrowDown,ArrowRight"":30}","true","ArrowDown,ArrowRight","false","revaluation","1","98","","",""
"html-keyboard-response","220","945041","0.0-4.0-2.0-1.49","spark_pilot_norest","9000","6","21","Male","","","","","","","null","<div style=""font-size:60px;"">+</div>","null","fixation","","","","","","","","","99","","",""
"learning-instructions","221","962052","0.0-4.0-3.0-0.0","spark_pilot_norest","9000","6","21","Male","","","","","","","4110.5","<p> Now, you will travel with a friend who will choose whether you go up or down first. </p>
            <p> On these turns, you will just see the animal that they found. You will still get to choose which chest to search for treasure.</p>","","instructions","","","","","","","","","","","",""
"revaluation","222","966069","0.0-4.0-4.0-0.0","spark_pilot_norest","9000","6","21","Male","","true","","","","","[]","./assets/img/canyon/animals/lion.jpg","[]","revaluation","canyon","-5","{""ArrowUp,ArrowLeft"":27,""ArrowUp,ArrowRight"":15,""ArrowDown,ArrowLeft"":21,""ArrowDown,ArrowRight"":7}","false","ArrowDown","","revaluation","1","0","","",""
"html-keyboard-response","223","966577","0.0-4.0-4.0-1.0","spark_pilot_norest","9000","6","21","Male","","","","","","","null","<div style=""font-size:60px;"">+</div>","null","fixation","","","","","","","","","1","","",""
"revaluation","224","970594","0.0-4.0-4.0-0.1","spark_pilot_norest","9000","6","21","Male","","false","","","","","[579.6999999992549]","./assets/img/canyon/animals/giraffe.jpg","[""ArrowLeft""]","revaluation","canyon","27","{""ArrowUp,ArrowLeft"":27,""ArrowUp,ArrowRight"":15,""ArrowDown,ArrowLeft"":21,""ArrowDown,ArrowRight"":7}","true","ArrowUp,ArrowLeft","","revaluation","1","2","","",""
"html-keyboard-response","225","971101","0.0-4.0-4.0-1.1","spark_pilot_norest","9000","6","21","Male","","","","","","","null","<div style=""font-size:60px;"">+</div>","null","fixation","","","","","","","","","3","","",""
"revaluation","226","975119","0.0-4.0-4.0-0.2","spark_pilot_norest","9000","6","21","Male","","false","","","","","[867]","./assets/img/canyon/animals/giraffe.jpg","[""ArrowLeft""]","revaluation","canyon","27","{""ArrowUp,ArrowLeft"":27,""ArrowUp,ArrowRight"":15,""ArrowDown,ArrowLeft"":21,""ArrowDown,ArrowRight"":7}","true","ArrowUp,ArrowLeft","","revaluation","1","4","","",""
"html-keyboard-response","227","975625","0.0-4.0-4.0-1.2","spark_pilot_norest","9000","6","21","Male","","","","","","","null","<div style=""font-size:60px;"">+</div>","null","fixation","","","","","","","","","5","","",""
"revaluation","228","979650","0.0-4.0-4.0-0.3","spark_pilot_norest","9000","6","21","Male","","false","","","","","[698.1999999992549]","./assets/img/canyon/animals/lion.jpg","[""ArrowLeft""]","revaluation","canyon","21","{""ArrowUp,ArrowLeft"":27,""ArrowUp,ArrowRight"":15,""ArrowDown,ArrowLeft"":21,""ArrowDown,ArrowRight"":7}","true","ArrowDown,ArrowLeft","","revaluation","1","6","","",""
"html-keyboard-response","229","980162","0.0-4.0-4.0-1.3","spark_pilot_norest","9000","6","21","Male","","","","","","","null","<div style=""font-size:60px;"">+</div>","null","fixation","","","","","","","","","7","","",""
"revaluation","230","984186","0.0-4.0-4.0-0.4","spark_pilot_norest","9000","6","21","Male","","false","","","","","[599.5999999977648]","./assets/img/canyon/animals/lion.jpg","[""ArrowRight""]","revaluation","canyon","7","{""ArrowUp,ArrowLeft"":27,""ArrowUp,ArrowRight"":15,""ArrowDown,ArrowLeft"":21,""ArrowDown,ArrowRight"":7}","false","ArrowDown,ArrowRight","","revaluation","1","8","","",""
"html-keyboard-response","231","984698","0.0-4.0-4.0-1.4","spark_pilot_norest","9000","6","21","Male","","","","","","","null","<div style=""font-size:60px;"">+</div>","null","fixation","","","","","","","","","9","","",""
"revaluation","232","988720","0.0-4.0-4.0-0.5","spark_pilot_norest","9000","6","21","Male","","false","","","","","[455.3999999985099]","./assets/img/canyon/animals/lion.jpg","[""ArrowLeft""]","revaluation","canyon","21","{""ArrowUp,ArrowLeft"":27,""ArrowUp,ArrowRight"":15,""ArrowDown,ArrowLeft"":21,""ArrowDown,ArrowRight"":7}","true","ArrowDown,ArrowLeft","","revaluation","1","10","","",""
"html-keyboard-response","233","989226","0.0-4.0-4.0-1.5","spark_pilot_norest","9000","6","21","Male","","","","","","","null","<div style=""font-size:60px;"">+</div>","null","fixation","","","","","","","","","11","","",""
"revaluation","234","993236","0.0-4.0-4.0-0.6","spark_pilot_norest","9000","6","21","Male","","false","","","","","[612.8000000007451]","./assets/img/canyon/animals/giraffe.jpg","[""ArrowLeft""]","revaluation","canyon","27","{""ArrowUp,ArrowLeft"":27,""ArrowUp,ArrowRight"":15,""ArrowDown,ArrowLeft"":21,""ArrowDown,ArrowRight"":7}","true","ArrowUp,ArrowLeft","","revaluation","1","12","","",""
"html-keyboard-response","235","993745","0.0-4.0-4.0-1.6","spark_pilot_norest","9000","6","21","Male","","","","","","","null","<div style=""font-size:60px;"">+</div>","null","fixation","","","","","","","","","13","","",""
"revaluation","236","997769","0.0-4.0-4.0-0.7","spark_pilot_norest","9000","6","21","Male","","false","","","","","[543.6999999992549]","./assets/img/canyon/animals/lion.jpg","[""ArrowLeft""]","revaluation","canyon","21","{""ArrowUp,ArrowLeft"":27,""ArrowUp,ArrowRight"":15,""ArrowDown,ArrowLeft"":21,""ArrowDown,ArrowRight"":7}","true","ArrowDown,ArrowLeft","","revaluation","1","14","","",""
"html-keyboard-response","237","998273","0.0-4.0-4.0-1.7","spark_pilot_norest","9000","6","21","Male","","","","","","","null","<div style=""font-size:60px;"">+</div>","null","fixation","","","","","","","","","15","","",""
"revaluation","238","1002286","0.0-4.0-4.0-0.8","spark_pilot_norest","9000","6","21","Male","","false","","","","","[812.6000000014901]","./assets/img/canyon/animals/giraffe.jpg","[""ArrowLeft""]","revaluation","canyon","27","{""ArrowUp,ArrowLeft"":27,""ArrowUp,ArrowRight"":15,""ArrowDown,ArrowLeft"":21,""ArrowDown,ArrowRight"":7}","true","ArrowUp,ArrowLeft","","revaluation","1","16","","",""
"html-keyboard-response","239","1002794","0.0-4.0-4.0-1.8","spark_pilot_norest","9000","6","21","Male","","","","","","","null","<div style=""font-size:60px;"">+</div>","null","fixation","","","","","","","","","17","","",""
"revaluation","240","1006819","0.0-4.0-4.0-0.9","spark_pilot_norest","9000","6","21","Male","","false","","","","","[1044.800000000745]","./assets/img/canyon/animals/giraffe.jpg","[""ArrowLeft""]","revaluation","canyon","27","{""ArrowUp,ArrowLeft"":27,""ArrowUp,ArrowRight"":15,""ArrowDown,ArrowLeft"":21,""ArrowDown,ArrowRight"":7}","true","ArrowUp,ArrowLeft","","revaluation","1","18","","",""
"html-keyboard-response","241","1007329","0.0-4.0-4.0-1.9","spark_pilot_norest","9000","6","21","Male","","","","","","","null","<div style=""font-size:60px;"">+</div>","null","fixation","","","","","","","","","19","","",""
"revaluation","242","1011346","0.0-4.0-4.0-0.10","spark_pilot_norest","9000","6","21","Male","","false","","","","","[464.70000000298023]","./assets/img/canyon/animals/lion.jpg","[""ArrowLeft""]","revaluation","canyon","21","{""ArrowUp,ArrowLeft"":27,""ArrowUp,ArrowRight"":15,""ArrowDown,ArrowLeft"":21,""ArrowDown,ArrowRight"":7}","true","ArrowDown,ArrowLeft","","revaluation","1","20","","",""
"html-keyboard-response","243","1011851","0.0-4.0-4.0-1.10","spark_pilot_norest","9000","6","21","Male","","","","","","","null","<div style=""font-size:60px;"">+</div>","null","fixation","","","","","","","","","21","","",""
"revaluation","244","1015870","0.0-4.0-4.0-0.11","spark_pilot_norest","9000","6","21","Male","","false","","","","","[645.7999999970198]","./assets/img/canyon/animals/lion.jpg","[""ArrowLeft""]","revaluation","canyon","21","{""ArrowUp,ArrowLeft"":27,""ArrowUp,ArrowRight"":15,""ArrowDown,ArrowLeft"":21,""ArrowDown,ArrowRight"":7}","true","ArrowDown,ArrowLeft","","revaluation","1","22","","",""
"html-keyboard-response","245","1016378","0.0-4.0-4.0-1.11","spark_pilot_norest","9000","6","21","Male","","","","","","","null","<div style=""font-size:60px;"">+</div>","null","fixation","","","","","","","","","23","","",""
"revaluation","246","1020403","0.0-4.0-4.0-0.12","spark_pilot_norest","9000","6","21","Male","","false","","","","","[512.2000000029802]","./assets/img/canyon/animals/giraffe.jpg","[""ArrowLeft""]","revaluation","canyon","27","{""ArrowUp,ArrowLeft"":27,""ArrowUp,ArrowRight"":15,""ArrowDown,ArrowLeft"":21,""ArrowDown,ArrowRight"":7}","true","ArrowUp,ArrowLeft","","revaluation","1","24","","",""
"html-keyboard-response","247","1020914","0.0-4.0-4.0-1.12","spark_pilot_norest","9000","6","21","Male","","","","","","","null","<div style=""font-size:60px;"">+</div>","null","fixation","","","","","","","","","25","","",""
"revaluation","248","1024937","0.0-4.0-4.0-0.13","spark_pilot_norest","9000","6","21","Male","","false","","","","","[616.6999999992549]","./assets/img/canyon/animals/giraffe.jpg","[""ArrowLeft""]","revaluation","canyon","27","{""ArrowUp,ArrowLeft"":27,""ArrowUp,ArrowRight"":15,""ArrowDown,ArrowLeft"":21,""ArrowDown,ArrowRight"":7}","true","ArrowUp,ArrowLeft","","revaluation","1","26","","",""
"html-keyboard-response","249","1025441","0.0-4.0-4.0-1.13","spark_pilot_norest","9000","6","21","Male","","","","","","","null","<div style=""font-size:60px;"">+</div>","null","fixation","","","","","","","","","27","","",""
"revaluation","250","1029454","0.0-4.0-4.0-0.14","spark_pilot_norest","9000","6","21","Male","","false","","","","","[420.30000000074506]","./assets/img/canyon/animals/lion.jpg","[""ArrowLeft""]","revaluation","canyon","21","{""ArrowUp,ArrowLeft"":27,""ArrowUp,ArrowRight"":15,""ArrowDown,ArrowLeft"":21,""ArrowDown,ArrowRight"":7}","true","ArrowDown,ArrowLeft","","revaluation","1","28","","",""
"html-keyboard-response","251","1029962","0.0-4.0-4.0-1.14","spark_pilot_norest","9000","6","21","Male","","","","","","","null","<div style=""font-size:60px;"">+</div>","null","fixation","","","","","","","","","29","","",""
"revaluation","252","1033986","0.0-4.0-4.0-0.15","spark_pilot_norest","9000","6","21","Male","","false","","","","","[448.6000000014901]","./assets/img/canyon/animals/giraffe.jpg","[""ArrowLeft""]","revaluation","canyon","27","{""ArrowUp,ArrowLeft"":27,""ArrowUp,ArrowRight"":15,""ArrowDown,ArrowLeft"":21,""ArrowDown,ArrowRight"":7}","true","ArrowUp,ArrowLeft","","revaluation","1","30","","",""
"html-keyboard-response","253","1034498","0.0-4.0-4.0-1.15","spark_pilot_norest","9000","6","21","Male","","","","","","","null","<div style=""font-size:60px;"">+</div>","null","fixation","","","","","","","","","31","","",""
"revaluation","254","1038519","0.0-4.0-4.0-0.16","spark_pilot_norest","9000","6","21","Male","","false","","","","","[584.8999999985099]","./assets/img/canyon/animals/lion.jpg","[""ArrowLeft""]","revaluation","canyon","21","{""ArrowUp,ArrowLeft"":27,""ArrowUp,ArrowRight"":15,""ArrowDown,ArrowLeft"":21,""ArrowDown,ArrowRight"":7}","true","ArrowDown,ArrowLeft","","revaluation","1","32","","",""
"html-keyboard-response","255","1039025","0.0-4.0-4.0-1.16","spark_pilot_norest","9000","6","21","Male","","","","","","","null","<div style=""font-size:60px;"">+</div>","null","fixation","","","","","","","","","33","","",""
"revaluation","256","1043036","0.0-4.0-4.0-0.17","spark_pilot_norest","9000","6","21","Male","","false","","","","","[522.8999999985099]","./assets/img/canyon/animals/giraffe.jpg","[""ArrowLeft""]","revaluation","canyon","27","{""ArrowUp,ArrowLeft"":27,""ArrowUp,ArrowRight"":15,""ArrowDown,ArrowLeft"":21,""ArrowDown,ArrowRight"":7}","true","ArrowUp,ArrowLeft","","revaluation","1","34","","",""
"html-keyboard-response","257","1043545","0.0-4.0-4.0-1.17","spark_pilot_norest","9000","6","21","Male","","","","","","","null","<div style=""font-size:60px;"">+</div>","null","fixation","","","","","","","","","35","","",""
"learning-instructions","258","1051665","0.0-4.0-5.0-0.0","spark_pilot_norest","9000","6","21","Male","","","","","","","null","<p> You have almost finished this part of the game! </p>
            <p> We are going to ask you to make a few more choices. </p>","","instructions","","","","","","","","","","","",""
"learning-instructions","259","1067642","0.0-4.0-5.0-0.1","spark_pilot_norest","9000","6","21","Male","","","","","","","null","<p> First, you need to decide whether to go up or down. When you see each picture, use the arrow keys to make your choice. </p>
            <p><b>You will not see which animal you found, but try to get to the one that will give you the most treasure.</b></p>","","instructions","","","","","","","","","","","",""
"html-keyboard-response","260","1068649","0.0-4.0-6.0-0.0","spark_pilot_norest","9000","6","21","Male","","","","","","","null","<div style=""font-size:100px;color:red;"">Starting in...</div>","null","","","","","","","","","","","","",""
"html-keyboard-response","261","1069652","0.0-4.0-6.0-1.0","spark_pilot_norest","9000","6","21","Male","","","","","","","null","<div style=""font-size:200px;color:red;"">3</div>","null","","","","","","","","","","","","",""
"html-keyboard-response","262","1070658","0.0-4.0-6.0-2.0","spark_pilot_norest","9000","6","21","Male","","","","","","","null","<div style=""font-size:200px;color:red;"">2</div>","null","","","","","","","","","","","","",""
"html-keyboard-response","263","1071665","0.0-4.0-6.0-3.0","spark_pilot_norest","9000","6","21","Male","","","","","","","null","<div style=""font-size:200px;color:red;"">1</div>","null","","","","","","","","","","","","",""
"revaluation","264","1072212","0.0-4.0-7.0-0.0","spark_pilot_norest","9000","6","21","Male","","false","","","","","[530.3999999985099]","./assets/img/canyon/test/1.jpg","[""ArrowDown""]","first stage test","canyon","0","{""ArrowUp,ArrowLeft"":27,""ArrowUp,ArrowRight"":15,""ArrowDown,ArrowLeft"":21,""ArrowDown,ArrowRight"":7}","false","ArrowDown","false","revaluation","1","","","",""
"html-keyboard-response","265","1072719","0.0-4.0-7.0-1.0","spark_pilot_norest","9000","6","21","Male","","","","","","","null","<div style=""font-size:60px;"">+</div>","null","fixation","","","","","","","","","","","",""
"revaluation","266","1073693","0.0-4.0-7.0-0.1","spark_pilot_norest","9000","6","21","Male","","false","","","","","[965.5999999977648]","./assets/img/canyon/test/0.jpg","[""ArrowDown""]","first stage test","canyon","0","{""ArrowUp,ArrowLeft"":27,""ArrowUp,ArrowRight"":15,""ArrowDown,ArrowLeft"":21,""ArrowDown,ArrowRight"":7}","false","ArrowDown","false","revaluation","1","","","",""
"html-keyboard-response","267","1074202","0.0-4.0-7.0-1.1","spark_pilot_norest","9000","6","21","Male","","","","","","","null","<div style=""font-size:60px;"">+</div>","null","fixation","","","","","","","","","","","",""
"revaluation","268","1074757","0.0-4.0-7.0-0.2","spark_pilot_norest","9000","6","21","Male","","false","","","","","[547.1000000014901]","./assets/img/canyon/test/3.jpg","[""ArrowDown""]","first stage test","canyon","0","{""ArrowUp,ArrowLeft"":27,""ArrowUp,ArrowRight"":15,""ArrowDown,ArrowLeft"":21,""ArrowDown,ArrowRight"":7}","false","ArrowDown","false","revaluation","1","","","",""
"html-keyboard-response","269","1075265","0.0-4.0-7.0-1.2","spark_pilot_norest","9000","6","21","Male","","","","","","","null","<div style=""font-size:60px;"">+</div>","null","fixation","","","","","","","","","","","",""
"revaluation","270","1076101","0.0-4.0-7.0-0.3","spark_pilot_norest","9000","6","21","Male","","false","","","","","[821.4000000022352]","./assets/img/canyon/test/2.jpg","[""ArrowDown""]","first stage test","canyon","0","{""ArrowUp,ArrowLeft"":27,""ArrowUp,ArrowRight"":15,""ArrowDown,ArrowLeft"":21,""ArrowDown,ArrowRight"":7}","false","ArrowDown","false","revaluation","1","","","",""
"html-keyboard-response","271","1076609","0.0-4.0-7.0-1.3","spark_pilot_norest","9000","6","21","Male","","","","","","","null","<div style=""font-size:60px;"">+</div>","null","fixation","","","","","","","","","","","",""
"learning-instructions","272","1089961","0.0-4.0-8.0-0.0","spark_pilot_norest","9000","6","21","Male","","","","","","","null","<p> Now you will see the animals again and can search their chests for treasure. </p>
            <p> This time, you will not see how much treasure you earned, but you will earn more bonus money for making better choices. </p>","","instructions","","","","","","","","","","","",""
"html-keyboard-response","273","1090970","0.0-4.0-9.0-0.0","spark_pilot_norest","9000","6","21","Male","","","","","","","null","<div style=""font-size:100px;color:red;"">Starting in...</div>","null","","","","","","","","","","","","",""
"html-keyboard-response","274","1091978","0.0-4.0-9.0-1.0","spark_pilot_norest","9000","6","21","Male","","","","","","","null","<div style=""font-size:200px;color:red;"">3</div>","null","","","","","","","","","","","","",""
"html-keyboard-response","275","1092986","0.0-4.0-9.0-2.0","spark_pilot_norest","9000","6","21","Male","","","","","","","null","<div style=""font-size:200px;color:red;"">2</div>","null","","","","","","","","","","","","",""
"html-keyboard-response","276","1093994","0.0-4.0-9.0-3.0","spark_pilot_norest","9000","6","21","Male","","","","","","","null","<div style=""font-size:200px;color:red;"">1</div>","null","","","","","","","","","","","","",""
"revaluation","277","1095000","0.0-4.0-10.0-0.0","spark_pilot_norest","9000","6","21","Male","","false","","","","","[997.3999999985099]","./assets/img/canyon/animals/giraffe.jpg","[""ArrowLeft""]","second stage test","canyon","0","{""ArrowUp,ArrowLeft"":27,""ArrowUp,ArrowRight"":15,""ArrowDown,ArrowLeft"":21,""ArrowDown,ArrowRight"":7}","true","ArrowUp,ArrowLeft","","revaluation","1","","","",""
"html-keyboard-response","278","1095506","0.0-4.0-10.0-1.0","spark_pilot_norest","9000","6","21","Male","","","","","","","null","<div style=""font-size:60px;"">+</div>","null","fixation","","","","","","","","","","","",""
"revaluation","279","1095975","0.0-4.0-10.0-0.1","spark_pilot_norest","9000","6","21","Male","","false","","","","","[460.29999999701977]","./assets/img/canyon/animals/giraffe.jpg","[""ArrowLeft""]","second stage test","canyon","0","{""ArrowUp,ArrowLeft"":27,""ArrowUp,ArrowRight"":15,""ArrowDown,ArrowLeft"":21,""ArrowDown,ArrowRight"":7}","true","ArrowUp,ArrowLeft","","revaluation","1","","","",""
"html-keyboard-response","280","1096481","0.0-4.0-10.0-1.1","spark_pilot_norest","9000","6","21","Male","","","","","","","null","<div style=""font-size:60px;"">+</div>","null","fixation","","","","","","","","","","","",""
"revaluation","281","1096866","0.0-4.0-10.0-0.2","spark_pilot_norest","9000","6","21","Male","","false","","","","","[377.19999999925494]","./assets/img/canyon/animals/giraffe.jpg","[""ArrowLeft""]","second stage test","canyon","0","{""ArrowUp,ArrowLeft"":27,""ArrowUp,ArrowRight"":15,""ArrowDown,ArrowLeft"":21,""ArrowDown,ArrowRight"":7}","true","ArrowUp,ArrowLeft","","revaluation","1","","","",""
"html-keyboard-response","282","1097369","0.0-4.0-10.0-1.2","spark_pilot_norest","9000","6","21","Male","","","","","","","null","<div style=""font-size:60px;"">+</div>","null","fixation","","","","","","","","","","","",""
"revaluation","283","1097681","0.0-4.0-10.0-0.3","spark_pilot_norest","9000","6","21","Male","","false","","","","","[304.30000000074506]","./assets/img/canyon/animals/giraffe.jpg","[""ArrowLeft""]","second stage test","canyon","0","{""ArrowUp,ArrowLeft"":27,""ArrowUp,ArrowRight"":15,""ArrowDown,ArrowLeft"":21,""ArrowDown,ArrowRight"":7}","true","ArrowUp,ArrowLeft","","revaluation","1","","","",""
"html-keyboard-response","284","1098186","0.0-4.0-10.0-1.3","spark_pilot_norest","9000","6","21","Male","","","","","","","null","<div style=""font-size:60px;"">+</div>","null","fixation","","","","","","","","","","","",""
"revaluation","285","1098665","0.0-4.0-10.0-0.4","spark_pilot_norest","9000","6","21","Male","","false","","","","","[471.5]","./assets/img/canyon/animals/lion.jpg","[""ArrowLeft""]","second stage test","canyon","0","{""ArrowUp,ArrowLeft"":27,""ArrowUp,ArrowRight"":15,""ArrowDown,ArrowLeft"":21,""ArrowDown,ArrowRight"":7}","true","ArrowDown,ArrowLeft","","revaluation","1","","","",""
"html-keyboard-response","286","1099170","0.0-4.0-10.0-1.4","spark_pilot_norest","9000","6","21","Male","","","","","","","null","<div style=""font-size:60px;"">+</div>","null","fixation","","","","","","","","","","","",""
"revaluation","287","1099520","0.0-4.0-10.0-0.5","spark_pilot_norest","9000","6","21","Male","","false","","","","","[342.6000000014901]","./assets/img/canyon/animals/lion.jpg","[""ArrowLeft""]","second stage test","canyon","0","{""ArrowUp,ArrowLeft"":27,""ArrowUp,ArrowRight"":15,""ArrowDown,ArrowLeft"":21,""ArrowDown,ArrowRight"":7}","true","ArrowDown,ArrowLeft","","revaluation","1","","","",""
"html-keyboard-response","288","1100025","0.0-4.0-10.0-1.5","spark_pilot_norest","9000","6","21","Male","","","","","","","null","<div style=""font-size:60px;"">+</div>","null","fixation","","","","","","","","","","","",""
"revaluation","289","1100317","0.0-4.0-10.0-0.6","spark_pilot_norest","9000","6","21","Male","","false","","","","","[283.69999999925494]","./assets/img/canyon/animals/lion.jpg","[""ArrowLeft""]","second stage test","canyon","0","{""ArrowUp,ArrowLeft"":27,""ArrowUp,ArrowRight"":15,""ArrowDown,ArrowLeft"":21,""ArrowDown,ArrowRight"":7}","true","ArrowDown,ArrowLeft","","revaluation","1","","","",""
"html-keyboard-response","290","1100825","0.0-4.0-10.0-1.6","spark_pilot_norest","9000","6","21","Male","","","","","","","null","<div style=""font-size:60px;"">+</div>","null","fixation","","","","","","","","","","","",""
"revaluation","291","1101099","0.0-4.0-10.0-0.7","spark_pilot_norest","9000","6","21","Male","","false","","","","","[265.5]","./assets/img/canyon/animals/lion.jpg","[""ArrowLeft""]","second stage test","canyon","0","{""ArrowUp,ArrowLeft"":27,""ArrowUp,ArrowRight"":15,""ArrowDown,ArrowLeft"":21,""ArrowDown,ArrowRight"":7}","true","ArrowDown,ArrowLeft","","revaluation","1","","","",""
"html-keyboard-response","292","1101602","0.0-4.0-10.0-1.7","spark_pilot_norest","9000","6","21","Male","","","","","","","null","<div style=""font-size:60px;"">+</div>","null","fixation","","","","","","","","","","","",""
"learning-instructions","293","1107355","0.0-4.0-0.1-0.2","spark_pilot_norest","9000","6","21","Male","","","","","","","2996.89999999851","<p> This time you are searching for treasure in the <b>ocean</b>.</p>","","instructions","","","","","","","","","","","",""
"learning-instructions","294","1125499","0.0-4.0-0.1-0.3","spark_pilot_norest","9000","6","21","Male","","","","","","","886.6000000014901","<p><b>New</b> animals with <b>new</b> treasure chests live here. You need to explore to discover where the animal with the best treasure chest is.</p>
                    <p> Like before, once you figure out which animal has the chest with the most treasure, you should try to get to that animal and select that chest! </p>","","instructions","","","","","","","","","","","",""
"learning-instructions","295","1141315","0.0-4.0-1.1-0.1","spark_pilot_norest","9000","6","21","Male","","","","","","","1085.4000000022352","<p> Remember, when you see a picture of the place, use the up and down keys to <b>find an animal</b>.</p>
            <p> When you encounter an animal, you should use the left and right keys to <b>select a treasure chest</b>.</p>
            <p> Don't forget to look out for the robber! </p>","","instructions","","","","","","","","","","","",""
"revaluation","296","1147338","0.0-4.0-2.1-0.50","spark_pilot_norest","9000","6","21","Male","","false","","","","","[1115.9000000022352,829]","./assets/img/ocean/memory/36.jpg","[""ArrowUp"",""ArrowLeft""]","value training","ocean","26","{""ArrowUp,ArrowLeft"":26,""ArrowUp,ArrowRight"":10,""ArrowDown,ArrowLeft"":5,""ArrowDown,ArrowRight"":17}","true","ArrowUp,ArrowLeft","false","original","2","0","","",""
"html-keyboard-response","297","1147849","0.0-4.0-2.1-1.50","spark_pilot_norest","9000","6","21","Male","","","","","","","null","<div style=""font-size:60px;"">+</div>","null","fixation","","","","","","","","","1","","",""
"revaluation","298","1153872","0.0-4.0-2.1-0.51","spark_pilot_norest","9000","6","21","Male","","false","","","","","[589.4000000022352,336.5]","./assets/img/ocean/memory/40.jpg","[""ArrowUp"",""ArrowRight""]","value training","ocean","10","{""ArrowUp,ArrowLeft"":26,""ArrowUp,ArrowRight"":10,""ArrowDown,ArrowLeft"":5,""ArrowDown,ArrowRight"":17}","false","ArrowUp,ArrowRight","false","original","2","2","","",""
"html-keyboard-response","299","1154378","0.0-4.0-2.1-1.51","spark_pilot_norest","9000","6","21","Male","","","","","","","null","<div style=""font-size:60px;"">+</div>","null","fixation","","","","","","","","","3","","",""
"revaluation","300","1158406","0.0-4.0-2.1-0.52","spark_pilot_norest","9000","6","21","Male","","false","","","","","[631.1000000014901]","./assets/img/ocean/catch/2.jpg","[""spaceBar""]","value training","ocean","0","{""ArrowUp,ArrowLeft"":26,""ArrowUp,ArrowRight"":10,""ArrowDown,ArrowLeft"":5,""ArrowDown,ArrowRight"":17}","true","spaceBar","true","original","2","4","","",""
"html-keyboard-response","301","1158913","0.0-4.0-2.1-1.52","spark_pilot_norest","9000","6","21","Male","","","","","","","null","<div style=""font-size:60px;"">+</div>","null","fixation","","","","","","","","","5","","",""
"revaluation","302","1162937","0.0-4.0-2.1-0.53","spark_pilot_norest","9000","6","21","Male","","false","","","","","[607.6000000014901]","./assets/img/ocean/catch/7.jpg","[""ArrowUp""]","value training","ocean","-10","{""ArrowUp,ArrowLeft"":26,""ArrowUp,ArrowRight"":10,""ArrowDown,ArrowLeft"":5,""ArrowDown,ArrowRight"":17}","false","ArrowUp","true","original","2","6","","",""
"html-keyboard-response","303","1163441","0.0-4.0-2.1-1.53","spark_pilot_norest","9000","6","21","Male","","","","","","","null","<div style=""font-size:60px;"">+</div>","null","fixation","","","","","","","","","7","","",""
"revaluation","304","1169456","0.0-4.0-2.1-0.54","spark_pilot_norest","9000","6","21","Male","","false","","","","","[712.6999999992549,465.3999999985099]","./assets/img/ocean/memory/30.jpg","[""ArrowUp"",""ArrowLeft""]","value training","ocean","26","{""ArrowUp,ArrowLeft"":26,""ArrowUp,ArrowRight"":10,""ArrowDown,ArrowLeft"":5,""ArrowDown,ArrowRight"":17}","true","ArrowUp,ArrowLeft","false","original","2","8","","",""
"html-keyboard-response","305","1169962","0.0-4.0-2.1-1.54","spark_pilot_norest","9000","6","21","Male","","","","","","","null","<div style=""font-size:60px;"">+</div>","null","fixation","","","","","","","","","9","","",""
"revaluation","306","1175988","0.0-4.0-2.1-0.55","spark_pilot_norest","9000","6","21","Male","","false","","","","","[862.5,774.8999999985099]","./assets/img/ocean/memory/10.jpg","[""ArrowDown"",""ArrowLeft""]","value training","ocean","5","{""ArrowUp,ArrowLeft"":26,""ArrowUp,ArrowRight"":10,""ArrowDown,ArrowLeft"":5,""ArrowDown,ArrowRight"":17}","false","ArrowDown,ArrowLeft","false","original","2","10","","",""
"html-keyboard-response","307","1176498","0.0-4.0-2.1-1.55","spark_pilot_norest","9000","6","21","Male","","","","","","","null","<div style=""font-size:60px;"">+</div>","null","fixation","","","","","","","","","11","","",""
"revaluation","308","1182522","0.0-4.0-2.1-0.56","spark_pilot_norest","9000","6","21","Male","","false","","","","","[878.4000000022352,489.1000000014901]","./assets/img/ocean/memory/0.jpg","[""ArrowDown"",""ArrowRight""]","value training","ocean","17","{""ArrowUp,ArrowLeft"":26,""ArrowUp,ArrowRight"":10,""ArrowDown,ArrowLeft"":5,""ArrowDown,ArrowRight"":17}","false","ArrowDown,ArrowRight","false","original","2","12","","",""
"html-keyboard-response","309","1183034","0.0-4.0-2.1-1.56","spark_pilot_norest","9000","6","21","Male","","","","","","","null","<div style=""font-size:60px;"">+</div>","null","fixation","","","","","","","","","13","","",""
"revaluation","310","1189058","0.0-4.0-2.1-0.57","spark_pilot_norest","9000","6","21","Male","","false","","","","","[1373.2000000029802,607.6999999992549]","./assets/img/ocean/memory/33.jpg","[""ArrowUp"",""ArrowLeft""]","value training","ocean","26","{""ArrowUp,ArrowLeft"":26,""ArrowUp,ArrowRight"":10,""ArrowDown,ArrowLeft"":5,""ArrowDown,ArrowRight"":17}","true","ArrowUp,ArrowLeft","false","original","2","14","","",""
"html-keyboard-response","311","1189570","0.0-4.0-2.1-1.57","spark_pilot_norest","9000","6","21","Male","","","","","","","null","<div style=""font-size:60px;"">+</div>","null","fixation","","","","","","","","","15","","",""
"revaluation","312","1195588","0.0-4.0-2.1-0.58","spark_pilot_norest","9000","6","21","Male","","false","","","","","[831.1999999992549,533.8999999985099]","./assets/img/ocean/memory/37.jpg","[""ArrowDown"",""ArrowRight""]","value training","ocean","17","{""ArrowUp,ArrowLeft"":26,""ArrowUp,ArrowRight"":10,""ArrowDown,ArrowLeft"":5,""ArrowDown,ArrowRight"":17}","false","ArrowDown,ArrowRight","false","original","2","16","","",""
