"trial_type","trial_index","time_elapsed","internal_node_id","task_version","subject_id","assigned_condition","age","gender","success","timeout","failed_images","failed_audio","failed_video","browser_interaction","rt","stimulus","response","task_part","environment","score","rewardMap","correct","fullState","isCatch","condition","order","trial_num","key_press","ground_truth","bonus"
"pavlovia","0","1306","0.0-0.0","spark_pilot_norest","8633","7","14","Male","","","","","","","","","","","","","","","","","","","","","",""
"preload","1","12798","0.0-1.0","spark_pilot_norest","8633","7","14","Male","true","false","[]","[]","[]","[{""event"":""fullscreenenter"",""trial"":2,""time"":16713}]","","","","","","","","","","","","","","","",""
"fullscreen","2","17645","0.0-2.0","spark_pilot_norest","8633","7","14","Male","true","","","","","","","","","","","","","","","","","","","","",""
"audio-button-response","3","20888","0.0-3.0-0.0-0.0","spark_pilot_norest","8633","7","14","Male","","","","","","","2901","./assets/audio/audiotest/turtle.mp3","2","audio_test","","","","","","","","","","","",""
"learning-instructions","4","31094","0.0-3.0-1.0-0.0","spark_pilot_norest","8633","7","14","Male","","","","","","","3181","<p> Welcome! Please remember to stay in fullscreen mode and don't click away from the experiment. </p>","","instructions","","","","","","","","","","","",""
"learning-instructions","5","47577","0.0-3.0-1.0-0.1","spark_pilot_norest","8633","7","14","Male","","","","","","","7992.699999928474","<p> Today you will be playing a game to earn treasure. </p>
            <p> At the end of the experiment, you will earn a bonus based on how much treasure you find. </p>
            <img src='./assets/img/instructions/treasure.jpg' class='instructions-image'>","","instructions","","","","","","","","","","","",""
"learning-instructions","6","59948","0.0-3.0-1.0-0.2","spark_pilot_norest","8633","7","14","Male","","","","","","","4042.7999999523163","<p> Animals have hidden treasure in treasure chests. </p>
            <p> You need to first find an animal and then choose which of their treasure chests to search. </p>
            <img src='./assets/img/space/animals/cat.jpg' class='instructions-image'>","","instructions","","","","","","","","","","","",""
"learning-instructions","7","82515","0.0-3.0-1.0-0.3","spark_pilot_norest","8633","7","14","Male","","","","","","","9319.100000023842","<p> In each round, you will search for treasure in a different place. In the real game, there will be two rounds. </p>
            <p> You will begin with a separate, practice round where you will search for treasure in outer space. </p>
            <img src='./assets/img/space/0.jpg' class='instructions-image'>","","instructions","","","","","","","","","","","",""
"learning-instructions","8","96261","0.0-3.0-1.0-0.4","spark_pilot_norest","8633","7","14","Male","","","","","","","2254","<p> On every turn, you will see a picture of the place that you are in, but the specific image may be different each time. </p>
            <p> For example, both of these images mean you are in outer space. </p>
            <img src='./assets/img/instructions/outerspace.jpg' class='instructions-image'>","","instructions","","","","","","","","","","","",""
"learning-instructions","9","107277","0.0-3.0-1.0-0.5","spark_pilot_norest","8633","7","14","Male","","","","","","","3130.6999999284744","<p> You need to decide which direction to travel in. </p>
            <p> You can choose between going <b>up or down</b> by using the arrow keys. </p>
            <img src='./assets/img/instructions/updown.jpg' class='instructions-image'>","","instructions","","","","","","","","","","","",""
"learning-instructions","10","117395","0.0-3.0-1.0-0.6","spark_pilot_norest","8633","7","14","Male","","","","","","","1238.5","<p> You will have <b>2 seconds</b> to make your choice. </p>
            <p> If you do not make a choice within 2 seconds, you will not find an animal or earn treasure. </p>
            <img src='./assets/img/instructions/2seconds.jpg' class='instructions-image'>","","instructions","","","","","","","","","","","",""
"learning-instructions","11","126096","0.0-3.0-1.0-0.7","spark_pilot_norest","8633","7","14","Male","","","","","","","1619.6000000238419","<p> Let’s try practicing that now! </p>
            <p> When you see a picture of the place you are in, press the <b>up</b> key to travel up. </p>
            <img src='./assets/img/instructions/pressUp.jpg' class='instructions-image'>","","instructions","","","","","","","","","","","",""
"revaluation","12","130133","0.0-3.0-2.0-0.0","spark_pilot_norest","8633","7","14","Male","","true","","","","","[]","./assets/img/space/0.jpg","[]","first stage practice","space","-5","null","null","","false","","","","","",""
"html-keyboard-response","13","130637","0.0-3.0-2.0-1.0","spark_pilot_norest","8633","7","14","Male","","","","","","","null","<div style=""font-size:60px;"">+</div>","null","fixation","","","","","","","","","","","",""
"revaluation","14","134646","0.0-3.0-2.0-0.1","spark_pilot_norest","8633","7","14","Male","","false","","","","","[1838.2000000476837]","./assets/img/space/1.jpg","[""ArrowUp""]","first stage practice","space","0","null","null","ArrowUp","false","","","","","",""
"html-keyboard-response","15","135148","0.0-3.0-2.0-1.1","spark_pilot_norest","8633","7","14","Male","","","","","","","null","<div style=""font-size:60px;"">+</div>","null","fixation","","","","","","","","","","","",""
"revaluation","16","139157","0.0-3.0-2.0-0.2","spark_pilot_norest","8633","7","14","Male","","false","","","","","[1512.6000000238419]","./assets/img/space/2.jpg","[""ArrowUp""]","first stage practice","space","0","null","null","ArrowUp","false","","","","","",""
"html-keyboard-response","17","139658","0.0-3.0-2.0-1.2","spark_pilot_norest","8633","7","14","Male","","","","","","","null","<div style=""font-size:60px;"">+</div>","null","fixation","","","","","","","","","","","",""
"learning-instructions","18","147169","0.0-3.0-3.0-0.0","spark_pilot_norest","8633","7","14","Male","","","","","","","2771.5","<p> Great job! Now try pressing the <b>down</b> key to travel down. </p>
            <img src='./assets/img/instructions/pressDown.jpg' class='instructions-image'>","","instructions","","","","","","","","","","","",""
"revaluation","19","151178","0.0-3.0-4.0-0.0","spark_pilot_norest","8633","7","14","Male","","false","","","","","[1087.6000000238419]","./assets/img/space/3.jpg","[""ArrowDown""]","first stage practice","space","0","null","null","ArrowDown","false","","","","","",""
"html-keyboard-response","20","151681","0.0-3.0-4.0-1.0","spark_pilot_norest","8633","7","14","Male","","","","","","","null","<div style=""font-size:60px;"">+</div>","null","fixation","","","","","","","","","","","",""
"revaluation","21","155687","0.0-3.0-4.0-0.1","spark_pilot_norest","8633","7","14","Male","","false","","","","","[1612.8000000715256]","./assets/img/space/4.jpg","[""ArrowDown""]","first stage practice","space","0","null","null","ArrowDown","false","","","","","",""
"html-keyboard-response","22","156190","0.0-3.0-4.0-1.1","spark_pilot_norest","8633","7","14","Male","","","","","","","null","<div style=""font-size:60px;"">+</div>","null","fixation","","","","","","","","","","","",""
"revaluation","23","160197","0.0-3.0-4.0-0.2","spark_pilot_norest","8633","7","14","Male","","false","","","","","[103.79999995231628]","./assets/img/space/5.jpg","[""ArrowDown""]","first stage practice","space","0","null","null","ArrowDown","false","","","","","",""
"html-keyboard-response","24","160699","0.0-3.0-4.0-1.2","spark_pilot_norest","8633","7","14","Male","","","","","","","null","<div style=""font-size:60px;"">+</div>","null","fixation","","","","","","","","","","","",""
"learning-instructions","25","172102","0.0-3.0-5.0-0.0","spark_pilot_norest","8633","7","14","Male","","","","","","","1473.7999999523163","<p> The animals don’t move, so the animal in the upper part of a place will stay in the upper part of a place, and the animal in the lower part of a place will stay in the lower part of a place. </p>","","instructions","","","","","","","","","","","",""
"learning-instructions","26","182613","0.0-3.0-5.0-0.1","spark_pilot_norest","8633","7","14","Male","","","","","","","1304.8999999761581","<p> Each animal has two treasure chests for you to choose from. </p>
            <p> The amount of treasure in each chest can range from <b> 0 to 40 pieces.</b></p>","","instructions","","","","","","","","","","","",""
"learning-instructions","27","197138","0.0-3.0-5.0-0.2","spark_pilot_norest","8633","7","14","Male","","","","","","","3258.600000023842","<p> You should decide which chest to search for treasure by using the <b>left</b> and <b>right</b> arrow keys. </p>
            <p><b> Pay attention to which animal is on the screen, as the animals have different treasure chests. </b></p>
            <img src='./assets/img/instructions/leftright.jpg' class='instructions-image'>","","instructions","","","","","","","","","","","",""
"learning-instructions","28","394214","0.0-3.0-5.0-0.3","spark_pilot_norest","8633","7","14","Male","","","","","","","190655.10000002384","<p> Let’s try practicing that now. </p>
            <p> When you see an animal, choose which chest to search for treasure. </p>
            <img src='./assets/img/instructions/chooseChest.jpg' class='instructions-image'>","","instructions","","","","","","","","","","","",""
"revaluation","29","398240","0.0-3.0-6.0-0.0","spark_pilot_norest","8633","7","14","Male","","false","","","","","[1706.5]","./assets/img/space/animals/cat.jpg","[""ArrowRight""]","second stage practice","space","36","{""ArrowUp,ArrowLeft"":3,""ArrowUp,ArrowRight"":36,""ArrowDown,ArrowLeft"":15,""ArrowDown,ArrowRight"":23}","true","ArrowUp,ArrowRight","","","","","","",""
"html-keyboard-response","30","398744","0.0-3.0-6.0-1.0","spark_pilot_norest","8633","7","14","Male","","","","","","","null","<div style=""font-size:60px;"">+</div>","null","fixation","","","","","","","","","","","",""
"revaluation","31","402753","0.0-3.0-6.0-0.1","spark_pilot_norest","8633","7","14","Male","","false","","","","","[671.3999999761581]","./assets/img/space/animals/cat.jpg","[""ArrowLeft""]","second stage practice","space","3","{""ArrowUp,ArrowLeft"":3,""ArrowUp,ArrowRight"":36,""ArrowDown,ArrowLeft"":15,""ArrowDown,ArrowRight"":23}","false","ArrowUp,ArrowLeft","","","","","","",""
"html-keyboard-response","32","403257","0.0-3.0-6.0-1.1","spark_pilot_norest","8633","7","14","Male","","","","","","","null","<div style=""font-size:60px;"">+</div>","null","fixation","","","","","","","","","","","",""
"revaluation","33","407282","0.0-3.0-6.0-0.2","spark_pilot_norest","8633","7","14","Male","","false","","","","","[327.2999999523163]","./assets/img/space/animals/rabbit.jpg","[""ArrowRight""]","second stage practice","space","23","{""ArrowUp,ArrowLeft"":3,""ArrowUp,ArrowRight"":36,""ArrowDown,ArrowLeft"":15,""ArrowDown,ArrowRight"":23}","true","ArrowDown,ArrowRight","","","","","","",""
"html-keyboard-response","34","407786","0.0-3.0-6.0-1.2","spark_pilot_norest","8633","7","14","Male","","","","","","","null","<div style=""font-size:60px;"">+</div>","null","fixation","","","","","","","","","","","",""
"revaluation","35","411809","0.0-3.0-6.0-0.3","spark_pilot_norest","8633","7","14","Male","","true","","","","","[]","./assets/img/space/animals/rabbit.jpg","[]","second stage practice","space","-5","{""ArrowUp,ArrowLeft"":3,""ArrowUp,ArrowRight"":36,""ArrowDown,ArrowLeft"":15,""ArrowDown,ArrowRight"":23}","false","ArrowDown","","","","","","",""
"html-keyboard-response","36","412313","0.0-3.0-6.0-1.3","spark_pilot_norest","8633","7","14","Male","","","","","","","null","<div style=""font-size:60px;"">+</div>","null","fixation","","","","","","","","","","","",""
"learning-instructions","37","434704","0.0-3.0-7.0-0.0","spark_pilot_norest","8633","7","14","Male","","","","","","","5126.200000047684","<p> Great job. Now let’s try putting it together. </p>
            <p> On each turn, you will first see a picture to remind you of the place you are in, and you need to choose whether to go up or down. </p>
            <p> Then you will see an animal and choose which of its chests to search for treasure. </p>","","instructions","","","","","","","","","","","",""
"learning-instructions","38","466983","0.0-3.0-7.0-0.1","spark_pilot_norest","8633","7","14","Male","","","","","","","23944.899999976158","<p> When you choose whether to go up or down, try to go to the animal with the chest with the most treasure. </p>
            <p> Try practicing that now! </p>","","instructions","","","","","","","","","","","",""
"revaluation","39","470994","0.0-3.0-8.0-0.0","spark_pilot_norest","8633","7","14","Male","","true","","","","","[]","./assets/img/space/6.jpg","[]","full practice","space","-5","{""ArrowUp,ArrowLeft"":3,""ArrowUp,ArrowRight"":36,""ArrowDown,ArrowLeft"":15,""ArrowDown,ArrowRight"":23}","false","","false","","","","","",""
"html-keyboard-response","40","471498","0.0-3.0-8.0-1.0","spark_pilot_norest","8633","7","14","Male","","","","","","","null","<div style=""font-size:60px;"">+</div>","null","fixation","","","","","","","","","","","",""
"revaluation","41","475514","0.0-3.0-8.0-0.1","spark_pilot_norest","8633","7","14","Male","","true","","","","","[]","./assets/img/space/7.jpg","[]","full practice","space","-5","{""ArrowUp,ArrowLeft"":3,""ArrowUp,ArrowRight"":36,""ArrowDown,ArrowLeft"":15,""ArrowDown,ArrowRight"":23}","false","","false","","","","","",""
"html-keyboard-response","42","476018","0.0-3.0-8.0-1.1","spark_pilot_norest","8633","7","14","Male","","","","","","","null","<div style=""font-size:60px;"">+</div>","null","fixation","","","","","","","","","","","",""
"revaluation","43","482044","0.0-3.0-8.0-0.2","spark_pilot_norest","8633","7","14","Male","","false","","","","","[146.90000009536743,596.6000000238419]","./assets/img/space/8.jpg","[""ArrowDown"",""ArrowLeft""]","full practice","space","15","{""ArrowUp,ArrowLeft"":3,""ArrowUp,ArrowRight"":36,""ArrowDown,ArrowLeft"":15,""ArrowDown,ArrowRight"":23}","false","ArrowDown,ArrowLeft","false","","","","","",""
"html-keyboard-response","44","482549","0.0-3.0-8.0-1.2","spark_pilot_norest","8633","7","14","Male","","","","","","","null","<div style=""font-size:60px;"">+</div>","null","fixation","","","","","","","","","","","",""
"revaluation","45","488576","0.0-3.0-8.0-0.3","spark_pilot_norest","8633","7","14","Male","","false","","","","","[565.3000000715256,623.8999999761581]","./assets/img/space/9.jpg","[""ArrowUp"",""ArrowRight""]","full practice","space","36","{""ArrowUp,ArrowLeft"":3,""ArrowUp,ArrowRight"":36,""ArrowDown,ArrowLeft"":15,""ArrowDown,ArrowRight"":23}","true","ArrowUp,ArrowRight","false","","","","","",""
"html-keyboard-response","46","489079","0.0-3.0-8.0-1.3","spark_pilot_norest","8633","7","14","Male","","","","","","","null","<div style=""font-size:60px;"">+</div>","null","fixation","","","","","","","","","","","",""
"revaluation","47","495101","0.0-3.0-8.0-0.4","spark_pilot_norest","8633","7","14","Male","","false","","","","","[652.7999999523163,610.6999999284744]","./assets/img/space/10.jpg","[""ArrowUp"",""ArrowLeft""]","full practice","space","3","{""ArrowUp,ArrowLeft"":3,""ArrowUp,ArrowRight"":36,""ArrowDown,ArrowLeft"":15,""ArrowDown,ArrowRight"":23}","false","ArrowUp,ArrowLeft","false","","","","","",""
"html-keyboard-response","48","495605","0.0-3.0-8.0-1.4","spark_pilot_norest","8633","7","14","Male","","","","","","","null","<div style=""font-size:60px;"">+</div>","null","fixation","","","","","","","","","","","",""
"learning-instructions","49","509037","0.0-3.0-9.0-0.0","spark_pilot_norest","8633","7","14","Male","","","","","","","2849.7999999523163","<p> One last thing: sometimes, you will see a robber. The robber can be anywhere in the picture. </p>
            <p> If you do not stop them, you will lose treasure. </p>
            <img src='./assets/img/instructions/robber.jpg' class='instructions-image'>","","instructions","","","","","","","","","","","",""
"learning-instructions","50","517844","0.0-3.0-9.0-0.1","spark_pilot_norest","8633","7","14","Male","","","","","","","1568.5","<p> If you see the robber, you should <b>press the space bar</b> rather than using the arrow keys. </p>
            <p> Try practicing that now! </p>","","instructions","","","","","","","","","","","",""
"revaluation","51","521854","0.0-3.0-10.0-0.0","spark_pilot_norest","8633","7","14","Male","","true","","","","","[]","./assets/img/space/catch/0.jpg","[]","catch practice","space","-5","{""ArrowUp,ArrowLeft"":3,""ArrowUp,ArrowRight"":36,""ArrowDown,ArrowLeft"":15,""ArrowDown,ArrowRight"":23}","false","","true","","","","","",""
"html-keyboard-response","52","522358","0.0-3.0-10.0-1.0","spark_pilot_norest","8633","7","14","Male","","","","","","","null","<div style=""font-size:60px;"">+</div>","null","fixation","","","","","","","","","","","",""
"revaluation","53","526380","0.0-3.0-10.0-0.1","spark_pilot_norest","8633","7","14","Male","","false","","","","","[486.7999999523163]","./assets/img/space/catch/1.jpg","[""spaceBar""]","catch practice","space","0","{""ArrowUp,ArrowLeft"":3,""ArrowUp,ArrowRight"":36,""ArrowDown,ArrowLeft"":15,""ArrowDown,ArrowRight"":23}","true","spaceBar","true","","","","","",""
"html-keyboard-response","54","526884","0.0-3.0-10.0-1.1","spark_pilot_norest","8633","7","14","Male","","","","","","","null","<div style=""font-size:60px;"">+</div>","null","fixation","","","","","","","","","","","",""
"revaluation","55","530909","0.0-3.0-10.0-0.2","spark_pilot_norest","8633","7","14","Male","","false","","","","","[632.1000000238419]","./assets/img/space/catch/2.jpg","[""spaceBar""]","catch practice","space","0","{""ArrowUp,ArrowLeft"":3,""ArrowUp,ArrowRight"":36,""ArrowDown,ArrowLeft"":15,""ArrowDown,ArrowRight"":23}","true","spaceBar","true","","","","","",""
"html-keyboard-response","56","531414","0.0-3.0-10.0-1.2","spark_pilot_norest","8633","7","14","Male","","","","","","","null","<div style=""font-size:60px;"">+</div>","null","fixation","","","","","","","","","","","",""
"learning-instructions","57","537981","0.0-3.0-11.0-0.0-0.0","spark_pilot_norest","8633","7","14","Male","","","","","","","1214.8000000715256","<p> Now, you will practice a shortened version of the game to get a sense of how it all fits together. </p>","","instructions","","","","","","","","","","","",""
"learning-instructions","58","541701","0.0-3.0-11.0-0.0-0.1","spark_pilot_norest","8633","7","14","Male","","","","","","","496.89999997615814","<p>This time you are searching for treasure in outer space.</p>","","instructions","","","","","","","","","","","",""
"learning-instructions","59","604354","0.0-3.0-11.0-1.0-0.0","spark_pilot_norest","8633","7","14","Male","","","","","","","47799.300000071526","<p> Remember, when you see a picture of the place, use the up and down keys to <b>find an animal</b>.</p>
            <p> When you encounter an animal, you should use the left and right keys to <b>select a treasure chest</b>.</p>
            <p> Don't forget to look out for the robber! </p>","","instructions","","","","","","","","","","","",""
"revaluation","60","610364","0.0-3.0-11.0-2.0-0.0","spark_pilot_norest","8633","7","14","Male","","false","","","","","[1185.8000000715256,869.3999999761581]","./assets/img/space/11.jpg","[""ArrowDown"",""ArrowLeft""]","practice block","space","15","{""ArrowUp,ArrowLeft"":3,""ArrowUp,ArrowRight"":36,""ArrowDown,ArrowLeft"":15,""ArrowDown,ArrowRight"":23}","false","ArrowDown,ArrowLeft","false","","","","","",""
"html-keyboard-response","61","610870","0.0-3.0-11.0-2.0-1.0","spark_pilot_norest","8633","7","14","Male","","","","","","","null","<div style=""font-size:60px;"">+</div>","null","fixation","","","","","","","","","","","",""
"revaluation","62","616900","0.0-3.0-11.0-2.0-0.1","spark_pilot_norest","8633","7","14","Male","","false","","","","","[1327.5,655.6999999284744]","./assets/img/space/12.jpg","[""ArrowUp"",""ArrowRight""]","practice block","space","36","{""ArrowUp,ArrowLeft"":3,""ArrowUp,ArrowRight"":36,""ArrowDown,ArrowLeft"":15,""ArrowDown,ArrowRight"":23}","true","ArrowUp,ArrowRight","false","","","","","",""
"html-keyboard-response","63","617404","0.0-3.0-11.0-2.0-1.1","spark_pilot_norest","8633","7","14","Male","","","","","","","null","<div style=""font-size:60px;"">+</div>","null","fixation","","","","","","","","","","","",""
"revaluation","64","623431","0.0-3.0-11.0-2.0-0.2","spark_pilot_norest","8633","7","14","Male","","false","","","","","[405.5,813.5]","./assets/img/space/13.jpg","[""ArrowDown"",""ArrowLeft""]","practice block","space","15","{""ArrowUp,ArrowLeft"":3,""ArrowUp,ArrowRight"":36,""ArrowDown,ArrowLeft"":15,""ArrowDown,ArrowRight"":23}","false","ArrowDown,ArrowLeft","false","","","","","",""
"html-keyboard-response","65","623936","0.0-3.0-11.0-2.0-1.2","spark_pilot_norest","8633","7","14","Male","","","","","","","null","<div style=""font-size:60px;"">+</div>","null","fixation","","","","","","","","","","","",""
"revaluation","66","629953","0.0-3.0-11.0-2.0-0.3","spark_pilot_norest","8633","7","14","Male","","false","","","","","[819.7000000476837,468.7000000476837]","./assets/img/space/14.jpg","[""ArrowUp"",""ArrowRight""]","practice block","space","36","{""ArrowUp,ArrowLeft"":3,""ArrowUp,ArrowRight"":36,""ArrowDown,ArrowLeft"":15,""ArrowDown,ArrowRight"":23}","true","ArrowUp,ArrowRight","false","","","","","",""
"html-keyboard-response","67","630458","0.0-3.0-11.0-2.0-1.3","spark_pilot_norest","8633","7","14","Male","","","","","","","null","<div style=""font-size:60px;"">+</div>","null","fixation","","","","","","","","","","","",""
"revaluation","68","636485","0.0-3.0-11.0-2.0-0.4","spark_pilot_norest","8633","7","14","Male","","false","","","","","[966.8000000715256,662]","./assets/img/space/11.jpg","[""ArrowUp"",""ArrowLeft""]","practice block","space","3","{""ArrowUp,ArrowLeft"":3,""ArrowUp,ArrowRight"":36,""ArrowDown,ArrowLeft"":15,""ArrowDown,ArrowRight"":23}","false","ArrowUp,ArrowLeft","false","","","","","",""
"html-keyboard-response","69","636990","0.0-3.0-11.0-2.0-1.4","spark_pilot_norest","8633","7","14","Male","","","","","","","null","<div style=""font-size:60px;"">+</div>","null","fixation","","","","","","","","","","","",""
"revaluation","70","643007","0.0-3.0-11.0-2.0-0.5","spark_pilot_norest","8633","7","14","Male","","false","","","","","[619.2999999523163,429.7000000476837]","./assets/img/space/12.jpg","[""ArrowDown"",""ArrowRight""]","practice block","space","23","{""ArrowUp,ArrowLeft"":3,""ArrowUp,ArrowRight"":36,""ArrowDown,ArrowLeft"":15,""ArrowDown,ArrowRight"":23}","false","ArrowDown,ArrowRight","false","","","","","",""
"html-keyboard-response","71","643511","0.0-3.0-11.0-2.0-1.5","spark_pilot_norest","8633","7","14","Male","","","","","","","null","<div style=""font-size:60px;"">+</div>","null","fixation","","","","","","","","","","","",""
"revaluation","72","649539","0.0-3.0-11.0-2.0-0.6","spark_pilot_norest","8633","7","14","Male","","false","","","","","[1103.1999999284744,400.2999999523163]","./assets/img/space/13.jpg","[""ArrowUp"",""ArrowLeft""]","practice block","space","3","{""ArrowUp,ArrowLeft"":3,""ArrowUp,ArrowRight"":36,""ArrowDown,ArrowLeft"":15,""ArrowDown,ArrowRight"":23}","false","ArrowUp,ArrowLeft","false","","","","","",""
"html-keyboard-response","73","650043","0.0-3.0-11.0-2.0-1.6","spark_pilot_norest","8633","7","14","Male","","","","","","","null","<div style=""font-size:60px;"">+</div>","null","fixation","","","","","","","","","","","",""
"revaluation","74","656052","0.0-3.0-11.0-2.0-0.7","spark_pilot_norest","8633","7","14","Male","","false","","","","","[679.7999999523163,770]","./assets/img/space/14.jpg","[""ArrowUp"",""ArrowLeft""]","practice block","space","3","{""ArrowUp,ArrowLeft"":3,""ArrowUp,ArrowRight"":36,""ArrowDown,ArrowLeft"":15,""ArrowDown,ArrowRight"":23}","false","ArrowUp,ArrowLeft","false","","","","","",""
"html-keyboard-response","75","656557","0.0-3.0-11.0-2.0-1.7","spark_pilot_norest","8633","7","14","Male","","","","","","","null","<div style=""font-size:60px;"">+</div>","null","fixation","","","","","","","","","","","",""
"revaluation","76","660575","0.0-3.0-11.0-2.0-0.8","spark_pilot_norest","8633","7","14","Male","","false","","","","","[832.8999999761581]","./assets/img/space/catch/3.jpg","[""spaceBar""]","practice block","space","0","{""ArrowUp,ArrowLeft"":3,""ArrowUp,ArrowRight"":36,""ArrowDown,ArrowLeft"":15,""ArrowDown,ArrowRight"":23}","true","spaceBar","true","","","","","",""
"html-keyboard-response","77","661079","0.0-3.0-11.0-2.0-1.8","spark_pilot_norest","8633","7","14","Male","","","","","","","null","<div style=""font-size:60px;"">+</div>","null","fixation","","","","","","","","","","","",""
"learning-instructions","78","706966","0.0-3.0-11.0-3.0-0.0","spark_pilot_norest","8633","7","14","Male","","","","","","","32672.200000047684","<p> Now, you will travel with a friend who will choose whether you go up or down first. </p>
            <p> On these turns, you will just see the animal that they found. You will still get to choose which chest to search for treasure.</p>","","instructions","","","","","","","","","","","",""
"revaluation","79","710977","0.0-3.0-11.0-4.0-0.0","spark_pilot_norest","8633","7","14","Male","","false","","","","","[1195.2000000476837]","./assets/img/space/animals/rabbit.jpg","[""ArrowRight""]","practice block","space","23","{""ArrowUp,ArrowLeft"":3,""ArrowUp,ArrowRight"":36,""ArrowDown,ArrowLeft"":15,""ArrowDown,ArrowRight"":23}","true","ArrowDown,ArrowRight","","","","","","",""
"html-keyboard-response","80","711482","0.0-3.0-11.0-4.0-1.0","spark_pilot_norest","8633","7","14","Male","","","","","","","null","<div style=""font-size:60px;"">+</div>","null","fixation","","","","","","","","","","","",""
"revaluation","81","715505","0.0-3.0-11.0-4.0-0.1","spark_pilot_norest","8633","7","14","Male","","false","","","","","[806.2000000476837]","./assets/img/space/animals/cat.jpg","[""ArrowLeft""]","practice block","space","3","{""ArrowUp,ArrowLeft"":3,""ArrowUp,ArrowRight"":36,""ArrowDown,ArrowLeft"":15,""ArrowDown,ArrowRight"":23}","false","ArrowUp,ArrowLeft","","","","","","",""
"html-keyboard-response","82","716010","0.0-3.0-11.0-4.0-1.1","spark_pilot_norest","8633","7","14","Male","","","","","","","null","<div style=""font-size:60px;"">+</div>","null","fixation","","","","","","","","","","","",""
"revaluation","83","720036","0.0-3.0-11.0-4.0-0.2","spark_pilot_norest","8633","7","14","Male","","false","","","","","[645.3999999761581]","./assets/img/space/animals/rabbit.jpg","[""ArrowRight""]","practice block","space","23","{""ArrowUp,ArrowLeft"":3,""ArrowUp,ArrowRight"":36,""ArrowDown,ArrowLeft"":15,""ArrowDown,ArrowRight"":23}","true","ArrowDown,ArrowRight","","","","","","",""
"html-keyboard-response","84","720540","0.0-3.0-11.0-4.0-1.2","spark_pilot_norest","8633","7","14","Male","","","","","","","null","<div style=""font-size:60px;"">+</div>","null","fixation","","","","","","","","","","","",""
"revaluation","85","724564","0.0-3.0-11.0-4.0-0.3","spark_pilot_norest","8633","7","14","Male","","false","","","","","[406.5]","./assets/img/space/animals/cat.jpg","[""ArrowRight""]","practice block","space","36","{""ArrowUp,ArrowLeft"":3,""ArrowUp,ArrowRight"":36,""ArrowDown,ArrowLeft"":15,""ArrowDown,ArrowRight"":23}","true","ArrowUp,ArrowRight","","","","","","",""
"html-keyboard-response","86","725067","0.0-3.0-11.0-4.0-1.3","spark_pilot_norest","8633","7","14","Male","","","","","","","null","<div style=""font-size:60px;"">+</div>","null","fixation","","","","","","","","","","","",""
"learning-instructions","87","733490","0.0-3.0-11.0-5.0-0.0","spark_pilot_norest","8633","7","14","Male","","","","","","","null","<p> You have almost finished this part of the game! </p>
            <p> We are going to ask you to make a few more choices. </p>","","instructions","","","","","","","","","","","",""
"learning-instructions","88","749609","0.0-3.0-11.0-5.0-0.1","spark_pilot_norest","8633","7","14","Male","","","","","","","null","<p> First, you need to decide whether to go up or down. When you see each picture, use the arrow keys to make your choice. </p>
            <p><b>You will not see which animal you found, but try to get to the one that will give you the most treasure.</b></p>","","instructions","","","","","","","","","","","",""
"html-keyboard-response","89","750613","0.0-3.0-11.0-6.0-0.0","spark_pilot_norest","8633","7","14","Male","","","","","","","null","<div style=""font-size:100px;color:red;"">Starting in...</div>","null","","","","","","","","","","","","",""
"html-keyboard-response","90","751617","0.0-3.0-11.0-6.0-1.0","spark_pilot_norest","8633","7","14","Male","","","","","","","null","<div style=""font-size:200px;color:red;"">3</div>","null","","","","","","","","","","","","",""
"html-keyboard-response","91","752619","0.0-3.0-11.0-6.0-2.0","spark_pilot_norest","8633","7","14","Male","","","","","","","null","<div style=""font-size:200px;color:red;"">2</div>","null","","","","","","","","","","","","",""
"html-keyboard-response","92","753623","0.0-3.0-11.0-6.0-3.0","spark_pilot_norest","8633","7","14","Male","","","","","","","null","<div style=""font-size:200px;color:red;"">1</div>","null","","","","","","","","","","","","",""
"revaluation","93","754467","0.0-3.0-11.0-7.0","spark_pilot_norest","8633","7","14","Male","","false","","","","","[827]","./assets/img/space/15.jpg","[""ArrowUp""]","practice block","space","0","{""ArrowUp,ArrowLeft"":3,""ArrowUp,ArrowRight"":36,""ArrowDown,ArrowLeft"":15,""ArrowDown,ArrowRight"":23}","true","ArrowUp","false","","","","","",""
"html-keyboard-response","94","754970","0.0-3.0-11.0-8.0","spark_pilot_norest","8633","7","14","Male","","","","","","","null","<div style=""font-size:60px;"">+</div>","null","fixation","","","","","","","","","","","",""
"learning-instructions","95","768452","0.0-3.0-11.0-9.0-0.0","spark_pilot_norest","8633","7","14","Male","","","","","","","null","<p> Now you will see the animals again and can search their chests for treasure. </p>
            <p> This time, you will not see how much treasure you earned, but you will earn more bonus money for making better choices. </p>","","instructions","","","","","","","","","","","",""
"html-keyboard-response","96","769456","0.0-3.0-11.0-10.0-0.0","spark_pilot_norest","8633","7","14","Male","","","","","","","null","<div style=""font-size:100px;color:red;"">Starting in...</div>","null","","","","","","","","","","","","",""
"html-keyboard-response","97","770459","0.0-3.0-11.0-10.0-1.0","spark_pilot_norest","8633","7","14","Male","","","","","","","null","<div style=""font-size:200px;color:red;"">3</div>","null","","","","","","","","","","","","",""
"html-keyboard-response","98","771463","0.0-3.0-11.0-10.0-2.0","spark_pilot_norest","8633","7","14","Male","","","","","","","null","<div style=""font-size:200px;color:red;"">2</div>","null","","","","","","","","","","","","",""
"html-keyboard-response","99","772467","0.0-3.0-11.0-10.0-3.0","spark_pilot_norest","8633","7","14","Male","","","","","","","null","<div style=""font-size:200px;color:red;"">1</div>","null","","","","","","","","","","","","",""
"revaluation","100","773368","0.0-3.0-11.0-11.0-0.0","spark_pilot_norest","8633","7","14","Male","","false","","","","","[878.7000000476837]","./assets/img/space/animals/cat.jpg","[""ArrowRight""]","practice block","space","0","{""ArrowUp,ArrowLeft"":3,""ArrowUp,ArrowRight"":36,""ArrowDown,ArrowLeft"":15,""ArrowDown,ArrowRight"":23}","true","ArrowUp,ArrowRight","","","","","","",""
"html-keyboard-response","101","773873","0.0-3.0-11.0-11.0-1.0","spark_pilot_norest","8633","7","14","Male","","","","","","","null","<div style=""font-size:60px;"">+</div>","null","fixation","","","","","","","","","","","",""
"revaluation","102","774522","0.0-3.0-11.0-11.0-0.1","spark_pilot_norest","8633","7","14","Male","","false","","","","","[640]","./assets/img/space/animals/rabbit.jpg","[""ArrowLeft""]","practice block","space","0","{""ArrowUp,ArrowLeft"":3,""ArrowUp,ArrowRight"":36,""ArrowDown,ArrowLeft"":15,""ArrowDown,ArrowRight"":23}","false","ArrowDown,ArrowLeft","","","","","","",""
"html-keyboard-response","103","775027","0.0-3.0-11.0-11.0-1.1","spark_pilot_norest","8633","7","14","Male","","","","","","","null","<div style=""font-size:60px;"">+</div>","null","fixation","","","","","","","","","","","",""
"learning-instructions","104","781663","0.0-3.0-12.0-0.0","spark_pilot_norest","8633","7","14","Male","","","","","","","2002.2999999523163","<p> Before you start, we're going to ask you a few questions about how the game works. </p>","","instructions","","","","","","","","","","","",""
"comp-q","105","789156","0.0-3.0-13.0-0.0-0.0","spark_pilot_norest","8633","7","14","Male","","","","","","","1844","<p> <b> True or False? </b> </p>
            <p> There can be 50 pieces of treasure in a given animal's chest. </p>","0","comp_question","","","","false","","","","","","","",""
"comp-q","106","797975","0.0-3.0-13.0-0.0-1.0","spark_pilot_norest","8633","7","14","Male","","","","","","","2246.7999999523163","<p> <b>Incorrect.</b> The amount of treasure in each chest can range from 0 to 40 pieces. </p>","0","comp_answer","","","","","","","","","","","",""
"comp-q","107","804603","0.0-3.0-13.0-0.1-0.1","spark_pilot_norest","8633","7","14","Male","","","","","","","1063.5999999046326","<p> <b> True or False? </b> </p>
            <p> There can be 50 pieces of treasure in a given animal's chest. </p>","1","comp_question","","","","true","","","","","","","",""
"comp-q","108","812948","0.0-3.0-13.0-0.1-1.1","spark_pilot_norest","8633","7","14","Male","","","","","","","1629.5999999046326","<p> <b> That's right! </b> The amount of treasure in each chest can range from 0 to 40 pieces. </p>","0","comp_answer","","","","","","","","","","","",""
"comp-q","109","825129","0.0-3.0-13.0-0.2-0.2","spark_pilot_norest","8633","7","14","Male","","","","","","","5006.5","<p> <b> True or False? </b> </p><p> In this game, all animals have the same amount of treasure in their left and right chests. </p>","1","comp_question","","","","true","","","","","","","",""
"comp-q","110","832507","0.0-3.0-13.0-0.2-1.2","spark_pilot_norest","8633","7","14","Male","","","","","","","2104.8000000715256","<p> <b> That's right! </b> Animals have different amounts of treasure in their treasure chests. </p>","0","comp_answer","","","","","","","","","","","",""
"comp-q","111","839003","0.0-3.0-13.0-0.3-0.3","spark_pilot_norest","8633","7","14","Male","","","","","","","601.6000000238419","<p> <b> True or False? </b> </p><p> The same animal will always be there if you go up in the same place. </p>","1","comp_question","","","","false","","","","","","","",""
"comp-q","112","846895","0.0-3.0-13.0-0.3-1.3","spark_pilot_norest","8633","7","14","Male","","","","","","","1541.6000000238419","<p> <b>Incorrect.</b> One animal lives in the upper part and one lives in the lower part of every place. </p>","0","comp_answer","","","","","","","","","","","",""
"comp-q","113","853904","0.0-3.0-13.0-0.4-0.4","spark_pilot_norest","8633","7","14","Male","","","","","","","1181.8999999761581","<p> <b> True or False? </b> </p><p> The same animal will always be there if you go up in the same place. </p>","0","comp_question","","","","true","","","","","","","",""
"comp-q","114","862661","0.0-3.0-13.0-0.4-1.4","spark_pilot_norest","8633","7","14","Male","","","","","","","2247.600000023842","<p> <b> That's right! </b> One animal lives in the upper part and one lives in the lower part of every place. </p>","0","comp_answer","","","","","","","","","","","",""
"comp-q","115","902211","0.0-3.0-13.0-0.5-0.5","spark_pilot_norest","8633","7","14","Male","","","","","","","33966.59999990463","<p> <b> True or False? </b> </p><p> If you see a different picture, it means you are in a new place. </p>","0","comp_question","","","","false","","","","","","","",""
"comp-q","116","924776","0.0-3.0-13.0-0.5-1.5","spark_pilot_norest","8633","7","14","Male","","","","","","","11411.800000071526","<p> <b>Incorrect.</b> Lots of different images may show the same place. For example,  you may see three different images that all remind you that you are in outer space. </p>","0","comp_answer","","","","","","","","","","","",""
"comp-q","117","935493","0.0-3.0-13.0-0.6-0.6","spark_pilot_norest","8633","7","14","Male","","","","","","","5216.700000047684","<p> <b> True or False? </b> </p><p> If you see a different picture, it means you are in a new place. </p>","1","comp_question","","","","true","","","","","","","",""
"comp-q","118","968667","0.0-3.0-13.0-0.6-1.6","spark_pilot_norest","8633","7","14","Male","","","","","","","21860","<p> <b> That's right! </b> Lots of different images may show the same place. For example,  you may see three different images that all remind you that you are in outer space. </p>","0","comp_answer","","","","","","","","","","","",""
"learning-instructions","119","990539","0.0-3.0-14.0-0.0","spark_pilot_norest","8633","7","14","Male","","","","","","","11940.899999976158","<p> Good job. Remember to do your best because the amount of treasure you earn will be converted into bonus money. </p>
            <p> It’s time to start the real game! </p>","","instructions","","","","","","","","","","","",""
"learning-instructions","120","997611","0.0-4.0-0.0-0.0","spark_pilot_norest","8633","7","14","Male","","","","","","","4261.699999928474","<p> This time you are searching for treasure in the <b>canyon</b>.</p>","","instructions","","","","","","","","","","","",""
"learning-instructions","121","1031653","0.0-4.0-0.0-0.1","spark_pilot_norest","8633","7","14","Male","","","","","","","16646","<p><b>New</b> animals with <b>new</b> treasure chests live here. You need to explore to discover where the animal with the best treasure chest is.</p>
                    <p> Like before, once you figure out which animal has the chest with the most treasure, you should try to get to that animal and select that chest! </p>","","instructions","","","","","","","","","","","",""
"learning-instructions","122","1049940","0.0-4.0-1.0-0.0","spark_pilot_norest","8633","7","14","Male","","","","","","","3549.7999999523163","<p> Remember, when you see a picture of the place, use the up and down keys to <b>find an animal</b>.</p>
            <p> When you encounter an animal, you should use the left and right keys to <b>select a treasure chest</b>.</p>
            <p> Don't forget to look out for the robber! </p>","","instructions","","","","","","","","","","","",""
"revaluation","123","1055961","0.0-4.0-2.0-0.0","spark_pilot_norest","8633","7","14","Male","","false","","","","","[1360.6999999284744,774.1000000238419]","./assets/img/canyon/memory/36.jpg","[""ArrowUp"",""ArrowRight""]","value training","canyon","10","{""ArrowUp,ArrowLeft"":23,""ArrowUp,ArrowRight"":10,""ArrowDown,ArrowLeft"":8,""ArrowDown,ArrowRight"":30}","false","ArrowUp,ArrowRight","false","original","1","0","","",""
"html-keyboard-response","124","1056483","0.0-4.0-2.0-1.0","spark_pilot_norest","8633","7","14","Male","","","","","","","null","<div style=""font-size:60px;"">+</div>","null","fixation","","","","","","","","","1","","",""
"revaluation","125","1062518","0.0-4.0-2.0-0.1","spark_pilot_norest","8633","7","14","Male","","false","","","","","[741.7999999523163,667.7999999523163]","./assets/img/canyon/memory/41.jpg","[""ArrowDown"",""ArrowLeft""]","value training","canyon","8","{""ArrowUp,ArrowLeft"":23,""ArrowUp,ArrowRight"":10,""ArrowDown,ArrowLeft"":8,""ArrowDown,ArrowRight"":30}","false","ArrowDown,ArrowLeft","false","original","1","2","","",""
"html-keyboard-response","126","1063023","0.0-4.0-2.0-1.1","spark_pilot_norest","8633","7","14","Male","","","","","","","null","<div style=""font-size:60px;"">+</div>","null","fixation","","","","","","","","","3","","",""
"revaluation","127","1069047","0.0-4.0-2.0-0.2","spark_pilot_norest","8633","7","14","Male","","false","","","","","[1270.7000000476837,502.60000002384186]","./assets/img/canyon/memory/27.jpg","[""ArrowDown"",""ArrowRight""]","value training","canyon","30","{""ArrowUp,ArrowLeft"":23,""ArrowUp,ArrowRight"":10,""ArrowDown,ArrowLeft"":8,""ArrowDown,ArrowRight"":30}","true","ArrowDown,ArrowRight","false","original","1","4","","",""
"html-keyboard-response","128","1069551","0.0-4.0-2.0-1.2","spark_pilot_norest","8633","7","14","Male","","","","","","","null","<div style=""font-size:60px;"">+</div>","null","fixation","","","","","","","","","5","","",""
"revaluation","129","1075561","0.0-4.0-2.0-0.3","spark_pilot_norest","8633","7","14","Male","","false","","","","","[746.8000000715256,385.6999999284744]","./assets/img/canyon/memory/36.jpg","[""ArrowUp"",""ArrowLeft""]","value training","canyon","23","{""ArrowUp,ArrowLeft"":23,""ArrowUp,ArrowRight"":10,""ArrowDown,ArrowLeft"":8,""ArrowDown,ArrowRight"":30}","false","ArrowUp,ArrowLeft","false","original","1","6","","",""
"html-keyboard-response","130","1076065","0.0-4.0-2.0-1.3","spark_pilot_norest","8633","7","14","Male","","","","","","","null","<div style=""font-size:60px;"">+</div>","null","fixation","","","","","","","","","7","","",""
"revaluation","131","1082087","0.0-4.0-2.0-0.4","spark_pilot_norest","8633","7","14","Male","","false","","","","","[930.2999999523163,461]","./assets/img/canyon/memory/3.jpg","[""ArrowDown"",""ArrowRight""]","value training","canyon","30","{""ArrowUp,ArrowLeft"":23,""ArrowUp,ArrowRight"":10,""ArrowDown,ArrowLeft"":8,""ArrowDown,ArrowRight"":30}","true","ArrowDown,ArrowRight","false","original","1","8","","",""
"html-keyboard-response","132","1082590","0.0-4.0-2.0-1.4","spark_pilot_norest","8633","7","14","Male","","","","","","","null","<div style=""font-size:60px;"">+</div>","null","fixation","","","","","","","","","9","","",""
"revaluation","133","1086617","0.0-4.0-2.0-0.5","spark_pilot_norest","8633","7","14","Male","","false","","","","","[857.6000000238419]","./assets/img/canyon/catch/5.jpg","[""ArrowDown""]","value training","canyon","-10","{""ArrowUp,ArrowLeft"":23,""ArrowUp,ArrowRight"":10,""ArrowDown,ArrowLeft"":8,""ArrowDown,ArrowRight"":30}","false","ArrowDown","true","original","1","10","","",""
"html-keyboard-response","134","1087121","0.0-4.0-2.0-1.5","spark_pilot_norest","8633","7","14","Male","","","","","","","null","<div style=""font-size:60px;"">+</div>","null","fixation","","","","","","","","","11","","",""
"revaluation","135","1093147","0.0-4.0-2.0-0.6","spark_pilot_norest","8633","7","14","Male","","false","","","","","[1181.7000000476837,879.3999999761581]","./assets/img/canyon/memory/39.jpg","[""ArrowDown"",""ArrowRight""]","value training","canyon","30","{""ArrowUp,ArrowLeft"":23,""ArrowUp,ArrowRight"":10,""ArrowDown,ArrowLeft"":8,""ArrowDown,ArrowRight"":30}","true","ArrowDown,ArrowRight","false","original","1","12","","",""
"html-keyboard-response","136","1093651","0.0-4.0-2.0-1.6","spark_pilot_norest","8633","7","14","Male","","","","","","","null","<div style=""font-size:60px;"">+</div>","null","fixation","","","","","","","","","13","","",""
"revaluation","137","1097681","0.0-4.0-2.0-0.7","spark_pilot_norest","8633","7","14","Male","","false","","","","","[1011.8999999761581]","./assets/img/canyon/catch/7.jpg","[""spaceBar""]","value training","canyon","0","{""ArrowUp,ArrowLeft"":23,""ArrowUp,ArrowRight"":10,""ArrowDown,ArrowLeft"":8,""ArrowDown,ArrowRight"":30}","true","spaceBar","true","original","1","14","","",""
"html-keyboard-response","138","1098185","0.0-4.0-2.0-1.7","spark_pilot_norest","8633","7","14","Male","","","","","","","null","<div style=""font-size:60px;"">+</div>","null","fixation","","","","","","","","","15","","",""
"revaluation","139","1104214","0.0-4.0-2.0-0.8","spark_pilot_norest","8633","7","14","Male","","false","","","","","[548.5,469.6999999284744]","./assets/img/canyon/memory/30.jpg","[""ArrowDown"",""ArrowRight""]","value training","canyon","30","{""ArrowUp,ArrowLeft"":23,""ArrowUp,ArrowRight"":10,""ArrowDown,ArrowLeft"":8,""ArrowDown,ArrowRight"":30}","true","ArrowDown,ArrowRight","false","original","1","16","","",""
"html-keyboard-response","140","1104718","0.0-4.0-2.0-1.8","spark_pilot_norest","8633","7","14","Male","","","","","","","null","<div style=""font-size:60px;"">+</div>","null","fixation","","","","","","","","","17","","",""
"revaluation","141","1110745","0.0-4.0-2.0-0.9","spark_pilot_norest","8633","7","14","Male","","false","","","","","[569.5,411.3000000715256]","./assets/img/canyon/memory/20.jpg","[""ArrowDown"",""ArrowRight""]","value training","canyon","30","{""ArrowUp,ArrowLeft"":23,""ArrowUp,ArrowRight"":10,""ArrowDown,ArrowLeft"":8,""ArrowDown,ArrowRight"":30}","true","ArrowDown,ArrowRight","false","original","1","18","","",""
"html-keyboard-response","142","1111249","0.0-4.0-2.0-1.9","spark_pilot_norest","8633","7","14","Male","","","","","","","null","<div style=""font-size:60px;"">+</div>","null","fixation","","","","","","","","","19","","",""
"revaluation","143","1117283","0.0-4.0-2.0-0.10","spark_pilot_norest","8633","7","14","Male","","false","","","","","[1201.5,420.60000002384186]","./assets/img/canyon/memory/16.jpg","[""ArrowDown"",""ArrowRight""]","value training","canyon","30","{""ArrowUp,ArrowLeft"":23,""ArrowUp,ArrowRight"":10,""ArrowDown,ArrowLeft"":8,""ArrowDown,ArrowRight"":30}","true","ArrowDown,ArrowRight","false","original","1","20","","",""
"html-keyboard-response","144","1117787","0.0-4.0-2.0-1.10","spark_pilot_norest","8633","7","14","Male","","","","","","","null","<div style=""font-size:60px;"">+</div>","null","fixation","","","","","","","","","21","","",""
"revaluation","145","1123813","0.0-4.0-2.0-0.11","spark_pilot_norest","8633","7","14","Male","","false","","","","","[514.8000000715256,422.39999997615814]","./assets/img/canyon/memory/22.jpg","[""ArrowDown"",""ArrowRight""]","value training","canyon","30","{""ArrowUp,ArrowLeft"":23,""ArrowUp,ArrowRight"":10,""ArrowDown,ArrowLeft"":8,""ArrowDown,ArrowRight"":30}","true","ArrowDown,ArrowRight","false","original","1","22","","",""
"html-keyboard-response","146","1124319","0.0-4.0-2.0-1.11","spark_pilot_norest","8633","7","14","Male","","","","","","","null","<div style=""font-size:60px;"">+</div>","null","fixation","","","","","","","","","23","","",""
"revaluation","147","1128344","0.0-4.0-2.0-0.12","spark_pilot_norest","8633","7","14","Male","","false","","","","","[821.8000000715256]","./assets/img/canyon/catch/3.jpg","[""spaceBar""]","value training","canyon","0","{""ArrowUp,ArrowLeft"":23,""ArrowUp,ArrowRight"":10,""ArrowDown,ArrowLeft"":8,""ArrowDown,ArrowRight"":30}","true","spaceBar","true","original","1","24","","",""
"html-keyboard-response","148","1128848","0.0-4.0-2.0-1.12","spark_pilot_norest","8633","7","14","Male","","","","","","","null","<div style=""font-size:60px;"">+</div>","null","fixation","","","","","","","","","25","","",""
"revaluation","149","1134899","0.0-4.0-2.0-0.13","spark_pilot_norest","8633","7","14","Male","","false","","","","","[488.7000000476837,362.6999999284744]","./assets/img/canyon/memory/21.jpg","[""ArrowDown"",""ArrowRight""]","value training","canyon","30","{""ArrowUp,ArrowLeft"":23,""ArrowUp,ArrowRight"":10,""ArrowDown,ArrowLeft"":8,""ArrowDown,ArrowRight"":30}","true","ArrowDown,ArrowRight","false","original","1","26","","",""
"html-keyboard-response","150","1135405","0.0-4.0-2.0-1.13","spark_pilot_norest","8633","7","14","Male","","","","","","","null","<div style=""font-size:60px;"">+</div>","null","fixation","","","","","","","","","27","","",""
"revaluation","151","1141429","0.0-4.0-2.0-0.14","spark_pilot_norest","8633","7","14","Male","","false","","","","","[646.2000000476837,588.1999999284744]","./assets/img/canyon/memory/11.jpg","[""ArrowDown"",""ArrowRight""]","value training","canyon","30","{""ArrowUp,ArrowLeft"":23,""ArrowUp,ArrowRight"":10,""ArrowDown,ArrowLeft"":8,""ArrowDown,ArrowRight"":30}","true","ArrowDown,ArrowRight","false","original","1","28","","",""
"html-keyboard-response","152","1141933","0.0-4.0-2.0-1.14","spark_pilot_norest","8633","7","14","Male","","","","","","","null","<div style=""font-size:60px;"">+</div>","null","fixation","","","","","","","","","29","","",""
"revaluation","153","1147961","0.0-4.0-2.0-0.15","spark_pilot_norest","8633","7","14","Male","","false","","","","","[845.5,499]","./assets/img/canyon/memory/3.jpg","[""ArrowDown"",""ArrowRight""]","value training","canyon","30","{""ArrowUp,ArrowLeft"":23,""ArrowUp,ArrowRight"":10,""ArrowDown,ArrowLeft"":8,""ArrowDown,ArrowRight"":30}","true","ArrowDown,ArrowRight","false","original","1","30","","",""
"html-keyboard-response","154","1148465","0.0-4.0-2.0-1.15","spark_pilot_norest","8633","7","14","Male","","","","","","","null","<div style=""font-size:60px;"">+</div>","null","fixation","","","","","","","","","31","","",""
"revaluation","155","1154497","0.0-4.0-2.0-0.16","spark_pilot_norest","8633","7","14","Male","","false","","","","","[741.8999999761581,579.1999999284744]","./assets/img/canyon/memory/39.jpg","[""ArrowDown"",""ArrowRight""]","value training","canyon","30","{""ArrowUp,ArrowLeft"":23,""ArrowUp,ArrowRight"":10,""ArrowDown,ArrowLeft"":8,""ArrowDown,ArrowRight"":30}","true","ArrowDown,ArrowRight","false","original","1","32","","",""
"html-keyboard-response","156","1155001","0.0-4.0-2.0-1.16","spark_pilot_norest","8633","7","14","Male","","","","","","","null","<div style=""font-size:60px;"">+</div>","null","fixation","","","","","","","","","33","","",""
"revaluation","157","1159027","0.0-4.0-2.0-0.17","spark_pilot_norest","8633","7","14","Male","","false","","","","","[1019.7999999523163]","./assets/img/canyon/catch/4.jpg","[""spaceBar""]","value training","canyon","0","{""ArrowUp,ArrowLeft"":23,""ArrowUp,ArrowRight"":10,""ArrowDown,ArrowLeft"":8,""ArrowDown,ArrowRight"":30}","true","spaceBar","true","original","1","34","","",""
"html-keyboard-response","158","1159533","0.0-4.0-2.0-1.17","spark_pilot_norest","8633","7","14","Male","","","","","","","null","<div style=""font-size:60px;"">+</div>","null","fixation","","","","","","","","","35","","",""
"revaluation","159","1165565","0.0-4.0-2.0-0.18","spark_pilot_norest","8633","7","14","Male","","false","","","","","[786.2000000476837,542.7000000476837]","./assets/img/canyon/memory/1.jpg","[""ArrowDown"",""ArrowRight""]","value training","canyon","30","{""ArrowUp,ArrowLeft"":23,""ArrowUp,ArrowRight"":10,""ArrowDown,ArrowLeft"":8,""ArrowDown,ArrowRight"":30}","true","ArrowDown,ArrowRight","false","original","1","36","","",""
"html-keyboard-response","160","1166069","0.0-4.0-2.0-1.18","spark_pilot_norest","8633","7","14","Male","","","","","","","null","<div style=""font-size:60px;"">+</div>","null","fixation","","","","","","","","","37","","",""
"revaluation","161","1172087","0.0-4.0-2.0-0.19","spark_pilot_norest","8633","7","14","Male","","false","","","","","[1429.1000000238419,603.6000000238419]","./assets/img/canyon/memory/4.jpg","[""ArrowDown"",""ArrowRight""]","value training","canyon","30","{""ArrowUp,ArrowLeft"":23,""ArrowUp,ArrowRight"":10,""ArrowDown,ArrowLeft"":8,""ArrowDown,ArrowRight"":30}","true","ArrowDown,ArrowRight","false","original","1","38","","",""
"html-keyboard-response","162","1172590","0.0-4.0-2.0-1.19","spark_pilot_norest","8633","7","14","Male","","","","","","","null","<div style=""font-size:60px;"">+</div>","null","fixation","","","","","","","","","39","","",""
"revaluation","163","1178623","0.0-4.0-2.0-0.20","spark_pilot_norest","8633","7","14","Male","","false","","","","","[993.7999999523163,1017.7999999523163]","./assets/img/canyon/memory/0.jpg","[""ArrowDown"",""ArrowRight""]","value training","canyon","30","{""ArrowUp,ArrowLeft"":23,""ArrowUp,ArrowRight"":10,""ArrowDown,ArrowLeft"":8,""ArrowDown,ArrowRight"":30}","true","ArrowDown,ArrowRight","false","original","1","40","","",""
"html-keyboard-response","164","1179127","0.0-4.0-2.0-1.20","spark_pilot_norest","8633","7","14","Male","","","","","","","null","<div style=""font-size:60px;"">+</div>","null","fixation","","","","","","","","","41","","",""
"revaluation","165","1185155","0.0-4.0-2.0-0.21","spark_pilot_norest","8633","7","14","Male","","false","","","","","[1556.1000000238419,521.6999999284744]","./assets/img/canyon/memory/25.jpg","[""ArrowDown"",""ArrowRight""]","value training","canyon","30","{""ArrowUp,ArrowLeft"":23,""ArrowUp,ArrowRight"":10,""ArrowDown,ArrowLeft"":8,""ArrowDown,ArrowRight"":30}","true","ArrowDown,ArrowRight","false","original","1","42","","",""
"html-keyboard-response","166","1185659","0.0-4.0-2.0-1.21","spark_pilot_norest","8633","7","14","Male","","","","","","","null","<div style=""font-size:60px;"">+</div>","null","fixation","","","","","","","","","43","","",""
"revaluation","167","1191686","0.0-4.0-2.0-0.22","spark_pilot_norest","8633","7","14","Male","","false","","","","","[1537.7000000476837,1544]","./assets/img/canyon/memory/24.jpg","[""ArrowDown"",""ArrowRight""]","value training","canyon","30","{""ArrowUp,ArrowLeft"":23,""ArrowUp,ArrowRight"":10,""ArrowDown,ArrowLeft"":8,""ArrowDown,ArrowRight"":30}","true","ArrowDown,ArrowRight","false","original","1","44","","",""
"html-keyboard-response","168","1192189","0.0-4.0-2.0-1.22","spark_pilot_norest","8633","7","14","Male","","","","","","","null","<div style=""font-size:60px;"">+</div>","null","fixation","","","","","","","","","45","","",""
"revaluation","169","1198221","0.0-4.0-2.0-0.23","spark_pilot_norest","8633","7","14","Male","","false","","","","","[553,603.7000000476837]","./assets/img/canyon/memory/29.jpg","[""ArrowDown"",""ArrowRight""]","value training","canyon","30","{""ArrowUp,ArrowLeft"":23,""ArrowUp,ArrowRight"":10,""ArrowDown,ArrowLeft"":8,""ArrowDown,ArrowRight"":30}","true","ArrowDown,ArrowRight","false","original","1","46","","",""
"html-keyboard-response","170","1198725","0.0-4.0-2.0-1.23","spark_pilot_norest","8633","7","14","Male","","","","","","","null","<div style=""font-size:60px;"">+</div>","null","fixation","","","","","","","","","47","","",""
"revaluation","171","1204751","0.0-4.0-2.0-0.24","spark_pilot_norest","8633","7","14","Male","","false","","","","","[603.3999999761581,498.7999999523163]","./assets/img/canyon/memory/8.jpg","[""ArrowDown"",""ArrowRight""]","value training","canyon","30","{""ArrowUp,ArrowLeft"":23,""ArrowUp,ArrowRight"":10,""ArrowDown,ArrowLeft"":8,""ArrowDown,ArrowRight"":30}","true","ArrowDown,ArrowRight","false","original","1","48","","",""
"html-keyboard-response","172","1205255","0.0-4.0-2.0-1.24","spark_pilot_norest","8633","7","14","Male","","","","","","","null","<div style=""font-size:60px;"">+</div>","null","fixation","","","","","","","","","49","","",""
"revaluation","173","1211281","0.0-4.0-2.0-0.25","spark_pilot_norest","8633","7","14","Male","","false","","","","","[629.5,733.4000000953674]","./assets/img/canyon/memory/30.jpg","[""ArrowDown"",""ArrowRight""]","value training","canyon","30","{""ArrowUp,ArrowLeft"":23,""ArrowUp,ArrowRight"":10,""ArrowDown,ArrowLeft"":8,""ArrowDown,ArrowRight"":30}","true","ArrowDown,ArrowRight","false","original","1","50","","",""
"html-keyboard-response","174","1211786","0.0-4.0-2.0-1.25","spark_pilot_norest","8633","7","14","Male","","","","","","","null","<div style=""font-size:60px;"">+</div>","null","fixation","","","","","","","","","51","","",""
"revaluation","175","1217811","0.0-4.0-2.0-0.26","spark_pilot_norest","8633","7","14","Male","","false","","","","","[373.1999999284744,516.2999999523163]","./assets/img/canyon/memory/24.jpg","[""ArrowDown"",""ArrowLeft""]","value training","canyon","8","{""ArrowUp,ArrowLeft"":23,""ArrowUp,ArrowRight"":10,""ArrowDown,ArrowLeft"":8,""ArrowDown,ArrowRight"":30}","false","ArrowDown,ArrowLeft","false","original","1","52","","",""
"html-keyboard-response","176","1218315","0.0-4.0-2.0-1.26","spark_pilot_norest","8633","7","14","Male","","","","","","","null","<div style=""font-size:60px;"">+</div>","null","fixation","","","","","","","","","53","","",""
"revaluation","177","1224347","0.0-4.0-2.0-0.27","spark_pilot_norest","8633","7","14","Male","","false","","","","","[366.89999997615814,455.39999997615814]","./assets/img/canyon/memory/34.jpg","[""ArrowDown"",""ArrowRight""]","value training","canyon","30","{""ArrowUp,ArrowLeft"":23,""ArrowUp,ArrowRight"":10,""ArrowDown,ArrowLeft"":8,""ArrowDown,ArrowRight"":30}","true","ArrowDown,ArrowRight","false","original","1","54","","",""
"html-keyboard-response","178","1224851","0.0-4.0-2.0-1.27","spark_pilot_norest","8633","7","14","Male","","","","","","","null","<div style=""font-size:60px;"">+</div>","null","fixation","","","","","","","","","55","","",""
"revaluation","179","1230878","0.0-4.0-2.0-0.28","spark_pilot_norest","8633","7","14","Male","","false","","","","","[703.3000000715256,464.6999999284744]","./assets/img/canyon/memory/1.jpg","[""ArrowUp"",""ArrowLeft""]","value training","canyon","23","{""ArrowUp,ArrowLeft"":23,""ArrowUp,ArrowRight"":10,""ArrowDown,ArrowLeft"":8,""ArrowDown,ArrowRight"":30}","false","ArrowUp,ArrowLeft","false","original","1","56","","",""
"html-keyboard-response","180","1231382","0.0-4.0-2.0-1.28","spark_pilot_norest","8633","7","14","Male","","","","","","","null","<div style=""font-size:60px;"">+</div>","null","fixation","","","","","","","","","57","","",""
"revaluation","181","1237408","0.0-4.0-2.0-0.29","spark_pilot_norest","8633","7","14","Male","","false","","","","","[348.3000000715256,400.89999997615814]","./assets/img/canyon/memory/37.jpg","[""ArrowUp"",""ArrowRight""]","value training","canyon","10","{""ArrowUp,ArrowLeft"":23,""ArrowUp,ArrowRight"":10,""ArrowDown,ArrowLeft"":8,""ArrowDown,ArrowRight"":30}","false","ArrowUp,ArrowRight","false","original","1","58","","",""
"html-keyboard-response","182","1237912","0.0-4.0-2.0-1.29","spark_pilot_norest","8633","7","14","Male","","","","","","","null","<div style=""font-size:60px;"">+</div>","null","fixation","","","","","","","","","59","","",""
"revaluation","183","1243936","0.0-4.0-2.0-0.30","spark_pilot_norest","8633","7","14","Male","","false","","","","","[815.6000000238419,582.6999999284744]","./assets/img/canyon/memory/9.jpg","[""ArrowDown"",""ArrowRight""]","value training","canyon","30","{""ArrowUp,ArrowLeft"":23,""ArrowUp,ArrowRight"":10,""ArrowDown,ArrowLeft"":8,""ArrowDown,ArrowRight"":30}","true","ArrowDown,ArrowRight","false","original","1","60","","",""
"html-keyboard-response","184","1244440","0.0-4.0-2.0-1.30","spark_pilot_norest","8633","7","14","Male","","","","","","","null","<div style=""font-size:60px;"">+</div>","null","fixation","","","","","","","","","61","","",""
"revaluation","185","1250471","0.0-4.0-2.0-0.31","spark_pilot_norest","8633","7","14","Male","","false","","","","","[465.39999997615814,688.2000000476837]","./assets/img/canyon/memory/11.jpg","[""ArrowDown"",""ArrowRight""]","value training","canyon","30","{""ArrowUp,ArrowLeft"":23,""ArrowUp,ArrowRight"":10,""ArrowDown,ArrowLeft"":8,""ArrowDown,ArrowRight"":30}","true","ArrowDown,ArrowRight","false","original","1","62","","",""
"html-keyboard-response","186","1250975","0.0-4.0-2.0-1.31","spark_pilot_norest","8633","7","14","Male","","","","","","","null","<div style=""font-size:60px;"">+</div>","null","fixation","","","","","","","","","63","","",""
"revaluation","187","1255001","0.0-4.0-2.0-0.32","spark_pilot_norest","8633","7","14","Male","","false","","","","","[1141.6000000238419]","./assets/img/canyon/catch/6.jpg","[""spaceBar""]","value training","canyon","0","{""ArrowUp,ArrowLeft"":23,""ArrowUp,ArrowRight"":10,""ArrowDown,ArrowLeft"":8,""ArrowDown,ArrowRight"":30}","true","spaceBar","true","original","1","64","","",""
"html-keyboard-response","188","1255505","0.0-4.0-2.0-1.32","spark_pilot_norest","8633","7","14","Male","","","","","","","null","<div style=""font-size:60px;"">+</div>","null","fixation","","","","","","","","","65","","",""
"revaluation","189","1261533","0.0-4.0-2.0-0.33","spark_pilot_norest","8633","7","14","Male","","false","","","","","[1117.1000000238419,522.5]","./assets/img/canyon/memory/27.jpg","[""ArrowDown"",""ArrowRight""]","value training","canyon","30","{""ArrowUp,ArrowLeft"":23,""ArrowUp,ArrowRight"":10,""ArrowDown,ArrowLeft"":8,""ArrowDown,ArrowRight"":30}","true","ArrowDown,ArrowRight","false","original","1","66","","",""
"html-keyboard-response","190","1262039","0.0-4.0-2.0-1.33","spark_pilot_norest","8633","7","14","Male","","","","","","","null","<div style=""font-size:60px;"">+</div>","null","fixation","","","","","","","","","67","","",""
"revaluation","191","1268072","0.0-4.0-2.0-0.34","spark_pilot_norest","8633","7","14","Male","","false","","","","","[522.1999999284744,1080.1999999284744]","./assets/img/canyon/memory/41.jpg","[""ArrowDown"",""ArrowRight""]","value training","canyon","30","{""ArrowUp,ArrowLeft"":23,""ArrowUp,ArrowRight"":10,""ArrowDown,ArrowLeft"":8,""ArrowDown,ArrowRight"":30}","true","ArrowDown,ArrowRight","false","original","1","68","","",""
"html-keyboard-response","192","1268577","0.0-4.0-2.0-1.34","spark_pilot_norest","8633","7","14","Male","","","","","","","null","<div style=""font-size:60px;"">+</div>","null","fixation","","","","","","","","","69","","",""
"revaluation","193","1274607","0.0-4.0-2.0-0.35","spark_pilot_norest","8633","7","14","Male","","false","","","","","[768.5999999046326,575.1000000238419]","./assets/img/canyon/memory/22.jpg","[""ArrowDown"",""ArrowRight""]","value training","canyon","30","{""ArrowUp,ArrowLeft"":23,""ArrowUp,ArrowRight"":10,""ArrowDown,ArrowLeft"":8,""ArrowDown,ArrowRight"":30}","true","ArrowDown,ArrowRight","false","original","1","70","","",""
"html-keyboard-response","194","1275111","0.0-4.0-2.0-1.35","spark_pilot_norest","8633","7","14","Male","","","","","","","null","<div style=""font-size:60px;"">+</div>","null","fixation","","","","","","","","","71","","",""
"revaluation","195","1281130","0.0-4.0-2.0-0.36","spark_pilot_norest","8633","7","14","Male","","false","","","","","[898.9000000953674,1094.8000000715256]","./assets/img/canyon/memory/9.jpg","[""ArrowDown"",""ArrowRight""]","value training","canyon","30","{""ArrowUp,ArrowLeft"":23,""ArrowUp,ArrowRight"":10,""ArrowDown,ArrowLeft"":8,""ArrowDown,ArrowRight"":30}","true","ArrowDown,ArrowRight","false","original","1","72","","",""
"html-keyboard-response","196","1281634","0.0-4.0-2.0-1.36","spark_pilot_norest","8633","7","14","Male","","","","","","","null","<div style=""font-size:60px;"">+</div>","null","fixation","","","","","","","","","73","","",""
"revaluation","197","1287660","0.0-4.0-2.0-0.37","spark_pilot_norest","8633","7","14","Male","","false","","","","","[623,436.89999997615814]","./assets/img/canyon/memory/4.jpg","[""ArrowDown"",""ArrowRight""]","value training","canyon","30","{""ArrowUp,ArrowLeft"":23,""ArrowUp,ArrowRight"":10,""ArrowDown,ArrowLeft"":8,""ArrowDown,ArrowRight"":30}","true","ArrowDown,ArrowRight","false","original","1","74","","",""
"html-keyboard-response","198","1288164","0.0-4.0-2.0-1.37","spark_pilot_norest","8633","7","14","Male","","","","","","","null","<div style=""font-size:60px;"">+</div>","null","fixation","","","","","","","","","75","","",""
"revaluation","199","1294194","0.0-4.0-2.0-0.38","spark_pilot_norest","8633","7","14","Male","","false","","","","","[483.2000000476837,490.2999999523163]","./assets/img/canyon/memory/21.jpg","[""ArrowDown"",""ArrowRight""]","value training","canyon","30","{""ArrowUp,ArrowLeft"":23,""ArrowUp,ArrowRight"":10,""ArrowDown,ArrowLeft"":8,""ArrowDown,ArrowRight"":30}","true","ArrowDown,ArrowRight","false","original","1","76","","",""
"html-keyboard-response","200","1294698","0.0-4.0-2.0-1.38","spark_pilot_norest","8633","7","14","Male","","","","","","","null","<div style=""font-size:60px;"">+</div>","null","fixation","","","","","","","","","77","","",""
"revaluation","201","1300725","0.0-4.0-2.0-0.39","spark_pilot_norest","8633","7","14","Male","","false","","","","","[703,470.40000009536743]","./assets/img/canyon/memory/25.jpg","[""ArrowDown"",""ArrowRight""]","value training","canyon","30","{""ArrowUp,ArrowLeft"":23,""ArrowUp,ArrowRight"":10,""ArrowDown,ArrowLeft"":8,""ArrowDown,ArrowRight"":30}","true","ArrowDown,ArrowRight","false","original","1","78","","",""
"html-keyboard-response","202","1301229","0.0-4.0-2.0-1.39","spark_pilot_norest","8633","7","14","Male","","","","","","","null","<div style=""font-size:60px;"">+</div>","null","fixation","","","","","","","","","79","","",""
"revaluation","203","1307254","0.0-4.0-2.0-0.40","spark_pilot_norest","8633","7","14","Male","","false","","","","","[885.7999999523163,478.7999999523163]","./assets/img/canyon/memory/0.jpg","[""ArrowDown"",""ArrowRight""]","value training","canyon","30","{""ArrowUp,ArrowLeft"":23,""ArrowUp,ArrowRight"":10,""ArrowDown,ArrowLeft"":8,""ArrowDown,ArrowRight"":30}","true","ArrowDown,ArrowRight","false","original","1","80","","",""
"html-keyboard-response","204","1307758","0.0-4.0-2.0-1.40","spark_pilot_norest","8633","7","14","Male","","","","","","","null","<div style=""font-size:60px;"">+</div>","null","fixation","","","","","","","","","81","","",""
"revaluation","205","1311784","0.0-4.0-2.0-0.41","spark_pilot_norest","8633","7","14","Male","","false","","","","","[1127.9000000953674]","./assets/img/canyon/catch/1.jpg","[""spaceBar""]","value training","canyon","0","{""ArrowUp,ArrowLeft"":23,""ArrowUp,ArrowRight"":10,""ArrowDown,ArrowLeft"":8,""ArrowDown,ArrowRight"":30}","true","spaceBar","true","original","1","82","","",""
"html-keyboard-response","206","1312288","0.0-4.0-2.0-1.41","spark_pilot_norest","8633","7","14","Male","","","","","","","null","<div style=""font-size:60px;"">+</div>","null","fixation","","","","","","","","","83","","",""
"revaluation","207","1318315","0.0-4.0-2.0-0.42","spark_pilot_norest","8633","7","14","Male","","false","","","","","[1071.1999999284744,746.6000000238419]","./assets/img/canyon/memory/16.jpg","[""ArrowDown"",""ArrowRight""]","value training","canyon","30","{""ArrowUp,ArrowLeft"":23,""ArrowUp,ArrowRight"":10,""ArrowDown,ArrowLeft"":8,""ArrowDown,ArrowRight"":30}","true","ArrowDown,ArrowRight","false","original","1","84","","",""
"html-keyboard-response","208","1318818","0.0-4.0-2.0-1.42","spark_pilot_norest","8633","7","14","Male","","","","","","","null","<div style=""font-size:60px;"">+</div>","null","fixation","","","","","","","","","85","","",""
"revaluation","209","1324850","0.0-4.0-2.0-0.43","spark_pilot_norest","8633","7","14","Male","","false","","","","","[876.5,1303.5]","./assets/img/canyon/memory/37.jpg","[""ArrowDown"",""ArrowRight""]","value training","canyon","30","{""ArrowUp,ArrowLeft"":23,""ArrowUp,ArrowRight"":10,""ArrowDown,ArrowLeft"":8,""ArrowDown,ArrowRight"":30}","true","ArrowDown,ArrowRight","false","original","1","86","","",""
"html-keyboard-response","210","1325355","0.0-4.0-2.0-1.43","spark_pilot_norest","8633","7","14","Male","","","","","","","null","<div style=""font-size:60px;"">+</div>","null","fixation","","","","","","","","","87","","",""
"revaluation","211","1331383","0.0-4.0-2.0-0.44","spark_pilot_norest","8633","7","14","Male","","false","","","","","[854.7999999523163,336.60000002384186]","./assets/img/canyon/memory/29.jpg","[""ArrowDown"",""ArrowRight""]","value training","canyon","30","{""ArrowUp,ArrowLeft"":23,""ArrowUp,ArrowRight"":10,""ArrowDown,ArrowLeft"":8,""ArrowDown,ArrowRight"":30}","true","ArrowDown,ArrowRight","false","original","1","88","","",""
"html-keyboard-response","212","1331887","0.0-4.0-2.0-1.44","spark_pilot_norest","8633","7","14","Male","","","","","","","null","<div style=""font-size:60px;"">+</div>","null","fixation","","","","","","","","","89","","",""
"revaluation","213","1335909","0.0-4.0-2.0-0.45","spark_pilot_norest","8633","7","14","Male","","false","","","","","[1034.3999999761581]","./assets/img/canyon/catch/0.jpg","[""spaceBar""]","value training","canyon","0","{""ArrowUp,ArrowLeft"":23,""ArrowUp,ArrowRight"":10,""ArrowDown,ArrowLeft"":8,""ArrowDown,ArrowRight"":30}","true","spaceBar","true","original","1","90","","",""
"html-keyboard-response","214","1336413","0.0-4.0-2.0-1.45","spark_pilot_norest","8633","7","14","Male","","","","","","","null","<div style=""font-size:60px;"">+</div>","null","fixation","","","","","","","","","91","","",""
"revaluation","215","1342440","0.0-4.0-2.0-0.46","spark_pilot_norest","8633","7","14","Male","","false","","","","","[430.1999999284744,462.90000009536743]","./assets/img/canyon/memory/20.jpg","[""ArrowDown"",""ArrowRight""]","value training","canyon","30","{""ArrowUp,ArrowLeft"":23,""ArrowUp,ArrowRight"":10,""ArrowDown,ArrowLeft"":8,""ArrowDown,ArrowRight"":30}","true","ArrowDown,ArrowRight","false","original","1","92","","",""
"html-keyboard-response","216","1342944","0.0-4.0-2.0-1.46","spark_pilot_norest","8633","7","14","Male","","","","","","","null","<div style=""font-size:60px;"">+</div>","null","fixation","","","","","","","","","93","","",""
"revaluation","217","1348966","0.0-4.0-2.0-0.47","spark_pilot_norest","8633","7","14","Male","","false","","","","","[669.6999999284744,497.5]","./assets/img/canyon/memory/34.jpg","[""ArrowDown"",""ArrowRight""]","value training","canyon","30","{""ArrowUp,ArrowLeft"":23,""ArrowUp,ArrowRight"":10,""ArrowDown,ArrowLeft"":8,""ArrowDown,ArrowRight"":30}","true","ArrowDown,ArrowRight","false","original","1","94","","",""
"html-keyboard-response","218","1349472","0.0-4.0-2.0-1.47","spark_pilot_norest","8633","7","14","Male","","","","","","","null","<div style=""font-size:60px;"">+</div>","null","fixation","","","","","","","","","95","","",""
"revaluation","219","1353506","0.0-4.0-2.0-0.48","spark_pilot_norest","8633","7","14","Male","","false","","","","","[403.09999990463257]","./assets/img/canyon/catch/2.jpg","[""ArrowDown""]","value training","canyon","-10","{""ArrowUp,ArrowLeft"":23,""ArrowUp,ArrowRight"":10,""ArrowDown,ArrowLeft"":8,""ArrowDown,ArrowRight"":30}","false","ArrowDown","true","original","1","96","","",""
"html-keyboard-response","220","1354010","0.0-4.0-2.0-1.48","spark_pilot_norest","8633","7","14","Male","","","","","","","null","<div style=""font-size:60px;"">+</div>","null","fixation","","","","","","","","","97","","",""
"revaluation","221","1360036","0.0-4.0-2.0-0.49","spark_pilot_norest","8633","7","14","Male","","false","","","","","[403.09999990463257,382.10000002384186]","./assets/img/canyon/memory/8.jpg","[""ArrowDown"",""ArrowRight""]","value training","canyon","30","{""ArrowUp,ArrowLeft"":23,""ArrowUp,ArrowRight"":10,""ArrowDown,ArrowLeft"":8,""ArrowDown,ArrowRight"":30}","true","ArrowDown,ArrowRight","false","original","1","98","","",""
"html-keyboard-response","222","1360540","0.0-4.0-2.0-1.49","spark_pilot_norest","8633","7","14","Male","","","","","","","null","<div style=""font-size:60px;"">+</div>","null","fixation","","","","","","","","","99","","",""
"learning-instructions","223","1377795","0.0-4.0-3.0-0.0","spark_pilot_norest","8633","7","14","Male","","","","","","","4119.600000023842","<p> Now, you will travel with a friend who will choose whether you go up or down first. </p>
            <p> On these turns, you will just see the animal that they found. You will still get to choose which chest to search for treasure.</p>","","instructions","","","","","","","","","","","",""
"revaluation","224","1381806","0.0-4.0-4.0-0.0","spark_pilot_norest","8633","7","14","Male","","false","","","","","[1425.5]","./assets/img/canyon/animals/lion.jpg","[""ArrowLeft""]","revaluation","canyon","23","{""ArrowUp,ArrowLeft"":23,""ArrowUp,ArrowRight"":10,""ArrowDown,ArrowLeft"":8,""ArrowDown,ArrowRight"":30}","true","ArrowUp,ArrowLeft","","original","1","0","","",""
"html-keyboard-response","225","1382328","0.0-4.0-4.0-1.0","spark_pilot_norest","8633","7","14","Male","","","","","","","null","<div style=""font-size:60px;"">+</div>","null","fixation","","","","","","","","","1","","",""
"revaluation","226","1386343","0.0-4.0-4.0-0.1","spark_pilot_norest","8633","7","14","Male","","false","","","","","[600.3000000715256]","./assets/img/canyon/animals/lion.jpg","[""ArrowLeft""]","revaluation","canyon","23","{""ArrowUp,ArrowLeft"":23,""ArrowUp,ArrowRight"":10,""ArrowDown,ArrowLeft"":8,""ArrowDown,ArrowRight"":30}","true","ArrowUp,ArrowLeft","","original","1","2","","",""
"html-keyboard-response","227","1386848","0.0-4.0-4.0-1.1","spark_pilot_norest","8633","7","14","Male","","","","","","","null","<div style=""font-size:60px;"">+</div>","null","fixation","","","","","","","","","3","","",""
"revaluation","228","1390870","0.0-4.0-4.0-0.2","spark_pilot_norest","8633","7","14","Male","","false","","","","","[995.2999999523163]","./assets/img/canyon/animals/giraffe.jpg","[""ArrowRight""]","revaluation","canyon","30","{""ArrowUp,ArrowLeft"":23,""ArrowUp,ArrowRight"":10,""ArrowDown,ArrowLeft"":8,""ArrowDown,ArrowRight"":30}","true","ArrowDown,ArrowRight","","original","1","4","","",""
"html-keyboard-response","229","1391374","0.0-4.0-4.0-1.2","spark_pilot_norest","8633","7","14","Male","","","","","","","null","<div style=""font-size:60px;"">+</div>","null","fixation","","","","","","","","","5","","",""
"revaluation","230","1395401","0.0-4.0-4.0-0.3","spark_pilot_norest","8633","7","14","Male","","false","","","","","[541.1000000238419]","./assets/img/canyon/animals/lion.jpg","[""ArrowLeft""]","revaluation","canyon","23","{""ArrowUp,ArrowLeft"":23,""ArrowUp,ArrowRight"":10,""ArrowDown,ArrowLeft"":8,""ArrowDown,ArrowRight"":30}","true","ArrowUp,ArrowLeft","","original","1","6","","",""
"html-keyboard-response","231","1395906","0.0-4.0-4.0-1.3","spark_pilot_norest","8633","7","14","Male","","","","","","","null","<div style=""font-size:60px;"">+</div>","null","fixation","","","","","","","","","7","","",""
"revaluation","232","1399930","0.0-4.0-4.0-0.4","spark_pilot_norest","8633","7","14","Male","","false","","","","","[326.39999997615814]","./assets/img/canyon/animals/giraffe.jpg","[""ArrowRight""]","revaluation","canyon","30","{""ArrowUp,ArrowLeft"":23,""ArrowUp,ArrowRight"":10,""ArrowDown,ArrowLeft"":8,""ArrowDown,ArrowRight"":30}","true","ArrowDown,ArrowRight","","original","1","8","","",""
"html-keyboard-response","233","1400435","0.0-4.0-4.0-1.4","spark_pilot_norest","8633","7","14","Male","","","","","","","null","<div style=""font-size:60px;"">+</div>","null","fixation","","","","","","","","","9","","",""
"revaluation","234","1404453","0.0-4.0-4.0-0.5","spark_pilot_norest","8633","7","14","Male","","false","","","","","[396]","./assets/img/canyon/animals/lion.jpg","[""ArrowLeft""]","revaluation","canyon","23","{""ArrowUp,ArrowLeft"":23,""ArrowUp,ArrowRight"":10,""ArrowDown,ArrowLeft"":8,""ArrowDown,ArrowRight"":30}","true","ArrowUp,ArrowLeft","","original","1","10","","",""
"html-keyboard-response","235","1404958","0.0-4.0-4.0-1.5","spark_pilot_norest","8633","7","14","Male","","","","","","","null","<div style=""font-size:60px;"">+</div>","null","fixation","","","","","","","","","11","","",""
"revaluation","236","1408981","0.0-4.0-4.0-0.6","spark_pilot_norest","8633","7","14","Male","","false","","","","","[542.6000000238419]","./assets/img/canyon/animals/giraffe.jpg","[""ArrowRight""]","revaluation","canyon","30","{""ArrowUp,ArrowLeft"":23,""ArrowUp,ArrowRight"":10,""ArrowDown,ArrowLeft"":8,""ArrowDown,ArrowRight"":30}","true","ArrowDown,ArrowRight","","original","1","12","","",""
"html-keyboard-response","237","1409485","0.0-4.0-4.0-1.6","spark_pilot_norest","8633","7","14","Male","","","","","","","null","<div style=""font-size:60px;"">+</div>","null","fixation","","","","","","","","","13","","",""
"revaluation","238","1413503","0.0-4.0-4.0-0.7","spark_pilot_norest","8633","7","14","Male","","false","","","","","[513.2000000476837]","./assets/img/canyon/animals/lion.jpg","[""ArrowLeft""]","revaluation","canyon","23","{""ArrowUp,ArrowLeft"":23,""ArrowUp,ArrowRight"":10,""ArrowDown,ArrowLeft"":8,""ArrowDown,ArrowRight"":30}","true","ArrowUp,ArrowLeft","","original","1","14","","",""
"html-keyboard-response","239","1414007","0.0-4.0-4.0-1.7","spark_pilot_norest","8633","7","14","Male","","","","","","","null","<div style=""font-size:60px;"">+</div>","null","fixation","","","","","","","","","15","","",""
"revaluation","240","1418030","0.0-4.0-4.0-0.8","spark_pilot_norest","8633","7","14","Male","","false","","","","","[545.8000000715256]","./assets/img/canyon/animals/lion.jpg","[""ArrowLeft""]","revaluation","canyon","23","{""ArrowUp,ArrowLeft"":23,""ArrowUp,ArrowRight"":10,""ArrowDown,ArrowLeft"":8,""ArrowDown,ArrowRight"":30}","true","ArrowUp,ArrowLeft","","original","1","16","","",""
"html-keyboard-response","241","1418535","0.0-4.0-4.0-1.8","spark_pilot_norest","8633","7","14","Male","","","","","","","null","<div style=""font-size:60px;"">+</div>","null","fixation","","","","","","","","","17","","",""
"revaluation","242","1422560","0.0-4.0-4.0-0.9","spark_pilot_norest","8633","7","14","Male","","false","","","","","[517]","./assets/img/canyon/animals/giraffe.jpg","[""ArrowRight""]","revaluation","canyon","30","{""ArrowUp,ArrowLeft"":23,""ArrowUp,ArrowRight"":10,""ArrowDown,ArrowLeft"":8,""ArrowDown,ArrowRight"":30}","true","ArrowDown,ArrowRight","","original","1","18","","",""
"html-keyboard-response","243","1423064","0.0-4.0-4.0-1.9","spark_pilot_norest","8633","7","14","Male","","","","","","","null","<div style=""font-size:60px;"">+</div>","null","fixation","","","","","","","","","19","","",""
"revaluation","244","1427087","0.0-4.0-4.0-0.10","spark_pilot_norest","8633","7","14","Male","","false","","","","","[349.10000002384186]","./assets/img/canyon/animals/lion.jpg","[""ArrowLeft""]","revaluation","canyon","23","{""ArrowUp,ArrowLeft"":23,""ArrowUp,ArrowRight"":10,""ArrowDown,ArrowLeft"":8,""ArrowDown,ArrowRight"":30}","true","ArrowUp,ArrowLeft","","original","1","20","","",""
"html-keyboard-response","245","1427591","0.0-4.0-4.0-1.10","spark_pilot_norest","8633","7","14","Male","","","","","","","null","<div style=""font-size:60px;"">+</div>","null","fixation","","","","","","","","","21","","",""
"revaluation","246","1431614","0.0-4.0-4.0-0.11","spark_pilot_norest","8633","7","14","Male","","false","","","","","[337.2999999523163]","./assets/img/canyon/animals/lion.jpg","[""ArrowRight""]","revaluation","canyon","10","{""ArrowUp,ArrowLeft"":23,""ArrowUp,ArrowRight"":10,""ArrowDown,ArrowLeft"":8,""ArrowDown,ArrowRight"":30}","false","ArrowUp,ArrowRight","","original","1","22","","",""
"html-keyboard-response","247","1432118","0.0-4.0-4.0-1.11","spark_pilot_norest","8633","7","14","Male","","","","","","","null","<div style=""font-size:60px;"">+</div>","null","fixation","","","","","","","","","23","","",""
"revaluation","248","1436142","0.0-4.0-4.0-0.12","spark_pilot_norest","8633","7","14","Male","","false","","","","","[894]","./assets/img/canyon/animals/giraffe.jpg","[""ArrowRight""]","revaluation","canyon","30","{""ArrowUp,ArrowLeft"":23,""ArrowUp,ArrowRight"":10,""ArrowDown,ArrowLeft"":8,""ArrowDown,ArrowRight"":30}","true","ArrowDown,ArrowRight","","original","1","24","","",""
"html-keyboard-response","249","1436647","0.0-4.0-4.0-1.12","spark_pilot_norest","8633","7","14","Male","","","","","","","null","<div style=""font-size:60px;"">+</div>","null","fixation","","","","","","","","","25","","",""
"revaluation","250","1440670","0.0-4.0-4.0-0.13","spark_pilot_norest","8633","7","14","Male","","false","","","","","[562.0999999046326]","./assets/img/canyon/animals/giraffe.jpg","[""ArrowLeft""]","revaluation","canyon","8","{""ArrowUp,ArrowLeft"":23,""ArrowUp,ArrowRight"":10,""ArrowDown,ArrowLeft"":8,""ArrowDown,ArrowRight"":30}","false","ArrowDown,ArrowLeft","","original","1","26","","",""
"html-keyboard-response","251","1441174","0.0-4.0-4.0-1.13","spark_pilot_norest","8633","7","14","Male","","","","","","","null","<div style=""font-size:60px;"">+</div>","null","fixation","","","","","","","","","27","","",""
"revaluation","252","1445198","0.0-4.0-4.0-0.14","spark_pilot_norest","8633","7","14","Male","","false","","","","","[829.8000000715256]","./assets/img/canyon/animals/giraffe.jpg","[""ArrowRight""]","revaluation","canyon","30","{""ArrowUp,ArrowLeft"":23,""ArrowUp,ArrowRight"":10,""ArrowDown,ArrowLeft"":8,""ArrowDown,ArrowRight"":30}","true","ArrowDown,ArrowRight","","original","1","28","","",""
"html-keyboard-response","253","1445704","0.0-4.0-4.0-1.14","spark_pilot_norest","8633","7","14","Male","","","","","","","null","<div style=""font-size:60px;"">+</div>","null","fixation","","","","","","","","","29","","",""
"revaluation","254","1449729","0.0-4.0-4.0-0.15","spark_pilot_norest","8633","7","14","Male","","false","","","","","[625.8999999761581]","./assets/img/canyon/animals/lion.jpg","[""ArrowLeft""]","revaluation","canyon","23","{""ArrowUp,ArrowLeft"":23,""ArrowUp,ArrowRight"":10,""ArrowDown,ArrowLeft"":8,""ArrowDown,ArrowRight"":30}","true","ArrowUp,ArrowLeft","","original","1","30","","",""
"html-keyboard-response","255","1450234","0.0-4.0-4.0-1.15","spark_pilot_norest","8633","7","14","Male","","","","","","","null","<div style=""font-size:60px;"">+</div>","null","fixation","","","","","","","","","31","","",""
"revaluation","256","1454258","0.0-4.0-4.0-0.16","spark_pilot_norest","8633","7","14","Male","","false","","","","","[647.1000000238419]","./assets/img/canyon/animals/giraffe.jpg","[""ArrowRight""]","revaluation","canyon","30","{""ArrowUp,ArrowLeft"":23,""ArrowUp,ArrowRight"":10,""ArrowDown,ArrowLeft"":8,""ArrowDown,ArrowRight"":30}","true","ArrowDown,ArrowRight","","original","1","32","","",""
"html-keyboard-response","257","1454762","0.0-4.0-4.0-1.16","spark_pilot_norest","8633","7","14","Male","","","","","","","null","<div style=""font-size:60px;"">+</div>","null","fixation","","","","","","","","","33","","",""
"revaluation","258","1458786","0.0-4.0-4.0-0.17","spark_pilot_norest","8633","7","14","Male","","false","","","","","[839.7000000476837]","./assets/img/canyon/animals/giraffe.jpg","[""ArrowRight""]","revaluation","canyon","30","{""ArrowUp,ArrowLeft"":23,""ArrowUp,ArrowRight"":10,""ArrowDown,ArrowLeft"":8,""ArrowDown,ArrowRight"":30}","true","ArrowDown,ArrowRight","","original","1","34","","",""
"html-keyboard-response","259","1459290","0.0-4.0-4.0-1.17","spark_pilot_norest","8633","7","14","Male","","","","","","","null","<div style=""font-size:60px;"">+</div>","null","fixation","","","","","","","","","35","","",""
"learning-instructions","260","1467588","0.0-4.0-5.0-0.0","spark_pilot_norest","8633","7","14","Male","","","","","","","null","<p> You have almost finished this part of the game! </p>
            <p> We are going to ask you to make a few more choices. </p>","","instructions","","","","","","","","","","","",""
"learning-instructions","261","1483561","0.0-4.0-5.0-0.1","spark_pilot_norest","8633","7","14","Male","","","","","","","null","<p> First, you need to decide whether to go up or down. When you see each picture, use the arrow keys to make your choice. </p>
            <p><b>You will not see which animal you found, but try to get to the one that will give you the most treasure.</b></p>","","instructions","","","","","","","","","","","",""
"html-keyboard-response","262","1484565","0.0-4.0-6.0-0.0","spark_pilot_norest","8633","7","14","Male","","","","","","","null","<div style=""font-size:100px;color:red;"">Starting in...</div>","null","","","","","","","","","","","","",""
"html-keyboard-response","263","1485569","0.0-4.0-6.0-1.0","spark_pilot_norest","8633","7","14","Male","","","","","","","null","<div style=""font-size:200px;color:red;"">3</div>","null","","","","","","","","","","","","",""
"html-keyboard-response","264","1486572","0.0-4.0-6.0-2.0","spark_pilot_norest","8633","7","14","Male","","","","","","","null","<div style=""font-size:200px;color:red;"">2</div>","null","","","","","","","","","","","","",""
"html-keyboard-response","265","1487577","0.0-4.0-6.0-3.0","spark_pilot_norest","8633","7","14","Male","","","","","","","null","<div style=""font-size:200px;color:red;"">1</div>","null","","","","","","","","","","","","",""
"revaluation","266","1488376","0.0-4.0-7.0-0.0","spark_pilot_norest","8633","7","14","Male","","false","","","","","[785.5]","./assets/img/canyon/test/2.jpg","[""ArrowUp""]","first stage test","canyon","0","{""ArrowUp,ArrowLeft"":23,""ArrowUp,ArrowRight"":10,""ArrowDown,ArrowLeft"":8,""ArrowDown,ArrowRight"":30}","false","ArrowUp","false","original","1","","","",""
"html-keyboard-response","267","1488880","0.0-4.0-7.0-1.0","spark_pilot_norest","8633","7","14","Male","","","","","","","null","<div style=""font-size:60px;"">+</div>","null","fixation","","","","","","","","","","","",""
"revaluation","268","1489697","0.0-4.0-7.0-0.1","spark_pilot_norest","8633","7","14","Male","","false","","","","","[794.4000000953674]","./assets/img/canyon/test/3.jpg","[""ArrowDown""]","first stage test","canyon","0","{""ArrowUp,ArrowLeft"":23,""ArrowUp,ArrowRight"":10,""ArrowDown,ArrowLeft"":8,""ArrowDown,ArrowRight"":30}","true","ArrowDown","false","original","1","","","",""
"html-keyboard-response","269","1490201","0.0-4.0-7.0-1.1","spark_pilot_norest","8633","7","14","Male","","","","","","","null","<div style=""font-size:60px;"">+</div>","null","fixation","","","","","","","","","","","",""
"revaluation","270","1490973","0.0-4.0-7.0-0.2","spark_pilot_norest","8633","7","14","Male","","false","","","","","[764.6000000238419]","./assets/img/canyon/test/1.jpg","[""ArrowDown""]","first stage test","canyon","0","{""ArrowUp,ArrowLeft"":23,""ArrowUp,ArrowRight"":10,""ArrowDown,ArrowLeft"":8,""ArrowDown,ArrowRight"":30}","true","ArrowDown","false","original","1","","","",""
"html-keyboard-response","271","1491479","0.0-4.0-7.0-1.2","spark_pilot_norest","8633","7","14","Male","","","","","","","null","<div style=""font-size:60px;"">+</div>","null","fixation","","","","","","","","","","","",""
"revaluation","272","1492011","0.0-4.0-7.0-0.3","spark_pilot_norest","8633","7","14","Male","","false","","","","","[516.2999999523163]","./assets/img/canyon/test/0.jpg","[""ArrowDown""]","first stage test","canyon","0","{""ArrowUp,ArrowLeft"":23,""ArrowUp,ArrowRight"":10,""ArrowDown,ArrowLeft"":8,""ArrowDown,ArrowRight"":30}","true","ArrowDown","false","original","1","","","",""
"html-keyboard-response","273","1492516","0.0-4.0-7.0-1.3","spark_pilot_norest","8633","7","14","Male","","","","","","","null","<div style=""font-size:60px;"">+</div>","null","fixation","","","","","","","","","","","",""
"learning-instructions","274","1505868","0.0-4.0-8.0-0.0","spark_pilot_norest","8633","7","14","Male","","","","","","","null","<p> Now you will see the animals again and can search their chests for treasure. </p>
            <p> This time, you will not see how much treasure you earned, but you will earn more bonus money for making better choices. </p>","","instructions","","","","","","","","","","","",""
"html-keyboard-response","275","1506873","0.0-4.0-9.0-0.0","spark_pilot_norest","8633","7","14","Male","","","","","","","null","<div style=""font-size:100px;color:red;"">Starting in...</div>","null","","","","","","","","","","","","",""
"html-keyboard-response","276","1507876","0.0-4.0-9.0-1.0","spark_pilot_norest","8633","7","14","Male","","","","","","","null","<div style=""font-size:200px;color:red;"">3</div>","null","","","","","","","","","","","","",""
"html-keyboard-response","277","1508880","0.0-4.0-9.0-2.0","spark_pilot_norest","8633","7","14","Male","","","","","","","null","<div style=""font-size:200px;color:red;"">2</div>","null","","","","","","","","","","","","",""
"html-keyboard-response","278","1509883","0.0-4.0-9.0-3.0","spark_pilot_norest","8633","7","14","Male","","","","","","","null","<div style=""font-size:200px;color:red;"">1</div>","null","","","","","","","","","","","","",""
"revaluation","279","1510583","0.0-4.0-10.0-0.0","spark_pilot_norest","8633","7","14","Male","","false","","","","","[670.8999999761581]","./assets/img/canyon/animals/lion.jpg","[""ArrowRight""]","second stage test","canyon","0","{""ArrowUp,ArrowLeft"":23,""ArrowUp,ArrowRight"":10,""ArrowDown,ArrowLeft"":8,""ArrowDown,ArrowRight"":30}","false","ArrowUp,ArrowRight","","original","1","","","",""
"html-keyboard-response","280","1511088","0.0-4.0-10.0-1.0","spark_pilot_norest","8633","7","14","Male","","","","","","","null","<div style=""font-size:60px;"">+</div>","null","fixation","","","","","","","","","","","",""
"revaluation","281","1511629","0.0-4.0-10.0-0.1","spark_pilot_norest","8633","7","14","Male","","false","","","","","[527.1999999284744]","./assets/img/canyon/animals/lion.jpg","[""ArrowLeft""]","second stage test","canyon","0","{""ArrowUp,ArrowLeft"":23,""ArrowUp,ArrowRight"":10,""ArrowDown,ArrowLeft"":8,""ArrowDown,ArrowRight"":30}","true","ArrowUp,ArrowLeft","","original","1","","","",""
"html-keyboard-response","282","1512133","0.0-4.0-10.0-1.1","spark_pilot_norest","8633","7","14","Male","","","","","","","null","<div style=""font-size:60px;"">+</div>","null","fixation","","","","","","","","","","","",""
"revaluation","283","1512648","0.0-4.0-10.0-0.2","spark_pilot_norest","8633","7","14","Male","","false","","","","","[491.8000000715256]","./assets/img/canyon/animals/lion.jpg","[""ArrowLeft""]","second stage test","canyon","0","{""ArrowUp,ArrowLeft"":23,""ArrowUp,ArrowRight"":10,""ArrowDown,ArrowLeft"":8,""ArrowDown,ArrowRight"":30}","true","ArrowUp,ArrowLeft","","original","1","","","",""
"html-keyboard-response","284","1513153","0.0-4.0-10.0-1.2","spark_pilot_norest","8633","7","14","Male","","","","","","","null","<div style=""font-size:60px;"">+</div>","null","fixation","","","","","","","","","","","",""
"revaluation","285","1513597","0.0-4.0-10.0-0.3","spark_pilot_norest","8633","7","14","Male","","false","","","","","[432.7999999523163]","./assets/img/canyon/animals/lion.jpg","[""ArrowLeft""]","second stage test","canyon","0","{""ArrowUp,ArrowLeft"":23,""ArrowUp,ArrowRight"":10,""ArrowDown,ArrowLeft"":8,""ArrowDown,ArrowRight"":30}","true","ArrowUp,ArrowLeft","","original","1","","","",""
"html-keyboard-response","286","1514102","0.0-4.0-10.0-1.3","spark_pilot_norest","8633","7","14","Male","","","","","","","null","<div style=""font-size:60px;"">+</div>","null","fixation","","","","","","","","","","","",""
"revaluation","287","1514714","0.0-4.0-10.0-0.4","spark_pilot_norest","8633","7","14","Male","","false","","","","","[599.2000000476837]","./assets/img/canyon/animals/giraffe.jpg","[""ArrowRight""]","second stage test","canyon","0","{""ArrowUp,ArrowLeft"":23,""ArrowUp,ArrowRight"":10,""ArrowDown,ArrowLeft"":8,""ArrowDown,ArrowRight"":30}","true","ArrowDown,ArrowRight","","original","1","","","",""
"html-keyboard-response","288","1515218","0.0-4.0-10.0-1.4","spark_pilot_norest","8633","7","14","Male","","","","","","","null","<div style=""font-size:60px;"">+</div>","null","fixation","","","","","","","","","","","",""
"revaluation","289","1515847","0.0-4.0-10.0-0.5","spark_pilot_norest","8633","7","14","Male","","false","","","","","[611.3999999761581]","./assets/img/canyon/animals/giraffe.jpg","[""ArrowLeft""]","second stage test","canyon","0","{""ArrowUp,ArrowLeft"":23,""ArrowUp,ArrowRight"":10,""ArrowDown,ArrowLeft"":8,""ArrowDown,ArrowRight"":30}","false","ArrowDown,ArrowLeft","","original","1","","","",""
"html-keyboard-response","290","1516351","0.0-4.0-10.0-1.5","spark_pilot_norest","8633","7","14","Male","","","","","","","null","<div style=""font-size:60px;"">+</div>","null","fixation","","","","","","","","","","","",""
"revaluation","291","1517174","0.0-4.0-10.0-0.6","spark_pilot_norest","8633","7","14","Male","","false","","","","","[811.2000000476837]","./assets/img/canyon/animals/giraffe.jpg","[""ArrowRight""]","second stage test","canyon","0","{""ArrowUp,ArrowLeft"":23,""ArrowUp,ArrowRight"":10,""ArrowDown,ArrowLeft"":8,""ArrowDown,ArrowRight"":30}","true","ArrowDown,ArrowRight","","original","1","","","",""
"html-keyboard-response","292","1517679","0.0-4.0-10.0-1.6","spark_pilot_norest","8633","7","14","Male","","","","","","","null","<div style=""font-size:60px;"">+</div>","null","fixation","","","","","","","","","","","",""
"revaluation","293","1518158","0.0-4.0-10.0-0.7","spark_pilot_norest","8633","7","14","Male","","false","","","","","[461.7000000476837]","./assets/img/canyon/animals/giraffe.jpg","[""ArrowRight""]","second stage test","canyon","0","{""ArrowUp,ArrowLeft"":23,""ArrowUp,ArrowRight"":10,""ArrowDown,ArrowLeft"":8,""ArrowDown,ArrowRight"":30}","true","ArrowDown,ArrowRight","","original","1","","","",""
"html-keyboard-response","294","1518664","0.0-4.0-10.0-1.7","spark_pilot_norest","8633","7","14","Male","","","","","","","null","<div style=""font-size:60px;"">+</div>","null","fixation","","","","","","","","","","","",""
"learning-instructions","295","1522854","0.0-4.0-0.1-0.2","spark_pilot_norest","8633","7","14","Male","","","","","","","1451.7999999523163","<p> This time you are searching for treasure in the <b>ocean</b>.</p>","","instructions","","","","","","","","","","","",""
"learning-instructions","296","1545092","0.0-4.0-0.1-0.3","spark_pilot_norest","8633","7","14","Male","","","","","","","4990.199999928474","<p><b>New</b> animals with <b>new</b> treasure chests live here. You need to explore to discover where the animal with the best treasure chest is.</p>
                    <p> Like before, once you figure out which animal has the chest with the most treasure, you should try to get to that animal and select that chest! </p>","","instructions","","","","","","","","","","","",""
"learning-instructions","297","1582617","0.0-4.0-1.1-0.1","spark_pilot_norest","8633","7","14","Male","","","","","","","22795.900000095367","<p> Remember, when you see a picture of the place, use the up and down keys to <b>find an animal</b>.</p>
            <p> When you encounter an animal, you should use the left and right keys to <b>select a treasure chest</b>.</p>
            <p> Don't forget to look out for the robber! </p>","","instructions","","","","","","","","","","","",""
"revaluation","298","1588629","0.0-4.0-2.1-0.50","spark_pilot_norest","8633","7","14","Male","","false","","","","","[1995.7000000476837,839.5]","./assets/img/ocean/memory/30.jpg","[""ArrowDown"",""ArrowRight""]","value training","ocean","17","{""ArrowUp,ArrowLeft"":26,""ArrowUp,ArrowRight"":10,""ArrowDown,ArrowLeft"":5,""ArrowDown,ArrowRight"":17}","false","ArrowDown,ArrowRight","false","revaluation","2","0","","",""
"html-keyboard-response","299","1589135","0.0-4.0-2.1-1.50","spark_pilot_norest","8633","7","14","Male","","","","","","","null","<div style=""font-size:60px;"">+</div>","null","fixation","","","","","","","","","1","","",""
"revaluation","300","1595157","0.0-4.0-2.1-0.51","spark_pilot_norest","8633","7","14","Male","","false","","","","","[904.8999999761581,507.09999990463257]","./assets/img/ocean/memory/41.jpg","[""ArrowUp"",""ArrowRight""]","value training","ocean","10","{""ArrowUp,ArrowLeft"":26,""ArrowUp,ArrowRight"":10,""ArrowDown,ArrowLeft"":5,""ArrowDown,ArrowRight"":17}","false","ArrowUp,ArrowRight","false","revaluation","2","2","","",""
"html-keyboard-response","301","1595662","0.0-4.0-2.1-1.51","spark_pilot_norest","8633","7","14","Male","","","","","","","null","<div style=""font-size:60px;"">+</div>","null","fixation","","","","","","","","","3","","",""
"revaluation","302","1601687","0.0-4.0-2.1-0.52","spark_pilot_norest","8633","7","14","Male","","false","","","","","[616.6999999284744,337.89999997615814]","./assets/img/ocean/memory/34.jpg","[""ArrowUp"",""ArrowLeft""]","value training","ocean","26","{""ArrowUp,ArrowLeft"":26,""ArrowUp,ArrowRight"":10,""ArrowDown,ArrowLeft"":5,""ArrowDown,ArrowRight"":17}","true","ArrowUp,ArrowLeft","false","revaluation","2","4","","",""
"html-keyboard-response","303","1602191","0.0-4.0-2.1-1.52","spark_pilot_norest","8633","7","14","Male","","","","","","","null","<div style=""font-size:60px;"">+</div>","null","fixation","","","","","","","","","5","","",""
"revaluation","304","1608217","0.0-4.0-2.1-0.53","spark_pilot_norest","8633","7","14","Male","","false","","","","","[588,457.6999999284744]","./assets/img/ocean/memory/25.jpg","[""ArrowDown"",""ArrowLeft""]","value training","ocean","5","{""ArrowUp,ArrowLeft"":26,""ArrowUp,ArrowRight"":10,""ArrowDown,ArrowLeft"":5,""ArrowDown,ArrowRight"":17}","false","ArrowDown,ArrowLeft","false","revaluation","2","6","","",""
"html-keyboard-response","305","1608720","0.0-4.0-2.1-1.53","spark_pilot_norest","8633","7","14","Male","","","","","","","null","<div style=""font-size:60px;"">+</div>","null","fixation","","","","","","","","","7","","",""
"revaluation","306","1614748","0.0-4.0-2.1-0.54","spark_pilot_norest","8633","7","14","Male","","false","","","","","[984.7000000476837,408.1999999284744]","./assets/img/ocean/memory/3.jpg","[""ArrowUp"",""ArrowLeft""]","value training","ocean","26","{""ArrowUp,ArrowLeft"":26,""ArrowUp,ArrowRight"":10,""ArrowDown,ArrowLeft"":5,""ArrowDown,ArrowRight"":17}","true","ArrowUp,ArrowLeft","false","revaluation","2","8","","",""
"html-keyboard-response","307","1615252","0.0-4.0-2.1-1.54","spark_pilot_norest","8633","7","14","Male","","","","","","","null","<div style=""font-size:60px;"">+</div>","null","fixation","","","","","","","","","9","","",""
"revaluation","308","1621270","0.0-4.0-2.1-0.55","spark_pilot_norest","8633","7","14","Male","","false","","","","","[472.3000000715256,428.89999997615814]","./assets/img/ocean/memory/22.jpg","[""ArrowDown"",""ArrowRight""]","value training","ocean","17","{""ArrowUp,ArrowLeft"":26,""ArrowUp,ArrowRight"":10,""ArrowDown,ArrowLeft"":5,""ArrowDown,ArrowRight"":17}","false","ArrowDown,ArrowRight","false","revaluation","2","10","","",""
"html-keyboard-response","309","1621775","0.0-4.0-2.1-1.55","spark_pilot_norest","8633","7","14","Male","","","","","","","null","<div style=""font-size:60px;"">+</div>","null","fixation","","","","","","","","","11","","",""
"revaluation","310","1627801","0.0-4.0-2.1-0.56","spark_pilot_norest","8633","7","14","Male","","false","","","","","[487.2000000476837,403.10000002384186]","./assets/img/ocean/memory/30.jpg","[""ArrowUp"",""ArrowLeft""]","value training","ocean","26","{""ArrowUp,ArrowLeft"":26,""ArrowUp,ArrowRight"":10,""ArrowDown,ArrowLeft"":5,""ArrowDown,ArrowRight"":17}","true","ArrowUp,ArrowLeft","false","revaluation","2","12","","",""
"html-keyboard-response","311","1628305","0.0-4.0-2.1-1.56","spark_pilot_norest","8633","7","14","Male","","","","","","","null","<div style=""font-size:60px;"">+</div>","null","fixation","","","","","","","","","13","","",""
"revaluation","312","1632335","0.0-4.0-2.1-0.57","spark_pilot_norest","8633","7","14","Male","","false","","","","","[1086.1000000238419]","./assets/img/ocean/catch/1.jpg","[""spaceBar""]","value training","ocean","0","{""ArrowUp,ArrowLeft"":26,""ArrowUp,ArrowRight"":10,""ArrowDown,ArrowLeft"":5,""ArrowDown,ArrowRight"":17}","true","spaceBar","true","revaluation","2","14","","",""
"html-keyboard-response","313","1632839","0.0-4.0-2.1-1.57","spark_pilot_norest","8633","7","14","Male","","","","","","","null","<div style=""font-size:60px;"">+</div>","null","fixation","","","","","","","","","15","","",""
