"trial_type","trial_index","time_elapsed","internal_node_id","task_version","subject_id","assigned_condition","age","gender","success","timeout","failed_images","failed_audio","failed_video","browser_interaction","value","rt","stimulus","response","task_part","environment","score","rewardMap","correct","fullState","isCatch","condition","order","trial_num","key_press","ground_truth","bonus"
"pavlovia","0","1639","0.0-0.0","spark_pilot_norest","11480","2","17","Male","","","","","","","","","","","","","","","","","","","","","","",""
"preload","1","25119","0.0-1.0","spark_pilot_norest","11480","2","17","Male","true","false","[]","[]","[]","[{""event"":""fullscreenenter"",""trial"":2,""time"":37981}]","","","","","","","","","","","","","","","","",""
"fullscreen","2","38905","0.0-2.0","spark_pilot_norest","11480","2","17","Male","true","","","","","","","","","","","","","","","","","","","","","",""
"call-function","3","47340","0.0-3.0","spark_pilot_norest","11480","2","17","Male","","","","","","","","","","","","","","","","","","","","","","",""
"audio-button-response","4","49560","0.0-4.0-0.0-0.0","spark_pilot_norest","11480","2","17","Male","","","","","","","","2203","./assets/audio/audiotest/turtle.mp3","2","audio_test","","","","","","","","","","","",""
"learning-instructions","5","60530","0.0-4.0-1.0-0.0","spark_pilot_norest","11480","2","17","Male","","","","","","","","4006","<p> Welcome! Please remember to stay in fullscreen mode and don't click away from the experiment. </p>","","instructions","","","","","","","","","","","",""
"learning-instructions","6","79822","0.0-4.0-1.0-0.1","spark_pilot_norest","11480","2","17","Male","","","","","","","","10900","<p> Today you will be playing a game to earn treasure. </p>
            <p> At the end of the experiment, you will earn a bonus based on how much treasure you find. </p>
            <img src='./assets/img/instructions/treasure.jpg' class='instructions-image'>","","instructions","","","","","","","","","","","",""
"learning-instructions","7","90417","0.0-4.0-1.0-0.2","spark_pilot_norest","11480","2","17","Male","","","","","","","","2354.0000000000146","<p> Animals have hidden treasure in treasure chests. </p>
            <p> You need to first find an animal and then choose which of their treasure chests to search. </p>
            <img src='./assets/img/space/animals/cat.jpg' class='instructions-image'>","","instructions","","","","","","","","","","","",""
"learning-instructions","8","108695","0.0-4.0-1.0-0.3","spark_pilot_norest","11480","2","17","Male","","","","","","","","2043","<p> In each round, you will search for treasure in a different place. In the real game, there will be two rounds. </p>
            <p> You will begin with a separate, practice round where you will search for treasure in outer space. </p>
            <img src='./assets/img/space/0.jpg' class='instructions-image'>","","instructions","","","","","","","","","","","",""
"learning-instructions","9","122551","0.0-4.0-1.0-0.4","spark_pilot_norest","11480","2","17","Male","","","","","","","","1245","<p> On every turn, you will see a picture of the place that you are in, but the specific image may be different each time. </p>
            <p> For example, both of these images mean you are in outer space. </p>
            <img src='./assets/img/instructions/outerspace.jpg' class='instructions-image'>","","instructions","","","","","","","","","","","",""
"learning-instructions","10","131433","0.0-4.0-1.0-0.5","spark_pilot_norest","11480","2","17","Male","","","","","","","","1073","<p> You need to decide which direction to travel in. </p>
            <p> You can choose between going <b>up or down</b> by using the arrow keys. </p>
            <img src='./assets/img/instructions/updown.jpg' class='instructions-image'>","","instructions","","","","","","","","","","","",""
"learning-instructions","11","141282","0.0-4.0-1.0-0.6","spark_pilot_norest","11480","2","17","Male","","","","","","","","1058","<p> You will have <b>2 seconds</b> to make your choice. </p>
            <p> If you do not make a choice within 2 seconds, you will not find an animal or earn treasure. </p>
            <img src='./assets/img/instructions/2seconds.jpg' class='instructions-image'>","","instructions","","","","","","","","","","","",""
"learning-instructions","12","149058","0.0-4.0-1.0-0.7","spark_pilot_norest","11480","2","17","Male","","","","","","","","758","<p> Let’s try practicing that now! </p>
            <p> When you see a picture of the place you are in, press the <b>up</b> key to travel up. </p>
            <img src='./assets/img/instructions/pressUp.jpg' class='instructions-image'>","","instructions","","","","","","","","","","","",""
"revaluation","13","153078","0.0-4.0-2.0-0.0","spark_pilot_norest","11480","2","17","Male","","false","","","","","","[610]","./assets/img/space/0.jpg","[""ArrowUp""]","first stage practice","space","0","null","null","ArrowUp","false","","","","","",""
"html-keyboard-response","14","153581","0.0-4.0-2.0-1.0","spark_pilot_norest","11480","2","17","Male","","","","","","","","null","<div style=""font-size:60px;"">+</div>","null","fixation","","","","","","","","","","","",""
"revaluation","15","157594","0.0-4.0-2.0-0.1","spark_pilot_norest","11480","2","17","Male","","false","","","","","","[726]","./assets/img/space/1.jpg","[""ArrowUp""]","first stage practice","space","0","null","null","ArrowUp","false","","","","","",""
"html-keyboard-response","16","158096","0.0-4.0-2.0-1.1","spark_pilot_norest","11480","2","17","Male","","","","","","","","null","<div style=""font-size:60px;"">+</div>","null","fixation","","","","","","","","","","","",""
"revaluation","17","162108","0.0-4.0-2.0-0.2","spark_pilot_norest","11480","2","17","Male","","false","","","","","","[861]","./assets/img/space/2.jpg","[""ArrowUp""]","first stage practice","space","0","null","null","ArrowUp","false","","","","","",""
"html-keyboard-response","18","162610","0.0-4.0-2.0-1.2","spark_pilot_norest","11480","2","17","Male","","","","","","","","null","<div style=""font-size:60px;"">+</div>","null","fixation","","","","","","","","","","","",""
"learning-instructions","19","168888","0.0-4.0-3.0-0.0","spark_pilot_norest","11480","2","17","Male","","","","","","","","1589","<p> Great job! Now try pressing the <b>down</b> key to travel down. </p>
            <img src='./assets/img/instructions/pressDown.jpg' class='instructions-image'>","","instructions","","","","","","","","","","","",""
"revaluation","20","172900","0.0-4.0-4.0-0.0","spark_pilot_norest","11480","2","17","Male","","false","","","","","","[538]","./assets/img/space/3.jpg","[""ArrowDown""]","first stage practice","space","0","null","null","ArrowDown","false","","","","","",""
"html-keyboard-response","21","173401","0.0-4.0-4.0-1.0","spark_pilot_norest","11480","2","17","Male","","","","","","","","null","<div style=""font-size:60px;"">+</div>","null","fixation","","","","","","","","","","","",""
"revaluation","22","177412","0.0-4.0-4.0-0.1","spark_pilot_norest","11480","2","17","Male","","false","","","","","","[700]","./assets/img/space/4.jpg","[""ArrowDown""]","first stage practice","space","0","null","null","ArrowDown","false","","","","","",""
"html-keyboard-response","23","177913","0.0-4.0-4.0-1.1","spark_pilot_norest","11480","2","17","Male","","","","","","","","null","<div style=""font-size:60px;"">+</div>","null","fixation","","","","","","","","","","","",""
"revaluation","24","181926","0.0-4.0-4.0-0.2","spark_pilot_norest","11480","2","17","Male","","true","","","","","","[]","./assets/img/space/5.jpg","[]","first stage practice","space","-5","null","null","","false","","","","","",""
"html-keyboard-response","25","182427","0.0-4.0-4.0-1.2","spark_pilot_norest","11480","2","17","Male","","","","","","","","null","<div style=""font-size:60px;"">+</div>","null","fixation","","","","","","","","","","","",""
"learning-instructions","26","193809","0.0-4.0-5.0-0.0","spark_pilot_norest","11480","2","17","Male","","","","","","","","1553","<p> The animals don’t move, so the animal in the upper part of a place will stay in the upper part of a place, and the animal in the lower part of a place will stay in the lower part of a place. </p>","","instructions","","","","","","","","","","","",""
"learning-instructions","27","204750","0.0-4.0-5.0-0.1","spark_pilot_norest","11480","2","17","Male","","","","","","","","1831","<p> Each animal has two treasure chests for you to choose from. </p>
            <p> The amount of treasure in each chest can range from <b> 0 to 40 pieces.</b></p>","","instructions","","","","","","","","","","","",""
"learning-instructions","28","220278","0.0-4.0-5.0-0.2","spark_pilot_norest","11480","2","17","Male","","","","","","","","773","<p> You should decide which chest to search for treasure by using the <b>left</b> and <b>right</b> arrow keys. </p>
            <p><b> Pay attention to which animal is on the screen, as the animals have different treasure chests. </b></p>
            <img src='./assets/img/instructions/leftright.jpg' class='instructions-image'>","","instructions","","","","","","","","","","","",""
"learning-instructions","29","227469","0.0-4.0-5.0-0.3","spark_pilot_norest","11480","2","17","Male","","","","","","","","840.9999999999709","<p> Let’s try practicing that now. </p>
            <p> When you see an animal, choose which chest to search for treasure. </p>
            <img src='./assets/img/instructions/chooseChest.jpg' class='instructions-image'>","","instructions","","","","","","","","","","","",""
"revaluation","30","231480","0.0-4.0-6.0-0.0","spark_pilot_norest","11480","2","17","Male","","false","","","","","","[650.0000000000291]","./assets/img/space/animals/cat.jpg","[""ArrowRight""]","second stage practice","space","36","{""ArrowUp,ArrowLeft"":3,""ArrowUp,ArrowRight"":36,""ArrowDown,ArrowLeft"":15,""ArrowDown,ArrowRight"":23}","true","ArrowUp,ArrowRight","","","","","","",""
"html-keyboard-response","31","231982","0.0-4.0-6.0-1.0","spark_pilot_norest","11480","2","17","Male","","","","","","","","null","<div style=""font-size:60px;"">+</div>","null","fixation","","","","","","","","","","","",""
"revaluation","32","235996","0.0-4.0-6.0-0.1","spark_pilot_norest","11480","2","17","Male","","false","","","","","","[679]","./assets/img/space/animals/rabbit.jpg","[""ArrowLeft""]","second stage practice","space","15","{""ArrowUp,ArrowLeft"":3,""ArrowUp,ArrowRight"":36,""ArrowDown,ArrowLeft"":15,""ArrowDown,ArrowRight"":23}","false","ArrowDown,ArrowLeft","","","","","","",""
"html-keyboard-response","33","236498","0.0-4.0-6.0-1.1","spark_pilot_norest","11480","2","17","Male","","","","","","","","null","<div style=""font-size:60px;"">+</div>","null","fixation","","","","","","","","","","","",""
"revaluation","34","240513","0.0-4.0-6.0-0.2","spark_pilot_norest","11480","2","17","Male","","false","","","","","","[1008]","./assets/img/space/animals/cat.jpg","[""ArrowRight""]","second stage practice","space","36","{""ArrowUp,ArrowLeft"":3,""ArrowUp,ArrowRight"":36,""ArrowDown,ArrowLeft"":15,""ArrowDown,ArrowRight"":23}","true","ArrowUp,ArrowRight","","","","","","",""
"html-keyboard-response","35","241015","0.0-4.0-6.0-1.2","spark_pilot_norest","11480","2","17","Male","","","","","","","","null","<div style=""font-size:60px;"">+</div>","null","fixation","","","","","","","","","","","",""
"revaluation","36","245028","0.0-4.0-6.0-0.3","spark_pilot_norest","11480","2","17","Male","","false","","","","","","[328.9999999999709]","./assets/img/space/animals/rabbit.jpg","[""ArrowRight""]","second stage practice","space","23","{""ArrowUp,ArrowLeft"":3,""ArrowUp,ArrowRight"":36,""ArrowDown,ArrowLeft"":15,""ArrowDown,ArrowRight"":23}","true","ArrowDown,ArrowRight","","","","","","",""
"html-keyboard-response","37","245529","0.0-4.0-6.0-1.3","spark_pilot_norest","11480","2","17","Male","","","","","","","","null","<div style=""font-size:60px;"">+</div>","null","fixation","","","","","","","","","","","",""
"learning-instructions","38","265040","0.0-4.0-7.0-0.0","spark_pilot_norest","11480","2","17","Male","","","","","","","","1059.0000000000582","<p> Great job. Now let’s try putting it together. </p>
            <p> On each turn, you will first see a picture to remind you of the place you are in, and you need to choose whether to go up or down. </p>
            <p> Then you will see an animal and choose which of its chests to search for treasure. </p>","","instructions","","","","","","","","","","","",""
"learning-instructions","39","274066","0.0-4.0-7.0-0.1","spark_pilot_norest","11480","2","17","Male","","","","","","","","786","<p> When you choose whether to go up or down, try to go to the animal with the chest with the most treasure. </p>
            <p> Try practicing that now! </p>","","instructions","","","","","","","","","","","",""
"revaluation","40","280077","0.0-4.0-8.0-0.0","spark_pilot_norest","11480","2","17","Male","","false","","","","","","[640,703.9999999999418]","./assets/img/space/6.jpg","[""ArrowDown"",""ArrowRight""]","full practice","space","23","{""ArrowUp,ArrowLeft"":3,""ArrowUp,ArrowRight"":36,""ArrowDown,ArrowLeft"":15,""ArrowDown,ArrowRight"":23}","false","ArrowDown,ArrowRight","false","","","","","",""
"html-keyboard-response","41","280579","0.0-4.0-8.0-1.0","spark_pilot_norest","11480","2","17","Male","","","","","","","","null","<div style=""font-size:60px;"">+</div>","null","fixation","","","","","","","","","","","",""
"revaluation","42","286590","0.0-4.0-8.0-0.1","spark_pilot_norest","11480","2","17","Male","","false","","","","","","[490,830]","./assets/img/space/7.jpg","[""ArrowUp"",""ArrowRight""]","full practice","space","36","{""ArrowUp,ArrowLeft"":3,""ArrowUp,ArrowRight"":36,""ArrowDown,ArrowLeft"":15,""ArrowDown,ArrowRight"":23}","true","ArrowUp,ArrowRight","false","","","","","",""
"html-keyboard-response","43","287092","0.0-4.0-8.0-1.1","spark_pilot_norest","11480","2","17","Male","","","","","","","","null","<div style=""font-size:60px;"">+</div>","null","fixation","","","","","","","","","","","",""
"revaluation","44","293106","0.0-4.0-8.0-0.2","spark_pilot_norest","11480","2","17","Male","","false","","","","","","[753,330]","./assets/img/space/8.jpg","[""ArrowDown"",""ArrowLeft""]","full practice","space","15","{""ArrowUp,ArrowLeft"":3,""ArrowUp,ArrowRight"":36,""ArrowDown,ArrowLeft"":15,""ArrowDown,ArrowRight"":23}","false","ArrowDown,ArrowLeft","false","","","","","",""
"html-keyboard-response","45","293608","0.0-4.0-8.0-1.2","spark_pilot_norest","11480","2","17","Male","","","","","","","","null","<div style=""font-size:60px;"">+</div>","null","fixation","","","","","","","","","","","",""
"revaluation","46","299628","0.0-4.0-8.0-0.3","spark_pilot_norest","11480","2","17","Male","","false","","","","","","[703.0000000000582,559]","./assets/img/space/9.jpg","[""ArrowUp"",""ArrowRight""]","full practice","space","36","{""ArrowUp,ArrowLeft"":3,""ArrowUp,ArrowRight"":36,""ArrowDown,ArrowLeft"":15,""ArrowDown,ArrowRight"":23}","true","ArrowUp,ArrowRight","false","","","","","",""
"html-keyboard-response","47","300130","0.0-4.0-8.0-1.3","spark_pilot_norest","11480","2","17","Male","","","","","","","","null","<div style=""font-size:60px;"">+</div>","null","fixation","","","","","","","","","","","",""
"revaluation","48","306142","0.0-4.0-8.0-0.4","spark_pilot_norest","11480","2","17","Male","","false","","","","","","[666.9999999999418,252]","./assets/img/space/10.jpg","[""ArrowDown"",""ArrowRight""]","full practice","space","23","{""ArrowUp,ArrowLeft"":3,""ArrowUp,ArrowRight"":36,""ArrowDown,ArrowLeft"":15,""ArrowDown,ArrowRight"":23}","false","ArrowDown,ArrowRight","false","","","","","",""
"html-keyboard-response","49","306644","0.0-4.0-8.0-1.4","spark_pilot_norest","11480","2","17","Male","","","","","","","","null","<div style=""font-size:60px;"">+</div>","null","fixation","","","","","","","","","","","",""
"learning-instructions","50","335942","0.0-4.0-9.0-0.0","spark_pilot_norest","11480","2","17","Male","","","","","","","","19010","<p> One last thing: sometimes, you will see a robber. The robber can be anywhere in the picture. </p>
            <p> If you do not stop them, you will lose treasure. </p>
            <img src='./assets/img/instructions/robber.jpg' class='instructions-image'>","","instructions","","","","","","","","","","","",""
"learning-instructions","51","344701","0.0-4.0-9.0-0.1","spark_pilot_norest","11480","2","17","Male","","","","","","","","1612.0000000000582","<p> If you see the robber, you should <b>press the space bar</b> rather than using the arrow keys. </p>
            <p> Try practicing that now! </p>","","instructions","","","","","","","","","","","",""
"revaluation","52","348712","0.0-4.0-10.0-0.0","spark_pilot_norest","11480","2","17","Male","","false","","","","","","[818]","./assets/img/space/catch/0.jpg","[""ArrowUp""]","catch practice","space","-10","{""ArrowUp,ArrowLeft"":3,""ArrowUp,ArrowRight"":36,""ArrowDown,ArrowLeft"":15,""ArrowDown,ArrowRight"":23}","false","ArrowUp","true","","","","","",""
"html-keyboard-response","53","349214","0.0-4.0-10.0-1.0","spark_pilot_norest","11480","2","17","Male","","","","","","","","null","<div style=""font-size:60px;"">+</div>","null","fixation","","","","","","","","","","","",""
"revaluation","54","353225","0.0-4.0-10.0-0.1","spark_pilot_norest","11480","2","17","Male","","false","","","","","","[584]","./assets/img/space/catch/1.jpg","[""spaceBar""]","catch practice","space","0","{""ArrowUp,ArrowLeft"":3,""ArrowUp,ArrowRight"":36,""ArrowDown,ArrowLeft"":15,""ArrowDown,ArrowRight"":23}","true","spaceBar","true","","","","","",""
"html-keyboard-response","55","353726","0.0-4.0-10.0-1.1","spark_pilot_norest","11480","2","17","Male","","","","","","","","null","<div style=""font-size:60px;"">+</div>","null","fixation","","","","","","","","","","","",""
"revaluation","56","357737","0.0-4.0-10.0-0.2","spark_pilot_norest","11480","2","17","Male","","false","","","","","","[413]","./assets/img/space/catch/2.jpg","[""spaceBar""]","catch practice","space","0","{""ArrowUp,ArrowLeft"":3,""ArrowUp,ArrowRight"":36,""ArrowDown,ArrowLeft"":15,""ArrowDown,ArrowRight"":23}","true","spaceBar","true","","","","","",""
"html-keyboard-response","57","358238","0.0-4.0-10.0-1.2","spark_pilot_norest","11480","2","17","Male","","","","","","","","null","<div style=""font-size:60px;"">+</div>","null","fixation","","","","","","","","","","","",""
"learning-instructions","58","364969","0.0-4.0-11.0-0.0-0.0","spark_pilot_norest","11480","2","17","Male","","","","","","","","1502.0000000000582","<p> Now, you will practice a shortened version of the game to get a sense of how it all fits together. </p>","","instructions","","","","","","","","","","","",""
"learning-instructions","59","369079","0.0-4.0-11.0-0.0-0.1","spark_pilot_norest","11480","2","17","Male","","","","","","","","933","<p>This time you are searching for treasure in outer space.</p>","","instructions","","","","","","","","","","","",""
"learning-instructions","60","384764","0.0-4.0-11.0-1.0-0.0","spark_pilot_norest","11480","2","17","Male","","","","","","","","920","<p> Remember, when you see a picture of the place, use the up and down keys to <b>find an animal</b>.</p>
            <p> When you encounter an animal, you should use the left and right keys to <b>select a treasure chest</b>.</p>
            <p> Don't forget to look out for the robber! </p>","","instructions","","","","","","","","","","","",""
"revaluation","61","390778","0.0-4.0-11.0-2.0-0.0","spark_pilot_norest","11480","2","17","Male","","false","","","","","","[814,365]","./assets/img/space/11.jpg","[""ArrowUp"",""ArrowRight""]","practice block","space","36","{""ArrowUp,ArrowLeft"":3,""ArrowUp,ArrowRight"":36,""ArrowDown,ArrowLeft"":15,""ArrowDown,ArrowRight"":23}","true","ArrowUp,ArrowRight","false","","","","","",""
"html-keyboard-response","62","391281","0.0-4.0-11.0-2.0-1.0","spark_pilot_norest","11480","2","17","Male","","","","","","","","null","<div style=""font-size:60px;"">+</div>","null","fixation","","","","","","","","","","","",""
"revaluation","63","397293","0.0-4.0-11.0-2.0-0.1","spark_pilot_norest","11480","2","17","Male","","false","","","","","","[687,392]","./assets/img/space/12.jpg","[""ArrowUp"",""ArrowRight""]","practice block","space","36","{""ArrowUp,ArrowLeft"":3,""ArrowUp,ArrowRight"":36,""ArrowDown,ArrowLeft"":15,""ArrowDown,ArrowRight"":23}","true","ArrowUp,ArrowRight","false","","","","","",""
"html-keyboard-response","64","397795","0.0-4.0-11.0-2.0-1.1","spark_pilot_norest","11480","2","17","Male","","","","","","","","null","<div style=""font-size:60px;"">+</div>","null","fixation","","","","","","","","","","","",""
"revaluation","65","403808","0.0-4.0-11.0-2.0-0.2","spark_pilot_norest","11480","2","17","Male","","false","","","","","","[1057,293]","./assets/img/space/13.jpg","[""ArrowDown"",""ArrowRight""]","practice block","space","23","{""ArrowUp,ArrowLeft"":3,""ArrowUp,ArrowRight"":36,""ArrowDown,ArrowLeft"":15,""ArrowDown,ArrowRight"":23}","false","ArrowDown,ArrowRight","false","","","","","",""
"html-keyboard-response","66","404309","0.0-4.0-11.0-2.0-1.2","spark_pilot_norest","11480","2","17","Male","","","","","","","","null","<div style=""font-size:60px;"">+</div>","null","fixation","","","","","","","","","","","",""
"revaluation","67","410321","0.0-4.0-11.0-2.0-0.3","spark_pilot_norest","11480","2","17","Male","","false","","","","","","[574.9999999999418,291]","./assets/img/space/14.jpg","[""ArrowUp"",""ArrowRight""]","practice block","space","36","{""ArrowUp,ArrowLeft"":3,""ArrowUp,ArrowRight"":36,""ArrowDown,ArrowLeft"":15,""ArrowDown,ArrowRight"":23}","true","ArrowUp,ArrowRight","false","","","","","",""
"html-keyboard-response","68","410823","0.0-4.0-11.0-2.0-1.3","spark_pilot_norest","11480","2","17","Male","","","","","","","","null","<div style=""font-size:60px;"">+</div>","null","fixation","","","","","","","","","","","",""
"revaluation","69","416838","0.0-4.0-11.0-2.0-0.4","spark_pilot_norest","11480","2","17","Male","","false","","","","","","[517.9999999999418,247]","./assets/img/space/11.jpg","[""ArrowDown"",""ArrowLeft""]","practice block","space","15","{""ArrowUp,ArrowLeft"":3,""ArrowUp,ArrowRight"":36,""ArrowDown,ArrowLeft"":15,""ArrowDown,ArrowRight"":23}","false","ArrowDown,ArrowLeft","false","","","","","",""
"html-keyboard-response","70","417339","0.0-4.0-11.0-2.0-1.4","spark_pilot_norest","11480","2","17","Male","","","","","","","","null","<div style=""font-size:60px;"">+</div>","null","fixation","","","","","","","","","","","",""
"revaluation","71","423353","0.0-4.0-11.0-2.0-0.5","spark_pilot_norest","11480","2","17","Male","","false","","","","","","[673,272]","./assets/img/space/12.jpg","[""ArrowUp"",""ArrowLeft""]","practice block","space","3","{""ArrowUp,ArrowLeft"":3,""ArrowUp,ArrowRight"":36,""ArrowDown,ArrowLeft"":15,""ArrowDown,ArrowRight"":23}","false","ArrowUp,ArrowLeft","false","","","","","",""
"html-keyboard-response","72","423854","0.0-4.0-11.0-2.0-1.5","spark_pilot_norest","11480","2","17","Male","","","","","","","","null","<div style=""font-size:60px;"">+</div>","null","fixation","","","","","","","","","","","",""
"revaluation","73","429867","0.0-4.0-11.0-2.0-0.6","spark_pilot_norest","11480","2","17","Male","","false","","","","","","[416,240.9999999999418]","./assets/img/space/13.jpg","[""ArrowUp"",""ArrowRight""]","practice block","space","36","{""ArrowUp,ArrowLeft"":3,""ArrowUp,ArrowRight"":36,""ArrowDown,ArrowLeft"":15,""ArrowDown,ArrowRight"":23}","true","ArrowUp,ArrowRight","false","","","","","",""
"html-keyboard-response","74","430368","0.0-4.0-11.0-2.0-1.6","spark_pilot_norest","11480","2","17","Male","","","","","","","","null","<div style=""font-size:60px;"">+</div>","null","fixation","","","","","","","","","","","",""
"revaluation","75","436380","0.0-4.0-11.0-2.0-0.7","spark_pilot_norest","11480","2","17","Male","","false","","","","","","[941,319]","./assets/img/space/14.jpg","[""ArrowUp"",""ArrowRight""]","practice block","space","36","{""ArrowUp,ArrowLeft"":3,""ArrowUp,ArrowRight"":36,""ArrowDown,ArrowLeft"":15,""ArrowDown,ArrowRight"":23}","true","ArrowUp,ArrowRight","false","","","","","",""
"html-keyboard-response","76","436880","0.0-4.0-11.0-2.0-1.7","spark_pilot_norest","11480","2","17","Male","","","","","","","","null","<div style=""font-size:60px;"">+</div>","null","fixation","","","","","","","","","","","",""
"revaluation","77","440893","0.0-4.0-11.0-2.0-0.8","spark_pilot_norest","11480","2","17","Male","","false","","","","","","[692.9999999999418]","./assets/img/space/catch/3.jpg","[""spaceBar""]","practice block","space","0","{""ArrowUp,ArrowLeft"":3,""ArrowUp,ArrowRight"":36,""ArrowDown,ArrowLeft"":15,""ArrowDown,ArrowRight"":23}","true","spaceBar","true","","","","","",""
"html-keyboard-response","78","441394","0.0-4.0-11.0-2.0-1.8","spark_pilot_norest","11480","2","17","Male","","","","","","","","null","<div style=""font-size:60px;"">+</div>","null","fixation","","","","","","","","","","","",""
"learning-instructions","79","455359","0.0-4.0-11.0-3.0-0.0","spark_pilot_norest","11480","2","17","Male","","","","","","","","947","<p> Now, you will travel with a friend who will choose whether you go up or down first. </p>
            <p> On these turns, you will just see the animal that they found. You will still get to choose which chest to search for treasure.</p>","","instructions","","","","","","","","","","","",""
"revaluation","80","459370","0.0-4.0-11.0-4.0-0.0","spark_pilot_norest","11480","2","17","Male","","false","","","","","","[1079.9999999999418]","./assets/img/space/animals/cat.jpg","[""ArrowRight""]","practice block","space","36","{""ArrowUp,ArrowLeft"":3,""ArrowUp,ArrowRight"":36,""ArrowDown,ArrowLeft"":15,""ArrowDown,ArrowRight"":23}","true","ArrowUp,ArrowRight","","","","","","",""
"html-keyboard-response","81","459873","0.0-4.0-11.0-4.0-1.0","spark_pilot_norest","11480","2","17","Male","","","","","","","","null","<div style=""font-size:60px;"">+</div>","null","fixation","","","","","","","","","","","",""
"revaluation","82","463887","0.0-4.0-11.0-4.0-0.1","spark_pilot_norest","11480","2","17","Male","","false","","","","","","[658]","./assets/img/space/animals/rabbit.jpg","[""ArrowLeft""]","practice block","space","15","{""ArrowUp,ArrowLeft"":3,""ArrowUp,ArrowRight"":36,""ArrowDown,ArrowLeft"":15,""ArrowDown,ArrowRight"":23}","false","ArrowDown,ArrowLeft","","","","","","",""
"html-keyboard-response","83","464390","0.0-4.0-11.0-4.0-1.1","spark_pilot_norest","11480","2","17","Male","","","","","","","","null","<div style=""font-size:60px;"">+</div>","null","fixation","","","","","","","","","","","",""
"revaluation","84","468401","0.0-4.0-11.0-4.0-0.2","spark_pilot_norest","11480","2","17","Male","","false","","","","","","[613]","./assets/img/space/animals/rabbit.jpg","[""ArrowRight""]","practice block","space","23","{""ArrowUp,ArrowLeft"":3,""ArrowUp,ArrowRight"":36,""ArrowDown,ArrowLeft"":15,""ArrowDown,ArrowRight"":23}","true","ArrowDown,ArrowRight","","","","","","",""
"html-keyboard-response","85","468903","0.0-4.0-11.0-4.0-1.2","spark_pilot_norest","11480","2","17","Male","","","","","","","","null","<div style=""font-size:60px;"">+</div>","null","fixation","","","","","","","","","","","",""
"revaluation","86","472916","0.0-4.0-11.0-4.0-0.3","spark_pilot_norest","11480","2","17","Male","","false","","","","","","[942]","./assets/img/space/animals/cat.jpg","[""ArrowRight""]","practice block","space","36","{""ArrowUp,ArrowLeft"":3,""ArrowUp,ArrowRight"":36,""ArrowDown,ArrowLeft"":15,""ArrowDown,ArrowRight"":23}","true","ArrowUp,ArrowRight","","","","","","",""
"html-keyboard-response","87","473418","0.0-4.0-11.0-4.0-1.3","spark_pilot_norest","11480","2","17","Male","","","","","","","","null","<div style=""font-size:60px;"">+</div>","null","fixation","","","","","","","","","","","",""
"learning-instructions","88","481533","0.0-4.0-11.0-5.0-0.0","spark_pilot_norest","11480","2","17","Male","","","","","","","","null","<p> You have almost finished this part of the game! </p>
            <p> We are going to ask you to make a few more choices. </p>","","instructions","","","","","","","","","","","",""
"learning-instructions","89","497537","0.0-4.0-11.0-5.0-0.1","spark_pilot_norest","11480","2","17","Male","","","","","","","","null","<p> First, you need to decide whether to go up or down. When you see each picture, use the arrow keys to make your choice. </p>
            <p><b>You will not see which animal you found, but try to get to the one that will give you the most treasure.</b></p>","","instructions","","","","","","","","","","","",""
"html-keyboard-response","90","498539","0.0-4.0-11.0-6.0-0.0","spark_pilot_norest","11480","2","17","Male","","","","","","","","null","<div style=""font-size:100px;color:red;"">Starting in...</div>","null","","","","","","","","","","","","",""
"html-keyboard-response","91","499541","0.0-4.0-11.0-6.0-1.0","spark_pilot_norest","11480","2","17","Male","","","","","","","","null","<div style=""font-size:200px;color:red;"">3</div>","null","","","","","","","","","","","","",""
"html-keyboard-response","92","500542","0.0-4.0-11.0-6.0-2.0","spark_pilot_norest","11480","2","17","Male","","","","","","","","null","<div style=""font-size:200px;color:red;"">2</div>","null","","","","","","","","","","","","",""
"html-keyboard-response","93","501544","0.0-4.0-11.0-6.0-3.0","spark_pilot_norest","11480","2","17","Male","","","","","","","","null","<div style=""font-size:200px;color:red;"">1</div>","null","","","","","","","","","","","","",""
"revaluation","94","501943","0.0-4.0-11.0-7.0","spark_pilot_norest","11480","2","17","Male","","false","","","","","","[384]","./assets/img/space/15.jpg","[""ArrowUp""]","practice block","space","0","{""ArrowUp,ArrowLeft"":3,""ArrowUp,ArrowRight"":36,""ArrowDown,ArrowLeft"":15,""ArrowDown,ArrowRight"":23}","true","ArrowUp","false","","","","","",""
"html-keyboard-response","95","502445","0.0-4.0-11.0-8.0","spark_pilot_norest","11480","2","17","Male","","","","","","","","null","<div style=""font-size:60px;"">+</div>","null","fixation","","","","","","","","","","","",""
"learning-instructions","96","517331","0.0-4.0-11.0-9.0-0.0","spark_pilot_norest","11480","2","17","Male","","","","","","","","null","<p> Now you will see the animals again and can search their chests for treasure. </p>
            <p> This time, you will not see how much treasure you earned, but you will earn more bonus money for making better choices. </p>","","instructions","","","","","","","","","","","",""
"html-keyboard-response","97","518332","0.0-4.0-11.0-10.0-0.0","spark_pilot_norest","11480","2","17","Male","","","","","","","","null","<div style=""font-size:100px;color:red;"">Starting in...</div>","null","","","","","","","","","","","","",""
"html-keyboard-response","98","519334","0.0-4.0-11.0-10.0-1.0","spark_pilot_norest","11480","2","17","Male","","","","","","","","null","<div style=""font-size:200px;color:red;"">3</div>","null","","","","","","","","","","","","",""
"html-keyboard-response","99","520336","0.0-4.0-11.0-10.0-2.0","spark_pilot_norest","11480","2","17","Male","","","","","","","","null","<div style=""font-size:200px;color:red;"">2</div>","null","","","","","","","","","","","","",""
"html-keyboard-response","100","521337","0.0-4.0-11.0-10.0-3.0","spark_pilot_norest","11480","2","17","Male","","","","","","","","null","<div style=""font-size:200px;color:red;"">1</div>","null","","","","","","","","","","","","",""
"revaluation","101","521755","0.0-4.0-11.0-11.0-0.0","spark_pilot_norest","11480","2","17","Male","","false","","","","","","[407.9999999998836]","./assets/img/space/animals/cat.jpg","[""ArrowRight""]","practice block","space","0","{""ArrowUp,ArrowLeft"":3,""ArrowUp,ArrowRight"":36,""ArrowDown,ArrowLeft"":15,""ArrowDown,ArrowRight"":23}","true","ArrowUp,ArrowRight","","","","","","",""
"html-keyboard-response","102","522257","0.0-4.0-11.0-11.0-1.0","spark_pilot_norest","11480","2","17","Male","","","","","","","","null","<div style=""font-size:60px;"">+</div>","null","fixation","","","","","","","","","","","",""
"revaluation","103","523051","0.0-4.0-11.0-11.0-0.1","spark_pilot_norest","11480","2","17","Male","","false","","","","","","[784]","./assets/img/space/animals/rabbit.jpg","[""ArrowLeft""]","practice block","space","0","{""ArrowUp,ArrowLeft"":3,""ArrowUp,ArrowRight"":36,""ArrowDown,ArrowLeft"":15,""ArrowDown,ArrowRight"":23}","false","ArrowDown,ArrowLeft","","","","","","",""
"html-keyboard-response","104","523552","0.0-4.0-11.0-11.0-1.1","spark_pilot_norest","11480","2","17","Male","","","","","","","","null","<div style=""font-size:60px;"">+</div>","null","fixation","","","","","","","","","","","",""
"learning-instructions","105","529782","0.0-4.0-12.0-0.0","spark_pilot_norest","11480","2","17","Male","","","","","","","","1666","<p> Before you start, we're going to ask you a few questions about how the game works. </p>","","instructions","","","","","","","","","","","",""
"comp-q","106","536388","0.0-4.0-13.0-0.0-0.0","spark_pilot_norest","11480","2","17","Male","","","","","","","","1035","<p> <b> True or False? </b> </p>
            <p> There can be 50 pieces of treasure in a given animal's chest. </p>","1","comp_question","","","","true","","","","","","","",""
"comp-q","107","545483","0.0-4.0-13.0-0.0-1.0","spark_pilot_norest","11480","2","17","Male","","","","","","","","1483","<p> <b> That's right! </b> The amount of treasure in each chest can range from 0 to 40 pieces. </p>","0","comp_answer","","","","","","","","","","","",""
"comp-q","108","554242","0.0-4.0-13.0-0.1-0.1","spark_pilot_norest","11480","2","17","Male","","","","","","","","1657","<p> <b> True or False? </b> </p><p> In this game, all animals have the same amount of treasure in their left and right chests. </p>","1","comp_question","","","","true","","","","","","","",""
"comp-q","109","561212","0.0-4.0-13.0-0.1-1.1","spark_pilot_norest","11480","2","17","Male","","","","","","","","1744","<p> <b> That's right! </b> Animals have different amounts of treasure in their treasure chests. </p>","0","comp_answer","","","","","","","","","","","",""
"comp-q","110","567849","0.0-4.0-13.0-0.2-0.2","spark_pilot_norest","11480","2","17","Male","","","","","","","","807.9999999998836","<p> <b> True or False? </b> </p><p> The same animal will always be there if you go up in the same place. </p>","0","comp_question","","","","true","","","","","","","",""
"comp-q","111","575712","0.0-4.0-13.0-0.2-1.2","spark_pilot_norest","11480","2","17","Male","","","","","","","","1432","<p> <b> That's right! </b> One animal lives in the upper part and one lives in the lower part of every place. </p>","0","comp_answer","","","","","","","","","","","",""
"comp-q","112","581995","0.0-4.0-13.0-0.3-0.3","spark_pilot_norest","11480","2","17","Male","","","","","","","","774","<p> <b> True or False? </b> </p><p> If you see a different picture, it means you are in a new place. </p>","0","comp_question","","","","false","","","","","","","",""
"comp-q","113","594582","0.0-4.0-13.0-0.3-1.3","spark_pilot_norest","11480","2","17","Male","","","","","","","","1501.0000000001164","<p> <b>Incorrect.</b> Lots of different images may show the same place. For example,  you may see three different images that all remind you that you are in outer space. </p>","0","comp_answer","","","","","","","","","","","",""
"comp-q","114","600497","0.0-4.0-13.0-0.4-0.4","spark_pilot_norest","11480","2","17","Male","","","","","","","","413","<p> <b> True or False? </b> </p><p> If you see a different picture, it means you are in a new place. </p>","1","comp_question","","","","true","","","","","","","",""
"comp-q","115","613306","0.0-4.0-13.0-0.4-1.4","spark_pilot_norest","11480","2","17","Male","","","","","","","","1589","<p> <b> That's right! </b> Lots of different images may show the same place. For example,  you may see three different images that all remind you that you are in outer space. </p>","0","comp_answer","","","","","","","","","","","",""
"learning-instructions","116","624529","0.0-4.0-14.0-0.0","spark_pilot_norest","11480","2","17","Male","","","","","","","","1385","<p> Good job. Remember to do your best because the amount of treasure you earn will be converted into bonus money. </p>
            <p> It’s time to start the real game! </p>","","instructions","","","","","","","","","","","",""
"learning-instructions","117","629119","0.0-5.0-0.0-0.0","spark_pilot_norest","11480","2","17","Male","","","","","","","","1896","<p> This time you are searching for treasure in the <b>ocean</b>.</p>","","instructions","","","","","","","","","","","",""
"learning-instructions","118","648234","0.0-5.0-0.0-0.1","spark_pilot_norest","11480","2","17","Male","","","","","","","","1821","<p><b>New</b> animals with <b>new</b> treasure chests live here. You need to explore to discover where the animal with the best treasure chest is.</p>
                    <p> Like before, once you figure out which animal has the chest with the most treasure, you should try to get to that animal and select that chest! </p>","","instructions","","","","","","","","","","","",""
"learning-instructions","119","664279","0.0-5.0-1.0-0.0","spark_pilot_norest","11480","2","17","Male","","","","","","","","1315","<p> Remember, when you see a picture of the place, use the up and down keys to <b>find an animal</b>.</p>
            <p> When you encounter an animal, you should use the left and right keys to <b>select a treasure chest</b>.</p>
            <p> Don't forget to look out for the robber! </p>","","instructions","","","","","","","","","","","",""
"revaluation","120","670291","0.0-5.0-2.0-0.0","spark_pilot_norest","11480","2","17","Male","","false","","","","","","[822,841]","./assets/img/ocean/memory/38.jpg","[""ArrowDown"",""ArrowRight""]","value training","ocean","30","{""ArrowUp,ArrowLeft"":23,""ArrowUp,ArrowRight"":10,""ArrowDown,ArrowLeft"":8,""ArrowDown,ArrowRight"":30}","true","ArrowDown,ArrowRight","false","revaluation","1","0","","",""
"html-keyboard-response","121","670792","0.0-5.0-2.0-1.0","spark_pilot_norest","11480","2","17","Male","","","","","","","","null","<div style=""font-size:60px;"">+</div>","null","fixation","","","","","","","","","1","","",""
"revaluation","122","676806","0.0-5.0-2.0-0.1","spark_pilot_norest","11480","2","17","Male","","false","","","","","","[764,376.0000000001164]","./assets/img/ocean/memory/14.jpg","[""ArrowDown"",""ArrowLeft""]","value training","ocean","8","{""ArrowUp,ArrowLeft"":23,""ArrowUp,ArrowRight"":10,""ArrowDown,ArrowLeft"":8,""ArrowDown,ArrowRight"":30}","false","ArrowDown,ArrowLeft","false","revaluation","1","2","","",""
"html-keyboard-response","123","677307","0.0-5.0-2.0-1.1","spark_pilot_norest","11480","2","17","Male","","","","","","","","null","<div style=""font-size:60px;"">+</div>","null","fixation","","","","","","","","","3","","",""
"revaluation","124","683320","0.0-5.0-2.0-0.2","spark_pilot_norest","11480","2","17","Male","","false","","","","","","[593.0000000001164,637]","./assets/img/ocean/memory/34.jpg","[""ArrowUp"",""ArrowRight""]","value training","ocean","10","{""ArrowUp,ArrowLeft"":23,""ArrowUp,ArrowRight"":10,""ArrowDown,ArrowLeft"":8,""ArrowDown,ArrowRight"":30}","false","ArrowUp,ArrowRight","false","revaluation","1","4","","",""
"html-keyboard-response","125","683821","0.0-5.0-2.0-1.2","spark_pilot_norest","11480","2","17","Male","","","","","","","","null","<div style=""font-size:60px;"">+</div>","null","fixation","","","","","","","","","5","","",""
"revaluation","126","689834","0.0-5.0-2.0-0.3","spark_pilot_norest","11480","2","17","Male","","false","","","","","","[614,414]","./assets/img/ocean/memory/35.jpg","[""ArrowUp"",""ArrowLeft""]","value training","ocean","23","{""ArrowUp,ArrowLeft"":23,""ArrowUp,ArrowRight"":10,""ArrowDown,ArrowLeft"":8,""ArrowDown,ArrowRight"":30}","false","ArrowUp,ArrowLeft","false","revaluation","1","6","","",""
"html-keyboard-response","127","690335","0.0-5.0-2.0-1.3","spark_pilot_norest","11480","2","17","Male","","","","","","","","null","<div style=""font-size:60px;"">+</div>","null","fixation","","","","","","","","","7","","",""
"revaluation","128","696347","0.0-5.0-2.0-0.4","spark_pilot_norest","11480","2","17","Male","","false","","","","","","[604,374]","./assets/img/ocean/memory/36.jpg","[""ArrowDown"",""ArrowRight""]","value training","ocean","30","{""ArrowUp,ArrowLeft"":23,""ArrowUp,ArrowRight"":10,""ArrowDown,ArrowLeft"":8,""ArrowDown,ArrowRight"":30}","true","ArrowDown,ArrowRight","false","revaluation","1","8","","",""
"html-keyboard-response","129","696849","0.0-5.0-2.0-1.4","spark_pilot_norest","11480","2","17","Male","","","","","","","","null","<div style=""font-size:60px;"">+</div>","null","fixation","","","","","","","","","9","","",""
"revaluation","130","702861","0.0-5.0-2.0-0.5","spark_pilot_norest","11480","2","17","Male","","false","","","","","","[462,330]","./assets/img/ocean/memory/37.jpg","[""ArrowDown"",""ArrowRight""]","value training","ocean","30","{""ArrowUp,ArrowLeft"":23,""ArrowUp,ArrowRight"":10,""ArrowDown,ArrowLeft"":8,""ArrowDown,ArrowRight"":30}","true","ArrowDown,ArrowRight","false","revaluation","1","10","","",""
"html-keyboard-response","131","703363","0.0-5.0-2.0-1.5","spark_pilot_norest","11480","2","17","Male","","","","","","","","null","<div style=""font-size:60px;"">+</div>","null","fixation","","","","","","","","","11","","",""
"revaluation","132","707378","0.0-5.0-2.0-0.6","spark_pilot_norest","11480","2","17","Male","","false","","","","","","[674]","./assets/img/ocean/catch/4.jpg","[""spaceBar""]","value training","ocean","0","{""ArrowUp,ArrowLeft"":23,""ArrowUp,ArrowRight"":10,""ArrowDown,ArrowLeft"":8,""ArrowDown,ArrowRight"":30}","true","spaceBar","true","revaluation","1","12","","",""
"html-keyboard-response","133","707880","0.0-5.0-2.0-1.6","spark_pilot_norest","11480","2","17","Male","","","","","","","","null","<div style=""font-size:60px;"">+</div>","null","fixation","","","","","","","","","13","","",""
"revaluation","134","713895","0.0-5.0-2.0-0.7","spark_pilot_norest","11480","2","17","Male","","false","","","","","","[764,338]","./assets/img/ocean/memory/29.jpg","[""ArrowDown"",""ArrowRight""]","value training","ocean","30","{""ArrowUp,ArrowLeft"":23,""ArrowUp,ArrowRight"":10,""ArrowDown,ArrowLeft"":8,""ArrowDown,ArrowRight"":30}","true","ArrowDown,ArrowRight","false","revaluation","1","14","","",""
"html-keyboard-response","135","714397","0.0-5.0-2.0-1.7","spark_pilot_norest","11480","2","17","Male","","","","","","","","null","<div style=""font-size:60px;"">+</div>","null","fixation","","","","","","","","","15","","",""
"revaluation","136","720409","0.0-5.0-2.0-0.8","spark_pilot_norest","11480","2","17","Male","","false","","","","","","[587,310.9999999998836]","./assets/img/ocean/memory/29.jpg","[""ArrowDown"",""ArrowRight""]","value training","ocean","30","{""ArrowUp,ArrowLeft"":23,""ArrowUp,ArrowRight"":10,""ArrowDown,ArrowLeft"":8,""ArrowDown,ArrowRight"":30}","true","ArrowDown,ArrowRight","false","revaluation","1","16","","",""
"html-keyboard-response","137","720911","0.0-5.0-2.0-1.8","spark_pilot_norest","11480","2","17","Male","","","","","","","","null","<div style=""font-size:60px;"">+</div>","null","fixation","","","","","","","","","17","","",""
"revaluation","138","726923","0.0-5.0-2.0-0.9","spark_pilot_norest","11480","2","17","Male","","false","","","","","","[677,247.99999999988358]","./assets/img/ocean/memory/26.jpg","[""ArrowDown"",""ArrowRight""]","value training","ocean","30","{""ArrowUp,ArrowLeft"":23,""ArrowUp,ArrowRight"":10,""ArrowDown,ArrowLeft"":8,""ArrowDown,ArrowRight"":30}","true","ArrowDown,ArrowRight","false","revaluation","1","18","","",""
"html-keyboard-response","139","727426","0.0-5.0-2.0-1.9","spark_pilot_norest","11480","2","17","Male","","","","","","","","null","<div style=""font-size:60px;"">+</div>","null","fixation","","","","","","","","","19","","",""
"revaluation","140","733436","0.0-5.0-2.0-0.10","spark_pilot_norest","11480","2","17","Male","","false","","","","","","[491.0000000001164,319]","./assets/img/ocean/memory/41.jpg","[""ArrowDown"",""ArrowRight""]","value training","ocean","30","{""ArrowUp,ArrowLeft"":23,""ArrowUp,ArrowRight"":10,""ArrowDown,ArrowLeft"":8,""ArrowDown,ArrowRight"":30}","true","ArrowDown,ArrowRight","false","revaluation","1","20","","",""
"html-keyboard-response","141","733937","0.0-5.0-2.0-1.10","spark_pilot_norest","11480","2","17","Male","","","","","","","","null","<div style=""font-size:60px;"">+</div>","null","fixation","","","","","","","","","21","","",""
"revaluation","142","739949","0.0-5.0-2.0-0.11","spark_pilot_norest","11480","2","17","Male","","false","","","","","","[960.0000000001164,288]","./assets/img/ocean/memory/15.jpg","[""ArrowDown"",""ArrowRight""]","value training","ocean","30","{""ArrowUp,ArrowLeft"":23,""ArrowUp,ArrowRight"":10,""ArrowDown,ArrowLeft"":8,""ArrowDown,ArrowRight"":30}","true","ArrowDown,ArrowRight","false","revaluation","1","22","","",""
"html-keyboard-response","143","740451","0.0-5.0-2.0-1.11","spark_pilot_norest","11480","2","17","Male","","","","","","","","null","<div style=""font-size:60px;"">+</div>","null","fixation","","","","","","","","","23","","",""
"revaluation","144","746466","0.0-5.0-2.0-0.12","spark_pilot_norest","11480","2","17","Male","","false","","","","","","[597,350]","./assets/img/ocean/memory/34.jpg","[""ArrowDown"",""ArrowRight""]","value training","ocean","30","{""ArrowUp,ArrowLeft"":23,""ArrowUp,ArrowRight"":10,""ArrowDown,ArrowLeft"":8,""ArrowDown,ArrowRight"":30}","true","ArrowDown,ArrowRight","false","revaluation","1","24","","",""
"html-keyboard-response","145","746968","0.0-5.0-2.0-1.12","spark_pilot_norest","11480","2","17","Male","","","","","","","","null","<div style=""font-size:60px;"">+</div>","null","fixation","","","","","","","","","25","","",""
"revaluation","146","752985","0.0-5.0-2.0-0.13","spark_pilot_norest","11480","2","17","Male","","false","","","","","","[748,259.9999999998836]","./assets/img/ocean/memory/9.jpg","[""ArrowDown"",""ArrowRight""]","value training","ocean","30","{""ArrowUp,ArrowLeft"":23,""ArrowUp,ArrowRight"":10,""ArrowDown,ArrowLeft"":8,""ArrowDown,ArrowRight"":30}","true","ArrowDown,ArrowRight","false","revaluation","1","26","","",""
"html-keyboard-response","147","753487","0.0-5.0-2.0-1.13","spark_pilot_norest","11480","2","17","Male","","","","","","","","null","<div style=""font-size:60px;"">+</div>","null","fixation","","","","","","","","","27","","",""
"revaluation","148","759499","0.0-5.0-2.0-0.14","spark_pilot_norest","11480","2","17","Male","","false","","","","","","[563.9999999998836,370]","./assets/img/ocean/memory/12.jpg","[""ArrowDown"",""ArrowRight""]","value training","ocean","30","{""ArrowUp,ArrowLeft"":23,""ArrowUp,ArrowRight"":10,""ArrowDown,ArrowLeft"":8,""ArrowDown,ArrowRight"":30}","true","ArrowDown,ArrowRight","false","revaluation","1","28","","",""
"html-keyboard-response","149","760001","0.0-5.0-2.0-1.14","spark_pilot_norest","11480","2","17","Male","","","","","","","","null","<div style=""font-size:60px;"">+</div>","null","fixation","","","","","","","","","29","","",""
"revaluation","150","766013","0.0-5.0-2.0-0.15","spark_pilot_norest","11480","2","17","Male","","false","","","","","","[485.0000000001164,313]","./assets/img/ocean/memory/39.jpg","[""ArrowDown"",""ArrowRight""]","value training","ocean","30","{""ArrowUp,ArrowLeft"":23,""ArrowUp,ArrowRight"":10,""ArrowDown,ArrowLeft"":8,""ArrowDown,ArrowRight"":30}","true","ArrowDown,ArrowRight","false","revaluation","1","30","","",""
"html-keyboard-response","151","766515","0.0-5.0-2.0-1.15","spark_pilot_norest","11480","2","17","Male","","","","","","","","null","<div style=""font-size:60px;"">+</div>","null","fixation","","","","","","","","","31","","",""
"revaluation","152","772528","0.0-5.0-2.0-0.16","spark_pilot_norest","11480","2","17","Male","","false","","","","","","[618,278]","./assets/img/ocean/memory/33.jpg","[""ArrowDown"",""ArrowRight""]","value training","ocean","30","{""ArrowUp,ArrowLeft"":23,""ArrowUp,ArrowRight"":10,""ArrowDown,ArrowLeft"":8,""ArrowDown,ArrowRight"":30}","true","ArrowDown,ArrowRight","false","revaluation","1","32","","",""
"html-keyboard-response","153","773030","0.0-5.0-2.0-1.16","spark_pilot_norest","11480","2","17","Male","","","","","","","","null","<div style=""font-size:60px;"">+</div>","null","fixation","","","","","","","","","33","","",""
"revaluation","154","777044","0.0-5.0-2.0-0.17","spark_pilot_norest","11480","2","17","Male","","false","","","","","","[518.9999999998836]","./assets/img/ocean/catch/6.jpg","[""spaceBar""]","value training","ocean","0","{""ArrowUp,ArrowLeft"":23,""ArrowUp,ArrowRight"":10,""ArrowDown,ArrowLeft"":8,""ArrowDown,ArrowRight"":30}","true","spaceBar","true","revaluation","1","34","","",""
"html-keyboard-response","155","777544","0.0-5.0-2.0-1.17","spark_pilot_norest","11480","2","17","Male","","","","","","","","null","<div style=""font-size:60px;"">+</div>","null","fixation","","","","","","","","","35","","",""
"revaluation","156","781560","0.0-5.0-2.0-0.18","spark_pilot_norest","11480","2","17","Male","","false","","","","","","[558]","./assets/img/ocean/catch/0.jpg","[""spaceBar""]","value training","ocean","0","{""ArrowUp,ArrowLeft"":23,""ArrowUp,ArrowRight"":10,""ArrowDown,ArrowLeft"":8,""ArrowDown,ArrowRight"":30}","true","spaceBar","true","revaluation","1","36","","",""
"html-keyboard-response","157","782061","0.0-5.0-2.0-1.18","spark_pilot_norest","11480","2","17","Male","","","","","","","","null","<div style=""font-size:60px;"">+</div>","null","fixation","","","","","","","","","37","","",""
"revaluation","158","788075","0.0-5.0-2.0-0.19","spark_pilot_norest","11480","2","17","Male","","false","","","","","","[545.9999999998836,292]","./assets/img/ocean/memory/38.jpg","[""ArrowDown"",""ArrowRight""]","value training","ocean","30","{""ArrowUp,ArrowLeft"":23,""ArrowUp,ArrowRight"":10,""ArrowDown,ArrowLeft"":8,""ArrowDown,ArrowRight"":30}","true","ArrowDown,ArrowRight","false","revaluation","1","38","","",""
"html-keyboard-response","159","788576","0.0-5.0-2.0-1.19","spark_pilot_norest","11480","2","17","Male","","","","","","","","null","<div style=""font-size:60px;"">+</div>","null","fixation","","","","","","","","","39","","",""
"revaluation","160","794593","0.0-5.0-2.0-0.20","spark_pilot_norest","11480","2","17","Male","","false","","","","","","[426,287]","./assets/img/ocean/memory/12.jpg","[""ArrowDown"",""ArrowRight""]","value training","ocean","30","{""ArrowUp,ArrowLeft"":23,""ArrowUp,ArrowRight"":10,""ArrowDown,ArrowLeft"":8,""ArrowDown,ArrowRight"":30}","true","ArrowDown,ArrowRight","false","revaluation","1","40","","",""
"html-keyboard-response","161","795095","0.0-5.0-2.0-1.20","spark_pilot_norest","11480","2","17","Male","","","","","","","","null","<div style=""font-size:60px;"">+</div>","null","fixation","","","","","","","","","41","","",""
"revaluation","162","801108","0.0-5.0-2.0-0.21","spark_pilot_norest","11480","2","17","Male","","false","","","","","","[450.9999999998836,302]","./assets/img/ocean/memory/40.jpg","[""ArrowDown"",""ArrowRight""]","value training","ocean","30","{""ArrowUp,ArrowLeft"":23,""ArrowUp,ArrowRight"":10,""ArrowDown,ArrowLeft"":8,""ArrowDown,ArrowRight"":30}","true","ArrowDown,ArrowRight","false","revaluation","1","42","","",""
"html-keyboard-response","163","801609","0.0-5.0-2.0-1.21","spark_pilot_norest","11480","2","17","Male","","","","","","","","null","<div style=""font-size:60px;"">+</div>","null","fixation","","","","","","","","","43","","",""
"revaluation","164","805624","0.0-5.0-2.0-0.22","spark_pilot_norest","11480","2","17","Male","","false","","","","","","[619]","./assets/img/ocean/catch/3.jpg","[""spaceBar""]","value training","ocean","0","{""ArrowUp,ArrowLeft"":23,""ArrowUp,ArrowRight"":10,""ArrowDown,ArrowLeft"":8,""ArrowDown,ArrowRight"":30}","true","spaceBar","true","revaluation","1","44","","",""
"html-keyboard-response","165","806126","0.0-5.0-2.0-1.22","spark_pilot_norest","11480","2","17","Male","","","","","","","","null","<div style=""font-size:60px;"">+</div>","null","fixation","","","","","","","","","45","","",""
"revaluation","166","812142","0.0-5.0-2.0-0.23","spark_pilot_norest","11480","2","17","Male","","false","","","","","","[427.0000000001164,287.0000000001164]","./assets/img/ocean/memory/16.jpg","[""ArrowDown"",""ArrowRight""]","value training","ocean","30","{""ArrowUp,ArrowLeft"":23,""ArrowUp,ArrowRight"":10,""ArrowDown,ArrowLeft"":8,""ArrowDown,ArrowRight"":30}","true","ArrowDown,ArrowRight","false","revaluation","1","46","","",""
"html-keyboard-response","167","812644","0.0-5.0-2.0-1.23","spark_pilot_norest","11480","2","17","Male","","","","","","","","null","<div style=""font-size:60px;"">+</div>","null","fixation","","","","","","","","","47","","",""
"revaluation","168","818656","0.0-5.0-2.0-0.24","spark_pilot_norest","11480","2","17","Male","","false","","","","","","[971,580]","./assets/img/ocean/memory/14.jpg","[""ArrowDown"",""ArrowRight""]","value training","ocean","30","{""ArrowUp,ArrowLeft"":23,""ArrowUp,ArrowRight"":10,""ArrowDown,ArrowLeft"":8,""ArrowDown,ArrowRight"":30}","true","ArrowDown,ArrowRight","false","revaluation","1","48","","",""
"html-keyboard-response","169","819158","0.0-5.0-2.0-1.24","spark_pilot_norest","11480","2","17","Male","","","","","","","","null","<div style=""font-size:60px;"">+</div>","null","fixation","","","","","","","","","49","","",""
"revaluation","170","825169","0.0-5.0-2.0-0.25","spark_pilot_norest","11480","2","17","Male","","false","","","","","","[632,304]","./assets/img/ocean/memory/32.jpg","[""ArrowDown"",""ArrowRight""]","value training","ocean","30","{""ArrowUp,ArrowLeft"":23,""ArrowUp,ArrowRight"":10,""ArrowDown,ArrowLeft"":8,""ArrowDown,ArrowRight"":30}","true","ArrowDown,ArrowRight","false","revaluation","1","50","","",""
"html-keyboard-response","171","825671","0.0-5.0-2.0-1.25","spark_pilot_norest","11480","2","17","Male","","","","","","","","null","<div style=""font-size:60px;"">+</div>","null","fixation","","","","","","","","","51","","",""
"revaluation","172","831683","0.0-5.0-2.0-0.26","spark_pilot_norest","11480","2","17","Male","","false","","","","","","[426,376]","./assets/img/ocean/memory/39.jpg","[""ArrowDown"",""ArrowRight""]","value training","ocean","30","{""ArrowUp,ArrowLeft"":23,""ArrowUp,ArrowRight"":10,""ArrowDown,ArrowLeft"":8,""ArrowDown,ArrowRight"":30}","true","ArrowDown,ArrowRight","false","revaluation","1","52","","",""
"html-keyboard-response","173","832185","0.0-5.0-2.0-1.26","spark_pilot_norest","11480","2","17","Male","","","","","","","","null","<div style=""font-size:60px;"">+</div>","null","fixation","","","","","","","","","53","","",""
"revaluation","174","836200","0.0-5.0-2.0-0.27","spark_pilot_norest","11480","2","17","Male","","false","","","","","","[546]","./assets/img/ocean/catch/2.jpg","[""spaceBar""]","value training","ocean","0","{""ArrowUp,ArrowLeft"":23,""ArrowUp,ArrowRight"":10,""ArrowDown,ArrowLeft"":8,""ArrowDown,ArrowRight"":30}","true","spaceBar","true","revaluation","1","54","","",""
"html-keyboard-response","175","836702","0.0-5.0-2.0-1.27","spark_pilot_norest","11480","2","17","Male","","","","","","","","null","<div style=""font-size:60px;"">+</div>","null","fixation","","","","","","","","","55","","",""
"revaluation","176","840716","0.0-5.0-2.0-0.28","spark_pilot_norest","11480","2","17","Male","","false","","","","","","[595]","./assets/img/ocean/catch/1.jpg","[""spaceBar""]","value training","ocean","0","{""ArrowUp,ArrowLeft"":23,""ArrowUp,ArrowRight"":10,""ArrowDown,ArrowLeft"":8,""ArrowDown,ArrowRight"":30}","true","spaceBar","true","revaluation","1","56","","",""
"html-keyboard-response","177","841217","0.0-5.0-2.0-1.28","spark_pilot_norest","11480","2","17","Male","","","","","","","","null","<div style=""font-size:60px;"">+</div>","null","fixation","","","","","","","","","57","","",""
"revaluation","178","847230","0.0-5.0-2.0-0.29","spark_pilot_norest","11480","2","17","Male","","false","","","","","","[813,405]","./assets/img/ocean/memory/24.jpg","[""ArrowDown"",""ArrowRight""]","value training","ocean","30","{""ArrowUp,ArrowLeft"":23,""ArrowUp,ArrowRight"":10,""ArrowDown,ArrowLeft"":8,""ArrowDown,ArrowRight"":30}","true","ArrowDown,ArrowRight","false","revaluation","1","58","","",""
"html-keyboard-response","179","847732","0.0-5.0-2.0-1.29","spark_pilot_norest","11480","2","17","Male","","","","","","","","null","<div style=""font-size:60px;"">+</div>","null","fixation","","","","","","","","","59","","",""
"revaluation","180","853745","0.0-5.0-2.0-0.30","spark_pilot_norest","11480","2","17","Male","","false","","","","","","[508.0000000001164,537]","./assets/img/ocean/memory/25.jpg","[""ArrowDown"",""ArrowRight""]","value training","ocean","30","{""ArrowUp,ArrowLeft"":23,""ArrowUp,ArrowRight"":10,""ArrowDown,ArrowLeft"":8,""ArrowDown,ArrowRight"":30}","true","ArrowDown,ArrowRight","false","revaluation","1","60","","",""
"html-keyboard-response","181","854246","0.0-5.0-2.0-1.30","spark_pilot_norest","11480","2","17","Male","","","","","","","","null","<div style=""font-size:60px;"">+</div>","null","fixation","","","","","","","","","61","","",""
"revaluation","182","860258","0.0-5.0-2.0-0.31","spark_pilot_norest","11480","2","17","Male","","false","","","","","","[390.0000000001164,543]","./assets/img/ocean/memory/32.jpg","[""ArrowDown"",""ArrowRight""]","value training","ocean","30","{""ArrowUp,ArrowLeft"":23,""ArrowUp,ArrowRight"":10,""ArrowDown,ArrowLeft"":8,""ArrowDown,ArrowRight"":30}","true","ArrowDown,ArrowRight","false","revaluation","1","62","","",""
"html-keyboard-response","183","860760","0.0-5.0-2.0-1.31","spark_pilot_norest","11480","2","17","Male","","","","","","","","null","<div style=""font-size:60px;"">+</div>","null","fixation","","","","","","","","","63","","",""
"revaluation","184","866771","0.0-5.0-2.0-0.32","spark_pilot_norest","11480","2","17","Male","","false","","","","","","[402.9999999998836,930]","./assets/img/ocean/memory/7.jpg","[""ArrowDown"",""ArrowRight""]","value training","ocean","30","{""ArrowUp,ArrowLeft"":23,""ArrowUp,ArrowRight"":10,""ArrowDown,ArrowLeft"":8,""ArrowDown,ArrowRight"":30}","true","ArrowDown,ArrowRight","false","revaluation","1","64","","",""
"html-keyboard-response","185","867272","0.0-5.0-2.0-1.32","spark_pilot_norest","11480","2","17","Male","","","","","","","","null","<div style=""font-size:60px;"">+</div>","null","fixation","","","","","","","","","65","","",""
"revaluation","186","873283","0.0-5.0-2.0-0.33","spark_pilot_norest","11480","2","17","Male","","false","","","","","","[534,856]","./assets/img/ocean/memory/15.jpg","[""ArrowDown"",""ArrowRight""]","value training","ocean","30","{""ArrowUp,ArrowLeft"":23,""ArrowUp,ArrowRight"":10,""ArrowDown,ArrowLeft"":8,""ArrowDown,ArrowRight"":30}","true","ArrowDown,ArrowRight","false","revaluation","1","66","","",""
"html-keyboard-response","187","873785","0.0-5.0-2.0-1.33","spark_pilot_norest","11480","2","17","Male","","","","","","","","null","<div style=""font-size:60px;"">+</div>","null","fixation","","","","","","","","","67","","",""
"revaluation","188","879798","0.0-5.0-2.0-0.34","spark_pilot_norest","11480","2","17","Male","","false","","","","","","[804.0000000001164,371.0000000001164]","./assets/img/ocean/memory/10.jpg","[""ArrowDown"",""ArrowRight""]","value training","ocean","30","{""ArrowUp,ArrowLeft"":23,""ArrowUp,ArrowRight"":10,""ArrowDown,ArrowLeft"":8,""ArrowDown,ArrowRight"":30}","true","ArrowDown,ArrowRight","false","revaluation","1","68","","",""
"html-keyboard-response","189","880299","0.0-5.0-2.0-1.34","spark_pilot_norest","11480","2","17","Male","","","","","","","","null","<div style=""font-size:60px;"">+</div>","null","fixation","","","","","","","","","69","","",""
"revaluation","190","886311","0.0-5.0-2.0-0.35","spark_pilot_norest","11480","2","17","Male","","false","","","","","","[440.0000000001164,509]","./assets/img/ocean/memory/26.jpg","[""ArrowDown"",""ArrowRight""]","value training","ocean","30","{""ArrowUp,ArrowLeft"":23,""ArrowUp,ArrowRight"":10,""ArrowDown,ArrowLeft"":8,""ArrowDown,ArrowRight"":30}","true","ArrowDown,ArrowRight","false","revaluation","1","70","","",""
"html-keyboard-response","191","886813","0.0-5.0-2.0-1.35","spark_pilot_norest","11480","2","17","Male","","","","","","","","null","<div style=""font-size:60px;"">+</div>","null","fixation","","","","","","","","","71","","",""
"revaluation","192","892827","0.0-5.0-2.0-0.36","spark_pilot_norest","11480","2","17","Male","","false","","","","","","[623.9999999998836,401]","./assets/img/ocean/memory/35.jpg","[""ArrowDown"",""ArrowRight""]","value training","ocean","30","{""ArrowUp,ArrowLeft"":23,""ArrowUp,ArrowRight"":10,""ArrowDown,ArrowLeft"":8,""ArrowDown,ArrowRight"":30}","true","ArrowDown,ArrowRight","false","revaluation","1","72","","",""
"html-keyboard-response","193","893328","0.0-5.0-2.0-1.36","spark_pilot_norest","11480","2","17","Male","","","","","","","","null","<div style=""font-size:60px;"">+</div>","null","fixation","","","","","","","","","73","","",""
"revaluation","194","899347","0.0-5.0-2.0-0.37","spark_pilot_norest","11480","2","17","Male","","false","","","","","","[530.9999999998836,421]","./assets/img/ocean/memory/7.jpg","[""ArrowDown"",""ArrowRight""]","value training","ocean","30","{""ArrowUp,ArrowLeft"":23,""ArrowUp,ArrowRight"":10,""ArrowDown,ArrowLeft"":8,""ArrowDown,ArrowRight"":30}","true","ArrowDown,ArrowRight","false","revaluation","1","74","","",""
"html-keyboard-response","195","899849","0.0-5.0-2.0-1.37","spark_pilot_norest","11480","2","17","Male","","","","","","","","null","<div style=""font-size:60px;"">+</div>","null","fixation","","","","","","","","","75","","",""
"revaluation","196","905862","0.0-5.0-2.0-0.38","spark_pilot_norest","11480","2","17","Male","","false","","","","","","[458,468]","./assets/img/ocean/memory/25.jpg","[""ArrowDown"",""ArrowRight""]","value training","ocean","30","{""ArrowUp,ArrowLeft"":23,""ArrowUp,ArrowRight"":10,""ArrowDown,ArrowLeft"":8,""ArrowDown,ArrowRight"":30}","true","ArrowDown,ArrowRight","false","revaluation","1","76","","",""
"html-keyboard-response","197","906364","0.0-5.0-2.0-1.38","spark_pilot_norest","11480","2","17","Male","","","","","","","","null","<div style=""font-size:60px;"">+</div>","null","fixation","","","","","","","","","77","","",""
"revaluation","198","912376","0.0-5.0-2.0-0.39","spark_pilot_norest","11480","2","17","Male","","false","","","","","","[455,466]","./assets/img/ocean/memory/36.jpg","[""ArrowDown"",""ArrowRight""]","value training","ocean","30","{""ArrowUp,ArrowLeft"":23,""ArrowUp,ArrowRight"":10,""ArrowDown,ArrowLeft"":8,""ArrowDown,ArrowRight"":30}","true","ArrowDown,ArrowRight","false","revaluation","1","78","","",""
"html-keyboard-response","199","912878","0.0-5.0-2.0-1.39","spark_pilot_norest","11480","2","17","Male","","","","","","","","null","<div style=""font-size:60px;"">+</div>","null","fixation","","","","","","","","","79","","",""
"revaluation","200","918894","0.0-5.0-2.0-0.40","spark_pilot_norest","11480","2","17","Male","","false","","","","","","[652.9999999998836,469.9999999998836]","./assets/img/ocean/memory/41.jpg","[""ArrowDown"",""ArrowRight""]","value training","ocean","30","{""ArrowUp,ArrowLeft"":23,""ArrowUp,ArrowRight"":10,""ArrowDown,ArrowLeft"":8,""ArrowDown,ArrowRight"":30}","true","ArrowDown,ArrowRight","false","revaluation","1","80","","",""
"html-keyboard-response","201","919395","0.0-5.0-2.0-1.40","spark_pilot_norest","11480","2","17","Male","","","","","","","","null","<div style=""font-size:60px;"">+</div>","null","fixation","","","","","","","","","81","","",""
"revaluation","202","925408","0.0-5.0-2.0-0.41","spark_pilot_norest","11480","2","17","Male","","false","","","","","","[487,713]","./assets/img/ocean/memory/40.jpg","[""ArrowDown"",""ArrowRight""]","value training","ocean","30","{""ArrowUp,ArrowLeft"":23,""ArrowUp,ArrowRight"":10,""ArrowDown,ArrowLeft"":8,""ArrowDown,ArrowRight"":30}","true","ArrowDown,ArrowRight","false","revaluation","1","82","","",""
"html-keyboard-response","203","925909","0.0-5.0-2.0-1.41","spark_pilot_norest","11480","2","17","Male","","","","","","","","null","<div style=""font-size:60px;"">+</div>","null","fixation","","","","","","","","","83","","",""
"revaluation","204","931922","0.0-5.0-2.0-0.42","spark_pilot_norest","11480","2","17","Male","","false","","","","","","[486,568.9999999998836]","./assets/img/ocean/memory/33.jpg","[""ArrowDown"",""ArrowRight""]","value training","ocean","30","{""ArrowUp,ArrowLeft"":23,""ArrowUp,ArrowRight"":10,""ArrowDown,ArrowLeft"":8,""ArrowDown,ArrowRight"":30}","true","ArrowDown,ArrowRight","false","revaluation","1","84","","",""
"html-keyboard-response","205","932423","0.0-5.0-2.0-1.42","spark_pilot_norest","11480","2","17","Male","","","","","","","","null","<div style=""font-size:60px;"">+</div>","null","fixation","","","","","","","","","85","","",""
"revaluation","206","938435","0.0-5.0-2.0-0.43","spark_pilot_norest","11480","2","17","Male","","false","","","","","","[713.9999999998836,410]","./assets/img/ocean/memory/16.jpg","[""ArrowDown"",""ArrowRight""]","value training","ocean","30","{""ArrowUp,ArrowLeft"":23,""ArrowUp,ArrowRight"":10,""ArrowDown,ArrowLeft"":8,""ArrowDown,ArrowRight"":30}","true","ArrowDown,ArrowRight","false","revaluation","1","86","","",""
"html-keyboard-response","207","938937","0.0-5.0-2.0-1.43","spark_pilot_norest","11480","2","17","Male","","","","","","","","null","<div style=""font-size:60px;"">+</div>","null","fixation","","","","","","","","","87","","",""
"revaluation","208","942948","0.0-5.0-2.0-0.44","spark_pilot_norest","11480","2","17","Male","","false","","","","","","[738]","./assets/img/ocean/catch/7.jpg","[""spaceBar""]","value training","ocean","0","{""ArrowUp,ArrowLeft"":23,""ArrowUp,ArrowRight"":10,""ArrowDown,ArrowLeft"":8,""ArrowDown,ArrowRight"":30}","true","spaceBar","true","revaluation","1","88","","",""
"html-keyboard-response","209","943450","0.0-5.0-2.0-1.44","spark_pilot_norest","11480","2","17","Male","","","","","","","","null","<div style=""font-size:60px;"">+</div>","null","fixation","","","","","","","","","89","","",""
"revaluation","210","947460","0.0-5.0-2.0-0.45","spark_pilot_norest","11480","2","17","Male","","false","","","","","","[612]","./assets/img/ocean/catch/5.jpg","[""spaceBar""]","value training","ocean","0","{""ArrowUp,ArrowLeft"":23,""ArrowUp,ArrowRight"":10,""ArrowDown,ArrowLeft"":8,""ArrowDown,ArrowRight"":30}","true","spaceBar","true","revaluation","1","90","","",""
"html-keyboard-response","211","947961","0.0-5.0-2.0-1.45","spark_pilot_norest","11480","2","17","Male","","","","","","","","null","<div style=""font-size:60px;"">+</div>","null","fixation","","","","","","","","","91","","",""
"revaluation","212","953973","0.0-5.0-2.0-0.46","spark_pilot_norest","11480","2","17","Male","","false","","","","","","[922,445]","./assets/img/ocean/memory/37.jpg","[""ArrowDown"",""ArrowRight""]","value training","ocean","30","{""ArrowUp,ArrowLeft"":23,""ArrowUp,ArrowRight"":10,""ArrowDown,ArrowLeft"":8,""ArrowDown,ArrowRight"":30}","true","ArrowDown,ArrowRight","false","revaluation","1","92","","",""
"html-keyboard-response","213","954474","0.0-5.0-2.0-1.46","spark_pilot_norest","11480","2","17","Male","","","","","","","","null","<div style=""font-size:60px;"">+</div>","null","fixation","","","","","","","","","93","","",""
"revaluation","214","960486","0.0-5.0-2.0-0.47","spark_pilot_norest","11480","2","17","Male","","false","","","","","","[931,436]","./assets/img/ocean/memory/24.jpg","[""ArrowDown"",""ArrowRight""]","value training","ocean","30","{""ArrowUp,ArrowLeft"":23,""ArrowUp,ArrowRight"":10,""ArrowDown,ArrowLeft"":8,""ArrowDown,ArrowRight"":30}","true","ArrowDown,ArrowRight","false","revaluation","1","94","","",""
"html-keyboard-response","215","960987","0.0-5.0-2.0-1.47","spark_pilot_norest","11480","2","17","Male","","","","","","","","null","<div style=""font-size:60px;"">+</div>","null","fixation","","","","","","","","","95","","",""
"revaluation","216","967000","0.0-5.0-2.0-0.48","spark_pilot_norest","11480","2","17","Male","","false","","","","","","[532,656]","./assets/img/ocean/memory/10.jpg","[""ArrowDown"",""ArrowRight""]","value training","ocean","30","{""ArrowUp,ArrowLeft"":23,""ArrowUp,ArrowRight"":10,""ArrowDown,ArrowLeft"":8,""ArrowDown,ArrowRight"":30}","true","ArrowDown,ArrowRight","false","revaluation","1","96","","",""
"html-keyboard-response","217","967504","0.0-5.0-2.0-1.48","spark_pilot_norest","11480","2","17","Male","","","","","","","","null","<div style=""font-size:60px;"">+</div>","null","fixation","","","","","","","","","97","","",""
"revaluation","218","973517","0.0-5.0-2.0-0.49","spark_pilot_norest","11480","2","17","Male","","false","","","","","","[524,678]","./assets/img/ocean/memory/9.jpg","[""ArrowDown"",""ArrowRight""]","value training","ocean","30","{""ArrowUp,ArrowLeft"":23,""ArrowUp,ArrowRight"":10,""ArrowDown,ArrowLeft"":8,""ArrowDown,ArrowRight"":30}","true","ArrowDown,ArrowRight","false","revaluation","1","98","","",""
"html-keyboard-response","219","974019","0.0-5.0-2.0-1.49","spark_pilot_norest","11480","2","17","Male","","","","","","","","null","<div style=""font-size:60px;"">+</div>","null","fixation","","","","","","","","","99","","",""
"learning-instructions","220","988285","0.0-5.0-3.0-0.0","spark_pilot_norest","11480","2","17","Male","","","","","","","","1385","<p> Now, you will travel with a friend who will choose whether you go up or down first. </p>
            <p> On these turns, you will just see the animal that they found. You will still get to choose which chest to search for treasure.</p>","","instructions","","","","","","","","","","","",""
"revaluation","221","992295","0.0-5.0-4.0-0.0","spark_pilot_norest","11480","2","17","Male","","false","","","","","","[1006]","./assets/img/ocean/animals/octopus.jpg","[""ArrowRight""]","revaluation","ocean","7","{""ArrowUp,ArrowLeft"":27,""ArrowUp,ArrowRight"":15,""ArrowDown,ArrowLeft"":21,""ArrowDown,ArrowRight"":7}","false","ArrowDown,ArrowRight","","revaluation","1","0","","",""
"html-keyboard-response","222","992797","0.0-5.0-4.0-1.0","spark_pilot_norest","11480","2","17","Male","","","","","","","","null","<div style=""font-size:60px;"">+</div>","null","fixation","","","","","","","","","1","","",""
"revaluation","223","996808","0.0-5.0-4.0-0.1","spark_pilot_norest","11480","2","17","Male","","false","","","","","","[1161]","./assets/img/ocean/animals/seahorse.jpg","[""ArrowRight""]","revaluation","ocean","15","{""ArrowUp,ArrowLeft"":27,""ArrowUp,ArrowRight"":15,""ArrowDown,ArrowLeft"":21,""ArrowDown,ArrowRight"":7}","false","ArrowUp,ArrowRight","","revaluation","1","2","","",""
"html-keyboard-response","224","997310","0.0-5.0-4.0-1.1","spark_pilot_norest","11480","2","17","Male","","","","","","","","null","<div style=""font-size:60px;"">+</div>","null","fixation","","","","","","","","","3","","",""
"revaluation","225","1001323","0.0-5.0-4.0-0.2","spark_pilot_norest","11480","2","17","Male","","false","","","","","","[1248]","./assets/img/ocean/animals/octopus.jpg","[""ArrowLeft""]","revaluation","ocean","21","{""ArrowUp,ArrowLeft"":27,""ArrowUp,ArrowRight"":15,""ArrowDown,ArrowLeft"":21,""ArrowDown,ArrowRight"":7}","true","ArrowDown,ArrowLeft","","revaluation","1","4","","",""
"html-keyboard-response","226","1001825","0.0-5.0-4.0-1.2","spark_pilot_norest","11480","2","17","Male","","","","","","","","null","<div style=""font-size:60px;"">+</div>","null","fixation","","","","","","","","","5","","",""
"revaluation","227","1005837","0.0-5.0-4.0-0.3","spark_pilot_norest","11480","2","17","Male","","false","","","","","","[458]","./assets/img/ocean/animals/octopus.jpg","[""ArrowLeft""]","revaluation","ocean","21","{""ArrowUp,ArrowLeft"":27,""ArrowUp,ArrowRight"":15,""ArrowDown,ArrowLeft"":21,""ArrowDown,ArrowRight"":7}","true","ArrowDown,ArrowLeft","","revaluation","1","6","","",""
"html-keyboard-response","228","1006338","0.0-5.0-4.0-1.3","spark_pilot_norest","11480","2","17","Male","","","","","","","","null","<div style=""font-size:60px;"">+</div>","null","fixation","","","","","","","","","7","","",""
"revaluation","229","1010350","0.0-5.0-4.0-0.4","spark_pilot_norest","11480","2","17","Male","","false","","","","","","[555]","./assets/img/ocean/animals/seahorse.jpg","[""ArrowLeft""]","revaluation","ocean","27","{""ArrowUp,ArrowLeft"":27,""ArrowUp,ArrowRight"":15,""ArrowDown,ArrowLeft"":21,""ArrowDown,ArrowRight"":7}","true","ArrowUp,ArrowLeft","","revaluation","1","8","","",""
"html-keyboard-response","230","1010852","0.0-5.0-4.0-1.4","spark_pilot_norest","11480","2","17","Male","","","","","","","","null","<div style=""font-size:60px;"">+</div>","null","fixation","","","","","","","","","9","","",""
"revaluation","231","1014863","0.0-5.0-4.0-0.5","spark_pilot_norest","11480","2","17","Male","","false","","","","","","[1149.9999999998836]","./assets/img/ocean/animals/seahorse.jpg","[""ArrowLeft""]","revaluation","ocean","27","{""ArrowUp,ArrowLeft"":27,""ArrowUp,ArrowRight"":15,""ArrowDown,ArrowLeft"":21,""ArrowDown,ArrowRight"":7}","true","ArrowUp,ArrowLeft","","revaluation","1","10","","",""
"html-keyboard-response","232","1015365","0.0-5.0-4.0-1.5","spark_pilot_norest","11480","2","17","Male","","","","","","","","null","<div style=""font-size:60px;"">+</div>","null","fixation","","","","","","","","","11","","",""
"revaluation","233","1019376","0.0-5.0-4.0-0.6","spark_pilot_norest","11480","2","17","Male","","false","","","","","","[904]","./assets/img/ocean/animals/seahorse.jpg","[""ArrowLeft""]","revaluation","ocean","27","{""ArrowUp,ArrowLeft"":27,""ArrowUp,ArrowRight"":15,""ArrowDown,ArrowLeft"":21,""ArrowDown,ArrowRight"":7}","true","ArrowUp,ArrowLeft","","revaluation","1","12","","",""
"html-keyboard-response","234","1019878","0.0-5.0-4.0-1.6","spark_pilot_norest","11480","2","17","Male","","","","","","","","null","<div style=""font-size:60px;"">+</div>","null","fixation","","","","","","","","","13","","",""
"revaluation","235","1023890","0.0-5.0-4.0-0.7","spark_pilot_norest","11480","2","17","Male","","false","","","","","","[461]","./assets/img/ocean/animals/seahorse.jpg","[""ArrowLeft""]","revaluation","ocean","27","{""ArrowUp,ArrowLeft"":27,""ArrowUp,ArrowRight"":15,""ArrowDown,ArrowLeft"":21,""ArrowDown,ArrowRight"":7}","true","ArrowUp,ArrowLeft","","revaluation","1","14","","",""
"html-keyboard-response","236","1024392","0.0-5.0-4.0-1.7","spark_pilot_norest","11480","2","17","Male","","","","","","","","null","<div style=""font-size:60px;"">+</div>","null","fixation","","","","","","","","","15","","",""
"revaluation","237","1028404","0.0-5.0-4.0-0.8","spark_pilot_norest","11480","2","17","Male","","false","","","","","","[980]","./assets/img/ocean/animals/octopus.jpg","[""ArrowLeft""]","revaluation","ocean","21","{""ArrowUp,ArrowLeft"":27,""ArrowUp,ArrowRight"":15,""ArrowDown,ArrowLeft"":21,""ArrowDown,ArrowRight"":7}","true","ArrowDown,ArrowLeft","","revaluation","1","16","","",""
"html-keyboard-response","238","1028905","0.0-5.0-4.0-1.8","spark_pilot_norest","11480","2","17","Male","","","","","","","","null","<div style=""font-size:60px;"">+</div>","null","fixation","","","","","","","","","17","","",""
"revaluation","239","1032917","0.0-5.0-4.0-0.9","spark_pilot_norest","11480","2","17","Male","","false","","","","","","[715.9999999998836]","./assets/img/ocean/animals/octopus.jpg","[""ArrowLeft""]","revaluation","ocean","21","{""ArrowUp,ArrowLeft"":27,""ArrowUp,ArrowRight"":15,""ArrowDown,ArrowLeft"":21,""ArrowDown,ArrowRight"":7}","true","ArrowDown,ArrowLeft","","revaluation","1","18","","",""
"html-keyboard-response","240","1033418","0.0-5.0-4.0-1.9","spark_pilot_norest","11480","2","17","Male","","","","","","","","null","<div style=""font-size:60px;"">+</div>","null","fixation","","","","","","","","","19","","",""
"revaluation","241","1037429","0.0-5.0-4.0-0.10","spark_pilot_norest","11480","2","17","Male","","false","","","","","","[395.9999999998836]","./assets/img/ocean/animals/seahorse.jpg","[""ArrowLeft""]","revaluation","ocean","27","{""ArrowUp,ArrowLeft"":27,""ArrowUp,ArrowRight"":15,""ArrowDown,ArrowLeft"":21,""ArrowDown,ArrowRight"":7}","true","ArrowUp,ArrowLeft","","revaluation","1","20","","",""
"html-keyboard-response","242","1037930","0.0-5.0-4.0-1.10","spark_pilot_norest","11480","2","17","Male","","","","","","","","null","<div style=""font-size:60px;"">+</div>","null","fixation","","","","","","","","","21","","",""
"revaluation","243","1041946","0.0-5.0-4.0-0.11","spark_pilot_norest","11480","2","17","Male","","false","","","","","","[373.99999999976717]","./assets/img/ocean/animals/octopus.jpg","[""ArrowLeft""]","revaluation","ocean","21","{""ArrowUp,ArrowLeft"":27,""ArrowUp,ArrowRight"":15,""ArrowDown,ArrowLeft"":21,""ArrowDown,ArrowRight"":7}","true","ArrowDown,ArrowLeft","","revaluation","1","22","","",""
"html-keyboard-response","244","1042449","0.0-5.0-4.0-1.11","spark_pilot_norest","11480","2","17","Male","","","","","","","","null","<div style=""font-size:60px;"">+</div>","null","fixation","","","","","","","","","23","","",""
"revaluation","245","1046460","0.0-5.0-4.0-0.12","spark_pilot_norest","11480","2","17","Male","","false","","","","","","[434]","./assets/img/ocean/animals/seahorse.jpg","[""ArrowLeft""]","revaluation","ocean","27","{""ArrowUp,ArrowLeft"":27,""ArrowUp,ArrowRight"":15,""ArrowDown,ArrowLeft"":21,""ArrowDown,ArrowRight"":7}","true","ArrowUp,ArrowLeft","","revaluation","1","24","","",""
"html-keyboard-response","246","1046961","0.0-5.0-4.0-1.12","spark_pilot_norest","11480","2","17","Male","","","","","","","","null","<div style=""font-size:60px;"">+</div>","null","fixation","","","","","","","","","25","","",""
"revaluation","247","1050973","0.0-5.0-4.0-0.13","spark_pilot_norest","11480","2","17","Male","","false","","","","","","[584]","./assets/img/ocean/animals/seahorse.jpg","[""ArrowLeft""]","revaluation","ocean","27","{""ArrowUp,ArrowLeft"":27,""ArrowUp,ArrowRight"":15,""ArrowDown,ArrowLeft"":21,""ArrowDown,ArrowRight"":7}","true","ArrowUp,ArrowLeft","","revaluation","1","26","","",""
"html-keyboard-response","248","1051475","0.0-5.0-4.0-1.13","spark_pilot_norest","11480","2","17","Male","","","","","","","","null","<div style=""font-size:60px;"">+</div>","null","fixation","","","","","","","","","27","","",""
"revaluation","249","1055486","0.0-5.0-4.0-0.14","spark_pilot_norest","11480","2","17","Male","","false","","","","","","[412]","./assets/img/ocean/animals/octopus.jpg","[""ArrowLeft""]","revaluation","ocean","21","{""ArrowUp,ArrowLeft"":27,""ArrowUp,ArrowRight"":15,""ArrowDown,ArrowLeft"":21,""ArrowDown,ArrowRight"":7}","true","ArrowDown,ArrowLeft","","revaluation","1","28","","",""
"html-keyboard-response","250","1055987","0.0-5.0-4.0-1.14","spark_pilot_norest","11480","2","17","Male","","","","","","","","null","<div style=""font-size:60px;"">+</div>","null","fixation","","","","","","","","","29","","",""
"revaluation","251","1059998","0.0-5.0-4.0-0.15","spark_pilot_norest","11480","2","17","Male","","false","","","","","","[382]","./assets/img/ocean/animals/octopus.jpg","[""ArrowLeft""]","revaluation","ocean","21","{""ArrowUp,ArrowLeft"":27,""ArrowUp,ArrowRight"":15,""ArrowDown,ArrowLeft"":21,""ArrowDown,ArrowRight"":7}","true","ArrowDown,ArrowLeft","","revaluation","1","30","","",""
"html-keyboard-response","252","1060499","0.0-5.0-4.0-1.15","spark_pilot_norest","11480","2","17","Male","","","","","","","","null","<div style=""font-size:60px;"">+</div>","null","fixation","","","","","","","","","31","","",""
"revaluation","253","1064511","0.0-5.0-4.0-0.16","spark_pilot_norest","11480","2","17","Male","","false","","","","","","[385]","./assets/img/ocean/animals/octopus.jpg","[""ArrowLeft""]","revaluation","ocean","21","{""ArrowUp,ArrowLeft"":27,""ArrowUp,ArrowRight"":15,""ArrowDown,ArrowLeft"":21,""ArrowDown,ArrowRight"":7}","true","ArrowDown,ArrowLeft","","revaluation","1","32","","",""
"html-keyboard-response","254","1065013","0.0-5.0-4.0-1.16","spark_pilot_norest","11480","2","17","Male","","","","","","","","null","<div style=""font-size:60px;"">+</div>","null","fixation","","","","","","","","","33","","",""
"revaluation","255","1069024","0.0-5.0-4.0-0.17","spark_pilot_norest","11480","2","17","Male","","false","","","","","","[518]","./assets/img/ocean/animals/seahorse.jpg","[""ArrowLeft""]","revaluation","ocean","27","{""ArrowUp,ArrowLeft"":27,""ArrowUp,ArrowRight"":15,""ArrowDown,ArrowLeft"":21,""ArrowDown,ArrowRight"":7}","true","ArrowUp,ArrowLeft","","revaluation","1","34","","",""
"html-keyboard-response","256","1069526","0.0-5.0-4.0-1.17","spark_pilot_norest","11480","2","17","Male","","","","","","","","null","<div style=""font-size:60px;"">+</div>","null","fixation","","","","","","","","","35","","",""
"learning-instructions","257","1077629","0.0-5.0-5.0-0.0","spark_pilot_norest","11480","2","17","Male","","","","","","","","null","<p> You have almost finished this part of the game! </p>
            <p> We are going to ask you to make a few more choices. </p>","","instructions","","","","","","","","","","","",""
"learning-instructions","258","1093599","0.0-5.0-5.0-0.1","spark_pilot_norest","11480","2","17","Male","","","","","","","","null","<p> First, you need to decide whether to go up or down. When you see each picture, use the arrow keys to make your choice. </p>
            <p><b>You will not see which animal you found, but try to get to the one that will give you the most treasure.</b></p>","","instructions","","","","","","","","","","","",""
"html-keyboard-response","259","1094600","0.0-5.0-6.0-0.0","spark_pilot_norest","11480","2","17","Male","","","","","","","","null","<div style=""font-size:100px;color:red;"">Starting in...</div>","null","","","","","","","","","","","","",""
"html-keyboard-response","260","1095602","0.0-5.0-6.0-1.0","spark_pilot_norest","11480","2","17","Male","","","","","","","","null","<div style=""font-size:200px;color:red;"">3</div>","null","","","","","","","","","","","","",""
"html-keyboard-response","261","1096603","0.0-5.0-6.0-2.0","spark_pilot_norest","11480","2","17","Male","","","","","","","","null","<div style=""font-size:200px;color:red;"">2</div>","null","","","","","","","","","","","","",""
"html-keyboard-response","262","1097604","0.0-5.0-6.0-3.0","spark_pilot_norest","11480","2","17","Male","","","","","","","","null","<div style=""font-size:200px;color:red;"">1</div>","null","","","","","","","","","","","","",""
"revaluation","263","1098463","0.0-5.0-7.0-0.0","spark_pilot_norest","11480","2","17","Male","","false","","","","","","[848]","./assets/img/ocean/test/0.jpg","[""ArrowDown""]","first stage test","ocean","0","{""ArrowUp,ArrowLeft"":27,""ArrowUp,ArrowRight"":15,""ArrowDown,ArrowLeft"":21,""ArrowDown,ArrowRight"":7}","false","ArrowDown","false","revaluation","1","","","",""
"html-keyboard-response","264","1098965","0.0-5.0-7.0-1.0","spark_pilot_norest","11480","2","17","Male","","","","","","","","null","<div style=""font-size:60px;"">+</div>","null","fixation","","","","","","","","","","","",""
"revaluation","265","1100007","0.0-5.0-7.0-0.1","spark_pilot_norest","11480","2","17","Male","","false","","","","","","[1029]","./assets/img/ocean/test/3.jpg","[""ArrowDown""]","first stage test","ocean","0","{""ArrowUp,ArrowLeft"":27,""ArrowUp,ArrowRight"":15,""ArrowDown,ArrowLeft"":21,""ArrowDown,ArrowRight"":7}","false","ArrowDown","false","revaluation","1","","","",""
"html-keyboard-response","266","1100509","0.0-5.0-7.0-1.1","spark_pilot_norest","11480","2","17","Male","","","","","","","","null","<div style=""font-size:60px;"">+</div>","null","fixation","","","","","","","","","","","",""
"revaluation","267","1101350","0.0-5.0-7.0-0.2","spark_pilot_norest","11480","2","17","Male","","false","","","","","","[829]","./assets/img/ocean/test/1.jpg","[""ArrowUp""]","first stage test","ocean","0","{""ArrowUp,ArrowLeft"":27,""ArrowUp,ArrowRight"":15,""ArrowDown,ArrowLeft"":21,""ArrowDown,ArrowRight"":7}","true","ArrowUp","false","revaluation","1","","","",""
"html-keyboard-response","268","1101852","0.0-5.0-7.0-1.2","spark_pilot_norest","11480","2","17","Male","","","","","","","","null","<div style=""font-size:60px;"">+</div>","null","fixation","","","","","","","","","","","",""
"revaluation","269","1102630","0.0-5.0-7.0-0.3","spark_pilot_norest","11480","2","17","Male","","false","","","","","","[765.9999999997672]","./assets/img/ocean/test/2.jpg","[""ArrowDown""]","first stage test","ocean","0","{""ArrowUp,ArrowLeft"":27,""ArrowUp,ArrowRight"":15,""ArrowDown,ArrowLeft"":21,""ArrowDown,ArrowRight"":7}","false","ArrowDown","false","revaluation","1","","","",""
"html-keyboard-response","270","1103132","0.0-5.0-7.0-1.3","spark_pilot_norest","11480","2","17","Male","","","","","","","","null","<div style=""font-size:60px;"">+</div>","null","fixation","","","","","","","","","","","",""
"learning-instructions","271","1116600","0.0-5.0-8.0-0.0","spark_pilot_norest","11480","2","17","Male","","","","","","","","null","<p> Now you will see the animals again and can search their chests for treasure. </p>
            <p> This time, you will not see how much treasure you earned, but you will earn more bonus money for making better choices. </p>","","instructions","","","","","","","","","","","",""
"html-keyboard-response","272","1117602","0.0-5.0-9.0-0.0","spark_pilot_norest","11480","2","17","Male","","","","","","","","null","<div style=""font-size:100px;color:red;"">Starting in...</div>","null","","","","","","","","","","","","",""
"html-keyboard-response","273","1118604","0.0-5.0-9.0-1.0","spark_pilot_norest","11480","2","17","Male","","","","","","","","null","<div style=""font-size:200px;color:red;"">3</div>","null","","","","","","","","","","","","",""
"html-keyboard-response","274","1119605","0.0-5.0-9.0-2.0","spark_pilot_norest","11480","2","17","Male","","","","","","","","null","<div style=""font-size:200px;color:red;"">2</div>","null","","","","","","","","","","","","",""
"html-keyboard-response","275","1120606","0.0-5.0-9.0-3.0","spark_pilot_norest","11480","2","17","Male","","","","","","","","null","<div style=""font-size:200px;color:red;"">1</div>","null","","","","","","","","","","","","",""
"revaluation","276","1121566","0.0-5.0-10.0-0.0","spark_pilot_norest","11480","2","17","Male","","false","","","","","","[948]","./assets/img/ocean/animals/seahorse.jpg","[""ArrowLeft""]","second stage test","ocean","0","{""ArrowUp,ArrowLeft"":27,""ArrowUp,ArrowRight"":15,""ArrowDown,ArrowLeft"":21,""ArrowDown,ArrowRight"":7}","true","ArrowUp,ArrowLeft","","revaluation","1","","","",""
"html-keyboard-response","277","1122068","0.0-5.0-10.0-1.0","spark_pilot_norest","11480","2","17","Male","","","","","","","","null","<div style=""font-size:60px;"">+</div>","null","fixation","","","","","","","","","","","",""
"revaluation","278","1122811","0.0-5.0-10.0-0.1","spark_pilot_norest","11480","2","17","Male","","false","","","","","","[734]","./assets/img/ocean/animals/seahorse.jpg","[""ArrowRight""]","second stage test","ocean","0","{""ArrowUp,ArrowLeft"":27,""ArrowUp,ArrowRight"":15,""ArrowDown,ArrowLeft"":21,""ArrowDown,ArrowRight"":7}","false","ArrowUp,ArrowRight","","revaluation","1","","","",""
"html-keyboard-response","279","1123313","0.0-5.0-10.0-1.1","spark_pilot_norest","11480","2","17","Male","","","","","","","","null","<div style=""font-size:60px;"">+</div>","null","fixation","","","","","","","","","","","",""
"revaluation","280","1124548","0.0-5.0-10.0-0.2","spark_pilot_norest","11480","2","17","Male","","false","","","","","","[1226]","./assets/img/ocean/animals/seahorse.jpg","[""ArrowLeft""]","second stage test","ocean","0","{""ArrowUp,ArrowLeft"":27,""ArrowUp,ArrowRight"":15,""ArrowDown,ArrowLeft"":21,""ArrowDown,ArrowRight"":7}","true","ArrowUp,ArrowLeft","","revaluation","1","","","",""
"html-keyboard-response","281","1125049","0.0-5.0-10.0-1.2","spark_pilot_norest","11480","2","17","Male","","","","","","","","null","<div style=""font-size:60px;"">+</div>","null","fixation","","","","","","","","","","","",""
"revaluation","282","1125741","0.0-5.0-10.0-0.3","spark_pilot_norest","11480","2","17","Male","","false","","","","","","[683]","./assets/img/ocean/animals/seahorse.jpg","[""ArrowRight""]","second stage test","ocean","0","{""ArrowUp,ArrowLeft"":27,""ArrowUp,ArrowRight"":15,""ArrowDown,ArrowLeft"":21,""ArrowDown,ArrowRight"":7}","false","ArrowUp,ArrowRight","","revaluation","1","","","",""
"html-keyboard-response","283","1126243","0.0-5.0-10.0-1.3","spark_pilot_norest","11480","2","17","Male","","","","","","","","null","<div style=""font-size:60px;"">+</div>","null","fixation","","","","","","","","","","","",""
"revaluation","284","1127446","0.0-5.0-10.0-0.4","spark_pilot_norest","11480","2","17","Male","","false","","","","","","[1194]","./assets/img/ocean/animals/octopus.jpg","[""ArrowRight""]","second stage test","ocean","0","{""ArrowUp,ArrowLeft"":27,""ArrowUp,ArrowRight"":15,""ArrowDown,ArrowLeft"":21,""ArrowDown,ArrowRight"":7}","false","ArrowDown,ArrowRight","","revaluation","1","","","",""
"html-keyboard-response","285","1127948","0.0-5.0-10.0-1.4","spark_pilot_norest","11480","2","17","Male","","","","","","","","null","<div style=""font-size:60px;"">+</div>","null","fixation","","","","","","","","","","","",""
"revaluation","286","1128402","0.0-5.0-10.0-0.5","spark_pilot_norest","11480","2","17","Male","","false","","","","","","[445]","./assets/img/ocean/animals/octopus.jpg","[""ArrowLeft""]","second stage test","ocean","0","{""ArrowUp,ArrowLeft"":27,""ArrowUp,ArrowRight"":15,""ArrowDown,ArrowLeft"":21,""ArrowDown,ArrowRight"":7}","true","ArrowDown,ArrowLeft","","revaluation","1","","","",""
"html-keyboard-response","287","1128904","0.0-5.0-10.0-1.5","spark_pilot_norest","11480","2","17","Male","","","","","","","","null","<div style=""font-size:60px;"">+</div>","null","fixation","","","","","","","","","","","",""
"revaluation","288","1129466","0.0-5.0-10.0-0.6","spark_pilot_norest","11480","2","17","Male","","false","","","","","","[553]","./assets/img/ocean/animals/octopus.jpg","[""ArrowRight""]","second stage test","ocean","0","{""ArrowUp,ArrowLeft"":27,""ArrowUp,ArrowRight"":15,""ArrowDown,ArrowLeft"":21,""ArrowDown,ArrowRight"":7}","false","ArrowDown,ArrowRight","","revaluation","1","","","",""
"html-keyboard-response","289","1129968","0.0-5.0-10.0-1.6","spark_pilot_norest","11480","2","17","Male","","","","","","","","null","<div style=""font-size:60px;"">+</div>","null","fixation","","","","","","","","","","","",""
"revaluation","290","1130500","0.0-5.0-10.0-0.7","spark_pilot_norest","11480","2","17","Male","","false","","","","","","[521]","./assets/img/ocean/animals/octopus.jpg","[""ArrowLeft""]","second stage test","ocean","0","{""ArrowUp,ArrowLeft"":27,""ArrowUp,ArrowRight"":15,""ArrowDown,ArrowLeft"":21,""ArrowDown,ArrowRight"":7}","true","ArrowDown,ArrowLeft","","revaluation","1","","","",""
"html-keyboard-response","291","1131001","0.0-5.0-10.0-1.7","spark_pilot_norest","11480","2","17","Male","","","","","","","","null","<div style=""font-size:60px;"">+</div>","null","fixation","","","","","","","","","","","",""
"learning-instructions","292","1135671","0.0-5.0-0.1-0.2","spark_pilot_norest","11480","2","17","Male","","","","","","","","1913","<p> This time you are searching for treasure in the <b>canyon</b>.</p>","","instructions","","","","","","","","","","","",""
"learning-instructions","293","1154876","0.0-5.0-0.1-0.3","spark_pilot_norest","11480","2","17","Male","","","","","","","","1955","<p><b>New</b> animals with <b>new</b> treasure chests live here. You need to explore to discover where the animal with the best treasure chest is.</p>
                    <p> Like before, once you figure out which animal has the chest with the most treasure, you should try to get to that animal and select that chest! </p>","","instructions","","","","","","","","","","","",""
"learning-instructions","294","1171884","0.0-5.0-1.1-0.1","spark_pilot_norest","11480","2","17","Male","","","","","","","","2276","<p> Remember, when you see a picture of the place, use the up and down keys to <b>find an animal</b>.</p>
            <p> When you encounter an animal, you should use the left and right keys to <b>select a treasure chest</b>.</p>
            <p> Don't forget to look out for the robber! </p>","","instructions","","","","","","","","","","","",""
"revaluation","295","1177897","0.0-5.0-2.1-0.50","spark_pilot_norest","11480","2","17","Male","","false","","","","","","[760,622]","./assets/img/canyon/memory/35.jpg","[""ArrowDown"",""ArrowRight""]","value training","canyon","17","{""ArrowUp,ArrowLeft"":26,""ArrowUp,ArrowRight"":10,""ArrowDown,ArrowLeft"":5,""ArrowDown,ArrowRight"":17}","false","ArrowDown,ArrowRight","false","original","2","0","","",""
"html-keyboard-response","296","1178399","0.0-5.0-2.1-1.50","spark_pilot_norest","11480","2","17","Male","","","","","","","","null","<div style=""font-size:60px;"">+</div>","null","fixation","","","","","","","","","1","","",""
"revaluation","297","1182413","0.0-5.0-2.1-0.51","spark_pilot_norest","11480","2","17","Male","","false","","","","","","[344]","./assets/img/canyon/catch/0.jpg","[""ArrowDown""]","value training","canyon","-10","{""ArrowUp,ArrowLeft"":26,""ArrowUp,ArrowRight"":10,""ArrowDown,ArrowLeft"":5,""ArrowDown,ArrowRight"":17}","false","ArrowDown","true","original","2","2","","",""
"html-keyboard-response","298","1182915","0.0-5.0-2.1-1.51","spark_pilot_norest","11480","2","17","Male","","","","","","","","null","<div style=""font-size:60px;"">+</div>","null","fixation","","","","","","","","","3","","",""
"revaluation","299","1188928","0.0-5.0-2.1-0.52","spark_pilot_norest","11480","2","17","Male","","false","","","","","","[906.0000000002328,435.00000000023283]","./assets/img/canyon/memory/41.jpg","[""ArrowDown"",""ArrowLeft""]","value training","canyon","5","{""ArrowUp,ArrowLeft"":26,""ArrowUp,ArrowRight"":10,""ArrowDown,ArrowLeft"":5,""ArrowDown,ArrowRight"":17}","false","ArrowDown,ArrowLeft","false","original","2","4","","",""
"html-keyboard-response","300","1189429","0.0-5.0-2.1-1.52","spark_pilot_norest","11480","2","17","Male","","","","","","","","null","<div style=""font-size:60px;"">+</div>","null","fixation","","","","","","","","","5","","",""
"revaluation","301","1195442","0.0-5.0-2.1-0.53","spark_pilot_norest","11480","2","17","Male","","false","","","","","","[562,859]","./assets/img/canyon/memory/25.jpg","[""ArrowUp"",""ArrowLeft""]","value training","canyon","26","{""ArrowUp,ArrowLeft"":26,""ArrowUp,ArrowRight"":10,""ArrowDown,ArrowLeft"":5,""ArrowDown,ArrowRight"":17}","true","ArrowUp,ArrowLeft","false","original","2","6","","",""
"html-keyboard-response","302","1195943","0.0-5.0-2.1-1.53","spark_pilot_norest","11480","2","17","Male","","","","","","","","null","<div style=""font-size:60px;"">+</div>","null","fixation","","","","","","","","","7","","",""
"revaluation","303","1199955","0.0-5.0-2.1-0.54","spark_pilot_norest","11480","2","17","Male","","false","","","","","","[651]","./assets/img/canyon/catch/6.jpg","[""spaceBar""]","value training","canyon","0","{""ArrowUp,ArrowLeft"":26,""ArrowUp,ArrowRight"":10,""ArrowDown,ArrowLeft"":5,""ArrowDown,ArrowRight"":17}","true","spaceBar","true","original","2","8","","",""
"html-keyboard-response","304","1200456","0.0-5.0-2.1-1.54","spark_pilot_norest","11480","2","17","Male","","","","","","","","null","<div style=""font-size:60px;"">+</div>","null","fixation","","","","","","","","","9","","",""
"revaluation","305","1204467","0.0-5.0-2.1-0.55","spark_pilot_norest","11480","2","17","Male","","false","","","","","","[602.9999999997672]","./assets/img/canyon/catch/7.jpg","[""spaceBar""]","value training","canyon","0","{""ArrowUp,ArrowLeft"":26,""ArrowUp,ArrowRight"":10,""ArrowDown,ArrowLeft"":5,""ArrowDown,ArrowRight"":17}","true","spaceBar","true","original","2","10","","",""
"html-keyboard-response","306","1204969","0.0-5.0-2.1-1.55","spark_pilot_norest","11480","2","17","Male","","","","","","","","null","<div style=""font-size:60px;"">+</div>","null","fixation","","","","","","","","","11","","",""
"revaluation","307","1210981","0.0-5.0-2.1-0.56","spark_pilot_norest","11480","2","17","Male","","false","","","","","","[584,363]","./assets/img/canyon/memory/33.jpg","[""ArrowUp"",""ArrowRight""]","value training","canyon","10","{""ArrowUp,ArrowLeft"":26,""ArrowUp,ArrowRight"":10,""ArrowDown,ArrowLeft"":5,""ArrowDown,ArrowRight"":17}","false","ArrowUp,ArrowRight","false","original","2","12","","",""
"html-keyboard-response","308","1211483","0.0-5.0-2.1-1.56","spark_pilot_norest","11480","2","17","Male","","","","","","","","null","<div style=""font-size:60px;"">+</div>","null","fixation","","","","","","","","","13","","",""
"revaluation","309","1217497","0.0-5.0-2.1-0.57","spark_pilot_norest","11480","2","17","Male","","false","","","","","","[533.9999999997672,278.99999999976717]","./assets/img/canyon/memory/7.jpg","[""ArrowUp"",""ArrowLeft""]","value training","canyon","26","{""ArrowUp,ArrowLeft"":26,""ArrowUp,ArrowRight"":10,""ArrowDown,ArrowLeft"":5,""ArrowDown,ArrowRight"":17}","true","ArrowUp,ArrowLeft","false","original","2","14","","",""
"html-keyboard-response","310","1217999","0.0-5.0-2.1-1.57","spark_pilot_norest","11480","2","17","Male","","","","","","","","null","<div style=""font-size:60px;"">+</div>","null","fixation","","","","","","","","","15","","",""
"revaluation","311","1224012","0.0-5.0-2.1-0.58","spark_pilot_norest","11480","2","17","Male","","false","","","","","","[452,411]","./assets/img/canyon/memory/12.jpg","[""ArrowUp"",""ArrowLeft""]","value training","canyon","26","{""ArrowUp,ArrowLeft"":26,""ArrowUp,ArrowRight"":10,""ArrowDown,ArrowLeft"":5,""ArrowDown,ArrowRight"":17}","true","ArrowUp,ArrowLeft","false","original","2","16","","",""
"html-keyboard-response","312","1224514","0.0-5.0-2.1-1.58","spark_pilot_norest","11480","2","17","Male","","","","","","","","null","<div style=""font-size:60px;"">+</div>","null","fixation","","","","","","","","","17","","",""
"revaluation","313","1228529","0.0-5.0-2.1-0.59","spark_pilot_norest","11480","2","17","Male","","false","","","","","","[666]","./assets/img/canyon/catch/1.jpg","[""spaceBar""]","value training","canyon","0","{""ArrowUp,ArrowLeft"":26,""ArrowUp,ArrowRight"":10,""ArrowDown,ArrowLeft"":5,""ArrowDown,ArrowRight"":17}","true","spaceBar","true","original","2","18","","",""
"html-keyboard-response","314","1229031","0.0-5.0-2.1-1.59","spark_pilot_norest","11480","2","17","Male","","","","","","","","null","<div style=""font-size:60px;"">+</div>","null","fixation","","","","","","","","","19","","",""
