"trial_type","trial_index","time_elapsed","internal_node_id","task_version","subject_id","assigned_condition","age","gender","success","timeout","failed_images","failed_audio","failed_video","browser_interaction","rt","stimulus","response","task_part","environment","score","rewardMap","correct","fullState","isCatch","condition","order","trial_num","key_press","ground_truth","bonus"
"pavlovia","0","1482","0.0-0.0","spark_pilot_norest","9610","7","9","Female","","","","","","","","","","","","","","","","","","","","","",""
"preload","1","15359","0.0-1.0","spark_pilot_norest","9610","7","9","Female","true","false","[]","[]","[]","[{""event"":""fullscreenenter"",""trial"":2,""time"":27119}]","","","","","","","","","","","","","","","",""
"fullscreen","2","28101","0.0-2.0","spark_pilot_norest","9610","7","9","Female","true","","","","","","","","","","","","","","","","","","","","",""
"audio-button-response","3","29879","0.0-3.0-0.0-0.0","spark_pilot_norest","9610","7","9","Female","","","","","","","1661","./assets/audio/audiotest/turtle.mp3","2","audio_test","","","","","","","","","","","",""
"learning-instructions","4","39284","0.0-3.0-1.0-0.0","spark_pilot_norest","9610","7","9","Female","","","","","","","2413.9000000953674","<p> Welcome! Please remember to stay in fullscreen mode and don't click away from the experiment. </p>","","instructions","","","","","","","","","","","",""
"learning-instructions","5","49087","0.0-3.0-1.0-0.1","spark_pilot_norest","9610","7","9","Female","","","","","","","1376.8999998569489","<p> Today you will be playing a game to earn treasure. </p>
            <p> At the end of the experiment, you will earn a bonus based on how much treasure you find. </p>
            <img src='./assets/img/instructions/treasure.jpg' class='instructions-image'>","","instructions","","","","","","","","","","","",""
"learning-instructions","6","58640","0.0-3.0-1.0-0.2","spark_pilot_norest","9610","7","9","Female","","","","","","","1279.9000000953674","<p> Animals have hidden treasure in treasure chests. </p>
            <p> You need to first find an animal and then choose which of their treasure chests to search. </p>
            <img src='./assets/img/space/animals/cat.jpg' class='instructions-image'>","","instructions","","","","","","","","","","","",""
"learning-instructions","7","72865","0.0-3.0-1.0-0.3","spark_pilot_norest","9610","7","9","Female","","","","","","","1045","<p> In each round, you will search for treasure in a different place. In the real game, there will be two rounds. </p>
            <p> You will begin with a separate, practice round where you will search for treasure in outer space. </p>
            <img src='./assets/img/space/0.jpg' class='instructions-image'>","","instructions","","","","","","","","","","","",""
"learning-instructions","8","85283","0.0-3.0-1.0-0.4","spark_pilot_norest","9610","7","9","Female","","","","","","","973.9000000953674","<p> On every turn, you will see a picture of the place that you are in, but the specific image may be different each time. </p>
            <p> For example, both of these images mean you are in outer space. </p>
            <img src='./assets/img/instructions/outerspace.jpg' class='instructions-image'>","","instructions","","","","","","","","","","","",""
"learning-instructions","9","94185","0.0-3.0-1.0-0.5","spark_pilot_norest","9610","7","9","Female","","","","","","","1056.2000000476837","<p> You need to decide which direction to travel in. </p>
            <p> You can choose between going <b>up or down</b> by using the arrow keys. </p>
            <img src='./assets/img/instructions/updown.jpg' class='instructions-image'>","","instructions","","","","","","","","","","","",""
"learning-instructions","10","103912","0.0-3.0-1.0-0.6","spark_pilot_norest","9610","7","9","Female","","","","","","","894.0999999046326","<p> You will have <b>2 seconds</b> to make your choice. </p>
            <p> If you do not make a choice within 2 seconds, you will not find an animal or earn treasure. </p>
            <img src='./assets/img/instructions/2seconds.jpg' class='instructions-image'>","","instructions","","","","","","","","","","","",""
"learning-instructions","11","111765","0.0-3.0-1.0-0.7","spark_pilot_norest","9610","7","9","Female","","","","","","","806.3000001907349","<p> Let’s try practicing that now! </p>
            <p> When you see a picture of the place you are in, press the <b>up</b> key to travel up. </p>
            <img src='./assets/img/instructions/pressUp.jpg' class='instructions-image'>","","instructions","","","","","","","","","","","",""
"revaluation","12","115799","0.0-3.0-2.0-0.0","spark_pilot_norest","9610","7","9","Female","","false","","","","","[1783.3999998569489]","./assets/img/space/0.jpg","[""ArrowUp""]","first stage practice","space","0","null","null","ArrowUp","false","","","","","",""
"html-keyboard-response","13","116303","0.0-3.0-2.0-1.0","spark_pilot_norest","9610","7","9","Female","","","","","","","null","<div style=""font-size:60px;"">+</div>","null","fixation","","","","","","","","","","","",""
"revaluation","14","120327","0.0-3.0-2.0-0.1","spark_pilot_norest","9610","7","9","Female","","false","","","","","[1360]","./assets/img/space/1.jpg","[""ArrowUp""]","first stage practice","space","0","null","null","ArrowUp","false","","","","","",""
"html-keyboard-response","15","120828","0.0-3.0-2.0-1.1","spark_pilot_norest","9610","7","9","Female","","","","","","","null","<div style=""font-size:60px;"">+</div>","null","fixation","","","","","","","","","","","",""
"revaluation","16","124840","0.0-3.0-2.0-0.2","spark_pilot_norest","9610","7","9","Female","","false","","","","","[833.5]","./assets/img/space/2.jpg","[""ArrowUp""]","first stage practice","space","0","null","null","ArrowUp","false","","","","","",""
"html-keyboard-response","17","125341","0.0-3.0-2.0-1.2","spark_pilot_norest","9610","7","9","Female","","","","","","","null","<div style=""font-size:60px;"">+</div>","null","fixation","","","","","","","","","","","",""
"learning-instructions","18","132199","0.0-3.0-3.0-0.0","spark_pilot_norest","9610","7","9","Female","","","","","","","2150.7000000476837","<p> Great job! Now try pressing the <b>down</b> key to travel down. </p>
            <img src='./assets/img/instructions/pressDown.jpg' class='instructions-image'>","","instructions","","","","","","","","","","","",""
"revaluation","19","136226","0.0-3.0-4.0-0.0","spark_pilot_norest","9610","7","9","Female","","false","","","","","[699.2000000476837]","./assets/img/space/3.jpg","[""ArrowDown""]","first stage practice","space","0","null","null","ArrowDown","false","","","","","",""
"html-keyboard-response","20","136735","0.0-3.0-4.0-1.0","spark_pilot_norest","9610","7","9","Female","","","","","","","null","<div style=""font-size:60px;"">+</div>","null","fixation","","","","","","","","","","","",""
"revaluation","21","140752","0.0-3.0-4.0-0.1","spark_pilot_norest","9610","7","9","Female","","false","","","","","[1697.4000000953674]","./assets/img/space/4.jpg","[""ArrowDown""]","first stage practice","space","0","null","null","ArrowDown","false","","","","","",""
"html-keyboard-response","22","141256","0.0-3.0-4.0-1.1","spark_pilot_norest","9610","7","9","Female","","","","","","","null","<div style=""font-size:60px;"">+</div>","null","fixation","","","","","","","","","","","",""
"revaluation","23","145268","0.0-3.0-4.0-0.2","spark_pilot_norest","9610","7","9","Female","","false","","","","","[102.29999995231628]","./assets/img/space/5.jpg","[""ArrowDown""]","first stage practice","space","0","null","null","ArrowDown","false","","","","","",""
"html-keyboard-response","24","145784","0.0-3.0-4.0-1.2","spark_pilot_norest","9610","7","9","Female","","","","","","","null","<div style=""font-size:60px;"">+</div>","null","fixation","","","","","","","","","","","",""
"learning-instructions","25","158083","0.0-3.0-5.0-0.0","spark_pilot_norest","9610","7","9","Female","","","","","","","2414.9000000953674","<p> The animals don’t move, so the animal in the upper part of a place will stay in the upper part of a place, and the animal in the lower part of a place will stay in the lower part of a place. </p>","","instructions","","","","","","","","","","","",""
"learning-instructions","26","168594","0.0-3.0-5.0-0.1","spark_pilot_norest","9610","7","9","Female","","","","","","","1366.5999999046326","<p> Each animal has two treasure chests for you to choose from. </p>
            <p> The amount of treasure in each chest can range from <b> 0 to 40 pieces.</b></p>","","instructions","","","","","","","","","","","",""
"learning-instructions","27","181633","0.0-3.0-5.0-0.2","spark_pilot_norest","9610","7","9","Female","","","","","","","1835.0999999046326","<p> You should decide which chest to search for treasure by using the <b>left</b> and <b>right</b> arrow keys. </p>
            <p><b> Pay attention to which animal is on the screen, as the animals have different treasure chests. </b></p>
            <img src='./assets/img/instructions/leftright.jpg' class='instructions-image'>","","instructions","","","","","","","","","","","",""
"learning-instructions","28","191240","0.0-3.0-5.0-0.3","spark_pilot_norest","9610","7","9","Female","","","","","","","3222.600000143051","<p> Let’s try practicing that now. </p>
            <p> When you see an animal, choose which chest to search for treasure. </p>
            <img src='./assets/img/instructions/chooseChest.jpg' class='instructions-image'>","","instructions","","","","","","","","","","","",""
"revaluation","29","195247","0.0-3.0-6.0-0.0","spark_pilot_norest","9610","7","9","Female","","false","","","","","[471.7999999523163]","./assets/img/space/animals/cat.jpg","[""ArrowRight""]","second stage practice","space","36","{""ArrowUp,ArrowLeft"":3,""ArrowUp,ArrowRight"":36,""ArrowDown,ArrowLeft"":15,""ArrowDown,ArrowRight"":23}","true","ArrowUp,ArrowRight","","","","","","",""
"html-keyboard-response","30","195763","0.0-3.0-6.0-1.0","spark_pilot_norest","9610","7","9","Female","","","","","","","null","<div style=""font-size:60px;"">+</div>","null","fixation","","","","","","","","","","","",""
"revaluation","31","199781","0.0-3.0-6.0-0.1","spark_pilot_norest","9610","7","9","Female","","false","","","","","[741.0999999046326]","./assets/img/space/animals/rabbit.jpg","[""ArrowLeft""]","second stage practice","space","15","{""ArrowUp,ArrowLeft"":3,""ArrowUp,ArrowRight"":36,""ArrowDown,ArrowLeft"":15,""ArrowDown,ArrowRight"":23}","false","ArrowDown,ArrowLeft","","","","","","",""
"html-keyboard-response","32","200284","0.0-3.0-6.0-1.1","spark_pilot_norest","9610","7","9","Female","","","","","","","null","<div style=""font-size:60px;"">+</div>","null","fixation","","","","","","","","","","","",""
"revaluation","33","204319","0.0-3.0-6.0-0.2","spark_pilot_norest","9610","7","9","Female","","false","","","","","[323.89999985694885]","./assets/img/space/animals/cat.jpg","[""ArrowRight""]","second stage practice","space","36","{""ArrowUp,ArrowLeft"":3,""ArrowUp,ArrowRight"":36,""ArrowDown,ArrowLeft"":15,""ArrowDown,ArrowRight"":23}","true","ArrowUp,ArrowRight","","","","","","",""
"html-keyboard-response","34","204821","0.0-3.0-6.0-1.2","spark_pilot_norest","9610","7","9","Female","","","","","","","null","<div style=""font-size:60px;"">+</div>","null","fixation","","","","","","","","","","","",""
"revaluation","35","208847","0.0-3.0-6.0-0.3","spark_pilot_norest","9610","7","9","Female","","false","","","","","[459.69999980926514]","./assets/img/space/animals/rabbit.jpg","[""ArrowLeft""]","second stage practice","space","15","{""ArrowUp,ArrowLeft"":3,""ArrowUp,ArrowRight"":36,""ArrowDown,ArrowLeft"":15,""ArrowDown,ArrowRight"":23}","false","ArrowDown,ArrowLeft","","","","","","",""
"html-keyboard-response","36","209356","0.0-3.0-6.0-1.3","spark_pilot_norest","9610","7","9","Female","","","","","","","null","<div style=""font-size:60px;"">+</div>","null","fixation","","","","","","","","","","","",""
"learning-instructions","37","229540","0.0-3.0-7.0-0.0","spark_pilot_norest","9610","7","9","Female","","","","","","","3323.100000143051","<p> Great job. Now let’s try putting it together. </p>
            <p> On each turn, you will first see a picture to remind you of the place you are in, and you need to choose whether to go up or down. </p>
            <p> Then you will see an animal and choose which of its chests to search for treasure. </p>","","instructions","","","","","","","","","","","",""
"learning-instructions","38","238823","0.0-3.0-7.0-0.1","spark_pilot_norest","9610","7","9","Female","","","","","","","996.2999999523163","<p> When you choose whether to go up or down, try to go to the animal with the chest with the most treasure. </p>
            <p> Try practicing that now! </p>","","instructions","","","","","","","","","","","",""
"revaluation","39","244834","0.0-3.0-8.0-0.0","spark_pilot_norest","9610","7","9","Female","","false","","","","","[612.8999998569489,446.2000000476837]","./assets/img/space/6.jpg","[""ArrowUp"",""ArrowRight""]","full practice","space","36","{""ArrowUp,ArrowLeft"":3,""ArrowUp,ArrowRight"":36,""ArrowDown,ArrowLeft"":15,""ArrowDown,ArrowRight"":23}","true","ArrowUp,ArrowRight","false","","","","","",""
"html-keyboard-response","40","245347","0.0-3.0-8.0-1.0","spark_pilot_norest","9610","7","9","Female","","","","","","","null","<div style=""font-size:60px;"">+</div>","null","fixation","","","","","","","","","","","",""
"revaluation","41","251364","0.0-3.0-8.0-0.1","spark_pilot_norest","9610","7","9","Female","","false","","","","","[508.59999990463257,743.2999999523163]","./assets/img/space/7.jpg","[""ArrowDown"",""ArrowRight""]","full practice","space","23","{""ArrowUp,ArrowLeft"":3,""ArrowUp,ArrowRight"":36,""ArrowDown,ArrowLeft"":15,""ArrowDown,ArrowRight"":23}","false","ArrowDown,ArrowRight","false","","","","","",""
"html-keyboard-response","42","251879","0.0-3.0-8.0-1.1","spark_pilot_norest","9610","7","9","Female","","","","","","","null","<div style=""font-size:60px;"">+</div>","null","fixation","","","","","","","","","","","",""
"revaluation","43","257912","0.0-3.0-8.0-0.2","spark_pilot_norest","9610","7","9","Female","","false","","","","","[1193.7000000476837,556]","./assets/img/space/8.jpg","[""ArrowUp"",""ArrowRight""]","full practice","space","36","{""ArrowUp,ArrowLeft"":3,""ArrowUp,ArrowRight"":36,""ArrowDown,ArrowLeft"":15,""ArrowDown,ArrowRight"":23}","true","ArrowUp,ArrowRight","false","","","","","",""
"html-keyboard-response","44","258428","0.0-3.0-8.0-1.2","spark_pilot_norest","9610","7","9","Female","","","","","","","null","<div style=""font-size:60px;"">+</div>","null","fixation","","","","","","","","","","","",""
"revaluation","45","264456","0.0-3.0-8.0-0.3","spark_pilot_norest","9610","7","9","Female","","false","","","","","[359,13.599999904632568]","./assets/img/space/9.jpg","[""ArrowUp"",""ArrowRight""]","full practice","space","36","{""ArrowUp,ArrowLeft"":3,""ArrowUp,ArrowRight"":36,""ArrowDown,ArrowLeft"":15,""ArrowDown,ArrowRight"":23}","true","ArrowUp,ArrowRight","false","","","","","",""
"html-keyboard-response","46","264958","0.0-3.0-8.0-1.3","spark_pilot_norest","9610","7","9","Female","","","","","","","null","<div style=""font-size:60px;"">+</div>","null","fixation","","","","","","","","","","","",""
"revaluation","47","270970","0.0-3.0-8.0-0.4","spark_pilot_norest","9610","7","9","Female","","false","","","","","[357.7000000476837,1387.1000001430511]","./assets/img/space/10.jpg","[""ArrowUp"",""ArrowLeft""]","full practice","space","3","{""ArrowUp,ArrowLeft"":3,""ArrowUp,ArrowRight"":36,""ArrowDown,ArrowLeft"":15,""ArrowDown,ArrowRight"":23}","false","ArrowUp,ArrowLeft","false","","","","","",""
"html-keyboard-response","48","271472","0.0-3.0-8.0-1.4","spark_pilot_norest","9610","7","9","Female","","","","","","","null","<div style=""font-size:60px;"">+</div>","null","fixation","","","","","","","","","","","",""
"learning-instructions","49","283702","0.0-3.0-9.0-0.0","spark_pilot_norest","9610","7","9","Female","","","","","","","1901.6999998092651","<p> One last thing: sometimes, you will see a robber. The robber can be anywhere in the picture. </p>
            <p> If you do not stop them, you will lose treasure. </p>
            <img src='./assets/img/instructions/robber.jpg' class='instructions-image'>","","instructions","","","","","","","","","","","",""
"learning-instructions","50","291839","0.0-3.0-9.0-0.1","spark_pilot_norest","9610","7","9","Female","","","","","","","949.5","<p> If you see the robber, you should <b>press the space bar</b> rather than using the arrow keys. </p>
            <p> Try practicing that now! </p>","","instructions","","","","","","","","","","","",""
"revaluation","51","295861","0.0-3.0-10.0-0.0","spark_pilot_norest","9610","7","9","Female","","false","","","","","[793.0999999046326]","./assets/img/space/catch/0.jpg","[""spaceBar""]","catch practice","space","0","{""ArrowUp,ArrowLeft"":3,""ArrowUp,ArrowRight"":36,""ArrowDown,ArrowLeft"":15,""ArrowDown,ArrowRight"":23}","true","spaceBar","true","","","","","",""
"html-keyboard-response","52","296368","0.0-3.0-10.0-1.0","spark_pilot_norest","9610","7","9","Female","","","","","","","null","<div style=""font-size:60px;"">+</div>","null","fixation","","","","","","","","","","","",""
"revaluation","53","300389","0.0-3.0-10.0-0.1","spark_pilot_norest","9610","7","9","Female","","false","","","","","[831.0999999046326]","./assets/img/space/catch/1.jpg","[""spaceBar""]","catch practice","space","0","{""ArrowUp,ArrowLeft"":3,""ArrowUp,ArrowRight"":36,""ArrowDown,ArrowLeft"":15,""ArrowDown,ArrowRight"":23}","true","spaceBar","true","","","","","",""
"html-keyboard-response","54","300901","0.0-3.0-10.0-1.1","spark_pilot_norest","9610","7","9","Female","","","","","","","null","<div style=""font-size:60px;"">+</div>","null","fixation","","","","","","","","","","","",""
"revaluation","55","304918","0.0-3.0-10.0-0.2","spark_pilot_norest","9610","7","9","Female","","false","","","","","[393.5]","./assets/img/space/catch/2.jpg","[""ArrowUp""]","catch practice","space","-10","{""ArrowUp,ArrowLeft"":3,""ArrowUp,ArrowRight"":36,""ArrowDown,ArrowLeft"":15,""ArrowDown,ArrowRight"":23}","false","ArrowUp","true","","","","","",""
"html-keyboard-response","56","305433","0.0-3.0-10.0-1.2","spark_pilot_norest","9610","7","9","Female","","","","","","","null","<div style=""font-size:60px;"">+</div>","null","fixation","","","","","","","","","","","",""
"learning-instructions","57","314743","0.0-3.0-11.0-0.0-0.0","spark_pilot_norest","9610","7","9","Female","","","","","","","4014.4000000953674","<p> Now, you will practice a shortened version of the game to get a sense of how it all fits together. </p>","","instructions","","","","","","","","","","","",""
"learning-instructions","58","320537","0.0-3.0-11.0-0.0-0.1","spark_pilot_norest","9610","7","9","Female","","","","","","","2598.800000190735","<p>This time you are searching for treasure in outer space.</p>","","instructions","","","","","","","","","","","",""
"learning-instructions","59","336999","0.0-3.0-11.0-1.0-0.0","spark_pilot_norest","9610","7","9","Female","","","","","","","1669.9000000953674","<p> Remember, when you see a picture of the place, use the up and down keys to <b>find an animal</b>.</p>
            <p> When you encounter an animal, you should use the left and right keys to <b>select a treasure chest</b>.</p>
            <p> Don't forget to look out for the robber! </p>","","instructions","","","","","","","","","","","",""
"revaluation","60","343031","0.0-3.0-11.0-2.0-0.0","spark_pilot_norest","9610","7","9","Female","","false","","","","","[1797.3999998569489,582.1000001430511]","./assets/img/space/11.jpg","[""ArrowUp"",""ArrowRight""]","practice block","space","36","{""ArrowUp,ArrowLeft"":3,""ArrowUp,ArrowRight"":36,""ArrowDown,ArrowLeft"":15,""ArrowDown,ArrowRight"":23}","true","ArrowUp,ArrowRight","false","","","","","",""
"html-keyboard-response","61","343538","0.0-3.0-11.0-2.0-1.0","spark_pilot_norest","9610","7","9","Female","","","","","","","null","<div style=""font-size:60px;"">+</div>","null","fixation","","","","","","","","","","","",""
"revaluation","62","349564","0.0-3.0-11.0-2.0-0.1","spark_pilot_norest","9610","7","9","Female","","false","","","","","[1256.5999999046326,540.5999999046326]","./assets/img/space/12.jpg","[""ArrowUp"",""ArrowRight""]","practice block","space","36","{""ArrowUp,ArrowLeft"":3,""ArrowUp,ArrowRight"":36,""ArrowDown,ArrowLeft"":15,""ArrowDown,ArrowRight"":23}","true","ArrowUp,ArrowRight","false","","","","","",""
"html-keyboard-response","63","350073","0.0-3.0-11.0-2.0-1.1","spark_pilot_norest","9610","7","9","Female","","","","","","","null","<div style=""font-size:60px;"">+</div>","null","fixation","","","","","","","","","","","",""
"revaluation","64","356103","0.0-3.0-11.0-2.0-0.2","spark_pilot_norest","9610","7","9","Female","","false","","","","","[1685.2999999523163,607.2000000476837]","./assets/img/space/13.jpg","[""ArrowUp"",""ArrowRight""]","practice block","space","36","{""ArrowUp,ArrowLeft"":3,""ArrowUp,ArrowRight"":36,""ArrowDown,ArrowLeft"":15,""ArrowDown,ArrowRight"":23}","true","ArrowUp,ArrowRight","false","","","","","",""
"html-keyboard-response","65","356615","0.0-3.0-11.0-2.0-1.2","spark_pilot_norest","9610","7","9","Female","","","","","","","null","<div style=""font-size:60px;"">+</div>","null","fixation","","","","","","","","","","","",""
"revaluation","66","362645","0.0-3.0-11.0-2.0-0.3","spark_pilot_norest","9610","7","9","Female","","false","","","","","[663.8000001907349,469]","./assets/img/space/14.jpg","[""ArrowUp"",""ArrowRight""]","practice block","space","36","{""ArrowUp,ArrowLeft"":3,""ArrowUp,ArrowRight"":36,""ArrowDown,ArrowLeft"":15,""ArrowDown,ArrowRight"":23}","true","ArrowUp,ArrowRight","false","","","","","",""
"html-keyboard-response","67","363148","0.0-3.0-11.0-2.0-1.3","spark_pilot_norest","9610","7","9","Female","","","","","","","null","<div style=""font-size:60px;"">+</div>","null","fixation","","","","","","","","","","","",""
"revaluation","68","369165","0.0-3.0-11.0-2.0-0.4","spark_pilot_norest","9610","7","9","Female","","false","","","","","[609.2999999523163,590.5]","./assets/img/space/11.jpg","[""ArrowUp"",""ArrowRight""]","practice block","space","36","{""ArrowUp,ArrowLeft"":3,""ArrowUp,ArrowRight"":36,""ArrowDown,ArrowLeft"":15,""ArrowDown,ArrowRight"":23}","true","ArrowUp,ArrowRight","false","","","","","",""
"html-keyboard-response","69","369668","0.0-3.0-11.0-2.0-1.4","spark_pilot_norest","9610","7","9","Female","","","","","","","null","<div style=""font-size:60px;"">+</div>","null","fixation","","","","","","","","","","","",""
"revaluation","70","375679","0.0-3.0-11.0-2.0-0.5","spark_pilot_norest","9610","7","9","Female","","false","","","","","[901.1000001430511,501.10000014305115]","./assets/img/space/12.jpg","[""ArrowUp"",""ArrowRight""]","practice block","space","36","{""ArrowUp,ArrowLeft"":3,""ArrowUp,ArrowRight"":36,""ArrowDown,ArrowLeft"":15,""ArrowDown,ArrowRight"":23}","true","ArrowUp,ArrowRight","false","","","","","",""
"html-keyboard-response","71","376181","0.0-3.0-11.0-2.0-1.5","spark_pilot_norest","9610","7","9","Female","","","","","","","null","<div style=""font-size:60px;"">+</div>","null","fixation","","","","","","","","","","","",""
"revaluation","72","382192","0.0-3.0-11.0-2.0-0.6","spark_pilot_norest","9610","7","9","Female","","false","","","","","[533.0999999046326,510.2999999523163]","./assets/img/space/13.jpg","[""ArrowUp"",""ArrowRight""]","practice block","space","36","{""ArrowUp,ArrowLeft"":3,""ArrowUp,ArrowRight"":36,""ArrowDown,ArrowLeft"":15,""ArrowDown,ArrowRight"":23}","true","ArrowUp,ArrowRight","false","","","","","",""
"html-keyboard-response","73","382695","0.0-3.0-11.0-2.0-1.6","spark_pilot_norest","9610","7","9","Female","","","","","","","null","<div style=""font-size:60px;"">+</div>","null","fixation","","","","","","","","","","","",""
"revaluation","74","388702","0.0-3.0-11.0-2.0-0.7","spark_pilot_norest","9610","7","9","Female","","false","","","","","[598.7000000476837,1134.4000000953674]","./assets/img/space/14.jpg","[""ArrowUp"",""ArrowRight""]","practice block","space","36","{""ArrowUp,ArrowLeft"":3,""ArrowUp,ArrowRight"":36,""ArrowDown,ArrowLeft"":15,""ArrowDown,ArrowRight"":23}","true","ArrowUp,ArrowRight","false","","","","","",""
"html-keyboard-response","75","389204","0.0-3.0-11.0-2.0-1.7","spark_pilot_norest","9610","7","9","Female","","","","","","","null","<div style=""font-size:60px;"">+</div>","null","fixation","","","","","","","","","","","",""
"revaluation","76","393212","0.0-3.0-11.0-2.0-0.8","spark_pilot_norest","9610","7","9","Female","","false","","","","","[439.39999985694885]","./assets/img/space/catch/3.jpg","[""ArrowUp""]","practice block","space","-10","{""ArrowUp,ArrowLeft"":3,""ArrowUp,ArrowRight"":36,""ArrowDown,ArrowLeft"":15,""ArrowDown,ArrowRight"":23}","false","ArrowUp","true","","","","","",""
"html-keyboard-response","77","393715","0.0-3.0-11.0-2.0-1.8","spark_pilot_norest","9610","7","9","Female","","","","","","","null","<div style=""font-size:60px;"">+</div>","null","fixation","","","","","","","","","","","",""
"learning-instructions","78","408731","0.0-3.0-11.0-3.0-0.0","spark_pilot_norest","9610","7","9","Female","","","","","","","2035.4000000953674","<p> Now, you will travel with a friend who will choose whether you go up or down first. </p>
            <p> On these turns, you will just see the animal that they found. You will still get to choose which chest to search for treasure.</p>","","instructions","","","","","","","","","","","",""
"revaluation","79","412758","0.0-3.0-11.0-4.0-0.0","spark_pilot_norest","9610","7","9","Female","","false","","","","","[931.7999999523163]","./assets/img/space/animals/cat.jpg","[""ArrowRight""]","practice block","space","36","{""ArrowUp,ArrowLeft"":3,""ArrowUp,ArrowRight"":36,""ArrowDown,ArrowLeft"":15,""ArrowDown,ArrowRight"":23}","true","ArrowUp,ArrowRight","","","","","","",""
"html-keyboard-response","80","413259","0.0-3.0-11.0-4.0-1.0","spark_pilot_norest","9610","7","9","Female","","","","","","","null","<div style=""font-size:60px;"">+</div>","null","fixation","","","","","","","","","","","",""
"revaluation","81","417272","0.0-3.0-11.0-4.0-0.1","spark_pilot_norest","9610","7","9","Female","","false","","","","","[582.6999998092651]","./assets/img/space/animals/rabbit.jpg","[""ArrowRight""]","practice block","space","23","{""ArrowUp,ArrowLeft"":3,""ArrowUp,ArrowRight"":36,""ArrowDown,ArrowLeft"":15,""ArrowDown,ArrowRight"":23}","true","ArrowDown,ArrowRight","","","","","","",""
"html-keyboard-response","82","417775","0.0-3.0-11.0-4.0-1.1","spark_pilot_norest","9610","7","9","Female","","","","","","","null","<div style=""font-size:60px;"">+</div>","null","fixation","","","","","","","","","","","",""
"revaluation","83","421791","0.0-3.0-11.0-4.0-0.2","spark_pilot_norest","9610","7","9","Female","","false","","","","","[21.59999990463257]","./assets/img/space/animals/rabbit.jpg","[""ArrowRight""]","practice block","space","23","{""ArrowUp,ArrowLeft"":3,""ArrowUp,ArrowRight"":36,""ArrowDown,ArrowLeft"":15,""ArrowDown,ArrowRight"":23}","true","ArrowDown,ArrowRight","","","","","","",""
"html-keyboard-response","84","422305","0.0-3.0-11.0-4.0-1.2","spark_pilot_norest","9610","7","9","Female","","","","","","","null","<div style=""font-size:60px;"">+</div>","null","fixation","","","","","","","","","","","",""
"revaluation","85","426321","0.0-3.0-11.0-4.0-0.3","spark_pilot_norest","9610","7","9","Female","","false","","","","","[298.10000014305115]","./assets/img/space/animals/cat.jpg","[""ArrowLeft""]","practice block","space","3","{""ArrowUp,ArrowLeft"":3,""ArrowUp,ArrowRight"":36,""ArrowDown,ArrowLeft"":15,""ArrowDown,ArrowRight"":23}","false","ArrowUp,ArrowLeft","","","","","","",""
"html-keyboard-response","86","426838","0.0-3.0-11.0-4.0-1.3","spark_pilot_norest","9610","7","9","Female","","","","","","","null","<div style=""font-size:60px;"">+</div>","null","fixation","","","","","","","","","","","",""
"learning-instructions","87","434999","0.0-3.0-11.0-5.0-0.0","spark_pilot_norest","9610","7","9","Female","","","","","","","null","<p> You have almost finished this part of the game! </p>
            <p> We are going to ask you to make a few more choices. </p>","","instructions","","","","","","","","","","","",""
"learning-instructions","88","451062","0.0-3.0-11.0-5.0-0.1","spark_pilot_norest","9610","7","9","Female","","","","","","","null","<p> First, you need to decide whether to go up or down. When you see each picture, use the arrow keys to make your choice. </p>
            <p><b>You will not see which animal you found, but try to get to the one that will give you the most treasure.</b></p>","","instructions","","","","","","","","","","","",""
"html-keyboard-response","89","452075","0.0-3.0-11.0-6.0-0.0","spark_pilot_norest","9610","7","9","Female","","","","","","","null","<div style=""font-size:100px;color:red;"">Starting in...</div>","null","","","","","","","","","","","","",""
"html-keyboard-response","90","453080","0.0-3.0-11.0-6.0-1.0","spark_pilot_norest","9610","7","9","Female","","","","","","","null","<div style=""font-size:200px;color:red;"">3</div>","null","","","","","","","","","","","","",""
"html-keyboard-response","91","454090","0.0-3.0-11.0-6.0-2.0","spark_pilot_norest","9610","7","9","Female","","","","","","","null","<div style=""font-size:200px;color:red;"">2</div>","null","","","","","","","","","","","","",""
"html-keyboard-response","92","455092","0.0-3.0-11.0-6.0-3.0","spark_pilot_norest","9610","7","9","Female","","","","","","","null","<div style=""font-size:200px;color:red;"">1</div>","null","","","","","","","","","","","","",""
"revaluation","93","455579","0.0-3.0-11.0-7.0","spark_pilot_norest","9610","7","9","Female","","false","","","","","[481]","./assets/img/space/15.jpg","[""ArrowUp""]","practice block","space","0","{""ArrowUp,ArrowLeft"":3,""ArrowUp,ArrowRight"":36,""ArrowDown,ArrowLeft"":15,""ArrowDown,ArrowRight"":23}","true","ArrowUp","false","","","","","",""
"html-keyboard-response","94","456094","0.0-3.0-11.0-8.0","spark_pilot_norest","9610","7","9","Female","","","","","","","null","<div style=""font-size:60px;"">+</div>","null","fixation","","","","","","","","","","","",""
"learning-instructions","95","469509","0.0-3.0-11.0-9.0-0.0","spark_pilot_norest","9610","7","9","Female","","","","","","","null","<p> Now you will see the animals again and can search their chests for treasure. </p>
            <p> This time, you will not see how much treasure you earned, but you will earn more bonus money for making better choices. </p>","","instructions","","","","","","","","","","","",""
"html-keyboard-response","96","470524","0.0-3.0-11.0-10.0-0.0","spark_pilot_norest","9610","7","9","Female","","","","","","","null","<div style=""font-size:100px;color:red;"">Starting in...</div>","null","","","","","","","","","","","","",""
"html-keyboard-response","97","471541","0.0-3.0-11.0-10.0-1.0","spark_pilot_norest","9610","7","9","Female","","","","","","","null","<div style=""font-size:200px;color:red;"">3</div>","null","","","","","","","","","","","","",""
"html-keyboard-response","98","472546","0.0-3.0-11.0-10.0-2.0","spark_pilot_norest","9610","7","9","Female","","","","","","","null","<div style=""font-size:200px;color:red;"">2</div>","null","","","","","","","","","","","","",""
"html-keyboard-response","99","473560","0.0-3.0-11.0-10.0-3.0","spark_pilot_norest","9610","7","9","Female","","","","","","","null","<div style=""font-size:200px;color:red;"">1</div>","null","","","","","","","","","","","","",""
"revaluation","100","474390","0.0-3.0-11.0-11.0-0.0","spark_pilot_norest","9610","7","9","Female","","false","","","","","[820]","./assets/img/space/animals/cat.jpg","[""ArrowRight""]","practice block","space","0","{""ArrowUp,ArrowLeft"":3,""ArrowUp,ArrowRight"":36,""ArrowDown,ArrowLeft"":15,""ArrowDown,ArrowRight"":23}","true","ArrowUp,ArrowRight","","","","","","",""
"html-keyboard-response","101","474904","0.0-3.0-11.0-11.0-1.0","spark_pilot_norest","9610","7","9","Female","","","","","","","null","<div style=""font-size:60px;"">+</div>","null","fixation","","","","","","","","","","","",""
"revaluation","102","475566","0.0-3.0-11.0-11.0-0.1","spark_pilot_norest","9610","7","9","Female","","false","","","","","[653.8000001907349]","./assets/img/space/animals/rabbit.jpg","[""ArrowRight""]","practice block","space","0","{""ArrowUp,ArrowLeft"":3,""ArrowUp,ArrowRight"":36,""ArrowDown,ArrowLeft"":15,""ArrowDown,ArrowRight"":23}","true","ArrowDown,ArrowRight","","","","","","",""
"html-keyboard-response","103","476074","0.0-3.0-11.0-11.0-1.1","spark_pilot_norest","9610","7","9","Female","","","","","","","null","<div style=""font-size:60px;"">+</div>","null","fixation","","","","","","","","","","","",""
"learning-instructions","104","484706","0.0-3.0-12.0-0.0","spark_pilot_norest","9610","7","9","Female","","","","","","","4031.5999999046326","<p> Before you start, we're going to ask you a few questions about how the game works. </p>","","instructions","","","","","","","","","","","",""
"comp-q","105","491496","0.0-3.0-13.0-0.0-0.0","spark_pilot_norest","9610","7","9","Female","","","","","","","1182.6999998092651","<p> <b> True or False? </b> </p>
            <p> There can be 50 pieces of treasure in a given animal's chest. </p>","0","comp_question","","","","false","","","","","","","",""
"comp-q","106","499606","0.0-3.0-13.0-0.0-1.0","spark_pilot_norest","9610","7","9","Female","","","","","","","1572","<p> <b>Incorrect.</b> The amount of treasure in each chest can range from 0 to 40 pieces. </p>","0","comp_answer","","","","","","","","","","","",""
"comp-q","107","506204","0.0-3.0-13.0-0.1-0.1","spark_pilot_norest","9610","7","9","Female","","","","","","","1039.2000000476837","<p> <b> True or False? </b> </p>
            <p> There can be 50 pieces of treasure in a given animal's chest. </p>","1","comp_question","","","","true","","","","","","","",""
"comp-q","108","514210","0.0-3.0-13.0-0.1-1.1","spark_pilot_norest","9610","7","9","Female","","","","","","","1335.4000000953674","<p> <b> That's right! </b> The amount of treasure in each chest can range from 0 to 40 pieces. </p>","0","comp_answer","","","","","","","","","","","",""
"comp-q","109","522155","0.0-3.0-13.0-0.2-0.2","spark_pilot_norest","9610","7","9","Female","","","","","","","821.7999999523163","<p> <b> True or False? </b> </p><p> In this game, all animals have the same amount of treasure in their left and right chests. </p>","1","comp_question","","","","true","","","","","","","",""
"comp-q","110","529217","0.0-3.0-13.0-0.2-1.2","spark_pilot_norest","9610","7","9","Female","","","","","","","1822.3000001907349","<p> <b> That's right! </b> Animals have different amounts of treasure in their treasure chests. </p>","0","comp_answer","","","","","","","","","","","",""
"comp-q","111","535869","0.0-3.0-13.0-0.3-0.3","spark_pilot_norest","9610","7","9","Female","","","","","","","795.1000001430511","<p> <b> True or False? </b> </p><p> The same animal will always be there if you go up in the same place. </p>","0","comp_question","","","","true","","","","","","","",""
"comp-q","112","543981","0.0-3.0-13.0-0.3-1.3","spark_pilot_norest","9610","7","9","Female","","","","","","","1646.7999999523163","<p> <b> That's right! </b> One animal lives in the upper part and one lives in the lower part of every place. </p>","0","comp_answer","","","","","","","","","","","",""
"comp-q","113","550954","0.0-3.0-13.0-0.4-0.4","spark_pilot_norest","9610","7","9","Female","","","","","","","1440.1000001430511","<p> <b> True or False? </b> </p><p> If you see a different picture, it means you are in a new place. </p>","1","comp_question","","","","true","","","","","","","",""
"comp-q","114","563075","0.0-3.0-13.0-0.4-1.4","spark_pilot_norest","9610","7","9","Female","","","","","","","881.9000000953674","<p> <b> That's right! </b> Lots of different images may show the same place. For example,  you may see three different images that all remind you that you are in outer space. </p>","0","comp_answer","","","","","","","","","","","",""
"learning-instructions","115","575302","0.0-3.0-14.0-0.0","spark_pilot_norest","9610","7","9","Female","","","","","","","2359.7000000476837","<p> Good job. Remember to do your best because the amount of treasure you earn will be converted into bonus money. </p>
            <p> It’s time to start the real game! </p>","","instructions","","","","","","","","","","","",""
"learning-instructions","116","580429","0.0-4.0-0.0-0.0","spark_pilot_norest","9610","7","9","Female","","","","","","","2356.100000143051","<p> This time you are searching for treasure in the <b>canyon</b>.</p>","","instructions","","","","","","","","","","","",""
"learning-instructions","117","599758","0.0-4.0-0.0-0.1","spark_pilot_norest","9610","7","9","Female","","","","","","","2005.3999998569489","<p><b>New</b> animals with <b>new</b> treasure chests live here. You need to explore to discover where the animal with the best treasure chest is.</p>
                    <p> Like before, once you figure out which animal has the chest with the most treasure, you should try to get to that animal and select that chest! </p>","","instructions","","","","","","","","","","","",""
"learning-instructions","118","615526","0.0-4.0-1.0-0.0","spark_pilot_norest","9610","7","9","Female","","","","","","","1033.3000001907349","<p> Remember, when you see a picture of the place, use the up and down keys to <b>find an animal</b>.</p>
            <p> When you encounter an animal, you should use the left and right keys to <b>select a treasure chest</b>.</p>
            <p> Don't forget to look out for the robber! </p>","","instructions","","","","","","","","","","","",""
"revaluation","119","621559","0.0-4.0-2.0-0.0","spark_pilot_norest","9610","7","9","Female","","false","","","","","[945.5,352.09999990463257]","./assets/img/canyon/memory/20.jpg","[""ArrowUp"",""ArrowRight""]","value training","canyon","10","{""ArrowUp,ArrowLeft"":23,""ArrowUp,ArrowRight"":10,""ArrowDown,ArrowLeft"":8,""ArrowDown,ArrowRight"":30}","false","ArrowUp,ArrowRight","false","original","1","0","","",""
"html-keyboard-response","120","622068","0.0-4.0-2.0-1.0","spark_pilot_norest","9610","7","9","Female","","","","","","","null","<div style=""font-size:60px;"">+</div>","null","fixation","","","","","","","","","1","","",""
"revaluation","121","626086","0.0-4.0-2.0-0.1","spark_pilot_norest","9610","7","9","Female","","false","","","","","[1.4000000953674316]","./assets/img/canyon/catch/3.jpg","[""ArrowDown""]","value training","canyon","-10","{""ArrowUp,ArrowLeft"":23,""ArrowUp,ArrowRight"":10,""ArrowDown,ArrowLeft"":8,""ArrowDown,ArrowRight"":30}","false","ArrowDown","true","original","1","2","","",""
"html-keyboard-response","122","626588","0.0-4.0-2.0-1.1","spark_pilot_norest","9610","7","9","Female","","","","","","","null","<div style=""font-size:60px;"">+</div>","null","fixation","","","","","","","","","3","","",""
"revaluation","123","632619","0.0-4.0-2.0-0.2","spark_pilot_norest","9610","7","9","Female","","false","","","","","[920.3000001907349,755.8999998569489]","./assets/img/canyon/memory/26.jpg","[""ArrowDown"",""ArrowRight""]","value training","canyon","30","{""ArrowUp,ArrowLeft"":23,""ArrowUp,ArrowRight"":10,""ArrowDown,ArrowLeft"":8,""ArrowDown,ArrowRight"":30}","true","ArrowDown,ArrowRight","false","original","1","4","","",""
"html-keyboard-response","124","633133","0.0-4.0-2.0-1.2","spark_pilot_norest","9610","7","9","Female","","","","","","","null","<div style=""font-size:60px;"">+</div>","null","fixation","","","","","","","","","5","","",""
"revaluation","125","639176","0.0-4.0-2.0-0.3","spark_pilot_norest","9610","7","9","Female","","false","","","","","[417,299.2000000476837]","./assets/img/canyon/memory/22.jpg","[""ArrowUp"",""ArrowRight""]","value training","canyon","10","{""ArrowUp,ArrowLeft"":23,""ArrowUp,ArrowRight"":10,""ArrowDown,ArrowLeft"":8,""ArrowDown,ArrowRight"":30}","false","ArrowUp,ArrowRight","false","original","1","6","","",""
"html-keyboard-response","126","639684","0.0-4.0-2.0-1.3","spark_pilot_norest","9610","7","9","Female","","","","","","","null","<div style=""font-size:60px;"">+</div>","null","fixation","","","","","","","","","7","","",""
"revaluation","127","645708","0.0-4.0-2.0-0.4","spark_pilot_norest","9610","7","9","Female","","false","","","","","[1316.0999999046326,514.5999999046326]","./assets/img/canyon/memory/26.jpg","[""ArrowUp"",""ArrowLeft""]","value training","canyon","23","{""ArrowUp,ArrowLeft"":23,""ArrowUp,ArrowRight"":10,""ArrowDown,ArrowLeft"":8,""ArrowDown,ArrowRight"":30}","false","ArrowUp,ArrowLeft","false","original","1","8","","",""
"html-keyboard-response","128","646211","0.0-4.0-2.0-1.4","spark_pilot_norest","9610","7","9","Female","","","","","","","null","<div style=""font-size:60px;"">+</div>","null","fixation","","","","","","","","","9","","",""
"revaluation","129","652221","0.0-4.0-2.0-0.5","spark_pilot_norest","9610","7","9","Female","","false","","","","","[496.2000000476837,679.2000000476837]","./assets/img/canyon/memory/27.jpg","[""ArrowUp"",""ArrowRight""]","value training","canyon","10","{""ArrowUp,ArrowLeft"":23,""ArrowUp,ArrowRight"":10,""ArrowDown,ArrowLeft"":8,""ArrowDown,ArrowRight"":30}","false","ArrowUp,ArrowRight","false","original","1","10","","",""
"html-keyboard-response","130","652723","0.0-4.0-2.0-1.5","spark_pilot_norest","9610","7","9","Female","","","","","","","null","<div style=""font-size:60px;"">+</div>","null","fixation","","","","","","","","","11","","",""
"revaluation","131","658734","0.0-4.0-2.0-0.6","spark_pilot_norest","9610","7","9","Female","","false","","","","","[681.7999999523163,874.7999999523163]","./assets/img/canyon/memory/28.jpg","[""ArrowUp"",""ArrowLeft""]","value training","canyon","23","{""ArrowUp,ArrowLeft"":23,""ArrowUp,ArrowRight"":10,""ArrowDown,ArrowLeft"":8,""ArrowDown,ArrowRight"":30}","false","ArrowUp,ArrowLeft","false","original","1","12","","",""
"html-keyboard-response","132","659237","0.0-4.0-2.0-1.6","spark_pilot_norest","9610","7","9","Female","","","","","","","null","<div style=""font-size:60px;"">+</div>","null","fixation","","","","","","","","","13","","",""
"revaluation","133","665247","0.0-4.0-2.0-0.7","spark_pilot_norest","9610","7","9","Female","","false","","","","","[947.6000001430511,448.39999985694885]","./assets/img/canyon/memory/33.jpg","[""ArrowUp"",""ArrowLeft""]","value training","canyon","23","{""ArrowUp,ArrowLeft"":23,""ArrowUp,ArrowRight"":10,""ArrowDown,ArrowLeft"":8,""ArrowDown,ArrowRight"":30}","false","ArrowUp,ArrowLeft","false","original","1","14","","",""
"html-keyboard-response","134","665749","0.0-4.0-2.0-1.7","spark_pilot_norest","9610","7","9","Female","","","","","","","null","<div style=""font-size:60px;"">+</div>","null","fixation","","","","","","","","","15","","",""
"revaluation","135","671757","0.0-4.0-2.0-0.8","spark_pilot_norest","9610","7","9","Female","","false","","","","","[430.7000000476837,588.3999998569489]","./assets/img/canyon/memory/12.jpg","[""ArrowUp"",""ArrowLeft""]","value training","canyon","23","{""ArrowUp,ArrowLeft"":23,""ArrowUp,ArrowRight"":10,""ArrowDown,ArrowLeft"":8,""ArrowDown,ArrowRight"":30}","false","ArrowUp,ArrowLeft","false","original","1","16","","",""
"html-keyboard-response","136","672258","0.0-4.0-2.0-1.8","spark_pilot_norest","9610","7","9","Female","","","","","","","null","<div style=""font-size:60px;"">+</div>","null","fixation","","","","","","","","","17","","",""
"revaluation","137","678271","0.0-4.0-2.0-0.9","spark_pilot_norest","9610","7","9","Female","","false","","","","","[676.5,845.7999999523163]","./assets/img/canyon/memory/27.jpg","[""ArrowUp"",""ArrowLeft""]","value training","canyon","23","{""ArrowUp,ArrowLeft"":23,""ArrowUp,ArrowRight"":10,""ArrowDown,ArrowLeft"":8,""ArrowDown,ArrowRight"":30}","false","ArrowUp,ArrowLeft","false","original","1","18","","",""
"html-keyboard-response","138","678773","0.0-4.0-2.0-1.9","spark_pilot_norest","9610","7","9","Female","","","","","","","null","<div style=""font-size:60px;"">+</div>","null","fixation","","","","","","","","","19","","",""
"revaluation","139","684783","0.0-4.0-2.0-0.10","spark_pilot_norest","9610","7","9","Female","","false","","","","","[677.2999999523163,1206.5999999046326]","./assets/img/canyon/memory/19.jpg","[""ArrowUp"",""ArrowLeft""]","value training","canyon","23","{""ArrowUp,ArrowLeft"":23,""ArrowUp,ArrowRight"":10,""ArrowDown,ArrowLeft"":8,""ArrowDown,ArrowRight"":30}","false","ArrowUp,ArrowLeft","false","original","1","20","","",""
"html-keyboard-response","140","685285","0.0-4.0-2.0-1.10","spark_pilot_norest","9610","7","9","Female","","","","","","","null","<div style=""font-size:60px;"">+</div>","null","fixation","","","","","","","","","21","","",""
"revaluation","141","691296","0.0-4.0-2.0-0.11","spark_pilot_norest","9610","7","9","Female","","false","","","","","[399,634.7999999523163]","./assets/img/canyon/memory/15.jpg","[""ArrowUp"",""ArrowLeft""]","value training","canyon","23","{""ArrowUp,ArrowLeft"":23,""ArrowUp,ArrowRight"":10,""ArrowDown,ArrowLeft"":8,""ArrowDown,ArrowRight"":30}","false","ArrowUp,ArrowLeft","false","original","1","22","","",""
"html-keyboard-response","142","691798","0.0-4.0-2.0-1.11","spark_pilot_norest","9610","7","9","Female","","","","","","","null","<div style=""font-size:60px;"">+</div>","null","fixation","","","","","","","","","23","","",""
"revaluation","143","697810","0.0-4.0-2.0-0.12","spark_pilot_norest","9610","7","9","Female","","false","","","","","[717.7000000476837,723.3999998569489]","./assets/img/canyon/memory/22.jpg","[""ArrowUp"",""ArrowLeft""]","value training","canyon","23","{""ArrowUp,ArrowLeft"":23,""ArrowUp,ArrowRight"":10,""ArrowDown,ArrowLeft"":8,""ArrowDown,ArrowRight"":30}","false","ArrowUp,ArrowLeft","false","original","1","24","","",""
"html-keyboard-response","144","698312","0.0-4.0-2.0-1.12","spark_pilot_norest","9610","7","9","Female","","","","","","","null","<div style=""font-size:60px;"">+</div>","null","fixation","","","","","","","","","25","","",""
"revaluation","145","702321","0.0-4.0-2.0-0.13","spark_pilot_norest","9610","7","9","Female","","true","","","","","[]","./assets/img/canyon/memory/5.jpg","[]","value training","canyon","-5","{""ArrowUp,ArrowLeft"":23,""ArrowUp,ArrowRight"":10,""ArrowDown,ArrowLeft"":8,""ArrowDown,ArrowRight"":30}","false","","false","original","1","26","","",""
"html-keyboard-response","146","702823","0.0-4.0-2.0-1.13","spark_pilot_norest","9610","7","9","Female","","","","","","","null","<div style=""font-size:60px;"">+</div>","null","fixation","","","","","","","","","27","","",""
"revaluation","147","708832","0.0-4.0-2.0-0.14","spark_pilot_norest","9610","7","9","Female","","false","","","","","[1371.7999999523163,458.60000014305115]","./assets/img/canyon/memory/21.jpg","[""ArrowUp"",""ArrowLeft""]","value training","canyon","23","{""ArrowUp,ArrowLeft"":23,""ArrowUp,ArrowRight"":10,""ArrowDown,ArrowLeft"":8,""ArrowDown,ArrowRight"":30}","false","ArrowUp,ArrowLeft","false","original","1","28","","",""
"html-keyboard-response","148","709335","0.0-4.0-2.0-1.14","spark_pilot_norest","9610","7","9","Female","","","","","","","null","<div style=""font-size:60px;"">+</div>","null","fixation","","","","","","","","","29","","",""
"revaluation","149","713344","0.0-4.0-2.0-0.15","spark_pilot_norest","9610","7","9","Female","","false","","","","","[508.40000009536743]","./assets/img/canyon/catch/4.jpg","[""ArrowUp""]","value training","canyon","-10","{""ArrowUp,ArrowLeft"":23,""ArrowUp,ArrowRight"":10,""ArrowDown,ArrowLeft"":8,""ArrowDown,ArrowRight"":30}","false","ArrowUp","true","original","1","30","","",""
"html-keyboard-response","150","713846","0.0-4.0-2.0-1.15","spark_pilot_norest","9610","7","9","Female","","","","","","","null","<div style=""font-size:60px;"">+</div>","null","fixation","","","","","","","","","31","","",""
"revaluation","151","717855","0.0-4.0-2.0-0.16","spark_pilot_norest","9610","7","9","Female","","false","","","","","[422]","./assets/img/canyon/catch/6.jpg","[""ArrowUp""]","value training","canyon","-10","{""ArrowUp,ArrowLeft"":23,""ArrowUp,ArrowRight"":10,""ArrowDown,ArrowLeft"":8,""ArrowDown,ArrowRight"":30}","false","ArrowUp","true","original","1","32","","",""
"html-keyboard-response","152","718358","0.0-4.0-2.0-1.16","spark_pilot_norest","9610","7","9","Female","","","","","","","null","<div style=""font-size:60px;"">+</div>","null","fixation","","","","","","","","","33","","",""
"revaluation","153","724367","0.0-4.0-2.0-0.17","spark_pilot_norest","9610","7","9","Female","","false","","","","","[421,500.39999985694885]","./assets/img/canyon/memory/8.jpg","[""ArrowUp"",""ArrowLeft""]","value training","canyon","23","{""ArrowUp,ArrowLeft"":23,""ArrowUp,ArrowRight"":10,""ArrowDown,ArrowLeft"":8,""ArrowDown,ArrowRight"":30}","false","ArrowUp,ArrowLeft","false","original","1","34","","",""
"html-keyboard-response","154","724869","0.0-4.0-2.0-1.17","spark_pilot_norest","9610","7","9","Female","","","","","","","null","<div style=""font-size:60px;"">+</div>","null","fixation","","","","","","","","","35","","",""
"revaluation","155","730880","0.0-4.0-2.0-0.18","spark_pilot_norest","9610","7","9","Female","","false","","","","","[728.6000001430511,635.9000000953674]","./assets/img/canyon/memory/2.jpg","[""ArrowUp"",""ArrowLeft""]","value training","canyon","23","{""ArrowUp,ArrowLeft"":23,""ArrowUp,ArrowRight"":10,""ArrowDown,ArrowLeft"":8,""ArrowDown,ArrowRight"":30}","false","ArrowUp,ArrowLeft","false","original","1","36","","",""
"html-keyboard-response","156","731382","0.0-4.0-2.0-1.18","spark_pilot_norest","9610","7","9","Female","","","","","","","null","<div style=""font-size:60px;"">+</div>","null","fixation","","","","","","","","","37","","",""
"revaluation","157","737391","0.0-4.0-2.0-0.19","spark_pilot_norest","9610","7","9","Female","","false","","","","","[675.5999999046326,646.1000001430511]","./assets/img/canyon/memory/19.jpg","[""ArrowUp"",""ArrowLeft""]","value training","canyon","23","{""ArrowUp,ArrowLeft"":23,""ArrowUp,ArrowRight"":10,""ArrowDown,ArrowLeft"":8,""ArrowDown,ArrowRight"":30}","false","ArrowUp,ArrowLeft","false","original","1","38","","",""
"html-keyboard-response","158","737894","0.0-4.0-2.0-1.19","spark_pilot_norest","9610","7","9","Female","","","","","","","null","<div style=""font-size:60px;"">+</div>","null","fixation","","","","","","","","","39","","",""
"revaluation","159","743905","0.0-4.0-2.0-0.20","spark_pilot_norest","9610","7","9","Female","","false","","","","","[574.3999998569489,725]","./assets/img/canyon/memory/5.jpg","[""ArrowUp"",""ArrowLeft""]","value training","canyon","23","{""ArrowUp,ArrowLeft"":23,""ArrowUp,ArrowRight"":10,""ArrowDown,ArrowLeft"":8,""ArrowDown,ArrowRight"":30}","false","ArrowUp,ArrowLeft","false","original","1","40","","",""
"html-keyboard-response","160","744407","0.0-4.0-2.0-1.20","spark_pilot_norest","9610","7","9","Female","","","","","","","null","<div style=""font-size:60px;"">+</div>","null","fixation","","","","","","","","","41","","",""
"revaluation","161","750418","0.0-4.0-2.0-0.21","spark_pilot_norest","9610","7","9","Female","","false","","","","","[381.10000014305115,480.40000009536743]","./assets/img/canyon/memory/31.jpg","[""ArrowUp"",""ArrowLeft""]","value training","canyon","23","{""ArrowUp,ArrowLeft"":23,""ArrowUp,ArrowRight"":10,""ArrowDown,ArrowLeft"":8,""ArrowDown,ArrowRight"":30}","false","ArrowUp,ArrowLeft","false","original","1","42","","",""
"html-keyboard-response","162","750921","0.0-4.0-2.0-1.21","spark_pilot_norest","9610","7","9","Female","","","","","","","null","<div style=""font-size:60px;"">+</div>","null","fixation","","","","","","","","","43","","",""
"revaluation","163","756932","0.0-4.0-2.0-0.22","spark_pilot_norest","9610","7","9","Female","","false","","","","","[379.2000000476837,1824.5]","./assets/img/canyon/memory/9.jpg","[""ArrowUp"",""ArrowRight""]","value training","canyon","10","{""ArrowUp,ArrowLeft"":23,""ArrowUp,ArrowRight"":10,""ArrowDown,ArrowLeft"":8,""ArrowDown,ArrowRight"":30}","false","ArrowUp,ArrowRight","false","original","1","44","","",""
"html-keyboard-response","164","757434","0.0-4.0-2.0-1.22","spark_pilot_norest","9610","7","9","Female","","","","","","","null","<div style=""font-size:60px;"">+</div>","null","fixation","","","","","","","","","45","","",""
"revaluation","165","763445","0.0-4.0-2.0-0.23","spark_pilot_norest","9610","7","9","Female","","false","","","","","[802.4000000953674,564.6999998092651]","./assets/img/canyon/memory/29.jpg","[""ArrowUp"",""ArrowLeft""]","value training","canyon","23","{""ArrowUp,ArrowLeft"":23,""ArrowUp,ArrowRight"":10,""ArrowDown,ArrowLeft"":8,""ArrowDown,ArrowRight"":30}","false","ArrowUp,ArrowLeft","false","original","1","46","","",""
"html-keyboard-response","166","763947","0.0-4.0-2.0-1.23","spark_pilot_norest","9610","7","9","Female","","","","","","","null","<div style=""font-size:60px;"">+</div>","null","fixation","","","","","","","","","47","","",""
"revaluation","167","769958","0.0-4.0-2.0-0.24","spark_pilot_norest","9610","7","9","Female","","false","","","","","[402.7999999523163,460.89999985694885]","./assets/img/canyon/memory/3.jpg","[""ArrowUp"",""ArrowLeft""]","value training","canyon","23","{""ArrowUp,ArrowLeft"":23,""ArrowUp,ArrowRight"":10,""ArrowDown,ArrowLeft"":8,""ArrowDown,ArrowRight"":30}","false","ArrowUp,ArrowLeft","false","original","1","48","","",""
"html-keyboard-response","168","770461","0.0-4.0-2.0-1.24","spark_pilot_norest","9610","7","9","Female","","","","","","","null","<div style=""font-size:60px;"">+</div>","null","fixation","","","","","","","","","49","","",""
"revaluation","169","776474","0.0-4.0-2.0-0.25","spark_pilot_norest","9610","7","9","Female","","false","","","","","[1086.4000000953674,1697.2999999523163]","./assets/img/canyon/memory/12.jpg","[""ArrowUp"",""ArrowLeft""]","value training","canyon","23","{""ArrowUp,ArrowLeft"":23,""ArrowUp,ArrowRight"":10,""ArrowDown,ArrowLeft"":8,""ArrowDown,ArrowRight"":30}","false","ArrowUp,ArrowLeft","false","original","1","50","","",""
"html-keyboard-response","170","776976","0.0-4.0-2.0-1.25","spark_pilot_norest","9610","7","9","Female","","","","","","","null","<div style=""font-size:60px;"">+</div>","null","fixation","","","","","","","","","51","","",""
"revaluation","171","782987","0.0-4.0-2.0-0.26","spark_pilot_norest","9610","7","9","Female","","false","","","","","[491.30000019073486,900.7999999523163]","./assets/img/canyon/memory/2.jpg","[""ArrowUp"",""ArrowLeft""]","value training","canyon","23","{""ArrowUp,ArrowLeft"":23,""ArrowUp,ArrowRight"":10,""ArrowDown,ArrowLeft"":8,""ArrowDown,ArrowRight"":30}","false","ArrowUp,ArrowLeft","false","original","1","52","","",""
"html-keyboard-response","172","783489","0.0-4.0-2.0-1.26","spark_pilot_norest","9610","7","9","Female","","","","","","","null","<div style=""font-size:60px;"">+</div>","null","fixation","","","","","","","","","53","","",""
"revaluation","173","789500","0.0-4.0-2.0-0.27","spark_pilot_norest","9610","7","9","Female","","false","","","","","[405.2999999523163,986.5]","./assets/img/canyon/memory/20.jpg","[""ArrowUp"",""ArrowLeft""]","value training","canyon","23","{""ArrowUp,ArrowLeft"":23,""ArrowUp,ArrowRight"":10,""ArrowDown,ArrowLeft"":8,""ArrowDown,ArrowRight"":30}","false","ArrowUp,ArrowLeft","false","original","1","54","","",""
"html-keyboard-response","174","790002","0.0-4.0-2.0-1.27","spark_pilot_norest","9610","7","9","Female","","","","","","","null","<div style=""font-size:60px;"">+</div>","null","fixation","","","","","","","","","55","","",""
"revaluation","175","794012","0.0-4.0-2.0-0.28","spark_pilot_norest","9610","7","9","Female","","false","","","","","[991.7999999523163]","./assets/img/canyon/catch/1.jpg","[""ArrowUp""]","value training","canyon","-10","{""ArrowUp,ArrowLeft"":23,""ArrowUp,ArrowRight"":10,""ArrowDown,ArrowLeft"":8,""ArrowDown,ArrowRight"":30}","false","ArrowUp","true","original","1","56","","",""
"html-keyboard-response","176","794514","0.0-4.0-2.0-1.28","spark_pilot_norest","9610","7","9","Female","","","","","","","null","<div style=""font-size:60px;"">+</div>","null","fixation","","","","","","","","","57","","",""
"revaluation","177","798522","0.0-4.0-2.0-0.29","spark_pilot_norest","9610","7","9","Female","","false","","","","","[949.3999998569489]","./assets/img/canyon/catch/7.jpg","[""ArrowUp""]","value training","canyon","-10","{""ArrowUp,ArrowLeft"":23,""ArrowUp,ArrowRight"":10,""ArrowDown,ArrowLeft"":8,""ArrowDown,ArrowRight"":30}","false","ArrowUp","true","original","1","58","","",""
"html-keyboard-response","178","799024","0.0-4.0-2.0-1.29","spark_pilot_norest","9610","7","9","Female","","","","","","","null","<div style=""font-size:60px;"">+</div>","null","fixation","","","","","","","","","59","","",""
"revaluation","179","805033","0.0-4.0-2.0-0.30","spark_pilot_norest","9610","7","9","Female","","false","","","","","[495.19999980926514,1121.9000000953674]","./assets/img/canyon/memory/6.jpg","[""ArrowUp"",""ArrowLeft""]","value training","canyon","23","{""ArrowUp,ArrowLeft"":23,""ArrowUp,ArrowRight"":10,""ArrowDown,ArrowLeft"":8,""ArrowDown,ArrowRight"":30}","false","ArrowUp,ArrowLeft","false","original","1","60","","",""
"html-keyboard-response","180","805536","0.0-4.0-2.0-1.30","spark_pilot_norest","9610","7","9","Female","","","","","","","null","<div style=""font-size:60px;"">+</div>","null","fixation","","","","","","","","","61","","",""
"revaluation","181","811560","0.0-4.0-2.0-0.31","spark_pilot_norest","9610","7","9","Female","","false","","","","","[705.3000001907349,450.2999999523163]","./assets/img/canyon/memory/8.jpg","[""ArrowUp"",""ArrowLeft""]","value training","canyon","23","{""ArrowUp,ArrowLeft"":23,""ArrowUp,ArrowRight"":10,""ArrowDown,ArrowLeft"":8,""ArrowDown,ArrowRight"":30}","false","ArrowUp,ArrowLeft","false","original","1","62","","",""
"html-keyboard-response","182","812062","0.0-4.0-2.0-1.31","spark_pilot_norest","9610","7","9","Female","","","","","","","null","<div style=""font-size:60px;"">+</div>","null","fixation","","","","","","","","","63","","",""
"revaluation","183","818070","0.0-4.0-2.0-0.32","spark_pilot_norest","9610","7","9","Female","","false","","","","","[475.90000009536743,541.5]","./assets/img/canyon/memory/21.jpg","[""ArrowUp"",""ArrowLeft""]","value training","canyon","23","{""ArrowUp,ArrowLeft"":23,""ArrowUp,ArrowRight"":10,""ArrowDown,ArrowLeft"":8,""ArrowDown,ArrowRight"":30}","false","ArrowUp,ArrowLeft","false","original","1","64","","",""
"html-keyboard-response","184","818573","0.0-4.0-2.0-1.32","spark_pilot_norest","9610","7","9","Female","","","","","","","null","<div style=""font-size:60px;"">+</div>","null","fixation","","","","","","","","","65","","",""
"revaluation","185","824584","0.0-4.0-2.0-0.33","spark_pilot_norest","9610","7","9","Female","","false","","","","","[540.2999999523163,457.40000009536743]","./assets/img/canyon/memory/29.jpg","[""ArrowUp"",""ArrowLeft""]","value training","canyon","23","{""ArrowUp,ArrowLeft"":23,""ArrowUp,ArrowRight"":10,""ArrowDown,ArrowLeft"":8,""ArrowDown,ArrowRight"":30}","false","ArrowUp,ArrowLeft","false","original","1","66","","",""
"html-keyboard-response","186","825087","0.0-4.0-2.0-1.33","spark_pilot_norest","9610","7","9","Female","","","","","","","null","<div style=""font-size:60px;"">+</div>","null","fixation","","","","","","","","","67","","",""
"revaluation","187","831104","0.0-4.0-2.0-0.34","spark_pilot_norest","9610","7","9","Female","","false","","","","","[552.8000001907349,539.1000001430511]","./assets/img/canyon/memory/0.jpg","[""ArrowUp"",""ArrowLeft""]","value training","canyon","23","{""ArrowUp,ArrowLeft"":23,""ArrowUp,ArrowRight"":10,""ArrowDown,ArrowLeft"":8,""ArrowDown,ArrowRight"":30}","false","ArrowUp,ArrowLeft","false","original","1","68","","",""
"html-keyboard-response","188","831607","0.0-4.0-2.0-1.34","spark_pilot_norest","9610","7","9","Female","","","","","","","null","<div style=""font-size:60px;"">+</div>","null","fixation","","","","","","","","","69","","",""
"revaluation","189","837618","0.0-4.0-2.0-0.35","spark_pilot_norest","9610","7","9","Female","","false","","","","","[419.89999985694885,555.0999999046326]","./assets/img/canyon/memory/15.jpg","[""ArrowUp"",""ArrowLeft""]","value training","canyon","23","{""ArrowUp,ArrowLeft"":23,""ArrowUp,ArrowRight"":10,""ArrowDown,ArrowLeft"":8,""ArrowDown,ArrowRight"":30}","false","ArrowUp,ArrowLeft","false","original","1","70","","",""
"html-keyboard-response","190","838121","0.0-4.0-2.0-1.35","spark_pilot_norest","9610","7","9","Female","","","","","","","null","<div style=""font-size:60px;"">+</div>","null","fixation","","","","","","","","","71","","",""
"revaluation","191","844131","0.0-4.0-2.0-0.36","spark_pilot_norest","9610","7","9","Female","","false","","","","","[687.2000000476837,743]","./assets/img/canyon/memory/35.jpg","[""ArrowUp"",""ArrowLeft""]","value training","canyon","23","{""ArrowUp,ArrowLeft"":23,""ArrowUp,ArrowRight"":10,""ArrowDown,ArrowLeft"":8,""ArrowDown,ArrowRight"":30}","false","ArrowUp,ArrowLeft","false","original","1","72","","",""
"html-keyboard-response","192","844634","0.0-4.0-2.0-1.36","spark_pilot_norest","9610","7","9","Female","","","","","","","null","<div style=""font-size:60px;"">+</div>","null","fixation","","","","","","","","","73","","",""
"revaluation","193","850646","0.0-4.0-2.0-0.37","spark_pilot_norest","9610","7","9","Female","","false","","","","","[490.60000014305115,478.89999985694885]","./assets/img/canyon/memory/33.jpg","[""ArrowUp"",""ArrowLeft""]","value training","canyon","23","{""ArrowUp,ArrowLeft"":23,""ArrowUp,ArrowRight"":10,""ArrowDown,ArrowLeft"":8,""ArrowDown,ArrowRight"":30}","false","ArrowUp,ArrowLeft","false","original","1","74","","",""
"html-keyboard-response","194","851148","0.0-4.0-2.0-1.37","spark_pilot_norest","9610","7","9","Female","","","","","","","null","<div style=""font-size:60px;"">+</div>","null","fixation","","","","","","","","","75","","",""
"revaluation","195","857168","0.0-4.0-2.0-0.38","spark_pilot_norest","9610","7","9","Female","","false","","","","","[463.59999990463257,630.7000000476837]","./assets/img/canyon/memory/28.jpg","[""ArrowUp"",""ArrowLeft""]","value training","canyon","23","{""ArrowUp,ArrowLeft"":23,""ArrowUp,ArrowRight"":10,""ArrowDown,ArrowLeft"":8,""ArrowDown,ArrowRight"":30}","false","ArrowUp,ArrowLeft","false","original","1","76","","",""
"html-keyboard-response","196","857669","0.0-4.0-2.0-1.38","spark_pilot_norest","9610","7","9","Female","","","","","","","null","<div style=""font-size:60px;"">+</div>","null","fixation","","","","","","","","","77","","",""
"revaluation","197","861677","0.0-4.0-2.0-0.39","spark_pilot_norest","9610","7","9","Female","","false","","","","","[663.7000000476837]","./assets/img/canyon/catch/0.jpg","[""ArrowUp""]","value training","canyon","-10","{""ArrowUp,ArrowLeft"":23,""ArrowUp,ArrowRight"":10,""ArrowDown,ArrowLeft"":8,""ArrowDown,ArrowRight"":30}","false","ArrowUp","true","original","1","78","","",""
"html-keyboard-response","198","862179","0.0-4.0-2.0-1.39","spark_pilot_norest","9610","7","9","Female","","","","","","","null","<div style=""font-size:60px;"">+</div>","null","fixation","","","","","","","","","79","","",""
"revaluation","199","868190","0.0-4.0-2.0-0.40","spark_pilot_norest","9610","7","9","Female","","false","","","","","[467.7000000476837,369.40000009536743]","./assets/img/canyon/memory/3.jpg","[""ArrowUp"",""ArrowLeft""]","value training","canyon","23","{""ArrowUp,ArrowLeft"":23,""ArrowUp,ArrowRight"":10,""ArrowDown,ArrowLeft"":8,""ArrowDown,ArrowRight"":30}","false","ArrowUp,ArrowLeft","false","original","1","80","","",""
"html-keyboard-response","200","868692","0.0-4.0-2.0-1.40","spark_pilot_norest","9610","7","9","Female","","","","","","","null","<div style=""font-size:60px;"">+</div>","null","fixation","","","","","","","","","81","","",""
"revaluation","201","874708","0.0-4.0-2.0-0.41","spark_pilot_norest","9610","7","9","Female","","false","","","","","[577.5,530.0999999046326]","./assets/img/canyon/memory/18.jpg","[""ArrowUp"",""ArrowRight""]","value training","canyon","10","{""ArrowUp,ArrowLeft"":23,""ArrowUp,ArrowRight"":10,""ArrowDown,ArrowLeft"":8,""ArrowDown,ArrowRight"":30}","false","ArrowUp,ArrowRight","false","original","1","82","","",""
"html-keyboard-response","202","875210","0.0-4.0-2.0-1.41","spark_pilot_norest","9610","7","9","Female","","","","","","","null","<div style=""font-size:60px;"">+</div>","null","fixation","","","","","","","","","83","","",""
"revaluation","203","881221","0.0-4.0-2.0-0.42","spark_pilot_norest","9610","7","9","Female","","false","","","","","[722.6999998092651,862.7000000476837]","./assets/img/canyon/memory/31.jpg","[""ArrowDown"",""ArrowRight""]","value training","canyon","30","{""ArrowUp,ArrowLeft"":23,""ArrowUp,ArrowRight"":10,""ArrowDown,ArrowLeft"":8,""ArrowDown,ArrowRight"":30}","true","ArrowDown,ArrowRight","false","original","1","84","","",""
"html-keyboard-response","204","881724","0.0-4.0-2.0-1.42","spark_pilot_norest","9610","7","9","Female","","","","","","","null","<div style=""font-size:60px;"">+</div>","null","fixation","","","","","","","","","85","","",""
"revaluation","205","887736","0.0-4.0-2.0-0.43","spark_pilot_norest","9610","7","9","Female","","false","","","","","[840.2999999523163,370.90000009536743]","./assets/img/canyon/memory/35.jpg","[""ArrowDown"",""ArrowRight""]","value training","canyon","30","{""ArrowUp,ArrowLeft"":23,""ArrowUp,ArrowRight"":10,""ArrowDown,ArrowLeft"":8,""ArrowDown,ArrowRight"":30}","true","ArrowDown,ArrowRight","false","original","1","86","","",""
"html-keyboard-response","206","888238","0.0-4.0-2.0-1.43","spark_pilot_norest","9610","7","9","Female","","","","","","","null","<div style=""font-size:60px;"">+</div>","null","fixation","","","","","","","","","87","","",""
"revaluation","207","894247","0.0-4.0-2.0-0.44","spark_pilot_norest","9610","7","9","Female","","false","","","","","[713.3999998569489,453.59999990463257]","./assets/img/canyon/memory/9.jpg","[""ArrowDown"",""ArrowRight""]","value training","canyon","30","{""ArrowUp,ArrowLeft"":23,""ArrowUp,ArrowRight"":10,""ArrowDown,ArrowLeft"":8,""ArrowDown,ArrowRight"":30}","true","ArrowDown,ArrowRight","false","original","1","88","","",""
"html-keyboard-response","208","894750","0.0-4.0-2.0-1.44","spark_pilot_norest","9610","7","9","Female","","","","","","","null","<div style=""font-size:60px;"">+</div>","null","fixation","","","","","","","","","89","","",""
"revaluation","209","898763","0.0-4.0-2.0-0.45","spark_pilot_norest","9610","7","9","Female","","false","","","","","[1372.7000000476837]","./assets/img/canyon/catch/2.jpg","[""spaceBar""]","value training","canyon","0","{""ArrowUp,ArrowLeft"":23,""ArrowUp,ArrowRight"":10,""ArrowDown,ArrowLeft"":8,""ArrowDown,ArrowRight"":30}","true","spaceBar","true","original","1","90","","",""
"html-keyboard-response","210","899266","0.0-4.0-2.0-1.45","spark_pilot_norest","9610","7","9","Female","","","","","","","null","<div style=""font-size:60px;"">+</div>","null","fixation","","","","","","","","","91","","",""
"revaluation","211","905277","0.0-4.0-2.0-0.46","spark_pilot_norest","9610","7","9","Female","","false","","","","","[1111,486.59999990463257]","./assets/img/canyon/memory/0.jpg","[""ArrowDown"",""ArrowRight""]","value training","canyon","30","{""ArrowUp,ArrowLeft"":23,""ArrowUp,ArrowRight"":10,""ArrowDown,ArrowLeft"":8,""ArrowDown,ArrowRight"":30}","true","ArrowDown,ArrowRight","false","original","1","92","","",""
"html-keyboard-response","212","905779","0.0-4.0-2.0-1.46","spark_pilot_norest","9610","7","9","Female","","","","","","","null","<div style=""font-size:60px;"">+</div>","null","fixation","","","","","","","","","93","","",""
"revaluation","213","909789","0.0-4.0-2.0-0.47","spark_pilot_norest","9610","7","9","Female","","false","","","","","[890.0999999046326]","./assets/img/canyon/catch/5.jpg","[""spaceBar""]","value training","canyon","0","{""ArrowUp,ArrowLeft"":23,""ArrowUp,ArrowRight"":10,""ArrowDown,ArrowLeft"":8,""ArrowDown,ArrowRight"":30}","true","spaceBar","true","original","1","94","","",""
"html-keyboard-response","214","910291","0.0-4.0-2.0-1.47","spark_pilot_norest","9610","7","9","Female","","","","","","","null","<div style=""font-size:60px;"">+</div>","null","fixation","","","","","","","","","95","","",""
"revaluation","215","916303","0.0-4.0-2.0-0.48","spark_pilot_norest","9610","7","9","Female","","false","","","","","[473,574]","./assets/img/canyon/memory/18.jpg","[""ArrowDown"",""ArrowRight""]","value training","canyon","30","{""ArrowUp,ArrowLeft"":23,""ArrowUp,ArrowRight"":10,""ArrowDown,ArrowLeft"":8,""ArrowDown,ArrowRight"":30}","true","ArrowDown,ArrowRight","false","original","1","96","","",""
"html-keyboard-response","216","916806","0.0-4.0-2.0-1.48","spark_pilot_norest","9610","7","9","Female","","","","","","","null","<div style=""font-size:60px;"">+</div>","null","fixation","","","","","","","","","97","","",""
"revaluation","217","922816","0.0-4.0-2.0-0.49","spark_pilot_norest","9610","7","9","Female","","false","","","","","[1013,565]","./assets/img/canyon/memory/6.jpg","[""ArrowDown"",""ArrowRight""]","value training","canyon","30","{""ArrowUp,ArrowLeft"":23,""ArrowUp,ArrowRight"":10,""ArrowDown,ArrowLeft"":8,""ArrowDown,ArrowRight"":30}","true","ArrowDown,ArrowRight","false","original","1","98","","",""
"html-keyboard-response","218","923318","0.0-4.0-2.0-1.49","spark_pilot_norest","9610","7","9","Female","","","","","","","null","<div style=""font-size:60px;"">+</div>","null","fixation","","","","","","","","","99","","",""
"learning-instructions","219","937502","0.0-4.0-3.0-0.0","spark_pilot_norest","9610","7","9","Female","","","","","","","1245.7000000476837","<p> Now, you will travel with a friend who will choose whether you go up or down first. </p>
            <p> On these turns, you will just see the animal that they found. You will still get to choose which chest to search for treasure.</p>","","instructions","","","","","","","","","","","",""
"revaluation","220","941517","0.0-4.0-4.0-0.0","spark_pilot_norest","9610","7","9","Female","","false","","","","","[801.6999998092651]","./assets/img/canyon/animals/giraffe.jpg","[""ArrowRight""]","revaluation","canyon","10","{""ArrowUp,ArrowLeft"":23,""ArrowUp,ArrowRight"":10,""ArrowDown,ArrowLeft"":8,""ArrowDown,ArrowRight"":30}","false","ArrowUp,ArrowRight","","original","1","0","","",""
"html-keyboard-response","221","942027","0.0-4.0-4.0-1.0","spark_pilot_norest","9610","7","9","Female","","","","","","","null","<div style=""font-size:60px;"">+</div>","null","fixation","","","","","","","","","1","","",""
"revaluation","222","946041","0.0-4.0-4.0-0.1","spark_pilot_norest","9610","7","9","Female","","false","","","","","[831.5999999046326]","./assets/img/canyon/animals/giraffe.jpg","[""ArrowLeft""]","revaluation","canyon","23","{""ArrowUp,ArrowLeft"":23,""ArrowUp,ArrowRight"":10,""ArrowDown,ArrowLeft"":8,""ArrowDown,ArrowRight"":30}","true","ArrowUp,ArrowLeft","","original","1","2","","",""
"html-keyboard-response","223","946556","0.0-4.0-4.0-1.1","spark_pilot_norest","9610","7","9","Female","","","","","","","null","<div style=""font-size:60px;"">+</div>","null","fixation","","","","","","","","","3","","",""
"revaluation","224","950579","0.0-4.0-4.0-0.2","spark_pilot_norest","9610","7","9","Female","","false","","","","","[396.7999999523163]","./assets/img/canyon/animals/giraffe.jpg","[""ArrowRight""]","revaluation","canyon","10","{""ArrowUp,ArrowLeft"":23,""ArrowUp,ArrowRight"":10,""ArrowDown,ArrowLeft"":8,""ArrowDown,ArrowRight"":30}","false","ArrowUp,ArrowRight","","original","1","4","","",""
"html-keyboard-response","225","951082","0.0-4.0-4.0-1.2","spark_pilot_norest","9610","7","9","Female","","","","","","","null","<div style=""font-size:60px;"">+</div>","null","fixation","","","","","","","","","5","","",""
"revaluation","226","955106","0.0-4.0-4.0-0.3","spark_pilot_norest","9610","7","9","Female","","false","","","","","[725.7999999523163]","./assets/img/canyon/animals/giraffe.jpg","[""ArrowLeft""]","revaluation","canyon","23","{""ArrowUp,ArrowLeft"":23,""ArrowUp,ArrowRight"":10,""ArrowDown,ArrowLeft"":8,""ArrowDown,ArrowRight"":30}","true","ArrowUp,ArrowLeft","","original","1","6","","",""
"html-keyboard-response","227","955616","0.0-4.0-4.0-1.3","spark_pilot_norest","9610","7","9","Female","","","","","","","null","<div style=""font-size:60px;"">+</div>","null","fixation","","","","","","","","","7","","",""
"revaluation","228","959642","0.0-4.0-4.0-0.4","spark_pilot_norest","9610","7","9","Female","","false","","","","","[935.4000000953674]","./assets/img/canyon/animals/lion.jpg","[""ArrowLeft""]","revaluation","canyon","8","{""ArrowUp,ArrowLeft"":23,""ArrowUp,ArrowRight"":10,""ArrowDown,ArrowLeft"":8,""ArrowDown,ArrowRight"":30}","false","ArrowDown,ArrowLeft","","original","1","8","","",""
"html-keyboard-response","229","960156","0.0-4.0-4.0-1.4","spark_pilot_norest","9610","7","9","Female","","","","","","","null","<div style=""font-size:60px;"">+</div>","null","fixation","","","","","","","","","9","","",""
"revaluation","230","964186","0.0-4.0-4.0-0.5","spark_pilot_norest","9610","7","9","Female","","false","","","","","[933.6000001430511]","./assets/img/canyon/animals/lion.jpg","[""ArrowRight""]","revaluation","canyon","30","{""ArrowUp,ArrowLeft"":23,""ArrowUp,ArrowRight"":10,""ArrowDown,ArrowLeft"":8,""ArrowDown,ArrowRight"":30}","true","ArrowDown,ArrowRight","","original","1","10","","",""
"html-keyboard-response","231","964702","0.0-4.0-4.0-1.5","spark_pilot_norest","9610","7","9","Female","","","","","","","null","<div style=""font-size:60px;"">+</div>","null","fixation","","","","","","","","","11","","",""
"revaluation","232","968713","0.0-4.0-4.0-0.6","spark_pilot_norest","9610","7","9","Female","","false","","","","","[958.5]","./assets/img/canyon/animals/giraffe.jpg","[""ArrowLeft""]","revaluation","canyon","23","{""ArrowUp,ArrowLeft"":23,""ArrowUp,ArrowRight"":10,""ArrowDown,ArrowLeft"":8,""ArrowDown,ArrowRight"":30}","true","ArrowUp,ArrowLeft","","original","1","12","","",""
"html-keyboard-response","233","969215","0.0-4.0-4.0-1.6","spark_pilot_norest","9610","7","9","Female","","","","","","","null","<div style=""font-size:60px;"">+</div>","null","fixation","","","","","","","","","13","","",""
"revaluation","234","973227","0.0-4.0-4.0-0.7","spark_pilot_norest","9610","7","9","Female","","false","","","","","[885.5]","./assets/img/canyon/animals/giraffe.jpg","[""ArrowLeft""]","revaluation","canyon","23","{""ArrowUp,ArrowLeft"":23,""ArrowUp,ArrowRight"":10,""ArrowDown,ArrowLeft"":8,""ArrowDown,ArrowRight"":30}","true","ArrowUp,ArrowLeft","","original","1","14","","",""
"html-keyboard-response","235","973729","0.0-4.0-4.0-1.7","spark_pilot_norest","9610","7","9","Female","","","","","","","null","<div style=""font-size:60px;"">+</div>","null","fixation","","","","","","","","","15","","",""
"revaluation","236","977739","0.0-4.0-4.0-0.8","spark_pilot_norest","9610","7","9","Female","","false","","","","","[1029.2000000476837]","./assets/img/canyon/animals/lion.jpg","[""ArrowRight""]","revaluation","canyon","30","{""ArrowUp,ArrowLeft"":23,""ArrowUp,ArrowRight"":10,""ArrowDown,ArrowLeft"":8,""ArrowDown,ArrowRight"":30}","true","ArrowDown,ArrowRight","","original","1","16","","",""
"html-keyboard-response","237","978242","0.0-4.0-4.0-1.8","spark_pilot_norest","9610","7","9","Female","","","","","","","null","<div style=""font-size:60px;"">+</div>","null","fixation","","","","","","","","","17","","",""
"revaluation","238","982251","0.0-4.0-4.0-0.9","spark_pilot_norest","9610","7","9","Female","","false","","","","","[836]","./assets/img/canyon/animals/lion.jpg","[""ArrowRight""]","revaluation","canyon","30","{""ArrowUp,ArrowLeft"":23,""ArrowUp,ArrowRight"":10,""ArrowDown,ArrowLeft"":8,""ArrowDown,ArrowRight"":30}","true","ArrowDown,ArrowRight","","original","1","18","","",""
"html-keyboard-response","239","982753","0.0-4.0-4.0-1.9","spark_pilot_norest","9610","7","9","Female","","","","","","","null","<div style=""font-size:60px;"">+</div>","null","fixation","","","","","","","","","19","","",""
"revaluation","240","986760","0.0-4.0-4.0-0.10","spark_pilot_norest","9610","7","9","Female","","false","","","","","[1013.1000001430511]","./assets/img/canyon/animals/giraffe.jpg","[""ArrowLeft""]","revaluation","canyon","23","{""ArrowUp,ArrowLeft"":23,""ArrowUp,ArrowRight"":10,""ArrowDown,ArrowLeft"":8,""ArrowDown,ArrowRight"":30}","true","ArrowUp,ArrowLeft","","original","1","20","","",""
"html-keyboard-response","241","987262","0.0-4.0-4.0-1.10","spark_pilot_norest","9610","7","9","Female","","","","","","","null","<div style=""font-size:60px;"">+</div>","null","fixation","","","","","","","","","21","","",""
"revaluation","242","991269","0.0-4.0-4.0-0.11","spark_pilot_norest","9610","7","9","Female","","false","","","","","[459.30000019073486]","./assets/img/canyon/animals/lion.jpg","[""ArrowRight""]","revaluation","canyon","30","{""ArrowUp,ArrowLeft"":23,""ArrowUp,ArrowRight"":10,""ArrowDown,ArrowLeft"":8,""ArrowDown,ArrowRight"":30}","true","ArrowDown,ArrowRight","","original","1","22","","",""
"html-keyboard-response","243","991771","0.0-4.0-4.0-1.11","spark_pilot_norest","9610","7","9","Female","","","","","","","null","<div style=""font-size:60px;"">+</div>","null","fixation","","","","","","","","","23","","",""
"revaluation","244","995781","0.0-4.0-4.0-0.12","spark_pilot_norest","9610","7","9","Female","","false","","","","","[522.5999999046326]","./assets/img/canyon/animals/giraffe.jpg","[""ArrowLeft""]","revaluation","canyon","23","{""ArrowUp,ArrowLeft"":23,""ArrowUp,ArrowRight"":10,""ArrowDown,ArrowLeft"":8,""ArrowDown,ArrowRight"":30}","true","ArrowUp,ArrowLeft","","original","1","24","","",""
"html-keyboard-response","245","996284","0.0-4.0-4.0-1.12","spark_pilot_norest","9610","7","9","Female","","","","","","","null","<div style=""font-size:60px;"">+</div>","null","fixation","","","","","","","","","25","","",""
"revaluation","246","1000294","0.0-4.0-4.0-0.13","spark_pilot_norest","9610","7","9","Female","","false","","","","","[663.8999998569489]","./assets/img/canyon/animals/lion.jpg","[""ArrowRight""]","revaluation","canyon","30","{""ArrowUp,ArrowLeft"":23,""ArrowUp,ArrowRight"":10,""ArrowDown,ArrowLeft"":8,""ArrowDown,ArrowRight"":30}","true","ArrowDown,ArrowRight","","original","1","26","","",""
"html-keyboard-response","247","1000798","0.0-4.0-4.0-1.13","spark_pilot_norest","9610","7","9","Female","","","","","","","null","<div style=""font-size:60px;"">+</div>","null","fixation","","","","","","","","","27","","",""
"revaluation","248","1004807","0.0-4.0-4.0-0.14","spark_pilot_norest","9610","7","9","Female","","false","","","","","[723]","./assets/img/canyon/animals/giraffe.jpg","[""ArrowLeft""]","revaluation","canyon","23","{""ArrowUp,ArrowLeft"":23,""ArrowUp,ArrowRight"":10,""ArrowDown,ArrowLeft"":8,""ArrowDown,ArrowRight"":30}","true","ArrowUp,ArrowLeft","","original","1","28","","",""
"html-keyboard-response","249","1005310","0.0-4.0-4.0-1.14","spark_pilot_norest","9610","7","9","Female","","","","","","","null","<div style=""font-size:60px;"">+</div>","null","fixation","","","","","","","","","29","","",""
"revaluation","250","1009323","0.0-4.0-4.0-0.15","spark_pilot_norest","9610","7","9","Female","","false","","","","","[1182.1000001430511]","./assets/img/canyon/animals/lion.jpg","[""ArrowRight""]","revaluation","canyon","30","{""ArrowUp,ArrowLeft"":23,""ArrowUp,ArrowRight"":10,""ArrowDown,ArrowLeft"":8,""ArrowDown,ArrowRight"":30}","true","ArrowDown,ArrowRight","","original","1","30","","",""
"html-keyboard-response","251","1009826","0.0-4.0-4.0-1.15","spark_pilot_norest","9610","7","9","Female","","","","","","","null","<div style=""font-size:60px;"">+</div>","null","fixation","","","","","","","","","31","","",""
"revaluation","252","1013836","0.0-4.0-4.0-0.16","spark_pilot_norest","9610","7","9","Female","","false","","","","","[530.2999999523163]","./assets/img/canyon/animals/lion.jpg","[""ArrowLeft""]","revaluation","canyon","8","{""ArrowUp,ArrowLeft"":23,""ArrowUp,ArrowRight"":10,""ArrowDown,ArrowLeft"":8,""ArrowDown,ArrowRight"":30}","false","ArrowDown,ArrowLeft","","original","1","32","","",""
"html-keyboard-response","253","1014339","0.0-4.0-4.0-1.16","spark_pilot_norest","9610","7","9","Female","","","","","","","null","<div style=""font-size:60px;"">+</div>","null","fixation","","","","","","","","","33","","",""
"revaluation","254","1018349","0.0-4.0-4.0-0.17","spark_pilot_norest","9610","7","9","Female","","false","","","","","[793.4000000953674]","./assets/img/canyon/animals/lion.jpg","[""ArrowRight""]","revaluation","canyon","30","{""ArrowUp,ArrowLeft"":23,""ArrowUp,ArrowRight"":10,""ArrowDown,ArrowLeft"":8,""ArrowDown,ArrowRight"":30}","true","ArrowDown,ArrowRight","","original","1","34","","",""
"html-keyboard-response","255","1018851","0.0-4.0-4.0-1.17","spark_pilot_norest","9610","7","9","Female","","","","","","","null","<div style=""font-size:60px;"">+</div>","null","fixation","","","","","","","","","35","","",""
"learning-instructions","256","1027033","0.0-4.0-5.0-0.0","spark_pilot_norest","9610","7","9","Female","","","","","","","null","<p> You have almost finished this part of the game! </p>
            <p> We are going to ask you to make a few more choices. </p>","","instructions","","","","","","","","","","","",""
"learning-instructions","257","1043001","0.0-4.0-5.0-0.1","spark_pilot_norest","9610","7","9","Female","","","","","","","null","<p> First, you need to decide whether to go up or down. When you see each picture, use the arrow keys to make your choice. </p>
            <p><b>You will not see which animal you found, but try to get to the one that will give you the most treasure.</b></p>","","instructions","","","","","","","","","","","",""
"html-keyboard-response","258","1044004","0.0-4.0-6.0-0.0","spark_pilot_norest","9610","7","9","Female","","","","","","","null","<div style=""font-size:100px;color:red;"">Starting in...</div>","null","","","","","","","","","","","","",""
"html-keyboard-response","259","1045012","0.0-4.0-6.0-1.0","spark_pilot_norest","9610","7","9","Female","","","","","","","null","<div style=""font-size:200px;color:red;"">3</div>","null","","","","","","","","","","","","",""
"html-keyboard-response","260","1046017","0.0-4.0-6.0-2.0","spark_pilot_norest","9610","7","9","Female","","","","","","","null","<div style=""font-size:200px;color:red;"">2</div>","null","","","","","","","","","","","","",""
"html-keyboard-response","261","1047019","0.0-4.0-6.0-3.0","spark_pilot_norest","9610","7","9","Female","","","","","","","null","<div style=""font-size:200px;color:red;"">1</div>","null","","","","","","","","","","","","",""
"revaluation","262","1047849","0.0-4.0-7.0-0.0","spark_pilot_norest","9610","7","9","Female","","false","","","","","[821.5]","./assets/img/canyon/test/1.jpg","[""ArrowUp""]","first stage test","canyon","0","{""ArrowUp,ArrowLeft"":23,""ArrowUp,ArrowRight"":10,""ArrowDown,ArrowLeft"":8,""ArrowDown,ArrowRight"":30}","false","ArrowUp","false","original","1","","","",""
"html-keyboard-response","263","1048352","0.0-4.0-7.0-1.0","spark_pilot_norest","9610","7","9","Female","","","","","","","null","<div style=""font-size:60px;"">+</div>","null","fixation","","","","","","","","","","","",""
"revaluation","264","1049117","0.0-4.0-7.0-0.1","spark_pilot_norest","9610","7","9","Female","","false","","","","","[757.2999999523163]","./assets/img/canyon/test/3.jpg","[""ArrowUp""]","first stage test","canyon","0","{""ArrowUp,ArrowLeft"":23,""ArrowUp,ArrowRight"":10,""ArrowDown,ArrowLeft"":8,""ArrowDown,ArrowRight"":30}","false","ArrowUp","false","original","1","","","",""
"html-keyboard-response","265","1049632","0.0-4.0-7.0-1.1","spark_pilot_norest","9610","7","9","Female","","","","","","","null","<div style=""font-size:60px;"">+</div>","null","fixation","","","","","","","","","","","",""
"revaluation","266","1050131","0.0-4.0-7.0-0.2","spark_pilot_norest","9610","7","9","Female","","false","","","","","[491.7999999523163]","./assets/img/canyon/test/2.jpg","[""ArrowUp""]","first stage test","canyon","0","{""ArrowUp,ArrowLeft"":23,""ArrowUp,ArrowRight"":10,""ArrowDown,ArrowLeft"":8,""ArrowDown,ArrowRight"":30}","false","ArrowUp","false","original","1","","","",""
"html-keyboard-response","267","1050648","0.0-4.0-7.0-1.2","spark_pilot_norest","9610","7","9","Female","","","","","","","null","<div style=""font-size:60px;"">+</div>","null","fixation","","","","","","","","","","","",""
"revaluation","268","1051104","0.0-4.0-7.0-0.3","spark_pilot_norest","9610","7","9","Female","","false","","","","","[448.7999999523163]","./assets/img/canyon/test/0.jpg","[""ArrowUp""]","first stage test","canyon","0","{""ArrowUp,ArrowLeft"":23,""ArrowUp,ArrowRight"":10,""ArrowDown,ArrowLeft"":8,""ArrowDown,ArrowRight"":30}","false","ArrowUp","false","original","1","","","",""
"html-keyboard-response","269","1051606","0.0-4.0-7.0-1.3","spark_pilot_norest","9610","7","9","Female","","","","","","","null","<div style=""font-size:60px;"">+</div>","null","fixation","","","","","","","","","","","",""
"learning-instructions","270","1064953","0.0-4.0-8.0-0.0","spark_pilot_norest","9610","7","9","Female","","","","","","","null","<p> Now you will see the animals again and can search their chests for treasure. </p>
            <p> This time, you will not see how much treasure you earned, but you will earn more bonus money for making better choices. </p>","","instructions","","","","","","","","","","","",""
"html-keyboard-response","271","1065956","0.0-4.0-9.0-0.0","spark_pilot_norest","9610","7","9","Female","","","","","","","null","<div style=""font-size:100px;color:red;"">Starting in...</div>","null","","","","","","","","","","","","",""
"html-keyboard-response","272","1066958","0.0-4.0-9.0-1.0","spark_pilot_norest","9610","7","9","Female","","","","","","","null","<div style=""font-size:200px;color:red;"">3</div>","null","","","","","","","","","","","","",""
"html-keyboard-response","273","1067974","0.0-4.0-9.0-2.0","spark_pilot_norest","9610","7","9","Female","","","","","","","null","<div style=""font-size:200px;color:red;"">2</div>","null","","","","","","","","","","","","",""
"html-keyboard-response","274","1068984","0.0-4.0-9.0-3.0","spark_pilot_norest","9610","7","9","Female","","","","","","","null","<div style=""font-size:200px;color:red;"">1</div>","null","","","","","","","","","","","","",""
"revaluation","275","1069497","0.0-4.0-10.0-0.0","spark_pilot_norest","9610","7","9","Female","","false","","","","","[503.5]","./assets/img/canyon/animals/giraffe.jpg","[""ArrowLeft""]","second stage test","canyon","0","{""ArrowUp,ArrowLeft"":23,""ArrowUp,ArrowRight"":10,""ArrowDown,ArrowLeft"":8,""ArrowDown,ArrowRight"":30}","true","ArrowUp,ArrowLeft","","original","1","","","",""
"html-keyboard-response","276","1069999","0.0-4.0-10.0-1.0","spark_pilot_norest","9610","7","9","Female","","","","","","","null","<div style=""font-size:60px;"">+</div>","null","fixation","","","","","","","","","","","",""
"revaluation","277","1070996","0.0-4.0-10.0-0.1","spark_pilot_norest","9610","7","9","Female","","false","","","","","[989.2000000476837]","./assets/img/canyon/animals/giraffe.jpg","[""ArrowLeft""]","second stage test","canyon","0","{""ArrowUp,ArrowLeft"":23,""ArrowUp,ArrowRight"":10,""ArrowDown,ArrowLeft"":8,""ArrowDown,ArrowRight"":30}","true","ArrowUp,ArrowLeft","","original","1","","","",""
"html-keyboard-response","278","1071507","0.0-4.0-10.0-1.1","spark_pilot_norest","9610","7","9","Female","","","","","","","null","<div style=""font-size:60px;"">+</div>","null","fixation","","","","","","","","","","","",""
"revaluation","279","1072125","0.0-4.0-10.0-0.2","spark_pilot_norest","9610","7","9","Female","","false","","","","","[611.0999999046326]","./assets/img/canyon/animals/giraffe.jpg","[""ArrowLeft""]","second stage test","canyon","0","{""ArrowUp,ArrowLeft"":23,""ArrowUp,ArrowRight"":10,""ArrowDown,ArrowLeft"":8,""ArrowDown,ArrowRight"":30}","true","ArrowUp,ArrowLeft","","original","1","","","",""
"html-keyboard-response","280","1072632","0.0-4.0-10.0-1.2","spark_pilot_norest","9610","7","9","Female","","","","","","","null","<div style=""font-size:60px;"">+</div>","null","fixation","","","","","","","","","","","",""
"revaluation","281","1073211","0.0-4.0-10.0-0.3","spark_pilot_norest","9610","7","9","Female","","false","","","","","[571.8000001907349]","./assets/img/canyon/animals/giraffe.jpg","[""ArrowLeft""]","second stage test","canyon","0","{""ArrowUp,ArrowLeft"":23,""ArrowUp,ArrowRight"":10,""ArrowDown,ArrowLeft"":8,""ArrowDown,ArrowRight"":30}","true","ArrowUp,ArrowLeft","","original","1","","","",""
"html-keyboard-response","282","1073728","0.0-4.0-10.0-1.3","spark_pilot_norest","9610","7","9","Female","","","","","","","null","<div style=""font-size:60px;"">+</div>","null","fixation","","","","","","","","","","","",""
"revaluation","283","1074306","0.0-4.0-10.0-0.4","spark_pilot_norest","9610","7","9","Female","","false","","","","","[570.9000000953674]","./assets/img/canyon/animals/lion.jpg","[""ArrowRight""]","second stage test","canyon","0","{""ArrowUp,ArrowLeft"":23,""ArrowUp,ArrowRight"":10,""ArrowDown,ArrowLeft"":8,""ArrowDown,ArrowRight"":30}","true","ArrowDown,ArrowRight","","original","1","","","",""
"html-keyboard-response","284","1074814","0.0-4.0-10.0-1.4","spark_pilot_norest","9610","7","9","Female","","","","","","","null","<div style=""font-size:60px;"">+</div>","null","fixation","","","","","","","","","","","",""
"revaluation","285","1075240","0.0-4.0-10.0-0.5","spark_pilot_norest","9610","7","9","Female","","false","","","","","[418.09999990463257]","./assets/img/canyon/animals/lion.jpg","[""ArrowRight""]","second stage test","canyon","0","{""ArrowUp,ArrowLeft"":23,""ArrowUp,ArrowRight"":10,""ArrowDown,ArrowLeft"":8,""ArrowDown,ArrowRight"":30}","true","ArrowDown,ArrowRight","","original","1","","","",""
"html-keyboard-response","286","1075757","0.0-4.0-10.0-1.5","spark_pilot_norest","9610","7","9","Female","","","","","","","null","<div style=""font-size:60px;"">+</div>","null","fixation","","","","","","","","","","","",""
"revaluation","287","1076296","0.0-4.0-10.0-0.6","spark_pilot_norest","9610","7","9","Female","","false","","","","","[531.2999999523163]","./assets/img/canyon/animals/lion.jpg","[""ArrowRight""]","second stage test","canyon","0","{""ArrowUp,ArrowLeft"":23,""ArrowUp,ArrowRight"":10,""ArrowDown,ArrowLeft"":8,""ArrowDown,ArrowRight"":30}","true","ArrowDown,ArrowRight","","original","1","","","",""
"html-keyboard-response","288","1076808","0.0-4.0-10.0-1.6","spark_pilot_norest","9610","7","9","Female","","","","","","","null","<div style=""font-size:60px;"">+</div>","null","fixation","","","","","","","","","","","",""
"revaluation","289","1077333","0.0-4.0-10.0-0.7","spark_pilot_norest","9610","7","9","Female","","false","","","","","[520.8000001907349]","./assets/img/canyon/animals/lion.jpg","[""ArrowRight""]","second stage test","canyon","0","{""ArrowUp,ArrowLeft"":23,""ArrowUp,ArrowRight"":10,""ArrowDown,ArrowLeft"":8,""ArrowDown,ArrowRight"":30}","true","ArrowDown,ArrowRight","","original","1","","","",""
"html-keyboard-response","290","1077838","0.0-4.0-10.0-1.7","spark_pilot_norest","9610","7","9","Female","","","","","","","null","<div style=""font-size:60px;"">+</div>","null","fixation","","","","","","","","","","","",""
"learning-instructions","291","1082565","0.0-4.0-0.1-0.2","spark_pilot_norest","9610","7","9","Female","","","","","","","1987.3999998569489","<p> This time you are searching for treasure in the <b>ocean</b>.</p>","","instructions","","","","","","","","","","","",""
"learning-instructions","292","1100820","0.0-4.0-0.1-0.3","spark_pilot_norest","9610","7","9","Female","","","","","","","1002.9000000953674","<p><b>New</b> animals with <b>new</b> treasure chests live here. You need to explore to discover where the animal with the best treasure chest is.</p>
                    <p> Like before, once you figure out which animal has the chest with the most treasure, you should try to get to that animal and select that chest! </p>","","instructions","","","","","","","","","","","",""
"learning-instructions","293","1120578","0.0-4.0-1.1-0.1","spark_pilot_norest","9610","7","9","Female","","","","","","","5031","<p> Remember, when you see a picture of the place, use the up and down keys to <b>find an animal</b>.</p>
            <p> When you encounter an animal, you should use the left and right keys to <b>select a treasure chest</b>.</p>
            <p> Don't forget to look out for the robber! </p>","","instructions","","","","","","","","","","","",""
"revaluation","294","1126617","0.0-4.0-2.1-0.50","spark_pilot_norest","9610","7","9","Female","","false","","","","","[643.2999999523163,926.3999998569489]","./assets/img/ocean/memory/12.jpg","[""ArrowUp"",""ArrowLeft""]","value training","ocean","26","{""ArrowUp,ArrowLeft"":26,""ArrowUp,ArrowRight"":10,""ArrowDown,ArrowLeft"":5,""ArrowDown,ArrowRight"":17}","true","ArrowUp,ArrowLeft","false","revaluation","2","0","","",""
"html-keyboard-response","295","1127121","0.0-4.0-2.1-1.50","spark_pilot_norest","9610","7","9","Female","","","","","","","null","<div style=""font-size:60px;"">+</div>","null","fixation","","","","","","","","","1","","",""
"revaluation","296","1133156","0.0-4.0-2.1-0.51","spark_pilot_norest","9610","7","9","Female","","false","","","","","[879.9000000953674,384.09999990463257]","./assets/img/ocean/memory/3.jpg","[""ArrowUp"",""ArrowRight""]","value training","ocean","10","{""ArrowUp,ArrowLeft"":26,""ArrowUp,ArrowRight"":10,""ArrowDown,ArrowLeft"":5,""ArrowDown,ArrowRight"":17}","false","ArrowUp,ArrowRight","false","revaluation","2","2","","",""
"html-keyboard-response","297","1133661","0.0-4.0-2.1-1.51","spark_pilot_norest","9610","7","9","Female","","","","","","","null","<div style=""font-size:60px;"">+</div>","null","fixation","","","","","","","","","3","","",""
"revaluation","298","1139687","0.0-4.0-2.1-0.52","spark_pilot_norest","9610","7","9","Female","","false","","","","","[541,537.6999998092651]","./assets/img/ocean/memory/6.jpg","[""ArrowDown"",""ArrowLeft""]","value training","ocean","5","{""ArrowUp,ArrowLeft"":26,""ArrowUp,ArrowRight"":10,""ArrowDown,ArrowLeft"":5,""ArrowDown,ArrowRight"":17}","false","ArrowDown,ArrowLeft","false","revaluation","2","4","","",""
"html-keyboard-response","299","1140192","0.0-4.0-2.1-1.52","spark_pilot_norest","9610","7","9","Female","","","","","","","null","<div style=""font-size:60px;"">+</div>","null","fixation","","","","","","","","","5","","",""
"revaluation","300","1144222","0.0-4.0-2.1-0.53","spark_pilot_norest","9610","7","9","Female","","false","","","","","[1030.7000000476837]","./assets/img/ocean/catch/2.jpg","[""spaceBar""]","value training","ocean","0","{""ArrowUp,ArrowLeft"":26,""ArrowUp,ArrowRight"":10,""ArrowDown,ArrowLeft"":5,""ArrowDown,ArrowRight"":17}","true","spaceBar","true","revaluation","2","6","","",""
"html-keyboard-response","301","1144732","0.0-4.0-2.1-1.53","spark_pilot_norest","9610","7","9","Female","","","","","","","null","<div style=""font-size:60px;"">+</div>","null","fixation","","","","","","","","","7","","",""
"revaluation","302","1150742","0.0-4.0-2.1-0.54","spark_pilot_norest","9610","7","9","Female","","false","","","","","[692,407.09999990463257]","./assets/img/ocean/memory/15.jpg","[""ArrowDown"",""ArrowRight""]","value training","ocean","17","{""ArrowUp,ArrowLeft"":26,""ArrowUp,ArrowRight"":10,""ArrowDown,ArrowLeft"":5,""ArrowDown,ArrowRight"":17}","false","ArrowDown,ArrowRight","false","revaluation","2","8","","",""
"html-keyboard-response","303","1151245","0.0-4.0-2.1-1.54","spark_pilot_norest","9610","7","9","Female","","","","","","","null","<div style=""font-size:60px;"">+</div>","null","fixation","","","","","","","","","9","","",""
"revaluation","304","1157255","0.0-4.0-2.1-0.55","spark_pilot_norest","9610","7","9","Female","","false","","","","","[398.60000014305115,702]","./assets/img/ocean/memory/22.jpg","[""ArrowUp"",""ArrowLeft""]","value training","ocean","26","{""ArrowUp,ArrowLeft"":26,""ArrowUp,ArrowRight"":10,""ArrowDown,ArrowLeft"":5,""ArrowDown,ArrowRight"":17}","true","ArrowUp,ArrowLeft","false","revaluation","2","10","","",""
"html-keyboard-response","305","1157758","0.0-4.0-2.1-1.55","spark_pilot_norest","9610","7","9","Female","","","","","","","null","<div style=""font-size:60px;"">+</div>","null","fixation","","","","","","","","","11","","",""
"revaluation","306","1161767","0.0-4.0-2.1-0.56","spark_pilot_norest","9610","7","9","Female","","false","","","","","[813.5]","./assets/img/ocean/catch/3.jpg","[""spaceBar""]","value training","ocean","0","{""ArrowUp,ArrowLeft"":26,""ArrowUp,ArrowRight"":10,""ArrowDown,ArrowLeft"":5,""ArrowDown,ArrowRight"":17}","true","spaceBar","true","revaluation","2","12","","",""
"html-keyboard-response","307","1162270","0.0-4.0-2.1-1.56","spark_pilot_norest","9610","7","9","Female","","","","","","","null","<div style=""font-size:60px;"">+</div>","null","fixation","","","","","","","","","13","","",""
"revaluation","308","1168279","0.0-4.0-2.1-0.57","spark_pilot_norest","9610","7","9","Female","","false","","","","","[604.5,814.7000000476837]","./assets/img/ocean/memory/33.jpg","[""ArrowUp"",""ArrowLeft""]","value training","ocean","26","{""ArrowUp,ArrowLeft"":26,""ArrowUp,ArrowRight"":10,""ArrowDown,ArrowLeft"":5,""ArrowDown,ArrowRight"":17}","true","ArrowUp,ArrowLeft","false","revaluation","2","14","","",""
"html-keyboard-response","309","1168781","0.0-4.0-2.1-1.57","spark_pilot_norest","9610","7","9","Female","","","","","","","null","<div style=""font-size:60px;"">+</div>","null","fixation","","","","","","","","","15","","",""
"revaluation","310","1174791","0.0-4.0-2.1-0.58","spark_pilot_norest","9610","7","9","Female","","false","","","","","[1217.5,342.59999990463257]","./assets/img/ocean/memory/21.jpg","[""ArrowUp"",""ArrowLeft""]","value training","ocean","26","{""ArrowUp,ArrowLeft"":26,""ArrowUp,ArrowRight"":10,""ArrowDown,ArrowLeft"":5,""ArrowDown,ArrowRight"":17}","true","ArrowUp,ArrowLeft","false","revaluation","2","16","","",""
"html-keyboard-response","311","1175294","0.0-4.0-2.1-1.58","spark_pilot_norest","9610","7","9","Female","","","","","","","null","<div style=""font-size:60px;"">+</div>","null","fixation","","","","","","","","","17","","",""
"revaluation","312","1181304","0.0-4.0-2.1-0.59","spark_pilot_norest","9610","7","9","Female","","false","","","","","[1435.2999999523163,1066.7999999523163]","./assets/img/ocean/memory/0.jpg","[""ArrowUp"",""ArrowLeft""]","value training","ocean","26","{""ArrowUp,ArrowLeft"":26,""ArrowUp,ArrowRight"":10,""ArrowDown,ArrowLeft"":5,""ArrowDown,ArrowRight"":17}","true","ArrowUp,ArrowLeft","false","revaluation","2","18","","",""
