"trial_type","trial_index","time_elapsed","internal_node_id","task_version","subject_id","assigned_condition","age","gender","success","timeout","failed_images","failed_audio","failed_video","browser_interaction","rt","stimulus","response","task_part","environment","score","rewardMap","correct","fullState","isCatch","condition","order","trial_num","key_press","ground_truth","bonus"
"pavlovia","0","1348","0.0-0.0","spark_pilot_norest","10192","7","7","Female","","","","","","","","","","","","","","","","","","","","","",""
"preload","1","11796","0.0-1.0","spark_pilot_norest","10192","7","7","Female","true","false","[]","[]","[]","[{""event"":""fullscreenenter"",""trial"":2,""time"":14305},{""event"":""fullscreenexit"",""trial"":3,""time"":24604},{""event"":""blur"",""trial"":3,""time"":26888},{""event"":""focus"",""trial"":3,""time"":31415},{""event"":""blur"",""trial"":471,""time"":1672986},{""event"":""focus"",""trial"":471,""time"":1672989}]","","","","","","","","","","","","","","","",""
"fullscreen","2","15296","0.0-2.0","spark_pilot_norest","10192","7","7","Female","true","","","","","[{""event"":""fullscreenenter"",""trial"":2,""time"":14305},{""event"":""fullscreenexit"",""trial"":3,""time"":24604},{""event"":""blur"",""trial"":3,""time"":26888},{""event"":""focus"",""trial"":3,""time"":31415},{""event"":""blur"",""trial"":471,""time"":1672986},{""event"":""focus"",""trial"":471,""time"":1672989}]","","","","","","","","","","","","","","","",""
"audio-button-response","3","31521","0.0-3.0-0.0-0.0","spark_pilot_norest","10192","7","7","Female","","","","","","","16211","./assets/audio/audiotest/turtle.mp3","4","audio_test","","","","","","","","","","","",""
"audio-button-response","4","34314","0.0-3.0-0.1-0.1","spark_pilot_norest","10192","7","7","Female","","","","","","","1771","./assets/audio/audiotest/turtle.mp3","2","audio_test","","","","","","","","","","","",""
"learning-instructions","5","43981","0.0-3.0-1.0-0.0","spark_pilot_norest","10192","7","7","Female","","","","","","","2695.899999976158","<p> Welcome! Please remember to stay in fullscreen mode and don't click away from the experiment. </p>","","instructions","","","","","","","","","","","",""
"learning-instructions","6","52847","0.0-3.0-1.0-0.1","spark_pilot_norest","10192","7","7","Female","","","","","","","461.2000000476837","<p> Today you will be playing a game to earn treasure. </p>
            <p> At the end of the experiment, you will earn a bonus based on how much treasure you find. </p>
            <img src='./assets/img/instructions/treasure.jpg' class='instructions-image'>","","instructions","","","","","","","","","","","",""
"learning-instructions","7","61616","0.0-3.0-1.0-0.2","spark_pilot_norest","10192","7","7","Female","","","","","","","530.7999999523163","<p> Animals have hidden treasure in treasure chests. </p>
            <p> You need to first find an animal and then choose which of their treasure chests to search. </p>
            <img src='./assets/img/space/animals/cat.jpg' class='instructions-image'>","","instructions","","","","","","","","","","","",""
"learning-instructions","8","75338","0.0-3.0-1.0-0.3","spark_pilot_norest","10192","7","7","Female","","","","","","","583.6999999284744","<p> In each round, you will search for treasure in a different place. In the real game, there will be two rounds. </p>
            <p> You will begin with a separate, practice round where you will search for treasure in outer space. </p>
            <img src='./assets/img/space/0.jpg' class='instructions-image'>","","instructions","","","","","","","","","","","",""
"learning-instructions","9","88032","0.0-3.0-1.0-0.4","spark_pilot_norest","10192","7","7","Female","","","","","","","1287.4000000953674","<p> On every turn, you will see a picture of the place that you are in, but the specific image may be different each time. </p>
            <p> For example, both of these images mean you are in outer space. </p>
            <img src='./assets/img/instructions/outerspace.jpg' class='instructions-image'>","","instructions","","","","","","","","","","","",""
"learning-instructions","10","97009","0.0-3.0-1.0-0.5","spark_pilot_norest","10192","7","7","Female","","","","","","","1163.1999999284744","<p> You need to decide which direction to travel in. </p>
            <p> You can choose between going <b>up or down</b> by using the arrow keys. </p>
            <img src='./assets/img/instructions/updown.jpg' class='instructions-image'>","","instructions","","","","","","","","","","","",""
"learning-instructions","11","106546","0.0-3.0-1.0-0.6","spark_pilot_norest","10192","7","7","Female","","","","","","","740.2000000476837","<p> You will have <b>2 seconds</b> to make your choice. </p>
            <p> If you do not make a choice within 2 seconds, you will not find an animal or earn treasure. </p>
            <img src='./assets/img/instructions/2seconds.jpg' class='instructions-image'>","","instructions","","","","","","","","","","","",""
"learning-instructions","12","122507","0.0-3.0-1.0-0.7","spark_pilot_norest","10192","7","7","Female","","","","","","","8941.300000071526","<p> Let’s try practicing that now! </p>
            <p> When you see a picture of the place you are in, press the <b>up</b> key to travel up. </p>
            <img src='./assets/img/instructions/pressUp.jpg' class='instructions-image'>","","instructions","","","","","","","","","","","",""
"revaluation","13","126526","0.0-3.0-2.0-0.0","spark_pilot_norest","10192","7","7","Female","","false","","","","","[1873.7999999523163]","./assets/img/space/0.jpg","[""ArrowUp""]","first stage practice","space","0","null","null","ArrowUp","false","","","","","",""
"html-keyboard-response","14","127037","0.0-3.0-2.0-1.0","spark_pilot_norest","10192","7","7","Female","","","","","","","null","<div style=""font-size:60px;"">+</div>","null","fixation","","","","","","","","","","","",""
"revaluation","15","131056","0.0-3.0-2.0-0.1","spark_pilot_norest","10192","7","7","Female","","false","","","","","[901.8000000715256]","./assets/img/space/1.jpg","[""ArrowUp""]","first stage practice","space","0","null","null","ArrowUp","false","","","","","",""
"html-keyboard-response","16","131568","0.0-3.0-2.0-1.1","spark_pilot_norest","10192","7","7","Female","","","","","","","null","<div style=""font-size:60px;"">+</div>","null","fixation","","","","","","","","","","","",""
"revaluation","17","135582","0.0-3.0-2.0-0.2","spark_pilot_norest","10192","7","7","Female","","false","","","","","[1069.1000000238419]","./assets/img/space/2.jpg","[""ArrowUp""]","first stage practice","space","0","null","null","ArrowUp","false","","","","","",""
"html-keyboard-response","18","136089","0.0-3.0-2.0-1.2","spark_pilot_norest","10192","7","7","Female","","","","","","","null","<div style=""font-size:60px;"">+</div>","null","fixation","","","","","","","","","","","",""
"learning-instructions","19","145497","0.0-3.0-3.0-0.0","spark_pilot_norest","10192","7","7","Female","","","","","","","4712.799999952316","<p> Great job! Now try pressing the <b>down</b> key to travel down. </p>
            <img src='./assets/img/instructions/pressDown.jpg' class='instructions-image'>","","instructions","","","","","","","","","","","",""
"revaluation","20","149525","0.0-3.0-4.0-0.0","spark_pilot_norest","10192","7","7","Female","","false","","","","","[974.3999999761581]","./assets/img/space/3.jpg","[""ArrowDown""]","first stage practice","space","0","null","null","ArrowDown","false","","","","","",""
"html-keyboard-response","21","150025","0.0-3.0-4.0-1.0","spark_pilot_norest","10192","7","7","Female","","","","","","","null","<div style=""font-size:60px;"">+</div>","null","fixation","","","","","","","","","","","",""
"revaluation","22","154045","0.0-3.0-4.0-0.1","spark_pilot_norest","10192","7","7","Female","","false","","","","","[1410.1000000238419]","./assets/img/space/4.jpg","[""ArrowDown""]","first stage practice","space","0","null","null","ArrowDown","false","","","","","",""
"html-keyboard-response","23","154559","0.0-3.0-4.0-1.1","spark_pilot_norest","10192","7","7","Female","","","","","","","null","<div style=""font-size:60px;"">+</div>","null","fixation","","","","","","","","","","","",""
"revaluation","24","158577","0.0-3.0-4.0-0.2","spark_pilot_norest","10192","7","7","Female","","false","","","","","[804.2999999523163]","./assets/img/space/5.jpg","[""ArrowDown""]","first stage practice","space","0","null","null","ArrowDown","false","","","","","",""
"html-keyboard-response","25","159087","0.0-3.0-4.0-1.2","spark_pilot_norest","10192","7","7","Female","","","","","","","null","<div style=""font-size:60px;"">+</div>","null","fixation","","","","","","","","","","","",""
"learning-instructions","26","171273","0.0-3.0-5.0-0.0","spark_pilot_norest","10192","7","7","Female","","","","","","","2347.899999976158","<p> The animals don’t move, so the animal in the upper part of a place will stay in the upper part of a place, and the animal in the lower part of a place will stay in the lower part of a place. </p>","","instructions","","","","","","","","","","","",""
"learning-instructions","27","181083","0.0-3.0-5.0-0.1","spark_pilot_norest","10192","7","7","Female","","","","","","","689.1999999284744","<p> Each animal has two treasure chests for you to choose from. </p>
            <p> The amount of treasure in each chest can range from <b> 0 to 40 pieces.</b></p>","","instructions","","","","","","","","","","","",""
"learning-instructions","28","192837","0.0-3.0-5.0-0.2","spark_pilot_norest","10192","7","7","Female","","","","","","","593","<p> You should decide which chest to search for treasure by using the <b>left</b> and <b>right</b> arrow keys. </p>
            <p><b> Pay attention to which animal is on the screen, as the animals have different treasure chests. </b></p>
            <img src='./assets/img/instructions/leftright.jpg' class='instructions-image'>","","instructions","","","","","","","","","","","",""
"learning-instructions","29","200934","0.0-3.0-5.0-0.3","spark_pilot_norest","10192","7","7","Female","","","","","","","1740.6000000238419","<p> Let’s try practicing that now. </p>
            <p> When you see an animal, choose which chest to search for treasure. </p>
            <img src='./assets/img/instructions/chooseChest.jpg' class='instructions-image'>","","instructions","","","","","","","","","","","",""
"revaluation","30","204955","0.0-3.0-6.0-0.0","spark_pilot_norest","10192","7","7","Female","","false","","","","","[1069.3999999761581]","./assets/img/space/animals/rabbit.jpg","[""ArrowRight""]","second stage practice","space","23","{""ArrowUp,ArrowLeft"":3,""ArrowUp,ArrowRight"":36,""ArrowDown,ArrowLeft"":15,""ArrowDown,ArrowRight"":23}","true","ArrowDown,ArrowRight","","","","","","",""
"html-keyboard-response","31","205467","0.0-3.0-6.0-1.0","spark_pilot_norest","10192","7","7","Female","","","","","","","null","<div style=""font-size:60px;"">+</div>","null","fixation","","","","","","","","","","","",""
"revaluation","32","209497","0.0-3.0-6.0-0.1","spark_pilot_norest","10192","7","7","Female","","false","","","","","[916.1000000238419]","./assets/img/space/animals/rabbit.jpg","[""ArrowLeft""]","second stage practice","space","15","{""ArrowUp,ArrowLeft"":3,""ArrowUp,ArrowRight"":36,""ArrowDown,ArrowLeft"":15,""ArrowDown,ArrowRight"":23}","false","ArrowDown,ArrowLeft","","","","","","",""
"html-keyboard-response","33","210010","0.0-3.0-6.0-1.1","spark_pilot_norest","10192","7","7","Female","","","","","","","null","<div style=""font-size:60px;"">+</div>","null","fixation","","","","","","","","","","","",""
"revaluation","34","214023","0.0-3.0-6.0-0.2","spark_pilot_norest","10192","7","7","Female","","false","","","","","[777.2999999523163]","./assets/img/space/animals/cat.jpg","[""ArrowRight""]","second stage practice","space","36","{""ArrowUp,ArrowLeft"":3,""ArrowUp,ArrowRight"":36,""ArrowDown,ArrowLeft"":15,""ArrowDown,ArrowRight"":23}","true","ArrowUp,ArrowRight","","","","","","",""
"html-keyboard-response","35","214535","0.0-3.0-6.0-1.2","spark_pilot_norest","10192","7","7","Female","","","","","","","null","<div style=""font-size:60px;"">+</div>","null","fixation","","","","","","","","","","","",""
"revaluation","36","218544","0.0-3.0-6.0-0.3","spark_pilot_norest","10192","7","7","Female","","false","","","","","[768.8999999761581]","./assets/img/space/animals/cat.jpg","[""ArrowRight""]","second stage practice","space","36","{""ArrowUp,ArrowLeft"":3,""ArrowUp,ArrowRight"":36,""ArrowDown,ArrowLeft"":15,""ArrowDown,ArrowRight"":23}","true","ArrowUp,ArrowRight","","","","","","",""
"html-keyboard-response","37","219054","0.0-3.0-6.0-1.3","spark_pilot_norest","10192","7","7","Female","","","","","","","null","<div style=""font-size:60px;"">+</div>","null","fixation","","","","","","","","","","","",""
"learning-instructions","38","237664","0.0-3.0-7.0-0.0","spark_pilot_norest","10192","7","7","Female","","","","","","","1820.2999999523163","<p> Great job. Now let’s try putting it together. </p>
            <p> On each turn, you will first see a picture to remind you of the place you are in, and you need to choose whether to go up or down. </p>
            <p> Then you will see an animal and choose which of its chests to search for treasure. </p>","","instructions","","","","","","","","","","","",""
"learning-instructions","39","246381","0.0-3.0-7.0-0.1","spark_pilot_norest","10192","7","7","Female","","","","","","","467","<p> When you choose whether to go up or down, try to go to the animal with the chest with the most treasure. </p>
            <p> Try practicing that now! </p>","","instructions","","","","","","","","","","","",""
"revaluation","40","252407","0.0-3.0-8.0-0.0","spark_pilot_norest","10192","7","7","Female","","false","","","","","[1181.2000000476837,1784.2999999523163]","./assets/img/space/6.jpg","[""ArrowUp"",""ArrowRight""]","full practice","space","36","{""ArrowUp,ArrowLeft"":3,""ArrowUp,ArrowRight"":36,""ArrowDown,ArrowLeft"":15,""ArrowDown,ArrowRight"":23}","true","ArrowUp,ArrowRight","false","","","","","",""
"html-keyboard-response","41","252909","0.0-3.0-8.0-1.0","spark_pilot_norest","10192","7","7","Female","","","","","","","null","<div style=""font-size:60px;"">+</div>","null","fixation","","","","","","","","","","","",""
"revaluation","42","258926","0.0-3.0-8.0-0.1","spark_pilot_norest","10192","7","7","Female","","false","","","","","[809.3999999761581,972.0999999046326]","./assets/img/space/7.jpg","[""ArrowUp"",""ArrowRight""]","full practice","space","36","{""ArrowUp,ArrowLeft"":3,""ArrowUp,ArrowRight"":36,""ArrowDown,ArrowLeft"":15,""ArrowDown,ArrowRight"":23}","true","ArrowUp,ArrowRight","false","","","","","",""
"html-keyboard-response","43","259437","0.0-3.0-8.0-1.1","spark_pilot_norest","10192","7","7","Female","","","","","","","null","<div style=""font-size:60px;"">+</div>","null","fixation","","","","","","","","","","","",""
"revaluation","44","265460","0.0-3.0-8.0-0.2","spark_pilot_norest","10192","7","7","Female","","false","","","","","[857.3999999761581,1041.8000000715256]","./assets/img/space/8.jpg","[""ArrowDown"",""ArrowRight""]","full practice","space","23","{""ArrowUp,ArrowLeft"":3,""ArrowUp,ArrowRight"":36,""ArrowDown,ArrowLeft"":15,""ArrowDown,ArrowRight"":23}","false","ArrowDown,ArrowRight","false","","","","","",""
"html-keyboard-response","45","265972","0.0-3.0-8.0-1.2","spark_pilot_norest","10192","7","7","Female","","","","","","","null","<div style=""font-size:60px;"">+</div>","null","fixation","","","","","","","","","","","",""
"revaluation","46","271992","0.0-3.0-8.0-0.3","spark_pilot_norest","10192","7","7","Female","","false","","","","","[1046,738.7999999523163]","./assets/img/space/9.jpg","[""ArrowUp"",""ArrowRight""]","full practice","space","36","{""ArrowUp,ArrowLeft"":3,""ArrowUp,ArrowRight"":36,""ArrowDown,ArrowLeft"":15,""ArrowDown,ArrowRight"":23}","true","ArrowUp,ArrowRight","false","","","","","",""
"html-keyboard-response","47","272493","0.0-3.0-8.0-1.3","spark_pilot_norest","10192","7","7","Female","","","","","","","null","<div style=""font-size:60px;"">+</div>","null","fixation","","","","","","","","","","","",""
"revaluation","48","278508","0.0-3.0-8.0-0.4","spark_pilot_norest","10192","7","7","Female","","false","","","","","[2008.2999999523163,807.6000000238419]","./assets/img/space/10.jpg","[""ArrowDown"",""ArrowRight""]","full practice","space","23","{""ArrowUp,ArrowLeft"":3,""ArrowUp,ArrowRight"":36,""ArrowDown,ArrowLeft"":15,""ArrowDown,ArrowRight"":23}","false","ArrowDown,ArrowRight","false","","","","","",""
"html-keyboard-response","49","279011","0.0-3.0-8.0-1.4","spark_pilot_norest","10192","7","7","Female","","","","","","","null","<div style=""font-size:60px;"">+</div>","null","fixation","","","","","","","","","","","",""
"learning-instructions","50","290906","0.0-3.0-9.0-0.0","spark_pilot_norest","10192","7","7","Female","","","","","","","1599.3999999761581","<p> One last thing: sometimes, you will see a robber. The robber can be anywhere in the picture. </p>
            <p> If you do not stop them, you will lose treasure. </p>
            <img src='./assets/img/instructions/robber.jpg' class='instructions-image'>","","instructions","","","","","","","","","","","",""
"learning-instructions","51","305067","0.0-3.0-9.0-0.1","spark_pilot_norest","10192","7","7","Female","","","","","","","7001.200000047684","<p> If you see the robber, you should <b>press the space bar</b> rather than using the arrow keys. </p>
            <p> Try practicing that now! </p>","","instructions","","","","","","","","","","","",""
"revaluation","52","309084","0.0-3.0-10.0-0.0","spark_pilot_norest","10192","7","7","Female","","false","","","","","[1154.2000000476837]","./assets/img/space/catch/0.jpg","[""spaceBar""]","catch practice","space","0","{""ArrowUp,ArrowLeft"":3,""ArrowUp,ArrowRight"":36,""ArrowDown,ArrowLeft"":15,""ArrowDown,ArrowRight"":23}","true","spaceBar","true","","","","","",""
"html-keyboard-response","53","309595","0.0-3.0-10.0-1.0","spark_pilot_norest","10192","7","7","Female","","","","","","","null","<div style=""font-size:60px;"">+</div>","null","fixation","","","","","","","","","","","",""
"revaluation","54","313624","0.0-3.0-10.0-0.1","spark_pilot_norest","10192","7","7","Female","","false","","","","","[705.9000000953674]","./assets/img/space/catch/1.jpg","[""spaceBar""]","catch practice","space","0","{""ArrowUp,ArrowLeft"":3,""ArrowUp,ArrowRight"":36,""ArrowDown,ArrowLeft"":15,""ArrowDown,ArrowRight"":23}","true","spaceBar","true","","","","","",""
"html-keyboard-response","55","314125","0.0-3.0-10.0-1.1","spark_pilot_norest","10192","7","7","Female","","","","","","","null","<div style=""font-size:60px;"">+</div>","null","fixation","","","","","","","","","","","",""
"revaluation","56","318140","0.0-3.0-10.0-0.2","spark_pilot_norest","10192","7","7","Female","","false","","","","","[743.6000000238419]","./assets/img/space/catch/2.jpg","[""spaceBar""]","catch practice","space","0","{""ArrowUp,ArrowLeft"":3,""ArrowUp,ArrowRight"":36,""ArrowDown,ArrowLeft"":15,""ArrowDown,ArrowRight"":23}","true","spaceBar","true","","","","","",""
"html-keyboard-response","57","318651","0.0-3.0-10.0-1.2","spark_pilot_norest","10192","7","7","Female","","","","","","","null","<div style=""font-size:60px;"">+</div>","null","fixation","","","","","","","","","","","",""
"learning-instructions","58","329951","0.0-3.0-11.0-0.0-0.0","spark_pilot_norest","10192","7","7","Female","","","","","","","6054.800000071526","<p> Now, you will practice a shortened version of the game to get a sense of how it all fits together. </p>","","instructions","","","","","","","","","","","",""
"learning-instructions","59","333747","0.0-3.0-11.0-0.0-0.1","spark_pilot_norest","10192","7","7","Female","","","","","","","611.6000000238419","<p>This time you are searching for treasure in outer space.</p>","","instructions","","","","","","","","","","","",""
"learning-instructions","60","349124","0.0-3.0-11.0-1.0-0.0","spark_pilot_norest","10192","7","7","Female","","","","","","","628.3999999761581","<p> Remember, when you see a picture of the place, use the up and down keys to <b>find an animal</b>.</p>
            <p> When you encounter an animal, you should use the left and right keys to <b>select a treasure chest</b>.</p>
            <p> Don't forget to look out for the robber! </p>","","instructions","","","","","","","","","","","",""
"revaluation","61","353148","0.0-3.0-11.0-2.0-0.0","spark_pilot_norest","10192","7","7","Female","","true","","","","","[]","./assets/img/space/11.jpg","[]","practice block","space","-5","{""ArrowUp,ArrowLeft"":3,""ArrowUp,ArrowRight"":36,""ArrowDown,ArrowLeft"":15,""ArrowDown,ArrowRight"":23}","false","","false","","","","","",""
"html-keyboard-response","62","353661","0.0-3.0-11.0-2.0-1.0","spark_pilot_norest","10192","7","7","Female","","","","","","","null","<div style=""font-size:60px;"">+</div>","null","fixation","","","","","","","","","","","",""
"revaluation","63","359709","0.0-3.0-11.0-2.0-0.1","spark_pilot_norest","10192","7","7","Female","","false","","","","","[723.6999999284744,674.8000000715256]","./assets/img/space/12.jpg","[""ArrowUp"",""ArrowRight""]","practice block","space","36","{""ArrowUp,ArrowLeft"":3,""ArrowUp,ArrowRight"":36,""ArrowDown,ArrowLeft"":15,""ArrowDown,ArrowRight"":23}","true","ArrowUp,ArrowRight","false","","","","","",""
"html-keyboard-response","64","360222","0.0-3.0-11.0-2.0-1.1","spark_pilot_norest","10192","7","7","Female","","","","","","","null","<div style=""font-size:60px;"">+</div>","null","fixation","","","","","","","","","","","",""
"revaluation","65","366235","0.0-3.0-11.0-2.0-0.2","spark_pilot_norest","10192","7","7","Female","","false","","","","","[1173,1053]","./assets/img/space/13.jpg","[""ArrowUp"",""ArrowRight""]","practice block","space","36","{""ArrowUp,ArrowLeft"":3,""ArrowUp,ArrowRight"":36,""ArrowDown,ArrowLeft"":15,""ArrowDown,ArrowRight"":23}","true","ArrowUp,ArrowRight","false","","","","","",""
"html-keyboard-response","66","366742","0.0-3.0-11.0-2.0-1.2","spark_pilot_norest","10192","7","7","Female","","","","","","","null","<div style=""font-size:60px;"">+</div>","null","fixation","","","","","","","","","","","",""
"revaluation","67","372779","0.0-3.0-11.0-2.0-0.3","spark_pilot_norest","10192","7","7","Female","","false","","","","","[1039.7999999523163,773.1000000238419]","./assets/img/space/14.jpg","[""ArrowUp"",""ArrowLeft""]","practice block","space","3","{""ArrowUp,ArrowLeft"":3,""ArrowUp,ArrowRight"":36,""ArrowDown,ArrowLeft"":15,""ArrowDown,ArrowRight"":23}","false","ArrowUp,ArrowLeft","false","","","","","",""
"html-keyboard-response","68","373291","0.0-3.0-11.0-2.0-1.3","spark_pilot_norest","10192","7","7","Female","","","","","","","null","<div style=""font-size:60px;"">+</div>","null","fixation","","","","","","","","","","","",""
"revaluation","69","377303","0.0-3.0-11.0-2.0-0.4","spark_pilot_norest","10192","7","7","Female","","true","","","","","[]","./assets/img/space/11.jpg","[]","practice block","space","-5","{""ArrowUp,ArrowLeft"":3,""ArrowUp,ArrowRight"":36,""ArrowDown,ArrowLeft"":15,""ArrowDown,ArrowRight"":23}","false","","false","","","","","",""
"html-keyboard-response","70","377817","0.0-3.0-11.0-2.0-1.4","spark_pilot_norest","10192","7","7","Female","","","","","","","null","<div style=""font-size:60px;"">+</div>","null","fixation","","","","","","","","","","","",""
"revaluation","71","383821","0.0-3.0-11.0-2.0-0.5","spark_pilot_norest","10192","7","7","Female","","false","","","","","[691.2999999523163,1027.2999999523163]","./assets/img/space/12.jpg","[""ArrowUp"",""ArrowRight""]","practice block","space","36","{""ArrowUp,ArrowLeft"":3,""ArrowUp,ArrowRight"":36,""ArrowDown,ArrowLeft"":15,""ArrowDown,ArrowRight"":23}","true","ArrowUp,ArrowRight","false","","","","","",""
"html-keyboard-response","72","384323","0.0-3.0-11.0-2.0-1.5","spark_pilot_norest","10192","7","7","Female","","","","","","","null","<div style=""font-size:60px;"">+</div>","null","fixation","","","","","","","","","","","",""
"revaluation","73","390329","0.0-3.0-11.0-2.0-0.6","spark_pilot_norest","10192","7","7","Female","","false","","","","","[1146.3999999761581,947.3999999761581]","./assets/img/space/13.jpg","[""ArrowUp"",""ArrowRight""]","practice block","space","36","{""ArrowUp,ArrowLeft"":3,""ArrowUp,ArrowRight"":36,""ArrowDown,ArrowLeft"":15,""ArrowDown,ArrowRight"":23}","true","ArrowUp,ArrowRight","false","","","","","",""
"html-keyboard-response","74","390831","0.0-3.0-11.0-2.0-1.6","spark_pilot_norest","10192","7","7","Female","","","","","","","null","<div style=""font-size:60px;"">+</div>","null","fixation","","","","","","","","","","","",""
"revaluation","75","396836","0.0-3.0-11.0-2.0-0.7","spark_pilot_norest","10192","7","7","Female","","false","","","","","[872.8999999761581,815.1000000238419]","./assets/img/space/14.jpg","[""ArrowUp"",""ArrowRight""]","practice block","space","36","{""ArrowUp,ArrowLeft"":3,""ArrowUp,ArrowRight"":36,""ArrowDown,ArrowLeft"":15,""ArrowDown,ArrowRight"":23}","true","ArrowUp,ArrowRight","false","","","","","",""
"html-keyboard-response","76","397338","0.0-3.0-11.0-2.0-1.7","spark_pilot_norest","10192","7","7","Female","","","","","","","null","<div style=""font-size:60px;"">+</div>","null","fixation","","","","","","","","","","","",""
"revaluation","77","401344","0.0-3.0-11.0-2.0-0.8","spark_pilot_norest","10192","7","7","Female","","false","","","","","[643.2999999523163]","./assets/img/space/catch/3.jpg","[""spaceBar""]","practice block","space","0","{""ArrowUp,ArrowLeft"":3,""ArrowUp,ArrowRight"":36,""ArrowDown,ArrowLeft"":15,""ArrowDown,ArrowRight"":23}","true","spaceBar","true","","","","","",""
"html-keyboard-response","78","401846","0.0-3.0-11.0-2.0-1.8","spark_pilot_norest","10192","7","7","Female","","","","","","","null","<div style=""font-size:60px;"">+</div>","null","fixation","","","","","","","","","","","",""
"learning-instructions","79","420473","0.0-3.0-11.0-3.0-0.0","spark_pilot_norest","10192","7","7","Female","","","","","","","5732.600000023842","<p> Now, you will travel with a friend who will choose whether you go up or down first. </p>
            <p> On these turns, you will just see the animal that they found. You will still get to choose which chest to search for treasure.</p>","","instructions","","","","","","","","","","","",""
"revaluation","80","424504","0.0-3.0-11.0-4.0-0.0","spark_pilot_norest","10192","7","7","Female","","false","","","","","[1519.3999999761581]","./assets/img/space/animals/cat.jpg","[""ArrowRight""]","practice block","space","36","{""ArrowUp,ArrowLeft"":3,""ArrowUp,ArrowRight"":36,""ArrowDown,ArrowLeft"":15,""ArrowDown,ArrowRight"":23}","true","ArrowUp,ArrowRight","","","","","","",""
"html-keyboard-response","81","425015","0.0-3.0-11.0-4.0-1.0","spark_pilot_norest","10192","7","7","Female","","","","","","","null","<div style=""font-size:60px;"">+</div>","null","fixation","","","","","","","","","","","",""
"revaluation","82","429035","0.0-3.0-11.0-4.0-0.1","spark_pilot_norest","10192","7","7","Female","","false","","","","","[700.7000000476837]","./assets/img/space/animals/cat.jpg","[""ArrowRight""]","practice block","space","36","{""ArrowUp,ArrowLeft"":3,""ArrowUp,ArrowRight"":36,""ArrowDown,ArrowLeft"":15,""ArrowDown,ArrowRight"":23}","true","ArrowUp,ArrowRight","","","","","","",""
"html-keyboard-response","83","429547","0.0-3.0-11.0-4.0-1.1","spark_pilot_norest","10192","7","7","Female","","","","","","","null","<div style=""font-size:60px;"">+</div>","null","fixation","","","","","","","","","","","",""
"revaluation","84","433572","0.0-3.0-11.0-4.0-0.2","spark_pilot_norest","10192","7","7","Female","","false","","","","","[1212]","./assets/img/space/animals/rabbit.jpg","[""ArrowLeft""]","practice block","space","15","{""ArrowUp,ArrowLeft"":3,""ArrowUp,ArrowRight"":36,""ArrowDown,ArrowLeft"":15,""ArrowDown,ArrowRight"":23}","false","ArrowDown,ArrowLeft","","","","","","",""
"html-keyboard-response","85","434084","0.0-3.0-11.0-4.0-1.2","spark_pilot_norest","10192","7","7","Female","","","","","","","null","<div style=""font-size:60px;"">+</div>","null","fixation","","","","","","","","","","","",""
"revaluation","86","438108","0.0-3.0-11.0-4.0-0.3","spark_pilot_norest","10192","7","7","Female","","false","","","","","[579.8999999761581]","./assets/img/space/animals/rabbit.jpg","[""ArrowRight""]","practice block","space","23","{""ArrowUp,ArrowLeft"":3,""ArrowUp,ArrowRight"":36,""ArrowDown,ArrowLeft"":15,""ArrowDown,ArrowRight"":23}","true","ArrowDown,ArrowRight","","","","","","",""
"html-keyboard-response","87","438622","0.0-3.0-11.0-4.0-1.3","spark_pilot_norest","10192","7","7","Female","","","","","","","null","<div style=""font-size:60px;"">+</div>","null","fixation","","","","","","","","","","","",""
"learning-instructions","88","446761","0.0-3.0-11.0-5.0-0.0","spark_pilot_norest","10192","7","7","Female","","","","","","","null","<p> You have almost finished this part of the game! </p>
            <p> We are going to ask you to make a few more choices. </p>","","instructions","","","","","","","","","","","",""
"learning-instructions","89","462769","0.0-3.0-11.0-5.0-0.1","spark_pilot_norest","10192","7","7","Female","","","","","","","null","<p> First, you need to decide whether to go up or down. When you see each picture, use the arrow keys to make your choice. </p>
            <p><b>You will not see which animal you found, but try to get to the one that will give you the most treasure.</b></p>","","instructions","","","","","","","","","","","",""
"html-keyboard-response","90","463773","0.0-3.0-11.0-6.0-0.0","spark_pilot_norest","10192","7","7","Female","","","","","","","null","<div style=""font-size:100px;color:red;"">Starting in...</div>","null","","","","","","","","","","","","",""
"html-keyboard-response","91","464780","0.0-3.0-11.0-6.0-1.0","spark_pilot_norest","10192","7","7","Female","","","","","","","null","<div style=""font-size:200px;color:red;"">3</div>","null","","","","","","","","","","","","",""
"html-keyboard-response","92","465783","0.0-3.0-11.0-6.0-2.0","spark_pilot_norest","10192","7","7","Female","","","","","","","null","<div style=""font-size:200px;color:red;"">2</div>","null","","","","","","","","","","","","",""
"html-keyboard-response","93","466790","0.0-3.0-11.0-6.0-3.0","spark_pilot_norest","10192","7","7","Female","","","","","","","null","<div style=""font-size:200px;color:red;"">1</div>","null","","","","","","","","","","","","",""
"revaluation","94","467416","0.0-3.0-11.0-7.0","spark_pilot_norest","10192","7","7","Female","","false","","","","","[623.4000000953674]","./assets/img/space/15.jpg","[""ArrowUp""]","practice block","space","0","{""ArrowUp,ArrowLeft"":3,""ArrowUp,ArrowRight"":36,""ArrowDown,ArrowLeft"":15,""ArrowDown,ArrowRight"":23}","true","ArrowUp","false","","","","","",""
"html-keyboard-response","95","467921","0.0-3.0-11.0-8.0","spark_pilot_norest","10192","7","7","Female","","","","","","","null","<div style=""font-size:60px;"">+</div>","null","fixation","","","","","","","","","","","",""
"learning-instructions","96","481274","0.0-3.0-11.0-9.0-0.0","spark_pilot_norest","10192","7","7","Female","","","","","","","null","<p> Now you will see the animals again and can search their chests for treasure. </p>
            <p> This time, you will not see how much treasure you earned, but you will earn more bonus money for making better choices. </p>","","instructions","","","","","","","","","","","",""
"html-keyboard-response","97","482280","0.0-3.0-11.0-10.0-0.0","spark_pilot_norest","10192","7","7","Female","","","","","","","null","<div style=""font-size:100px;color:red;"">Starting in...</div>","null","","","","","","","","","","","","",""
"html-keyboard-response","98","483285","0.0-3.0-11.0-10.0-1.0","spark_pilot_norest","10192","7","7","Female","","","","","","","null","<div style=""font-size:200px;color:red;"">3</div>","null","","","","","","","","","","","","",""
"html-keyboard-response","99","484294","0.0-3.0-11.0-10.0-2.0","spark_pilot_norest","10192","7","7","Female","","","","","","","null","<div style=""font-size:200px;color:red;"">2</div>","null","","","","","","","","","","","","",""
"html-keyboard-response","100","485304","0.0-3.0-11.0-10.0-3.0","spark_pilot_norest","10192","7","7","Female","","","","","","","null","<div style=""font-size:200px;color:red;"">1</div>","null","","","","","","","","","","","","",""
"revaluation","101","485845","0.0-3.0-11.0-11.0-0.0","spark_pilot_norest","10192","7","7","Female","","false","","","","","[538]","./assets/img/space/animals/cat.jpg","[""ArrowRight""]","practice block","space","0","{""ArrowUp,ArrowLeft"":3,""ArrowUp,ArrowRight"":36,""ArrowDown,ArrowLeft"":15,""ArrowDown,ArrowRight"":23}","true","ArrowUp,ArrowRight","","","","","","",""
"html-keyboard-response","102","486347","0.0-3.0-11.0-11.0-1.0","spark_pilot_norest","10192","7","7","Female","","","","","","","null","<div style=""font-size:60px;"">+</div>","null","fixation","","","","","","","","","","","",""
"revaluation","103","487523","0.0-3.0-11.0-11.0-0.1","spark_pilot_norest","10192","7","7","Female","","false","","","","","[1172.6000000238419]","./assets/img/space/animals/rabbit.jpg","[""ArrowLeft""]","practice block","space","0","{""ArrowUp,ArrowLeft"":3,""ArrowUp,ArrowRight"":36,""ArrowDown,ArrowLeft"":15,""ArrowDown,ArrowRight"":23}","false","ArrowDown,ArrowLeft","","","","","","",""
"html-keyboard-response","104","488035","0.0-3.0-11.0-11.0-1.1","spark_pilot_norest","10192","7","7","Female","","","","","","","null","<div style=""font-size:60px;"">+</div>","null","fixation","","","","","","","","","","","",""
"learning-instructions","105","496971","0.0-3.0-12.0-0.0","spark_pilot_norest","10192","7","7","Female","","","","","","","4360.399999976158","<p> Before you start, we're going to ask you a few questions about how the game works. </p>","","instructions","","","","","","","","","","","",""
"comp-q","106","505856","0.0-3.0-13.0-0.0-0.0","spark_pilot_norest","10192","7","7","Female","","","","","","","3311.2999999523163","<p> <b> True or False? </b> </p>
            <p> There can be 50 pieces of treasure in a given animal's chest. </p>","1","comp_question","","","","true","","","","","","","",""
"comp-q","107","514512","0.0-3.0-13.0-0.0-1.0","spark_pilot_norest","10192","7","7","Female","","","","","","","2011.7000000476837","<p> <b> That's right! </b> The amount of treasure in each chest can range from 0 to 40 pieces. </p>","0","comp_answer","","","","","","","","","","","",""
"comp-q","108","523389","0.0-3.0-13.0-0.1-0.1","spark_pilot_norest","10192","7","7","Female","","","","","","","1779","<p> <b> True or False? </b> </p><p> In this game, all animals have the same amount of treasure in their left and right chests. </p>","1","comp_question","","","","true","","","","","","","",""
"comp-q","109","529825","0.0-3.0-13.0-0.1-1.1","spark_pilot_norest","10192","7","7","Female","","","","","","","1214.8999999761581","<p> <b> That's right! </b> Animals have different amounts of treasure in their treasure chests. </p>","0","comp_answer","","","","","","","","","","","",""
"comp-q","110","537752","0.0-3.0-13.0-0.2-0.2","spark_pilot_norest","10192","7","7","Female","","","","","","","2091.1999999284744","<p> <b> True or False? </b> </p><p> The same animal will always be there if you go up in the same place. </p>","0","comp_question","","","","true","","","","","","","",""
"comp-q","111","546404","0.0-3.0-13.0-0.2-1.2","spark_pilot_norest","10192","7","7","Female","","","","","","","2224","<p> <b> That's right! </b> One animal lives in the upper part and one lives in the lower part of every place. </p>","0","comp_answer","","","","","","","","","","","",""
"comp-q","112","554567","0.0-3.0-13.0-0.3-0.3","spark_pilot_norest","10192","7","7","Female","","","","","","","2656.8000000715256","<p> <b> True or False? </b> </p><p> If you see a different picture, it means you are in a new place. </p>","0","comp_question","","","","false","","","","","","","",""
"comp-q","113","568519","0.0-3.0-13.0-0.3-1.3","spark_pilot_norest","10192","7","7","Female","","","","","","","2868.3000000715256","<p> <b>Incorrect.</b> Lots of different images may show the same place. For example,  you may see three different images that all remind you that you are in outer space. </p>","0","comp_answer","","","","","","","","","","","",""
"comp-q","114","577270","0.0-3.0-13.0-0.4-0.4","spark_pilot_norest","10192","7","7","Female","","","","","","","3249.100000023842","<p> <b> True or False? </b> </p><p> If you see a different picture, it means you are in a new place. </p>","1","comp_question","","","","true","","","","","","","",""
"comp-q","115","590810","0.0-3.0-13.0-0.4-1.4","spark_pilot_norest","10192","7","7","Female","","","","","","","2339","<p> <b> That's right! </b> Lots of different images may show the same place. For example,  you may see three different images that all remind you that you are in outer space. </p>","0","comp_answer","","","","","","","","","","","",""
"learning-instructions","116","603344","0.0-3.0-14.0-0.0","spark_pilot_norest","10192","7","7","Female","","","","","","","2692.899999976158","<p> Good job. Remember to do your best because the amount of treasure you earn will be converted into bonus money. </p>
            <p> It’s time to start the real game! </p>","","instructions","","","","","","","","","","","",""
"learning-instructions","117","610217","0.0-4.0-0.0-0.0","spark_pilot_norest","10192","7","7","Female","","","","","","","4106.400000095367","<p> This time you are searching for treasure in the <b>canyon</b>.</p>","","instructions","","","","","","","","","","","",""
"learning-instructions","118","628810","0.0-4.0-0.0-0.1","spark_pilot_norest","10192","7","7","Female","","","","","","","1319.3000000715256","<p><b>New</b> animals with <b>new</b> treasure chests live here. You need to explore to discover where the animal with the best treasure chest is.</p>
                    <p> Like before, once you figure out which animal has the chest with the most treasure, you should try to get to that animal and select that chest! </p>","","instructions","","","","","","","","","","","",""
"learning-instructions","119","644760","0.0-4.0-1.0-0.0","spark_pilot_norest","10192","7","7","Female","","","","","","","1219.7999999523163","<p> Remember, when you see a picture of the place, use the up and down keys to <b>find an animal</b>.</p>
            <p> When you encounter an animal, you should use the left and right keys to <b>select a treasure chest</b>.</p>
            <p> Don't forget to look out for the robber! </p>","","instructions","","","","","","","","","","","",""
"revaluation","120","648789","0.0-4.0-2.0-0.0","spark_pilot_norest","10192","7","7","Female","","true","","","","","[]","./assets/img/canyon/memory/0.jpg","[]","value training","canyon","-5","{""ArrowUp,ArrowLeft"":23,""ArrowUp,ArrowRight"":10,""ArrowDown,ArrowLeft"":8,""ArrowDown,ArrowRight"":30}","false","","false","original","1","0","","",""
"html-keyboard-response","121","649301","0.0-4.0-2.0-1.0","spark_pilot_norest","10192","7","7","Female","","","","","","","null","<div style=""font-size:60px;"">+</div>","null","fixation","","","","","","","","","1","","",""
"revaluation","122","655336","0.0-4.0-2.0-0.1","spark_pilot_norest","10192","7","7","Female","","false","","","","","[622.5999999046326,794.8000000715256]","./assets/img/canyon/memory/19.jpg","[""ArrowUp"",""ArrowRight""]","value training","canyon","10","{""ArrowUp,ArrowLeft"":23,""ArrowUp,ArrowRight"":10,""ArrowDown,ArrowLeft"":8,""ArrowDown,ArrowRight"":30}","false","ArrowUp,ArrowRight","false","original","1","2","","",""
"html-keyboard-response","123","655850","0.0-4.0-2.0-1.1","spark_pilot_norest","10192","7","7","Female","","","","","","","null","<div style=""font-size:60px;"">+</div>","null","fixation","","","","","","","","","3","","",""
"revaluation","124","661862","0.0-4.0-2.0-0.2","spark_pilot_norest","10192","7","7","Female","","false","","","","","[843.3999999761581,1571.1000000238419]","./assets/img/canyon/memory/0.jpg","[""ArrowDown"",""ArrowLeft""]","value training","canyon","8","{""ArrowUp,ArrowLeft"":23,""ArrowUp,ArrowRight"":10,""ArrowDown,ArrowLeft"":8,""ArrowDown,ArrowRight"":30}","false","ArrowDown,ArrowLeft","false","original","1","4","","",""
"html-keyboard-response","125","662370","0.0-4.0-2.0-1.2","spark_pilot_norest","10192","7","7","Female","","","","","","","null","<div style=""font-size:60px;"">+</div>","null","fixation","","","","","","","","","5","","",""
"revaluation","126","668397","0.0-4.0-2.0-0.3","spark_pilot_norest","10192","7","7","Female","","false","","","","","[1708,1279]","./assets/img/canyon/memory/1.jpg","[""ArrowDown"",""ArrowRight""]","value training","canyon","30","{""ArrowUp,ArrowLeft"":23,""ArrowUp,ArrowRight"":10,""ArrowDown,ArrowLeft"":8,""ArrowDown,ArrowRight"":30}","true","ArrowDown,ArrowRight","false","original","1","6","","",""
"html-keyboard-response","127","668908","0.0-4.0-2.0-1.3","spark_pilot_norest","10192","7","7","Female","","","","","","","null","<div style=""font-size:60px;"">+</div>","null","fixation","","","","","","","","","7","","",""
"revaluation","128","674921","0.0-4.0-2.0-0.4","spark_pilot_norest","10192","7","7","Female","","false","","","","","[1279.7000000476837,958.6000000238419]","./assets/img/canyon/memory/39.jpg","[""ArrowUp"",""ArrowLeft""]","value training","canyon","23","{""ArrowUp,ArrowLeft"":23,""ArrowUp,ArrowRight"":10,""ArrowDown,ArrowLeft"":8,""ArrowDown,ArrowRight"":30}","false","ArrowUp,ArrowLeft","false","original","1","8","","",""
"html-keyboard-response","129","675422","0.0-4.0-2.0-1.4","spark_pilot_norest","10192","7","7","Female","","","","","","","null","<div style=""font-size:60px;"">+</div>","null","fixation","","","","","","","","","9","","",""
"revaluation","130","681427","0.0-4.0-2.0-0.5","spark_pilot_norest","10192","7","7","Female","","false","","","","","[1121.6000000238419,870.0999999046326]","./assets/img/canyon/memory/15.jpg","[""ArrowUp"",""ArrowRight""]","value training","canyon","10","{""ArrowUp,ArrowLeft"":23,""ArrowUp,ArrowRight"":10,""ArrowDown,ArrowLeft"":8,""ArrowDown,ArrowRight"":30}","false","ArrowUp,ArrowRight","false","original","1","10","","",""
"html-keyboard-response","131","681930","0.0-4.0-2.0-1.5","spark_pilot_norest","10192","7","7","Female","","","","","","","null","<div style=""font-size:60px;"">+</div>","null","fixation","","","","","","","","","11","","",""
"revaluation","132","687936","0.0-4.0-2.0-0.6","spark_pilot_norest","10192","7","7","Female","","false","","","","","[937.3999999761581,775.6999999284744]","./assets/img/canyon/memory/14.jpg","[""ArrowDown"",""ArrowLeft""]","value training","canyon","8","{""ArrowUp,ArrowLeft"":23,""ArrowUp,ArrowRight"":10,""ArrowDown,ArrowLeft"":8,""ArrowDown,ArrowRight"":30}","false","ArrowDown,ArrowLeft","false","original","1","12","","",""
"html-keyboard-response","133","688437","0.0-4.0-2.0-1.6","spark_pilot_norest","10192","7","7","Female","","","","","","","null","<div style=""font-size:60px;"">+</div>","null","fixation","","","","","","","","","13","","",""
"revaluation","134","694446","0.0-4.0-2.0-0.7","spark_pilot_norest","10192","7","7","Female","","false","","","","","[1718.1999999284744,987.7000000476837]","./assets/img/canyon/memory/18.jpg","[""ArrowUp"",""ArrowRight""]","value training","canyon","10","{""ArrowUp,ArrowLeft"":23,""ArrowUp,ArrowRight"":10,""ArrowDown,ArrowLeft"":8,""ArrowDown,ArrowRight"":30}","false","ArrowUp,ArrowRight","false","original","1","14","","",""
"html-keyboard-response","135","694948","0.0-4.0-2.0-1.7","spark_pilot_norest","10192","7","7","Female","","","","","","","null","<div style=""font-size:60px;"">+</div>","null","fixation","","","","","","","","","15","","",""
"revaluation","136","700953","0.0-4.0-2.0-0.8","spark_pilot_norest","10192","7","7","Female","","false","","","","","[1249.8000000715256,1781.8999999761581]","./assets/img/canyon/memory/28.jpg","[""ArrowUp"",""ArrowLeft""]","value training","canyon","23","{""ArrowUp,ArrowLeft"":23,""ArrowUp,ArrowRight"":10,""ArrowDown,ArrowLeft"":8,""ArrowDown,ArrowRight"":30}","false","ArrowUp,ArrowLeft","false","original","1","16","","",""
"html-keyboard-response","137","701455","0.0-4.0-2.0-1.8","spark_pilot_norest","10192","7","7","Female","","","","","","","null","<div style=""font-size:60px;"">+</div>","null","fixation","","","","","","","","","17","","",""
"revaluation","138","705459","0.0-4.0-2.0-0.9","spark_pilot_norest","10192","7","7","Female","","false","","","","","[1111.8999999761581]","./assets/img/canyon/catch/5.jpg","[""spaceBar""]","value training","canyon","0","{""ArrowUp,ArrowLeft"":23,""ArrowUp,ArrowRight"":10,""ArrowDown,ArrowLeft"":8,""ArrowDown,ArrowRight"":30}","true","spaceBar","true","original","1","18","","",""
"html-keyboard-response","139","705960","0.0-4.0-2.0-1.9","spark_pilot_norest","10192","7","7","Female","","","","","","","null","<div style=""font-size:60px;"">+</div>","null","fixation","","","","","","","","","19","","",""
"revaluation","140","711969","0.0-4.0-2.0-0.10","spark_pilot_norest","10192","7","7","Female","","false","","","","","[1455.6000000238419,749.1000000238419]","./assets/img/canyon/memory/28.jpg","[""ArrowUp"",""ArrowRight""]","value training","canyon","10","{""ArrowUp,ArrowLeft"":23,""ArrowUp,ArrowRight"":10,""ArrowDown,ArrowLeft"":8,""ArrowDown,ArrowRight"":30}","false","ArrowUp,ArrowRight","false","original","1","20","","",""
"html-keyboard-response","141","712472","0.0-4.0-2.0-1.10","spark_pilot_norest","10192","7","7","Female","","","","","","","null","<div style=""font-size:60px;"">+</div>","null","fixation","","","","","","","","","21","","",""
"revaluation","142","718476","0.0-4.0-2.0-0.11","spark_pilot_norest","10192","7","7","Female","","false","","","","","[745.8999999761581,1384.3000000715256]","./assets/img/canyon/memory/32.jpg","[""ArrowDown"",""ArrowLeft""]","value training","canyon","8","{""ArrowUp,ArrowLeft"":23,""ArrowUp,ArrowRight"":10,""ArrowDown,ArrowLeft"":8,""ArrowDown,ArrowRight"":30}","false","ArrowDown,ArrowLeft","false","original","1","22","","",""
"html-keyboard-response","143","718977","0.0-4.0-2.0-1.11","spark_pilot_norest","10192","7","7","Female","","","","","","","null","<div style=""font-size:60px;"">+</div>","null","fixation","","","","","","","","","23","","",""
"revaluation","144","724980","0.0-4.0-2.0-0.12","spark_pilot_norest","10192","7","7","Female","","false","","","","","[800.2000000476837,651.3999999761581]","./assets/img/canyon/memory/40.jpg","[""ArrowUp"",""ArrowRight""]","value training","canyon","10","{""ArrowUp,ArrowLeft"":23,""ArrowUp,ArrowRight"":10,""ArrowDown,ArrowLeft"":8,""ArrowDown,ArrowRight"":30}","false","ArrowUp,ArrowRight","false","original","1","24","","",""
"html-keyboard-response","145","725482","0.0-4.0-2.0-1.12","spark_pilot_norest","10192","7","7","Female","","","","","","","null","<div style=""font-size:60px;"">+</div>","null","fixation","","","","","","","","","25","","",""
"revaluation","146","731498","0.0-4.0-2.0-0.13","spark_pilot_norest","10192","7","7","Female","","false","","","","","[1125.7999999523163,1299]","./assets/img/canyon/memory/17.jpg","[""ArrowUp"",""ArrowLeft""]","value training","canyon","23","{""ArrowUp,ArrowLeft"":23,""ArrowUp,ArrowRight"":10,""ArrowDown,ArrowLeft"":8,""ArrowDown,ArrowRight"":30}","false","ArrowUp,ArrowLeft","false","original","1","26","","",""
"html-keyboard-response","147","732001","0.0-4.0-2.0-1.13","spark_pilot_norest","10192","7","7","Female","","","","","","","null","<div style=""font-size:60px;"">+</div>","null","fixation","","","","","","","","","27","","",""
"revaluation","148","736005","0.0-4.0-2.0-0.14","spark_pilot_norest","10192","7","7","Female","","false","","","","","[898.6000000238419]","./assets/img/canyon/catch/6.jpg","[""spaceBar""]","value training","canyon","0","{""ArrowUp,ArrowLeft"":23,""ArrowUp,ArrowRight"":10,""ArrowDown,ArrowLeft"":8,""ArrowDown,ArrowRight"":30}","true","spaceBar","true","original","1","28","","",""
"html-keyboard-response","149","736507","0.0-4.0-2.0-1.14","spark_pilot_norest","10192","7","7","Female","","","","","","","null","<div style=""font-size:60px;"">+</div>","null","fixation","","","","","","","","","29","","",""
"revaluation","150","742514","0.0-4.0-2.0-0.15","spark_pilot_norest","10192","7","7","Female","","false","","","","","[1207.8000000715256,817.5]","./assets/img/canyon/memory/32.jpg","[""ArrowUp"",""ArrowLeft""]","value training","canyon","23","{""ArrowUp,ArrowLeft"":23,""ArrowUp,ArrowRight"":10,""ArrowDown,ArrowLeft"":8,""ArrowDown,ArrowRight"":30}","false","ArrowUp,ArrowLeft","false","original","1","30","","",""
"html-keyboard-response","151","743015","0.0-4.0-2.0-1.15","spark_pilot_norest","10192","7","7","Female","","","","","","","null","<div style=""font-size:60px;"">+</div>","null","fixation","","","","","","","","","31","","",""
"revaluation","152","749019","0.0-4.0-2.0-0.16","spark_pilot_norest","10192","7","7","Female","","false","","","","","[866.9000000953674,463.7999999523163]","./assets/img/canyon/memory/23.jpg","[""ArrowUp"",""ArrowLeft""]","value training","canyon","23","{""ArrowUp,ArrowLeft"":23,""ArrowUp,ArrowRight"":10,""ArrowDown,ArrowLeft"":8,""ArrowDown,ArrowRight"":30}","false","ArrowUp,ArrowLeft","false","original","1","32","","",""
"html-keyboard-response","153","749521","0.0-4.0-2.0-1.16","spark_pilot_norest","10192","7","7","Female","","","","","","","null","<div style=""font-size:60px;"">+</div>","null","fixation","","","","","","","","","33","","",""
"revaluation","154","755526","0.0-4.0-2.0-0.17","spark_pilot_norest","10192","7","7","Female","","false","","","","","[1618.3000000715256,663.5]","./assets/img/canyon/memory/30.jpg","[""ArrowUp"",""ArrowRight""]","value training","canyon","10","{""ArrowUp,ArrowLeft"":23,""ArrowUp,ArrowRight"":10,""ArrowDown,ArrowLeft"":8,""ArrowDown,ArrowRight"":30}","false","ArrowUp,ArrowRight","false","original","1","34","","",""
"html-keyboard-response","155","756028","0.0-4.0-2.0-1.17","spark_pilot_norest","10192","7","7","Female","","","","","","","null","<div style=""font-size:60px;"">+</div>","null","fixation","","","","","","","","","35","","",""
"revaluation","156","760032","0.0-4.0-2.0-0.18","spark_pilot_norest","10192","7","7","Female","","false","","","","","[902.2999999523163]","./assets/img/canyon/catch/4.jpg","[""spaceBar""]","value training","canyon","0","{""ArrowUp,ArrowLeft"":23,""ArrowUp,ArrowRight"":10,""ArrowDown,ArrowLeft"":8,""ArrowDown,ArrowRight"":30}","true","spaceBar","true","original","1","36","","",""
"html-keyboard-response","157","760534","0.0-4.0-2.0-1.18","spark_pilot_norest","10192","7","7","Female","","","","","","","null","<div style=""font-size:60px;"">+</div>","null","fixation","","","","","","","","","37","","",""
"revaluation","158","766540","0.0-4.0-2.0-0.19","spark_pilot_norest","10192","7","7","Female","","false","","","","","[579.3999999761581,412.2999999523163]","./assets/img/canyon/memory/40.jpg","[""ArrowUp"",""ArrowLeft""]","value training","canyon","23","{""ArrowUp,ArrowLeft"":23,""ArrowUp,ArrowRight"":10,""ArrowDown,ArrowLeft"":8,""ArrowDown,ArrowRight"":30}","false","ArrowUp,ArrowLeft","false","original","1","38","","",""
"html-keyboard-response","159","767042","0.0-4.0-2.0-1.19","spark_pilot_norest","10192","7","7","Female","","","","","","","null","<div style=""font-size:60px;"">+</div>","null","fixation","","","","","","","","","39","","",""
"revaluation","160","773049","0.0-4.0-2.0-0.20","spark_pilot_norest","10192","7","7","Female","","false","","","","","[837.2999999523163,834]","./assets/img/canyon/memory/29.jpg","[""ArrowDown"",""ArrowLeft""]","value training","canyon","8","{""ArrowUp,ArrowLeft"":23,""ArrowUp,ArrowRight"":10,""ArrowDown,ArrowLeft"":8,""ArrowDown,ArrowRight"":30}","false","ArrowDown,ArrowLeft","false","original","1","40","","",""
"html-keyboard-response","161","773560","0.0-4.0-2.0-1.20","spark_pilot_norest","10192","7","7","Female","","","","","","","null","<div style=""font-size:60px;"">+</div>","null","fixation","","","","","","","","","41","","",""
"revaluation","162","779567","0.0-4.0-2.0-0.21","spark_pilot_norest","10192","7","7","Female","","false","","","","","[527.2000000476837,452.89999997615814]","./assets/img/canyon/memory/23.jpg","[""ArrowDown"",""ArrowRight""]","value training","canyon","30","{""ArrowUp,ArrowLeft"":23,""ArrowUp,ArrowRight"":10,""ArrowDown,ArrowLeft"":8,""ArrowDown,ArrowRight"":30}","true","ArrowDown,ArrowRight","false","original","1","42","","",""
"html-keyboard-response","163","780068","0.0-4.0-2.0-1.21","spark_pilot_norest","10192","7","7","Female","","","","","","","null","<div style=""font-size:60px;"">+</div>","null","fixation","","","","","","","","","43","","",""
"revaluation","164","786079","0.0-4.0-2.0-0.22","spark_pilot_norest","10192","7","7","Female","","false","","","","","[859.7000000476837,573.2000000476837]","./assets/img/canyon/memory/9.jpg","[""ArrowDown"",""ArrowRight""]","value training","canyon","30","{""ArrowUp,ArrowLeft"":23,""ArrowUp,ArrowRight"":10,""ArrowDown,ArrowLeft"":8,""ArrowDown,ArrowRight"":30}","true","ArrowDown,ArrowRight","false","original","1","44","","",""
"html-keyboard-response","165","786582","0.0-4.0-2.0-1.22","spark_pilot_norest","10192","7","7","Female","","","","","","","null","<div style=""font-size:60px;"">+</div>","null","fixation","","","","","","","","","45","","",""
"revaluation","166","790587","0.0-4.0-2.0-0.23","spark_pilot_norest","10192","7","7","Female","","false","","","","","[773.7999999523163]","./assets/img/canyon/catch/1.jpg","[""spaceBar""]","value training","canyon","0","{""ArrowUp,ArrowLeft"":23,""ArrowUp,ArrowRight"":10,""ArrowDown,ArrowLeft"":8,""ArrowDown,ArrowRight"":30}","true","spaceBar","true","original","1","46","","",""
"html-keyboard-response","167","791089","0.0-4.0-2.0-1.23","spark_pilot_norest","10192","7","7","Female","","","","","","","null","<div style=""font-size:60px;"">+</div>","null","fixation","","","","","","","","","47","","",""
"revaluation","168","797097","0.0-4.0-2.0-0.24","spark_pilot_norest","10192","7","7","Female","","false","","","","","[769.5999999046326,1685.5]","./assets/img/canyon/memory/31.jpg","[""ArrowUp"",""ArrowLeft""]","value training","canyon","23","{""ArrowUp,ArrowLeft"":23,""ArrowUp,ArrowRight"":10,""ArrowDown,ArrowLeft"":8,""ArrowDown,ArrowRight"":30}","false","ArrowUp,ArrowLeft","false","original","1","48","","",""
"html-keyboard-response","169","797599","0.0-4.0-2.0-1.24","spark_pilot_norest","10192","7","7","Female","","","","","","","null","<div style=""font-size:60px;"">+</div>","null","fixation","","","","","","","","","49","","",""
"revaluation","170","803606","0.0-4.0-2.0-0.25","spark_pilot_norest","10192","7","7","Female","","false","","","","","[1097.3999999761581,549]","./assets/img/canyon/memory/26.jpg","[""ArrowDown"",""ArrowRight""]","value training","canyon","30","{""ArrowUp,ArrowLeft"":23,""ArrowUp,ArrowRight"":10,""ArrowDown,ArrowLeft"":8,""ArrowDown,ArrowRight"":30}","true","ArrowDown,ArrowRight","false","original","1","50","","",""
"html-keyboard-response","171","804108","0.0-4.0-2.0-1.25","spark_pilot_norest","10192","7","7","Female","","","","","","","null","<div style=""font-size:60px;"">+</div>","null","fixation","","","","","","","","","51","","",""
"revaluation","172","810116","0.0-4.0-2.0-0.26","spark_pilot_norest","10192","7","7","Female","","false","","","","","[1000.6000000238419,1090.8000000715256]","./assets/img/canyon/memory/26.jpg","[""ArrowDown"",""ArrowRight""]","value training","canyon","30","{""ArrowUp,ArrowLeft"":23,""ArrowUp,ArrowRight"":10,""ArrowDown,ArrowLeft"":8,""ArrowDown,ArrowRight"":30}","true","ArrowDown,ArrowRight","false","original","1","52","","",""
"html-keyboard-response","173","810618","0.0-4.0-2.0-1.26","spark_pilot_norest","10192","7","7","Female","","","","","","","null","<div style=""font-size:60px;"">+</div>","null","fixation","","","","","","","","","53","","",""
"revaluation","174","814624","0.0-4.0-2.0-0.27","spark_pilot_norest","10192","7","7","Female","","false","","","","","[996.8000000715256]","./assets/img/canyon/catch/2.jpg","[""spaceBar""]","value training","canyon","0","{""ArrowUp,ArrowLeft"":23,""ArrowUp,ArrowRight"":10,""ArrowDown,ArrowLeft"":8,""ArrowDown,ArrowRight"":30}","true","spaceBar","true","original","1","54","","",""
"html-keyboard-response","175","815125","0.0-4.0-2.0-1.27","spark_pilot_norest","10192","7","7","Female","","","","","","","null","<div style=""font-size:60px;"">+</div>","null","fixation","","","","","","","","","55","","",""
"revaluation","176","821131","0.0-4.0-2.0-0.28","spark_pilot_norest","10192","7","7","Female","","false","","","","","[613.5,995.3999999761581]","./assets/img/canyon/memory/12.jpg","[""ArrowUp"",""ArrowLeft""]","value training","canyon","23","{""ArrowUp,ArrowLeft"":23,""ArrowUp,ArrowRight"":10,""ArrowDown,ArrowLeft"":8,""ArrowDown,ArrowRight"":30}","false","ArrowUp,ArrowLeft","false","original","1","56","","",""
"html-keyboard-response","177","821633","0.0-4.0-2.0-1.28","spark_pilot_norest","10192","7","7","Female","","","","","","","null","<div style=""font-size:60px;"">+</div>","null","fixation","","","","","","","","","57","","",""
"revaluation","178","825636","0.0-4.0-2.0-0.29","spark_pilot_norest","10192","7","7","Female","","true","","","","","[]","./assets/img/canyon/memory/14.jpg","[]","value training","canyon","-5","{""ArrowUp,ArrowLeft"":23,""ArrowUp,ArrowRight"":10,""ArrowDown,ArrowLeft"":8,""ArrowDown,ArrowRight"":30}","false","","false","original","1","58","","",""
"html-keyboard-response","179","826138","0.0-4.0-2.0-1.29","spark_pilot_norest","10192","7","7","Female","","","","","","","null","<div style=""font-size:60px;"">+</div>","null","fixation","","","","","","","","","59","","",""
"revaluation","180","832145","0.0-4.0-2.0-0.30","spark_pilot_norest","10192","7","7","Female","","false","","","","","[750.8000000715256,869.6000000238419]","./assets/img/canyon/memory/4.jpg","[""ArrowDown"",""ArrowRight""]","value training","canyon","30","{""ArrowUp,ArrowLeft"":23,""ArrowUp,ArrowRight"":10,""ArrowDown,ArrowLeft"":8,""ArrowDown,ArrowRight"":30}","true","ArrowDown,ArrowRight","false","original","1","60","","",""
"html-keyboard-response","181","832646","0.0-4.0-2.0-1.30","spark_pilot_norest","10192","7","7","Female","","","","","","","null","<div style=""font-size:60px;"">+</div>","null","fixation","","","","","","","","","61","","",""
"revaluation","182","838652","0.0-4.0-2.0-0.31","spark_pilot_norest","10192","7","7","Female","","false","","","","","[1382.5,650.1999999284744]","./assets/img/canyon/memory/31.jpg","[""ArrowDown"",""ArrowRight""]","value training","canyon","30","{""ArrowUp,ArrowLeft"":23,""ArrowUp,ArrowRight"":10,""ArrowDown,ArrowLeft"":8,""ArrowDown,ArrowRight"":30}","true","ArrowDown,ArrowRight","false","original","1","62","","",""
"html-keyboard-response","183","839154","0.0-4.0-2.0-1.31","spark_pilot_norest","10192","7","7","Female","","","","","","","null","<div style=""font-size:60px;"">+</div>","null","fixation","","","","","","","","","63","","",""
"revaluation","184","845162","0.0-4.0-2.0-0.32","spark_pilot_norest","10192","7","7","Female","","false","","","","","[1221.6999999284744,586]","./assets/img/canyon/memory/17.jpg","[""ArrowDown"",""ArrowRight""]","value training","canyon","30","{""ArrowUp,ArrowLeft"":23,""ArrowUp,ArrowRight"":10,""ArrowDown,ArrowLeft"":8,""ArrowDown,ArrowRight"":30}","true","ArrowDown,ArrowRight","false","original","1","64","","",""
"html-keyboard-response","185","845664","0.0-4.0-2.0-1.32","spark_pilot_norest","10192","7","7","Female","","","","","","","null","<div style=""font-size:60px;"">+</div>","null","fixation","","","","","","","","","65","","",""
"revaluation","186","851672","0.0-4.0-2.0-0.33","spark_pilot_norest","10192","7","7","Female","","false","","","","","[1059.5,723.3999999761581]","./assets/img/canyon/memory/1.jpg","[""ArrowUp"",""ArrowLeft""]","value training","canyon","23","{""ArrowUp,ArrowLeft"":23,""ArrowUp,ArrowRight"":10,""ArrowDown,ArrowLeft"":8,""ArrowDown,ArrowRight"":30}","false","ArrowUp,ArrowLeft","false","original","1","66","","",""
"html-keyboard-response","187","852174","0.0-4.0-2.0-1.33","spark_pilot_norest","10192","7","7","Female","","","","","","","null","<div style=""font-size:60px;"">+</div>","null","fixation","","","","","","","","","67","","",""
"revaluation","188","856176","0.0-4.0-2.0-0.34","spark_pilot_norest","10192","7","7","Female","","false","","","","","[869.7000000476837]","./assets/img/canyon/catch/7.jpg","[""spaceBar""]","value training","canyon","0","{""ArrowUp,ArrowLeft"":23,""ArrowUp,ArrowRight"":10,""ArrowDown,ArrowLeft"":8,""ArrowDown,ArrowRight"":30}","true","spaceBar","true","original","1","68","","",""
"html-keyboard-response","189","856679","0.0-4.0-2.0-1.34","spark_pilot_norest","10192","7","7","Female","","","","","","","null","<div style=""font-size:60px;"">+</div>","null","fixation","","","","","","","","","69","","",""
"revaluation","190","862685","0.0-4.0-2.0-0.35","spark_pilot_norest","10192","7","7","Female","","false","","","","","[1959.8999999761581,1350.1000000238419]","./assets/img/canyon/memory/15.jpg","[""ArrowDown"",""ArrowRight""]","value training","canyon","30","{""ArrowUp,ArrowLeft"":23,""ArrowUp,ArrowRight"":10,""ArrowDown,ArrowLeft"":8,""ArrowDown,ArrowRight"":30}","true","ArrowDown,ArrowRight","false","original","1","70","","",""
"html-keyboard-response","191","863187","0.0-4.0-2.0-1.35","spark_pilot_norest","10192","7","7","Female","","","","","","","null","<div style=""font-size:60px;"">+</div>","null","fixation","","","","","","","","","71","","",""
"revaluation","192","869194","0.0-4.0-2.0-0.36","spark_pilot_norest","10192","7","7","Female","","false","","","","","[1817.5,1109.8999999761581]","./assets/img/canyon/memory/9.jpg","[""ArrowUp"",""ArrowRight""]","value training","canyon","10","{""ArrowUp,ArrowLeft"":23,""ArrowUp,ArrowRight"":10,""ArrowDown,ArrowLeft"":8,""ArrowDown,ArrowRight"":30}","false","ArrowUp,ArrowRight","false","original","1","72","","",""
"html-keyboard-response","193","869695","0.0-4.0-2.0-1.36","spark_pilot_norest","10192","7","7","Female","","","","","","","null","<div style=""font-size:60px;"">+</div>","null","fixation","","","","","","","","","73","","",""
"revaluation","194","875703","0.0-4.0-2.0-0.37","spark_pilot_norest","10192","7","7","Female","","false","","","","","[820.1000000238419,470.2000000476837]","./assets/img/canyon/memory/29.jpg","[""ArrowUp"",""ArrowLeft""]","value training","canyon","23","{""ArrowUp,ArrowLeft"":23,""ArrowUp,ArrowRight"":10,""ArrowDown,ArrowLeft"":8,""ArrowDown,ArrowRight"":30}","false","ArrowUp,ArrowLeft","false","original","1","74","","",""
"html-keyboard-response","195","876204","0.0-4.0-2.0-1.37","spark_pilot_norest","10192","7","7","Female","","","","","","","null","<div style=""font-size:60px;"">+</div>","null","fixation","","","","","","","","","75","","",""
"revaluation","196","882222","0.0-4.0-2.0-0.38","spark_pilot_norest","10192","7","7","Female","","false","","","","","[878.5,376.5]","./assets/img/canyon/memory/30.jpg","[""ArrowDown"",""ArrowRight""]","value training","canyon","30","{""ArrowUp,ArrowLeft"":23,""ArrowUp,ArrowRight"":10,""ArrowDown,ArrowLeft"":8,""ArrowDown,ArrowRight"":30}","true","ArrowDown,ArrowRight","false","original","1","76","","",""
"html-keyboard-response","197","882724","0.0-4.0-2.0-1.38","spark_pilot_norest","10192","7","7","Female","","","","","","","null","<div style=""font-size:60px;"">+</div>","null","fixation","","","","","","","","","77","","",""
"revaluation","198","888730","0.0-4.0-2.0-0.39","spark_pilot_norest","10192","7","7","Female","","false","","","","","[881.7000000476837,608.1000000238419]","./assets/img/canyon/memory/39.jpg","[""ArrowUp"",""ArrowLeft""]","value training","canyon","23","{""ArrowUp,ArrowLeft"":23,""ArrowUp,ArrowRight"":10,""ArrowDown,ArrowLeft"":8,""ArrowDown,ArrowRight"":30}","false","ArrowUp,ArrowLeft","false","original","1","78","","",""
"html-keyboard-response","199","889231","0.0-4.0-2.0-1.39","spark_pilot_norest","10192","7","7","Female","","","","","","","null","<div style=""font-size:60px;"">+</div>","null","fixation","","","","","","","","","79","","",""
"revaluation","200","895240","0.0-4.0-2.0-0.40","spark_pilot_norest","10192","7","7","Female","","false","","","","","[1435.5,590.2999999523163]","./assets/img/canyon/memory/4.jpg","[""ArrowDown"",""ArrowRight""]","value training","canyon","30","{""ArrowUp,ArrowLeft"":23,""ArrowUp,ArrowRight"":10,""ArrowDown,ArrowLeft"":8,""ArrowDown,ArrowRight"":30}","true","ArrowDown,ArrowRight","false","original","1","80","","",""
"html-keyboard-response","201","895741","0.0-4.0-2.0-1.40","spark_pilot_norest","10192","7","7","Female","","","","","","","null","<div style=""font-size:60px;"">+</div>","null","fixation","","","","","","","","","81","","",""
"revaluation","202","901748","0.0-4.0-2.0-0.41","spark_pilot_norest","10192","7","7","Female","","false","","","","","[979,563.3999999761581]","./assets/img/canyon/memory/37.jpg","[""ArrowUp"",""ArrowLeft""]","value training","canyon","23","{""ArrowUp,ArrowLeft"":23,""ArrowUp,ArrowRight"":10,""ArrowDown,ArrowLeft"":8,""ArrowDown,ArrowRight"":30}","false","ArrowUp,ArrowLeft","false","original","1","82","","",""
"html-keyboard-response","203","902255","0.0-4.0-2.0-1.41","spark_pilot_norest","10192","7","7","Female","","","","","","","null","<div style=""font-size:60px;"">+</div>","null","fixation","","","","","","","","","83","","",""
"revaluation","204","908262","0.0-4.0-2.0-0.42","spark_pilot_norest","10192","7","7","Female","","false","","","","","[747.8999999761581,457.59999990463257]","./assets/img/canyon/memory/12.jpg","[""ArrowDown"",""ArrowRight""]","value training","canyon","30","{""ArrowUp,ArrowLeft"":23,""ArrowUp,ArrowRight"":10,""ArrowDown,ArrowLeft"":8,""ArrowDown,ArrowRight"":30}","true","ArrowDown,ArrowRight","false","original","1","84","","",""
"html-keyboard-response","205","908764","0.0-4.0-2.0-1.42","spark_pilot_norest","10192","7","7","Female","","","","","","","null","<div style=""font-size:60px;"">+</div>","null","fixation","","","","","","","","","85","","",""
"revaluation","206","914770","0.0-4.0-2.0-0.43","spark_pilot_norest","10192","7","7","Female","","false","","","","","[798.1999999284744,663.8999999761581]","./assets/img/canyon/memory/41.jpg","[""ArrowUp"",""ArrowRight""]","value training","canyon","10","{""ArrowUp,ArrowLeft"":23,""ArrowUp,ArrowRight"":10,""ArrowDown,ArrowLeft"":8,""ArrowDown,ArrowRight"":30}","false","ArrowUp,ArrowRight","false","original","1","86","","",""
"html-keyboard-response","207","915272","0.0-4.0-2.0-1.43","spark_pilot_norest","10192","7","7","Female","","","","","","","null","<div style=""font-size:60px;"">+</div>","null","fixation","","","","","","","","","87","","",""
"revaluation","208","921278","0.0-4.0-2.0-0.44","spark_pilot_norest","10192","7","7","Female","","false","","","","","[1724.2999999523163,1124]","./assets/img/canyon/memory/18.jpg","[""ArrowDown"",""ArrowRight""]","value training","canyon","30","{""ArrowUp,ArrowLeft"":23,""ArrowUp,ArrowRight"":10,""ArrowDown,ArrowLeft"":8,""ArrowDown,ArrowRight"":30}","true","ArrowDown,ArrowRight","false","original","1","88","","",""
"html-keyboard-response","209","921780","0.0-4.0-2.0-1.44","spark_pilot_norest","10192","7","7","Female","","","","","","","null","<div style=""font-size:60px;"">+</div>","null","fixation","","","","","","","","","89","","",""
"revaluation","210","927786","0.0-4.0-2.0-0.45","spark_pilot_norest","10192","7","7","Female","","false","","","","","[1105.8999999761581,532.8999999761581]","./assets/img/canyon/memory/37.jpg","[""ArrowDown"",""ArrowRight""]","value training","canyon","30","{""ArrowUp,ArrowLeft"":23,""ArrowUp,ArrowRight"":10,""ArrowDown,ArrowLeft"":8,""ArrowDown,ArrowRight"":30}","true","ArrowDown,ArrowRight","false","original","1","90","","",""
"html-keyboard-response","211","928289","0.0-4.0-2.0-1.45","spark_pilot_norest","10192","7","7","Female","","","","","","","null","<div style=""font-size:60px;"">+</div>","null","fixation","","","","","","","","","91","","",""
"revaluation","212","932298","0.0-4.0-2.0-0.46","spark_pilot_norest","10192","7","7","Female","","false","","","","","[1586.6000000238419]","./assets/img/canyon/catch/3.jpg","[""spaceBar""]","value training","canyon","0","{""ArrowUp,ArrowLeft"":23,""ArrowUp,ArrowRight"":10,""ArrowDown,ArrowLeft"":8,""ArrowDown,ArrowRight"":30}","true","spaceBar","true","original","1","92","","",""
"html-keyboard-response","213","932799","0.0-4.0-2.0-1.46","spark_pilot_norest","10192","7","7","Female","","","","","","","null","<div style=""font-size:60px;"">+</div>","null","fixation","","","","","","","","","93","","",""
"revaluation","214","938806","0.0-4.0-2.0-0.47","spark_pilot_norest","10192","7","7","Female","","false","","","","","[1098.6000000238419,510]","./assets/img/canyon/memory/41.jpg","[""ArrowUp"",""ArrowLeft""]","value training","canyon","23","{""ArrowUp,ArrowLeft"":23,""ArrowUp,ArrowRight"":10,""ArrowDown,ArrowLeft"":8,""ArrowDown,ArrowRight"":30}","false","ArrowUp,ArrowLeft","false","original","1","94","","",""
"html-keyboard-response","215","939309","0.0-4.0-2.0-1.47","spark_pilot_norest","10192","7","7","Female","","","","","","","null","<div style=""font-size:60px;"">+</div>","null","fixation","","","","","","","","","95","","",""
"revaluation","216","945313","0.0-4.0-2.0-0.48","spark_pilot_norest","10192","7","7","Female","","false","","","","","[952.5,455]","./assets/img/canyon/memory/19.jpg","[""ArrowDown"",""ArrowRight""]","value training","canyon","30","{""ArrowUp,ArrowLeft"":23,""ArrowUp,ArrowRight"":10,""ArrowDown,ArrowLeft"":8,""ArrowDown,ArrowRight"":30}","true","ArrowDown,ArrowRight","false","original","1","96","","",""
"html-keyboard-response","217","945815","0.0-4.0-2.0-1.48","spark_pilot_norest","10192","7","7","Female","","","","","","","null","<div style=""font-size:60px;"">+</div>","null","fixation","","","","","","","","","97","","",""
"revaluation","218","949837","0.0-4.0-2.0-0.49","spark_pilot_norest","10192","7","7","Female","","false","","","","","[698.1000000238419]","./assets/img/canyon/catch/0.jpg","[""spaceBar""]","value training","canyon","0","{""ArrowUp,ArrowLeft"":23,""ArrowUp,ArrowRight"":10,""ArrowDown,ArrowLeft"":8,""ArrowDown,ArrowRight"":30}","true","spaceBar","true","original","1","98","","",""
"html-keyboard-response","219","950339","0.0-4.0-2.0-1.49","spark_pilot_norest","10192","7","7","Female","","","","","","","null","<div style=""font-size:60px;"">+</div>","null","fixation","","","","","","","","","99","","",""
"learning-instructions","220","966434","0.0-4.0-3.0-0.0","spark_pilot_norest","10192","7","7","Female","","","","","","","3209.399999976158","<p> Now, you will travel with a friend who will choose whether you go up or down first. </p>
            <p> On these turns, you will just see the animal that they found. You will still get to choose which chest to search for treasure.</p>","","instructions","","","","","","","","","","","",""
"revaluation","221","970465","0.0-4.0-4.0-0.0","spark_pilot_norest","10192","7","7","Female","","false","","","","","[1393.3000000715256]","./assets/img/canyon/animals/giraffe.jpg","[""ArrowRight""]","revaluation","canyon","10","{""ArrowUp,ArrowLeft"":23,""ArrowUp,ArrowRight"":10,""ArrowDown,ArrowLeft"":8,""ArrowDown,ArrowRight"":30}","false","ArrowUp,ArrowRight","","original","1","0","","",""
"html-keyboard-response","222","970979","0.0-4.0-4.0-1.0","spark_pilot_norest","10192","7","7","Female","","","","","","","null","<div style=""font-size:60px;"">+</div>","null","fixation","","","","","","","","","1","","",""
"revaluation","223","975002","0.0-4.0-4.0-0.1","spark_pilot_norest","10192","7","7","Female","","false","","","","","[595.9000000953674]","./assets/img/canyon/animals/lion.jpg","[""ArrowLeft""]","revaluation","canyon","8","{""ArrowUp,ArrowLeft"":23,""ArrowUp,ArrowRight"":10,""ArrowDown,ArrowLeft"":8,""ArrowDown,ArrowRight"":30}","false","ArrowDown,ArrowLeft","","original","1","2","","",""
"html-keyboard-response","224","975512","0.0-4.0-4.0-1.1","spark_pilot_norest","10192","7","7","Female","","","","","","","null","<div style=""font-size:60px;"">+</div>","null","fixation","","","","","","","","","3","","",""
"revaluation","225","979541","0.0-4.0-4.0-0.2","spark_pilot_norest","10192","7","7","Female","","false","","","","","[945.8999999761581]","./assets/img/canyon/animals/lion.jpg","[""ArrowRight""]","revaluation","canyon","30","{""ArrowUp,ArrowLeft"":23,""ArrowUp,ArrowRight"":10,""ArrowDown,ArrowLeft"":8,""ArrowDown,ArrowRight"":30}","true","ArrowDown,ArrowRight","","original","1","4","","",""
"html-keyboard-response","226","980055","0.0-4.0-4.0-1.2","spark_pilot_norest","10192","7","7","Female","","","","","","","null","<div style=""font-size:60px;"">+</div>","null","fixation","","","","","","","","","5","","",""
"revaluation","227","984071","0.0-4.0-4.0-0.3","spark_pilot_norest","10192","7","7","Female","","false","","","","","[404]","./assets/img/canyon/animals/giraffe.jpg","[""ArrowLeft""]","revaluation","canyon","23","{""ArrowUp,ArrowLeft"":23,""ArrowUp,ArrowRight"":10,""ArrowDown,ArrowLeft"":8,""ArrowDown,ArrowRight"":30}","true","ArrowUp,ArrowLeft","","original","1","6","","",""
"html-keyboard-response","228","984580","0.0-4.0-4.0-1.3","spark_pilot_norest","10192","7","7","Female","","","","","","","null","<div style=""font-size:60px;"">+</div>","null","fixation","","","","","","","","","7","","",""
"revaluation","229","988607","0.0-4.0-4.0-0.4","spark_pilot_norest","10192","7","7","Female","","false","","","","","[526.5]","./assets/img/canyon/animals/lion.jpg","[""ArrowRight""]","revaluation","canyon","30","{""ArrowUp,ArrowLeft"":23,""ArrowUp,ArrowRight"":10,""ArrowDown,ArrowLeft"":8,""ArrowDown,ArrowRight"":30}","true","ArrowDown,ArrowRight","","original","1","8","","",""
"html-keyboard-response","230","989119","0.0-4.0-4.0-1.4","spark_pilot_norest","10192","7","7","Female","","","","","","","null","<div style=""font-size:60px;"">+</div>","null","fixation","","","","","","","","","9","","",""
"revaluation","231","993135","0.0-4.0-4.0-0.5","spark_pilot_norest","10192","7","7","Female","","false","","","","","[405.89999997615814]","./assets/img/canyon/animals/lion.jpg","[""ArrowLeft""]","revaluation","canyon","8","{""ArrowUp,ArrowLeft"":23,""ArrowUp,ArrowRight"":10,""ArrowDown,ArrowLeft"":8,""ArrowDown,ArrowRight"":30}","false","ArrowDown,ArrowLeft","","original","1","10","","",""
"html-keyboard-response","232","993638","0.0-4.0-4.0-1.5","spark_pilot_norest","10192","7","7","Female","","","","","","","null","<div style=""font-size:60px;"">+</div>","null","fixation","","","","","","","","","11","","",""
"revaluation","233","997644","0.0-4.0-4.0-0.6","spark_pilot_norest","10192","7","7","Female","","true","","","","","[]","./assets/img/canyon/animals/giraffe.jpg","[]","revaluation","canyon","-5","{""ArrowUp,ArrowLeft"":23,""ArrowUp,ArrowRight"":10,""ArrowDown,ArrowLeft"":8,""ArrowDown,ArrowRight"":30}","false","ArrowUp","","original","1","12","","",""
"html-keyboard-response","234","998146","0.0-4.0-4.0-1.6","spark_pilot_norest","10192","7","7","Female","","","","","","","null","<div style=""font-size:60px;"">+</div>","null","fixation","","","","","","","","","13","","",""
"revaluation","235","1002151","0.0-4.0-4.0-0.7","spark_pilot_norest","10192","7","7","Female","","false","","","","","[512.2000000476837]","./assets/img/canyon/animals/lion.jpg","[""ArrowLeft""]","revaluation","canyon","8","{""ArrowUp,ArrowLeft"":23,""ArrowUp,ArrowRight"":10,""ArrowDown,ArrowLeft"":8,""ArrowDown,ArrowRight"":30}","false","ArrowDown,ArrowLeft","","original","1","14","","",""
"html-keyboard-response","236","1002653","0.0-4.0-4.0-1.7","spark_pilot_norest","10192","7","7","Female","","","","","","","null","<div style=""font-size:60px;"">+</div>","null","fixation","","","","","","","","","15","","",""
"revaluation","237","1006666","0.0-4.0-4.0-0.8","spark_pilot_norest","10192","7","7","Female","","false","","","","","[995.6999999284744]","./assets/img/canyon/animals/lion.jpg","[""ArrowRight""]","revaluation","canyon","30","{""ArrowUp,ArrowLeft"":23,""ArrowUp,ArrowRight"":10,""ArrowDown,ArrowLeft"":8,""ArrowDown,ArrowRight"":30}","true","ArrowDown,ArrowRight","","original","1","16","","",""
"html-keyboard-response","238","1007167","0.0-4.0-4.0-1.8","spark_pilot_norest","10192","7","7","Female","","","","","","","null","<div style=""font-size:60px;"">+</div>","null","fixation","","","","","","","","","17","","",""
"revaluation","239","1011171","0.0-4.0-4.0-0.9","spark_pilot_norest","10192","7","7","Female","","false","","","","","[610.6000000238419]","./assets/img/canyon/animals/lion.jpg","[""ArrowRight""]","revaluation","canyon","30","{""ArrowUp,ArrowLeft"":23,""ArrowUp,ArrowRight"":10,""ArrowDown,ArrowLeft"":8,""ArrowDown,ArrowRight"":30}","true","ArrowDown,ArrowRight","","original","1","18","","",""
"html-keyboard-response","240","1011673","0.0-4.0-4.0-1.9","spark_pilot_norest","10192","7","7","Female","","","","","","","null","<div style=""font-size:60px;"">+</div>","null","fixation","","","","","","","","","19","","",""
"revaluation","241","1015679","0.0-4.0-4.0-0.10","spark_pilot_norest","10192","7","7","Female","","false","","","","","[657.6999999284744]","./assets/img/canyon/animals/giraffe.jpg","[""ArrowLeft""]","revaluation","canyon","23","{""ArrowUp,ArrowLeft"":23,""ArrowUp,ArrowRight"":10,""ArrowDown,ArrowLeft"":8,""ArrowDown,ArrowRight"":30}","true","ArrowUp,ArrowLeft","","original","1","20","","",""
"html-keyboard-response","242","1016187","0.0-4.0-4.0-1.10","spark_pilot_norest","10192","7","7","Female","","","","","","","null","<div style=""font-size:60px;"">+</div>","null","fixation","","","","","","","","","21","","",""
"revaluation","243","1020193","0.0-4.0-4.0-0.11","spark_pilot_norest","10192","7","7","Female","","false","","","","","[1541]","./assets/img/canyon/animals/giraffe.jpg","[""ArrowLeft""]","revaluation","canyon","23","{""ArrowUp,ArrowLeft"":23,""ArrowUp,ArrowRight"":10,""ArrowDown,ArrowLeft"":8,""ArrowDown,ArrowRight"":30}","true","ArrowUp,ArrowLeft","","original","1","22","","",""
"html-keyboard-response","244","1020694","0.0-4.0-4.0-1.11","spark_pilot_norest","10192","7","7","Female","","","","","","","null","<div style=""font-size:60px;"">+</div>","null","fixation","","","","","","","","","23","","",""
"revaluation","245","1024699","0.0-4.0-4.0-0.12","spark_pilot_norest","10192","7","7","Female","","false","","","","","[791.5]","./assets/img/canyon/animals/giraffe.jpg","[""ArrowRight""]","revaluation","canyon","10","{""ArrowUp,ArrowLeft"":23,""ArrowUp,ArrowRight"":10,""ArrowDown,ArrowLeft"":8,""ArrowDown,ArrowRight"":30}","false","ArrowUp,ArrowRight","","original","1","24","","",""
"html-keyboard-response","246","1025201","0.0-4.0-4.0-1.12","spark_pilot_norest","10192","7","7","Female","","","","","","","null","<div style=""font-size:60px;"">+</div>","null","fixation","","","","","","","","","25","","",""
"revaluation","247","1029207","0.0-4.0-4.0-0.13","spark_pilot_norest","10192","7","7","Female","","false","","","","","[531.3999999761581]","./assets/img/canyon/animals/giraffe.jpg","[""ArrowLeft""]","revaluation","canyon","23","{""ArrowUp,ArrowLeft"":23,""ArrowUp,ArrowRight"":10,""ArrowDown,ArrowLeft"":8,""ArrowDown,ArrowRight"":30}","true","ArrowUp,ArrowLeft","","original","1","26","","",""
"html-keyboard-response","248","1029709","0.0-4.0-4.0-1.13","spark_pilot_norest","10192","7","7","Female","","","","","","","null","<div style=""font-size:60px;"">+</div>","null","fixation","","","","","","","","","27","","",""
"revaluation","249","1033713","0.0-4.0-4.0-0.14","spark_pilot_norest","10192","7","7","Female","","false","","","","","[447.10000002384186]","./assets/img/canyon/animals/lion.jpg","[""ArrowRight""]","revaluation","canyon","30","{""ArrowUp,ArrowLeft"":23,""ArrowUp,ArrowRight"":10,""ArrowDown,ArrowLeft"":8,""ArrowDown,ArrowRight"":30}","true","ArrowDown,ArrowRight","","original","1","28","","",""
"html-keyboard-response","250","1034215","0.0-4.0-4.0-1.14","spark_pilot_norest","10192","7","7","Female","","","","","","","null","<div style=""font-size:60px;"">+</div>","null","fixation","","","","","","","","","29","","",""
"revaluation","251","1038219","0.0-4.0-4.0-0.15","spark_pilot_norest","10192","7","7","Female","","false","","","","","[695.6000000238419]","./assets/img/canyon/animals/giraffe.jpg","[""ArrowLeft""]","revaluation","canyon","23","{""ArrowUp,ArrowLeft"":23,""ArrowUp,ArrowRight"":10,""ArrowDown,ArrowLeft"":8,""ArrowDown,ArrowRight"":30}","true","ArrowUp,ArrowLeft","","original","1","30","","",""
"html-keyboard-response","252","1038721","0.0-4.0-4.0-1.15","spark_pilot_norest","10192","7","7","Female","","","","","","","null","<div style=""font-size:60px;"">+</div>","null","fixation","","","","","","","","","31","","",""
"revaluation","253","1042726","0.0-4.0-4.0-0.16","spark_pilot_norest","10192","7","7","Female","","true","","","","","[]","./assets/img/canyon/animals/giraffe.jpg","[]","revaluation","canyon","-5","{""ArrowUp,ArrowLeft"":23,""ArrowUp,ArrowRight"":10,""ArrowDown,ArrowLeft"":8,""ArrowDown,ArrowRight"":30}","false","ArrowUp","","original","1","32","","",""
"html-keyboard-response","254","1043227","0.0-4.0-4.0-1.16","spark_pilot_norest","10192","7","7","Female","","","","","","","null","<div style=""font-size:60px;"">+</div>","null","fixation","","","","","","","","","33","","",""
"revaluation","255","1047233","0.0-4.0-4.0-0.17","spark_pilot_norest","10192","7","7","Female","","false","","","","","[589.6999999284744]","./assets/img/canyon/animals/lion.jpg","[""ArrowRight""]","revaluation","canyon","30","{""ArrowUp,ArrowLeft"":23,""ArrowUp,ArrowRight"":10,""ArrowDown,ArrowLeft"":8,""ArrowDown,ArrowRight"":30}","true","ArrowDown,ArrowRight","","original","1","34","","",""
"html-keyboard-response","256","1047736","0.0-4.0-4.0-1.17","spark_pilot_norest","10192","7","7","Female","","","","","","","null","<div style=""font-size:60px;"">+</div>","null","fixation","","","","","","","","","35","","",""
"learning-instructions","257","1055876","0.0-4.0-5.0-0.0","spark_pilot_norest","10192","7","7","Female","","","","","","","null","<p> You have almost finished this part of the game! </p>
            <p> We are going to ask you to make a few more choices. </p>","","instructions","","","","","","","","","","","",""
"learning-instructions","258","1071869","0.0-4.0-5.0-0.1","spark_pilot_norest","10192","7","7","Female","","","","","","","null","<p> First, you need to decide whether to go up or down. When you see each picture, use the arrow keys to make your choice. </p>
            <p><b>You will not see which animal you found, but try to get to the one that will give you the most treasure.</b></p>","","instructions","","","","","","","","","","","",""
"html-keyboard-response","259","1072870","0.0-4.0-6.0-0.0","spark_pilot_norest","10192","7","7","Female","","","","","","","null","<div style=""font-size:100px;color:red;"">Starting in...</div>","null","","","","","","","","","","","","",""
"html-keyboard-response","260","1073879","0.0-4.0-6.0-1.0","spark_pilot_norest","10192","7","7","Female","","","","","","","null","<div style=""font-size:200px;color:red;"">3</div>","null","","","","","","","","","","","","",""
"html-keyboard-response","261","1074887","0.0-4.0-6.0-2.0","spark_pilot_norest","10192","7","7","Female","","","","","","","null","<div style=""font-size:200px;color:red;"">2</div>","null","","","","","","","","","","","","",""
"html-keyboard-response","262","1075892","0.0-4.0-6.0-3.0","spark_pilot_norest","10192","7","7","Female","","","","","","","null","<div style=""font-size:200px;color:red;"">1</div>","null","","","","","","","","","","","","",""
"revaluation","263","1076967","0.0-4.0-7.0-0.0","spark_pilot_norest","10192","7","7","Female","","false","","","","","[1073.6000000238419]","./assets/img/canyon/test/1.jpg","[""ArrowUp""]","first stage test","canyon","0","{""ArrowUp,ArrowLeft"":23,""ArrowUp,ArrowRight"":10,""ArrowDown,ArrowLeft"":8,""ArrowDown,ArrowRight"":30}","false","ArrowUp","false","original","1","","","",""
"html-keyboard-response","264","1077476","0.0-4.0-7.0-1.0","spark_pilot_norest","10192","7","7","Female","","","","","","","null","<div style=""font-size:60px;"">+</div>","null","fixation","","","","","","","","","","","",""
"revaluation","265","1078891","0.0-4.0-7.0-0.1","spark_pilot_norest","10192","7","7","Female","","false","","","","","[1410.5]","./assets/img/canyon/test/0.jpg","[""ArrowDown""]","first stage test","canyon","0","{""ArrowUp,ArrowLeft"":23,""ArrowUp,ArrowRight"":10,""ArrowDown,ArrowLeft"":8,""ArrowDown,ArrowRight"":30}","true","ArrowDown","false","original","1","","","",""
"html-keyboard-response","266","1079397","0.0-4.0-7.0-1.1","spark_pilot_norest","10192","7","7","Female","","","","","","","null","<div style=""font-size:60px;"">+</div>","null","fixation","","","","","","","","","","","",""
"revaluation","267","1080465","0.0-4.0-7.0-0.2","spark_pilot_norest","10192","7","7","Female","","false","","","","","[1065.2999999523163]","./assets/img/canyon/test/3.jpg","[""ArrowUp""]","first stage test","canyon","0","{""ArrowUp,ArrowLeft"":23,""ArrowUp,ArrowRight"":10,""ArrowDown,ArrowLeft"":8,""ArrowDown,ArrowRight"":30}","false","ArrowUp","false","original","1","","","",""
"html-keyboard-response","268","1080978","0.0-4.0-7.0-1.2","spark_pilot_norest","10192","7","7","Female","","","","","","","null","<div style=""font-size:60px;"">+</div>","null","fixation","","","","","","","","","","","",""
"revaluation","269","1081805","0.0-4.0-7.0-0.3","spark_pilot_norest","10192","7","7","Female","","false","","","","","[824.7999999523163]","./assets/img/canyon/test/2.jpg","[""ArrowDown""]","first stage test","canyon","0","{""ArrowUp,ArrowLeft"":23,""ArrowUp,ArrowRight"":10,""ArrowDown,ArrowLeft"":8,""ArrowDown,ArrowRight"":30}","true","ArrowDown","false","original","1","","","",""
"html-keyboard-response","270","1082312","0.0-4.0-7.0-1.3","spark_pilot_norest","10192","7","7","Female","","","","","","","null","<div style=""font-size:60px;"">+</div>","null","fixation","","","","","","","","","","","",""
"learning-instructions","271","1095661","0.0-4.0-8.0-0.0","spark_pilot_norest","10192","7","7","Female","","","","","","","null","<p> Now you will see the animals again and can search their chests for treasure. </p>
            <p> This time, you will not see how much treasure you earned, but you will earn more bonus money for making better choices. </p>","","instructions","","","","","","","","","","","",""
"html-keyboard-response","272","1096666","0.0-4.0-9.0-0.0","spark_pilot_norest","10192","7","7","Female","","","","","","","null","<div style=""font-size:100px;color:red;"">Starting in...</div>","null","","","","","","","","","","","","",""
"html-keyboard-response","273","1097677","0.0-4.0-9.0-1.0","spark_pilot_norest","10192","7","7","Female","","","","","","","null","<div style=""font-size:200px;color:red;"">3</div>","null","","","","","","","","","","","","",""
"html-keyboard-response","274","1098682","0.0-4.0-9.0-2.0","spark_pilot_norest","10192","7","7","Female","","","","","","","null","<div style=""font-size:200px;color:red;"">2</div>","null","","","","","","","","","","","","",""
"html-keyboard-response","275","1099696","0.0-4.0-9.0-3.0","spark_pilot_norest","10192","7","7","Female","","","","","","","null","<div style=""font-size:200px;color:red;"">1</div>","null","","","","","","","","","","","","",""
"revaluation","276","1102094","0.0-4.0-10.0-0.0","spark_pilot_norest","10192","7","7","Female","","false","","","","","[2393.2999999523163]","./assets/img/canyon/animals/giraffe.jpg","[""ArrowLeft""]","second stage test","canyon","0","{""ArrowUp,ArrowLeft"":23,""ArrowUp,ArrowRight"":10,""ArrowDown,ArrowLeft"":8,""ArrowDown,ArrowRight"":30}","true","ArrowUp,ArrowLeft","","original","1","","","",""
"html-keyboard-response","277","1102600","0.0-4.0-10.0-1.0","spark_pilot_norest","10192","7","7","Female","","","","","","","null","<div style=""font-size:60px;"">+</div>","null","fixation","","","","","","","","","","","",""
"revaluation","278","1103506","0.0-4.0-10.0-0.1","spark_pilot_norest","10192","7","7","Female","","false","","","","","[905]","./assets/img/canyon/animals/giraffe.jpg","[""ArrowLeft""]","second stage test","canyon","0","{""ArrowUp,ArrowLeft"":23,""ArrowUp,ArrowRight"":10,""ArrowDown,ArrowLeft"":8,""ArrowDown,ArrowRight"":30}","true","ArrowUp,ArrowLeft","","original","1","","","",""
"html-keyboard-response","279","1104019","0.0-4.0-10.0-1.1","spark_pilot_norest","10192","7","7","Female","","","","","","","null","<div style=""font-size:60px;"">+</div>","null","fixation","","","","","","","","","","","",""
"revaluation","280","1104950","0.0-4.0-10.0-0.2","spark_pilot_norest","10192","7","7","Female","","false","","","","","[927.3999999761581]","./assets/img/canyon/animals/giraffe.jpg","[""ArrowLeft""]","second stage test","canyon","0","{""ArrowUp,ArrowLeft"":23,""ArrowUp,ArrowRight"":10,""ArrowDown,ArrowLeft"":8,""ArrowDown,ArrowRight"":30}","true","ArrowUp,ArrowLeft","","original","1","","","",""
"html-keyboard-response","281","1105468","0.0-4.0-10.0-1.2","spark_pilot_norest","10192","7","7","Female","","","","","","","null","<div style=""font-size:60px;"">+</div>","null","fixation","","","","","","","","","","","",""
"revaluation","282","1106397","0.0-4.0-10.0-0.3","spark_pilot_norest","10192","7","7","Female","","false","","","","","[926.2999999523163]","./assets/img/canyon/animals/giraffe.jpg","[""ArrowLeft""]","second stage test","canyon","0","{""ArrowUp,ArrowLeft"":23,""ArrowUp,ArrowRight"":10,""ArrowDown,ArrowLeft"":8,""ArrowDown,ArrowRight"":30}","true","ArrowUp,ArrowLeft","","original","1","","","",""
"html-keyboard-response","283","1106911","0.0-4.0-10.0-1.3","spark_pilot_norest","10192","7","7","Female","","","","","","","null","<div style=""font-size:60px;"">+</div>","null","fixation","","","","","","","","","","","",""
"revaluation","284","1107861","0.0-4.0-10.0-0.4","spark_pilot_norest","10192","7","7","Female","","false","","","","","[948.3999999761581]","./assets/img/canyon/animals/lion.jpg","[""ArrowRight""]","second stage test","canyon","0","{""ArrowUp,ArrowLeft"":23,""ArrowUp,ArrowRight"":10,""ArrowDown,ArrowLeft"":8,""ArrowDown,ArrowRight"":30}","true","ArrowDown,ArrowRight","","original","1","","","",""
"html-keyboard-response","285","1108363","0.0-4.0-10.0-1.4","spark_pilot_norest","10192","7","7","Female","","","","","","","null","<div style=""font-size:60px;"">+</div>","null","fixation","","","","","","","","","","","",""
"revaluation","286","1109045","0.0-4.0-10.0-0.5","spark_pilot_norest","10192","7","7","Female","","false","","","","","[679.3999999761581]","./assets/img/canyon/animals/lion.jpg","[""ArrowRight""]","second stage test","canyon","0","{""ArrowUp,ArrowLeft"":23,""ArrowUp,ArrowRight"":10,""ArrowDown,ArrowLeft"":8,""ArrowDown,ArrowRight"":30}","true","ArrowDown,ArrowRight","","original","1","","","",""
"html-keyboard-response","287","1109548","0.0-4.0-10.0-1.5","spark_pilot_norest","10192","7","7","Female","","","","","","","null","<div style=""font-size:60px;"">+</div>","null","fixation","","","","","","","","","","","",""
"revaluation","288","1110422","0.0-4.0-10.0-0.6","spark_pilot_norest","10192","7","7","Female","","false","","","","","[871.1999999284744]","./assets/img/canyon/animals/lion.jpg","[""ArrowRight""]","second stage test","canyon","0","{""ArrowUp,ArrowLeft"":23,""ArrowUp,ArrowRight"":10,""ArrowDown,ArrowLeft"":8,""ArrowDown,ArrowRight"":30}","true","ArrowDown,ArrowRight","","original","1","","","",""
"html-keyboard-response","289","1110933","0.0-4.0-10.0-1.6","spark_pilot_norest","10192","7","7","Female","","","","","","","null","<div style=""font-size:60px;"">+</div>","null","fixation","","","","","","","","","","","",""
"revaluation","290","1111617","0.0-4.0-10.0-0.7","spark_pilot_norest","10192","7","7","Female","","false","","","","","[680.6000000238419]","./assets/img/canyon/animals/lion.jpg","[""ArrowRight""]","second stage test","canyon","0","{""ArrowUp,ArrowLeft"":23,""ArrowUp,ArrowRight"":10,""ArrowDown,ArrowLeft"":8,""ArrowDown,ArrowRight"":30}","true","ArrowDown,ArrowRight","","original","1","","","",""
"html-keyboard-response","291","1112125","0.0-4.0-10.0-1.7","spark_pilot_norest","10192","7","7","Female","","","","","","","null","<div style=""font-size:60px;"">+</div>","null","fixation","","","","","","","","","","","",""
"learning-instructions","292","1118881","0.0-4.0-0.1-0.2","spark_pilot_norest","10192","7","7","Female","","","","","","","4056","<p> This time you are searching for treasure in the <b>ocean</b>.</p>","","instructions","","","","","","","","","","","",""
"learning-instructions","293","1137488","0.0-4.0-0.1-0.3","spark_pilot_norest","10192","7","7","Female","","","","","","","1352.3999999761581","<p><b>New</b> animals with <b>new</b> treasure chests live here. You need to explore to discover where the animal with the best treasure chest is.</p>
                    <p> Like before, once you figure out which animal has the chest with the most treasure, you should try to get to that animal and select that chest! </p>","","instructions","","","","","","","","","","","",""
"learning-instructions","294","1153577","0.0-4.0-1.1-0.1","spark_pilot_norest","10192","7","7","Female","","","","","","","1362.6000000238419","<p> Remember, when you see a picture of the place, use the up and down keys to <b>find an animal</b>.</p>
            <p> When you encounter an animal, you should use the left and right keys to <b>select a treasure chest</b>.</p>
            <p> Don't forget to look out for the robber! </p>","","instructions","","","","","","","","","","","",""
"revaluation","295","1159610","0.0-4.0-2.1-0.50","spark_pilot_norest","10192","7","7","Female","","false","","","","","[1437.6000000238419,899.5]","./assets/img/ocean/memory/19.jpg","[""ArrowUp"",""ArrowRight""]","value training","ocean","10","{""ArrowUp,ArrowLeft"":26,""ArrowUp,ArrowRight"":10,""ArrowDown,ArrowLeft"":5,""ArrowDown,ArrowRight"":17}","false","ArrowUp,ArrowRight","false","revaluation","2","0","","",""
"html-keyboard-response","296","1160117","0.0-4.0-2.1-1.50","spark_pilot_norest","10192","7","7","Female","","","","","","","null","<div style=""font-size:60px;"">+</div>","null","fixation","","","","","","","","","1","","",""
"revaluation","297","1166141","0.0-4.0-2.1-0.51","spark_pilot_norest","10192","7","7","Female","","false","","","","","[942.5999999046326,478]","./assets/img/ocean/memory/30.jpg","[""ArrowUp"",""ArrowLeft""]","value training","ocean","26","{""ArrowUp,ArrowLeft"":26,""ArrowUp,ArrowRight"":10,""ArrowDown,ArrowLeft"":5,""ArrowDown,ArrowRight"":17}","true","ArrowUp,ArrowLeft","false","revaluation","2","2","","",""
"html-keyboard-response","298","1166650","0.0-4.0-2.1-1.51","spark_pilot_norest","10192","7","7","Female","","","","","","","null","<div style=""font-size:60px;"">+</div>","null","fixation","","","","","","","","","3","","",""
"revaluation","299","1172675","0.0-4.0-2.1-0.52","spark_pilot_norest","10192","7","7","Female","","false","","","","","[1025.3999999761581,1397]","./assets/img/ocean/memory/4.jpg","[""ArrowDown"",""ArrowRight""]","value training","ocean","17","{""ArrowUp,ArrowLeft"":26,""ArrowUp,ArrowRight"":10,""ArrowDown,ArrowLeft"":5,""ArrowDown,ArrowRight"":17}","false","ArrowDown,ArrowRight","false","revaluation","2","4","","",""
"html-keyboard-response","300","1173187","0.0-4.0-2.1-1.52","spark_pilot_norest","10192","7","7","Female","","","","","","","null","<div style=""font-size:60px;"">+</div>","null","fixation","","","","","","","","","5","","",""
"revaluation","301","1179229","0.0-4.0-2.1-0.53","spark_pilot_norest","10192","7","7","Female","","false","","","","","[810.6000000238419,418.60000002384186]","./assets/img/ocean/memory/17.jpg","[""ArrowDown"",""ArrowLeft""]","value training","ocean","5","{""ArrowUp,ArrowLeft"":26,""ArrowUp,ArrowRight"":10,""ArrowDown,ArrowLeft"":5,""ArrowDown,ArrowRight"":17}","false","ArrowDown,ArrowLeft","false","revaluation","2","6","","",""
"html-keyboard-response","302","1179733","0.0-4.0-2.1-1.53","spark_pilot_norest","10192","7","7","Female","","","","","","","null","<div style=""font-size:60px;"">+</div>","null","fixation","","","","","","","","","7","","",""
"revaluation","303","1183741","0.0-4.0-2.1-0.54","spark_pilot_norest","10192","7","7","Female","","false","","","","","[1210.8999999761581]","./assets/img/ocean/catch/2.jpg","[""spaceBar""]","value training","ocean","0","{""ArrowUp,ArrowLeft"":26,""ArrowUp,ArrowRight"":10,""ArrowDown,ArrowLeft"":5,""ArrowDown,ArrowRight"":17}","true","spaceBar","true","revaluation","2","8","","",""
"html-keyboard-response","304","1184249","0.0-4.0-2.1-1.54","spark_pilot_norest","10192","7","7","Female","","","","","","","null","<div style=""font-size:60px;"">+</div>","null","fixation","","","","","","","","","9","","",""
"revaluation","305","1190256","0.0-4.0-2.1-0.55","spark_pilot_norest","10192","7","7","Female","","false","","","","","[928.9000000953674,736.3999999761581]","./assets/img/ocean/memory/31.jpg","[""ArrowUp"",""ArrowLeft""]","value training","ocean","26","{""ArrowUp,ArrowLeft"":26,""ArrowUp,ArrowRight"":10,""ArrowDown,ArrowLeft"":5,""ArrowDown,ArrowRight"":17}","true","ArrowUp,ArrowLeft","false","revaluation","2","10","","",""
"html-keyboard-response","306","1190757","0.0-4.0-2.1-1.55","spark_pilot_norest","10192","7","7","Female","","","","","","","null","<div style=""font-size:60px;"">+</div>","null","fixation","","","","","","","","","11","","",""
"revaluation","307","1196763","0.0-4.0-2.1-0.56","spark_pilot_norest","10192","7","7","Female","","false","","","","","[1195.2000000476837,578.3999999761581]","./assets/img/ocean/memory/39.jpg","[""ArrowDown"",""ArrowRight""]","value training","ocean","17","{""ArrowUp,ArrowLeft"":26,""ArrowUp,ArrowRight"":10,""ArrowDown,ArrowLeft"":5,""ArrowDown,ArrowRight"":17}","false","ArrowDown,ArrowRight","false","revaluation","2","12","","",""
"html-keyboard-response","308","1197265","0.0-4.0-2.1-1.56","spark_pilot_norest","10192","7","7","Female","","","","","","","null","<div style=""font-size:60px;"">+</div>","null","fixation","","","","","","","","","13","","",""
"revaluation","309","1203273","0.0-4.0-2.1-0.57","spark_pilot_norest","10192","7","7","Female","","false","","","","","[1096.5,966.5]","./assets/img/ocean/memory/0.jpg","[""ArrowUp"",""ArrowLeft""]","value training","ocean","26","{""ArrowUp,ArrowLeft"":26,""ArrowUp,ArrowRight"":10,""ArrowDown,ArrowLeft"":5,""ArrowDown,ArrowRight"":17}","true","ArrowUp,ArrowLeft","false","revaluation","2","14","","",""
"html-keyboard-response","310","1203776","0.0-4.0-2.1-1.57","spark_pilot_norest","10192","7","7","Female","","","","","","","null","<div style=""font-size:60px;"">+</div>","null","fixation","","","","","","","","","15","","",""
