"trial_type","trial_index","time_elapsed","internal_node_id","task_version","subject_id","assigned_condition","age","gender","success","timeout","failed_images","failed_audio","failed_video","browser_interaction","rt","stimulus","response","task_part","environment","score","rewardMap","correct","fullState","isCatch","condition","order","trial_num","key_press","ground_truth","bonus"
"pavlovia","0","1465","0.0-0.0","spark_pilot_norest","10511","8","9","Female","","","","","","","","","","","","","","","","","","","","","",""
"preload","1","7420","0.0-1.0","spark_pilot_norest","10511","8","9","Female","true","false","[]","[]","[]","[{""event"":""fullscreenenter"",""trial"":2,""time"":61120},{""event"":""blur"",""trial"":560,""time"":1948900},{""event"":""focus"",""trial"":560,""time"":1951518}]","","","","","","","","","","","","","","","",""
"fullscreen","2","62108","0.0-2.0","spark_pilot_norest","10511","8","9","Female","true","","","","","","","","","","","","","","","","","","","","",""
"audio-button-response","3","67135","0.0-3.0-0.0-0.0","spark_pilot_norest","10511","8","9","Female","","","","","","","4821","./assets/audio/audiotest/turtle.mp3","2","audio_test","","","","","","","","","","","",""
"learning-instructions","4","76600","0.0-3.0-1.0-0.0","spark_pilot_norest","10511","8","9","Female","","","","","","","2502.699999988079","<p> Welcome! Please remember to stay in fullscreen mode and don't click away from the experiment. </p>","","instructions","","","","","","","","","","","",""
"learning-instructions","5","87197","0.0-3.0-1.0-0.1","spark_pilot_norest","10511","8","9","Female","","","","","","","2190.699999988079","<p> Today you will be playing a game to earn treasure. </p>
            <p> At the end of the experiment, you will earn a bonus based on how much treasure you find. </p>
            <img src='./assets/img/instructions/treasure.jpg' class='instructions-image'>","","instructions","","","","","","","","","","","",""
"learning-instructions","6","97107","0.0-3.0-1.0-0.2","spark_pilot_norest","10511","8","9","Female","","","","","","","1650.9000000357628","<p> Animals have hidden treasure in treasure chests. </p>
            <p> You need to first find an animal and then choose which of their treasure chests to search. </p>
            <img src='./assets/img/space/animals/cat.jpg' class='instructions-image'>","","instructions","","","","","","","","","","","",""
"learning-instructions","7","111759","0.0-3.0-1.0-0.3","spark_pilot_norest","10511","8","9","Female","","","","","","","1503","<p> In each round, you will search for treasure in a different place. In the real game, there will be two rounds. </p>
            <p> You will begin with a separate, practice round where you will search for treasure in outer space. </p>
            <img src='./assets/img/space/0.jpg' class='instructions-image'>","","instructions","","","","","","","","","","","",""
"learning-instructions","8","124606","0.0-3.0-1.0-0.4","spark_pilot_norest","10511","8","9","Female","","","","","","","1439.300000011921","<p> On every turn, you will see a picture of the place that you are in, but the specific image may be different each time. </p>
            <p> For example, both of these images mean you are in outer space. </p>
            <img src='./assets/img/instructions/outerspace.jpg' class='instructions-image'>","","instructions","","","","","","","","","","","",""
"learning-instructions","9","133736","0.0-3.0-1.0-0.5","spark_pilot_norest","10511","8","9","Female","","","","","","","1319.199999988079","<p> You need to decide which direction to travel in. </p>
            <p> You can choose between going <b>up or down</b> by using the arrow keys. </p>
            <img src='./assets/img/instructions/updown.jpg' class='instructions-image'>","","instructions","","","","","","","","","","","",""
"learning-instructions","10","143602","0.0-3.0-1.0-0.6","spark_pilot_norest","10511","8","9","Female","","","","","","","1065.0999999642372","<p> You will have <b>2 seconds</b> to make your choice. </p>
            <p> If you do not make a choice within 2 seconds, you will not find an animal or earn treasure. </p>
            <img src='./assets/img/instructions/2seconds.jpg' class='instructions-image'>","","instructions","","","","","","","","","","","",""
"learning-instructions","11","151792","0.0-3.0-1.0-0.7","spark_pilot_norest","10511","8","9","Female","","","","","","","1155.699999988079","<p> Let’s try practicing that now! </p>
            <p> When you see a picture of the place you are in, press the <b>up</b> key to travel up. </p>
            <img src='./assets/img/instructions/pressUp.jpg' class='instructions-image'>","","instructions","","","","","","","","","","","",""
"revaluation","12","155818","0.0-3.0-2.0-0.0","spark_pilot_norest","10511","8","9","Female","","false","","","","","[1804.300000011921]","./assets/img/space/0.jpg","[""ArrowUp""]","first stage practice","space","0","null","null","ArrowUp","false","","","","","",""
"html-keyboard-response","13","156333","0.0-3.0-2.0-1.0","spark_pilot_norest","10511","8","9","Female","","","","","","","null","<div style=""font-size:60px;"">+</div>","null","fixation","","","","","","","","","","","",""
"revaluation","14","160354","0.0-3.0-2.0-0.1","spark_pilot_norest","10511","8","9","Female","","false","","","","","[748.3999999761581]","./assets/img/space/1.jpg","[""ArrowUp""]","first stage practice","space","0","null","null","ArrowUp","false","","","","","",""
"html-keyboard-response","15","160868","0.0-3.0-2.0-1.1","spark_pilot_norest","10511","8","9","Female","","","","","","","null","<div style=""font-size:60px;"">+</div>","null","fixation","","","","","","","","","","","",""
"revaluation","16","164883","0.0-3.0-2.0-0.2","spark_pilot_norest","10511","8","9","Female","","false","","","","","[732.8000000119209]","./assets/img/space/2.jpg","[""ArrowUp""]","first stage practice","space","0","null","null","ArrowUp","false","","","","","",""
"html-keyboard-response","17","165397","0.0-3.0-2.0-1.2","spark_pilot_norest","10511","8","9","Female","","","","","","","null","<div style=""font-size:60px;"">+</div>","null","fixation","","","","","","","","","","","",""
"learning-instructions","18","172370","0.0-3.0-3.0-0.0","spark_pilot_norest","10511","8","9","Female","","","","","","","2273.699999988079","<p> Great job! Now try pressing the <b>down</b> key to travel down. </p>
            <img src='./assets/img/instructions/pressDown.jpg' class='instructions-image'>","","instructions","","","","","","","","","","","",""
"revaluation","19","176387","0.0-3.0-4.0-0.0","spark_pilot_norest","10511","8","9","Female","","false","","","","","[1160.699999988079]","./assets/img/space/3.jpg","[""ArrowDown""]","first stage practice","space","0","null","null","ArrowDown","false","","","","","",""
"html-keyboard-response","20","176899","0.0-3.0-4.0-1.0","spark_pilot_norest","10511","8","9","Female","","","","","","","null","<div style=""font-size:60px;"">+</div>","null","fixation","","","","","","","","","","","",""
"revaluation","21","180926","0.0-3.0-4.0-0.1","spark_pilot_norest","10511","8","9","Female","","false","","","","","[902.1999999880791]","./assets/img/space/4.jpg","[""ArrowDown""]","first stage practice","space","0","null","null","ArrowDown","false","","","","","",""
"html-keyboard-response","22","181427","0.0-3.0-4.0-1.1","spark_pilot_norest","10511","8","9","Female","","","","","","","null","<div style=""font-size:60px;"">+</div>","null","fixation","","","","","","","","","","","",""
"revaluation","23","185454","0.0-3.0-4.0-0.2","spark_pilot_norest","10511","8","9","Female","","false","","","","","[607]","./assets/img/space/5.jpg","[""ArrowDown""]","first stage practice","space","0","null","null","ArrowDown","false","","","","","",""
"html-keyboard-response","24","185965","0.0-3.0-4.0-1.2","spark_pilot_norest","10511","8","9","Female","","","","","","","null","<div style=""font-size:60px;"">+</div>","null","fixation","","","","","","","","","","","",""
"learning-instructions","25","197972","0.0-3.0-5.0-0.0","spark_pilot_norest","10511","8","9","Female","","","","","","","2167","<p> The animals don’t move, so the animal in the upper part of a place will stay in the upper part of a place, and the animal in the lower part of a place will stay in the lower part of a place. </p>","","instructions","","","","","","","","","","","",""
"learning-instructions","26","208427","0.0-3.0-5.0-0.1","spark_pilot_norest","10511","8","9","Female","","","","","","","1341.8999999761581","<p> Each animal has two treasure chests for you to choose from. </p>
            <p> The amount of treasure in each chest can range from <b> 0 to 40 pieces.</b></p>","","instructions","","","","","","","","","","","",""
"learning-instructions","27","220999","0.0-3.0-5.0-0.2","spark_pilot_norest","10511","8","9","Female","","","","","","","1394.699999988079","<p> You should decide which chest to search for treasure by using the <b>left</b> and <b>right</b> arrow keys. </p>
            <p><b> Pay attention to which animal is on the screen, as the animals have different treasure chests. </b></p>
            <img src='./assets/img/instructions/leftright.jpg' class='instructions-image'>","","instructions","","","","","","","","","","","",""
"learning-instructions","28","229956","0.0-3.0-5.0-0.3","spark_pilot_norest","10511","8","9","Female","","","","","","","2591.100000023842","<p> Let’s try practicing that now. </p>
            <p> When you see an animal, choose which chest to search for treasure. </p>
            <img src='./assets/img/instructions/chooseChest.jpg' class='instructions-image'>","","instructions","","","","","","","","","","","",""
"revaluation","29","233976","0.0-3.0-6.0-0.0","spark_pilot_norest","10511","8","9","Female","","false","","","","","[1165.199999988079]","./assets/img/space/animals/rabbit.jpg","[""ArrowRight""]","second stage practice","space","23","{""ArrowUp,ArrowLeft"":3,""ArrowUp,ArrowRight"":36,""ArrowDown,ArrowLeft"":15,""ArrowDown,ArrowRight"":23}","true","ArrowDown,ArrowRight","","","","","","",""
"html-keyboard-response","30","234483","0.0-3.0-6.0-1.0","spark_pilot_norest","10511","8","9","Female","","","","","","","null","<div style=""font-size:60px;"">+</div>","null","fixation","","","","","","","","","","","",""
"revaluation","31","238502","0.0-3.0-6.0-0.1","spark_pilot_norest","10511","8","9","Female","","false","","","","","[893.0999999642372]","./assets/img/space/animals/cat.jpg","[""ArrowLeft""]","second stage practice","space","3","{""ArrowUp,ArrowLeft"":3,""ArrowUp,ArrowRight"":36,""ArrowDown,ArrowLeft"":15,""ArrowDown,ArrowRight"":23}","false","ArrowUp,ArrowLeft","","","","","","",""
"html-keyboard-response","32","239016","0.0-3.0-6.0-1.1","spark_pilot_norest","10511","8","9","Female","","","","","","","null","<div style=""font-size:60px;"">+</div>","null","fixation","","","","","","","","","","","",""
"revaluation","33","243034","0.0-3.0-6.0-0.2","spark_pilot_norest","10511","8","9","Female","","false","","","","","[688.5]","./assets/img/space/animals/rabbit.jpg","[""ArrowRight""]","second stage practice","space","23","{""ArrowUp,ArrowLeft"":3,""ArrowUp,ArrowRight"":36,""ArrowDown,ArrowLeft"":15,""ArrowDown,ArrowRight"":23}","true","ArrowDown,ArrowRight","","","","","","",""
"html-keyboard-response","34","243548","0.0-3.0-6.0-1.2","spark_pilot_norest","10511","8","9","Female","","","","","","","null","<div style=""font-size:60px;"">+</div>","null","fixation","","","","","","","","","","","",""
"revaluation","35","247559","0.0-3.0-6.0-0.3","spark_pilot_norest","10511","8","9","Female","","false","","","","","[772.5999999642372]","./assets/img/space/animals/cat.jpg","[""ArrowRight""]","second stage practice","space","36","{""ArrowUp,ArrowLeft"":3,""ArrowUp,ArrowRight"":36,""ArrowDown,ArrowLeft"":15,""ArrowDown,ArrowRight"":23}","true","ArrowUp,ArrowRight","","","","","","",""
"html-keyboard-response","36","248072","0.0-3.0-6.0-1.3","spark_pilot_norest","10511","8","9","Female","","","","","","","null","<div style=""font-size:60px;"">+</div>","null","fixation","","","","","","","","","","","",""
"learning-instructions","37","265770","0.0-3.0-7.0-0.0","spark_pilot_norest","10511","8","9","Female","","","","","","","895.1999999880791","<p> Great job. Now let’s try putting it together. </p>
            <p> On each turn, you will first see a picture to remind you of the place you are in, and you need to choose whether to go up or down. </p>
            <p> Then you will see an animal and choose which of its chests to search for treasure. </p>","","instructions","","","","","","","","","","","",""
"learning-instructions","38","275549","0.0-3.0-7.0-0.1","spark_pilot_norest","10511","8","9","Female","","","","","","","1534.3999999761581","<p> When you choose whether to go up or down, try to go to the animal with the chest with the most treasure. </p>
            <p> Try practicing that now! </p>","","instructions","","","","","","","","","","","",""
"revaluation","39","281568","0.0-3.0-8.0-0.0","spark_pilot_norest","10511","8","9","Female","","false","","","","","[1324.2999999523163,732.8000000119209]","./assets/img/space/6.jpg","[""ArrowUp"",""ArrowRight""]","full practice","space","36","{""ArrowUp,ArrowLeft"":3,""ArrowUp,ArrowRight"":36,""ArrowDown,ArrowLeft"":15,""ArrowDown,ArrowRight"":23}","true","ArrowUp,ArrowRight","false","","","","","",""
"html-keyboard-response","40","282081","0.0-3.0-8.0-1.0","spark_pilot_norest","10511","8","9","Female","","","","","","","null","<div style=""font-size:60px;"">+</div>","null","fixation","","","","","","","","","","","",""
"revaluation","41","288101","0.0-3.0-8.0-0.1","spark_pilot_norest","10511","8","9","Female","","false","","","","","[1527.800000011921,749.1999999880791]","./assets/img/space/7.jpg","[""ArrowDown"",""ArrowRight""]","full practice","space","23","{""ArrowUp,ArrowLeft"":3,""ArrowUp,ArrowRight"":36,""ArrowDown,ArrowLeft"":15,""ArrowDown,ArrowRight"":23}","false","ArrowDown,ArrowRight","false","","","","","",""
"html-keyboard-response","42","288616","0.0-3.0-8.0-1.1","spark_pilot_norest","10511","8","9","Female","","","","","","","null","<div style=""font-size:60px;"">+</div>","null","fixation","","","","","","","","","","","",""
"revaluation","43","294634","0.0-3.0-8.0-0.2","spark_pilot_norest","10511","8","9","Female","","false","","","","","[1256.5999999642372,906.5]","./assets/img/space/8.jpg","[""ArrowUp"",""ArrowLeft""]","full practice","space","3","{""ArrowUp,ArrowLeft"":3,""ArrowUp,ArrowRight"":36,""ArrowDown,ArrowLeft"":15,""ArrowDown,ArrowRight"":23}","false","ArrowUp,ArrowLeft","false","","","","","",""
"html-keyboard-response","44","295144","0.0-3.0-8.0-1.2","spark_pilot_norest","10511","8","9","Female","","","","","","","null","<div style=""font-size:60px;"">+</div>","null","fixation","","","","","","","","","","","",""
"revaluation","45","301173","0.0-3.0-8.0-0.3","spark_pilot_norest","10511","8","9","Female","","false","","","","","[1593,629]","./assets/img/space/9.jpg","[""ArrowDown"",""ArrowRight""]","full practice","space","23","{""ArrowUp,ArrowLeft"":3,""ArrowUp,ArrowRight"":36,""ArrowDown,ArrowLeft"":15,""ArrowDown,ArrowRight"":23}","false","ArrowDown,ArrowRight","false","","","","","",""
"html-keyboard-response","46","301684","0.0-3.0-8.0-1.3","spark_pilot_norest","10511","8","9","Female","","","","","","","null","<div style=""font-size:60px;"">+</div>","null","fixation","","","","","","","","","","","",""
"revaluation","47","307704","0.0-3.0-8.0-0.4","spark_pilot_norest","10511","8","9","Female","","false","","","","","[1292.699999988079,874.8999999761581]","./assets/img/space/10.jpg","[""ArrowUp"",""ArrowRight""]","full practice","space","36","{""ArrowUp,ArrowLeft"":3,""ArrowUp,ArrowRight"":36,""ArrowDown,ArrowLeft"":15,""ArrowDown,ArrowRight"":23}","true","ArrowUp,ArrowRight","false","","","","","",""
"html-keyboard-response","48","308205","0.0-3.0-8.0-1.4","spark_pilot_norest","10511","8","9","Female","","","","","","","null","<div style=""font-size:60px;"">+</div>","null","fixation","","","","","","","","","","","",""
"learning-instructions","49","320529","0.0-3.0-9.0-0.0","spark_pilot_norest","10511","8","9","Female","","","","","","","2032.0999999642372","<p> One last thing: sometimes, you will see a robber. The robber can be anywhere in the picture. </p>
            <p> If you do not stop them, you will lose treasure. </p>
            <img src='./assets/img/instructions/robber.jpg' class='instructions-image'>","","instructions","","","","","","","","","","","",""
"learning-instructions","50","329351","0.0-3.0-9.0-0.1","spark_pilot_norest","10511","8","9","Female","","","","","","","1654","<p> If you see the robber, you should <b>press the space bar</b> rather than using the arrow keys. </p>
            <p> Try practicing that now! </p>","","instructions","","","","","","","","","","","",""
"revaluation","51","333365","0.0-3.0-10.0-0.0","spark_pilot_norest","10511","8","9","Female","","false","","","","","[962.1999999880791]","./assets/img/space/catch/0.jpg","[""spaceBar""]","catch practice","space","0","{""ArrowUp,ArrowLeft"":3,""ArrowUp,ArrowRight"":36,""ArrowDown,ArrowLeft"":15,""ArrowDown,ArrowRight"":23}","true","spaceBar","true","","","","","",""
"html-keyboard-response","52","333874","0.0-3.0-10.0-1.0","spark_pilot_norest","10511","8","9","Female","","","","","","","null","<div style=""font-size:60px;"">+</div>","null","fixation","","","","","","","","","","","",""
"revaluation","53","337893","0.0-3.0-10.0-0.1","spark_pilot_norest","10511","8","9","Female","","false","","","","","[703]","./assets/img/space/catch/1.jpg","[""spaceBar""]","catch practice","space","0","{""ArrowUp,ArrowLeft"":3,""ArrowUp,ArrowRight"":36,""ArrowDown,ArrowLeft"":15,""ArrowDown,ArrowRight"":23}","true","spaceBar","true","","","","","",""
"html-keyboard-response","54","338407","0.0-3.0-10.0-1.1","spark_pilot_norest","10511","8","9","Female","","","","","","","null","<div style=""font-size:60px;"">+</div>","null","fixation","","","","","","","","","","","",""
"revaluation","55","342431","0.0-3.0-10.0-0.2","spark_pilot_norest","10511","8","9","Female","","false","","","","","[561.4000000357628]","./assets/img/space/catch/2.jpg","[""spaceBar""]","catch practice","space","0","{""ArrowUp,ArrowLeft"":3,""ArrowUp,ArrowRight"":36,""ArrowDown,ArrowLeft"":15,""ArrowDown,ArrowRight"":23}","true","spaceBar","true","","","","","",""
"html-keyboard-response","56","342946","0.0-3.0-10.0-1.2","spark_pilot_norest","10511","8","9","Female","","","","","","","null","<div style=""font-size:60px;"">+</div>","null","fixation","","","","","","","","","","","",""
"learning-instructions","57","350039","0.0-3.0-11.0-0.0-0.0","spark_pilot_norest","10511","8","9","Female","","","","","","","1852.5","<p> Now, you will practice a shortened version of the game to get a sense of how it all fits together. </p>","","instructions","","","","","","","","","","","",""
"learning-instructions","58","354139","0.0-3.0-11.0-0.0-0.1","spark_pilot_norest","10511","8","9","Female","","","","","","","922.7999999523163","<p>This time you are searching for treasure in outer space.</p>","","instructions","","","","","","","","","","","",""
"learning-instructions","59","370941","0.0-3.0-11.0-1.0-0.0","spark_pilot_norest","10511","8","9","Female","","","","","","","2044.3999999761581","<p> Remember, when you see a picture of the place, use the up and down keys to <b>find an animal</b>.</p>
            <p> When you encounter an animal, you should use the left and right keys to <b>select a treasure chest</b>.</p>
            <p> Don't forget to look out for the robber! </p>","","instructions","","","","","","","","","","","",""
"revaluation","60","376974","0.0-3.0-11.0-2.0-0.0","spark_pilot_norest","10511","8","9","Female","","false","","","","","[1708.300000011921,886.2999999523163]","./assets/img/space/11.jpg","[""ArrowUp"",""ArrowRight""]","practice block","space","36","{""ArrowUp,ArrowLeft"":3,""ArrowUp,ArrowRight"":36,""ArrowDown,ArrowLeft"":15,""ArrowDown,ArrowRight"":23}","true","ArrowUp,ArrowRight","false","","","","","",""
"html-keyboard-response","61","377486","0.0-3.0-11.0-2.0-1.0","spark_pilot_norest","10511","8","9","Female","","","","","","","null","<div style=""font-size:60px;"">+</div>","null","fixation","","","","","","","","","","","",""
"revaluation","62","383509","0.0-3.0-11.0-2.0-0.1","spark_pilot_norest","10511","8","9","Female","","false","","","","","[914.8999999761581,1106.4000000357628]","./assets/img/space/12.jpg","[""ArrowDown"",""ArrowRight""]","practice block","space","23","{""ArrowUp,ArrowLeft"":3,""ArrowUp,ArrowRight"":36,""ArrowDown,ArrowLeft"":15,""ArrowDown,ArrowRight"":23}","false","ArrowDown,ArrowRight","false","","","","","",""
"html-keyboard-response","63","384022","0.0-3.0-11.0-2.0-1.1","spark_pilot_norest","10511","8","9","Female","","","","","","","null","<div style=""font-size:60px;"">+</div>","null","fixation","","","","","","","","","","","",""
"revaluation","64","390042","0.0-3.0-11.0-2.0-0.2","spark_pilot_norest","10511","8","9","Female","","false","","","","","[1945.9000000357628,1220.0999999642372]","./assets/img/space/13.jpg","[""ArrowUp"",""ArrowRight""]","practice block","space","36","{""ArrowUp,ArrowLeft"":3,""ArrowUp,ArrowRight"":36,""ArrowDown,ArrowLeft"":15,""ArrowDown,ArrowRight"":23}","true","ArrowUp,ArrowRight","false","","","","","",""
"html-keyboard-response","65","390554","0.0-3.0-11.0-2.0-1.2","spark_pilot_norest","10511","8","9","Female","","","","","","","null","<div style=""font-size:60px;"">+</div>","null","fixation","","","","","","","","","","","",""
"revaluation","66","396584","0.0-3.0-11.0-2.0-0.3","spark_pilot_norest","10511","8","9","Female","","false","","","","","[1662.7999999523163,823.6999999880791]","./assets/img/space/14.jpg","[""ArrowDown"",""ArrowRight""]","practice block","space","23","{""ArrowUp,ArrowLeft"":3,""ArrowUp,ArrowRight"":36,""ArrowDown,ArrowLeft"":15,""ArrowDown,ArrowRight"":23}","false","ArrowDown,ArrowRight","false","","","","","",""
"html-keyboard-response","67","397099","0.0-3.0-11.0-2.0-1.3","spark_pilot_norest","10511","8","9","Female","","","","","","","null","<div style=""font-size:60px;"">+</div>","null","fixation","","","","","","","","","","","",""
"revaluation","68","403104","0.0-3.0-11.0-2.0-0.4","spark_pilot_norest","10511","8","9","Female","","false","","","","","[1756.9000000357628,1996.6000000238419]","./assets/img/space/11.jpg","[""ArrowUp"",""ArrowRight""]","practice block","space","36","{""ArrowUp,ArrowLeft"":3,""ArrowUp,ArrowRight"":36,""ArrowDown,ArrowLeft"":15,""ArrowDown,ArrowRight"":23}","true","ArrowUp,ArrowRight","false","","","","","",""
"html-keyboard-response","69","403606","0.0-3.0-11.0-2.0-1.4","spark_pilot_norest","10511","8","9","Female","","","","","","","null","<div style=""font-size:60px;"">+</div>","null","fixation","","","","","","","","","","","",""
"revaluation","70","409614","0.0-3.0-11.0-2.0-0.5","spark_pilot_norest","10511","8","9","Female","","false","","","","","[1232.800000011921,855.7000000476837]","./assets/img/space/12.jpg","[""ArrowUp"",""ArrowRight""]","practice block","space","36","{""ArrowUp,ArrowLeft"":3,""ArrowUp,ArrowRight"":36,""ArrowDown,ArrowLeft"":15,""ArrowDown,ArrowRight"":23}","true","ArrowUp,ArrowRight","false","","","","","",""
"html-keyboard-response","71","410122","0.0-3.0-11.0-2.0-1.5","spark_pilot_norest","10511","8","9","Female","","","","","","","null","<div style=""font-size:60px;"">+</div>","null","fixation","","","","","","","","","","","",""
"revaluation","72","416127","0.0-3.0-11.0-2.0-0.6","spark_pilot_norest","10511","8","9","Female","","false","","","","","[1414.5,725.1999999880791]","./assets/img/space/13.jpg","[""ArrowDown"",""ArrowRight""]","practice block","space","23","{""ArrowUp,ArrowLeft"":3,""ArrowUp,ArrowRight"":36,""ArrowDown,ArrowLeft"":15,""ArrowDown,ArrowRight"":23}","false","ArrowDown,ArrowRight","false","","","","","",""
"html-keyboard-response","73","416628","0.0-3.0-11.0-2.0-1.6","spark_pilot_norest","10511","8","9","Female","","","","","","","null","<div style=""font-size:60px;"">+</div>","null","fixation","","","","","","","","","","","",""
"revaluation","74","420638","0.0-3.0-11.0-2.0-0.7","spark_pilot_norest","10511","8","9","Female","","true","","","","","[]","./assets/img/space/14.jpg","[]","practice block","space","-5","{""ArrowUp,ArrowLeft"":3,""ArrowUp,ArrowRight"":36,""ArrowDown,ArrowLeft"":15,""ArrowDown,ArrowRight"":23}","false","","false","","","","","",""
"html-keyboard-response","75","421140","0.0-3.0-11.0-2.0-1.7","spark_pilot_norest","10511","8","9","Female","","","","","","","null","<div style=""font-size:60px;"">+</div>","null","fixation","","","","","","","","","","","",""
"revaluation","76","425145","0.0-3.0-11.0-2.0-0.8","spark_pilot_norest","10511","8","9","Female","","false","","","","","[988.3999999761581]","./assets/img/space/catch/3.jpg","[""spaceBar""]","practice block","space","0","{""ArrowUp,ArrowLeft"":3,""ArrowUp,ArrowRight"":36,""ArrowDown,ArrowLeft"":15,""ArrowDown,ArrowRight"":23}","true","spaceBar","true","","","","","",""
"html-keyboard-response","77","425647","0.0-3.0-11.0-2.0-1.8","spark_pilot_norest","10511","8","9","Female","","","","","","","null","<div style=""font-size:60px;"">+</div>","null","fixation","","","","","","","","","","","",""
"learning-instructions","78","440018","0.0-3.0-11.0-3.0-0.0","spark_pilot_norest","10511","8","9","Female","","","","","","","1277.4000000357628","<p> Now, you will travel with a friend who will choose whether you go up or down first. </p>
            <p> On these turns, you will just see the animal that they found. You will still get to choose which chest to search for treasure.</p>","","instructions","","","","","","","","","","","",""
"revaluation","79","444043","0.0-3.0-11.0-4.0-0.0","spark_pilot_norest","10511","8","9","Female","","false","","","","","[1630.3999999761581]","./assets/img/space/animals/cat.jpg","[""ArrowRight""]","practice block","space","36","{""ArrowUp,ArrowLeft"":3,""ArrowUp,ArrowRight"":36,""ArrowDown,ArrowLeft"":15,""ArrowDown,ArrowRight"":23}","true","ArrowUp,ArrowRight","","","","","","",""
"html-keyboard-response","80","444555","0.0-3.0-11.0-4.0-1.0","spark_pilot_norest","10511","8","9","Female","","","","","","","null","<div style=""font-size:60px;"">+</div>","null","fixation","","","","","","","","","","","",""
"revaluation","81","448580","0.0-3.0-11.0-4.0-0.1","spark_pilot_norest","10511","8","9","Female","","false","","","","","[1172.2999999523163]","./assets/img/space/animals/cat.jpg","[""ArrowLeft""]","practice block","space","3","{""ArrowUp,ArrowLeft"":3,""ArrowUp,ArrowRight"":36,""ArrowDown,ArrowLeft"":15,""ArrowDown,ArrowRight"":23}","false","ArrowUp,ArrowLeft","","","","","","",""
"html-keyboard-response","82","449089","0.0-3.0-11.0-4.0-1.1","spark_pilot_norest","10511","8","9","Female","","","","","","","null","<div style=""font-size:60px;"">+</div>","null","fixation","","","","","","","","","","","",""
"revaluation","83","453106","0.0-3.0-11.0-4.0-0.2","spark_pilot_norest","10511","8","9","Female","","false","","","","","[1199.5]","./assets/img/space/animals/rabbit.jpg","[""ArrowRight""]","practice block","space","23","{""ArrowUp,ArrowLeft"":3,""ArrowUp,ArrowRight"":36,""ArrowDown,ArrowLeft"":15,""ArrowDown,ArrowRight"":23}","true","ArrowDown,ArrowRight","","","","","","",""
"html-keyboard-response","84","453619","0.0-3.0-11.0-4.0-1.2","spark_pilot_norest","10511","8","9","Female","","","","","","","null","<div style=""font-size:60px;"">+</div>","null","fixation","","","","","","","","","","","",""
"revaluation","85","457638","0.0-3.0-11.0-4.0-0.3","spark_pilot_norest","10511","8","9","Female","","false","","","","","[916.6000000238419]","./assets/img/space/animals/rabbit.jpg","[""ArrowRight""]","practice block","space","23","{""ArrowUp,ArrowLeft"":3,""ArrowUp,ArrowRight"":36,""ArrowDown,ArrowLeft"":15,""ArrowDown,ArrowRight"":23}","true","ArrowDown,ArrowRight","","","","","","",""
"html-keyboard-response","86","458152","0.0-3.0-11.0-4.0-1.3","spark_pilot_norest","10511","8","9","Female","","","","","","","null","<div style=""font-size:60px;"">+</div>","null","fixation","","","","","","","","","","","",""
"learning-instructions","87","466282","0.0-3.0-11.0-5.0-0.0","spark_pilot_norest","10511","8","9","Female","","","","","","","null","<p> You have almost finished this part of the game! </p>
            <p> We are going to ask you to make a few more choices. </p>","","instructions","","","","","","","","","","","",""
"learning-instructions","88","482290","0.0-3.0-11.0-5.0-0.1","spark_pilot_norest","10511","8","9","Female","","","","","","","null","<p> First, you need to decide whether to go up or down. When you see each picture, use the arrow keys to make your choice. </p>
            <p><b>You will not see which animal you found, but try to get to the one that will give you the most treasure.</b></p>","","instructions","","","","","","","","","","","",""
"html-keyboard-response","89","483300","0.0-3.0-11.0-6.0-0.0","spark_pilot_norest","10511","8","9","Female","","","","","","","null","<div style=""font-size:100px;color:red;"">Starting in...</div>","null","","","","","","","","","","","","",""
"html-keyboard-response","90","484316","0.0-3.0-11.0-6.0-1.0","spark_pilot_norest","10511","8","9","Female","","","","","","","null","<div style=""font-size:200px;color:red;"">3</div>","null","","","","","","","","","","","","",""
"html-keyboard-response","91","485329","0.0-3.0-11.0-6.0-2.0","spark_pilot_norest","10511","8","9","Female","","","","","","","null","<div style=""font-size:200px;color:red;"">2</div>","null","","","","","","","","","","","","",""
"html-keyboard-response","92","486337","0.0-3.0-11.0-6.0-3.0","spark_pilot_norest","10511","8","9","Female","","","","","","","null","<div style=""font-size:200px;color:red;"">1</div>","null","","","","","","","","","","","","",""
"revaluation","93","486962","0.0-3.0-11.0-7.0","spark_pilot_norest","10511","8","9","Female","","false","","","","","[623.3000000119209]","./assets/img/space/15.jpg","[""ArrowUp""]","practice block","space","0","{""ArrowUp,ArrowLeft"":3,""ArrowUp,ArrowRight"":36,""ArrowDown,ArrowLeft"":15,""ArrowDown,ArrowRight"":23}","true","ArrowUp","false","","","","","",""
"html-keyboard-response","94","487465","0.0-3.0-11.0-8.0","spark_pilot_norest","10511","8","9","Female","","","","","","","null","<div style=""font-size:60px;"">+</div>","null","fixation","","","","","","","","","","","",""
"learning-instructions","95","500859","0.0-3.0-11.0-9.0-0.0","spark_pilot_norest","10511","8","9","Female","","","","","","","null","<p> Now you will see the animals again and can search their chests for treasure. </p>
            <p> This time, you will not see how much treasure you earned, but you will earn more bonus money for making better choices. </p>","","instructions","","","","","","","","","","","",""
"html-keyboard-response","96","501870","0.0-3.0-11.0-10.0-0.0","spark_pilot_norest","10511","8","9","Female","","","","","","","null","<div style=""font-size:100px;color:red;"">Starting in...</div>","null","","","","","","","","","","","","",""
"html-keyboard-response","97","502878","0.0-3.0-11.0-10.0-1.0","spark_pilot_norest","10511","8","9","Female","","","","","","","null","<div style=""font-size:200px;color:red;"">3</div>","null","","","","","","","","","","","","",""
"html-keyboard-response","98","503891","0.0-3.0-11.0-10.0-2.0","spark_pilot_norest","10511","8","9","Female","","","","","","","null","<div style=""font-size:200px;color:red;"">2</div>","null","","","","","","","","","","","","",""
"html-keyboard-response","99","504899","0.0-3.0-11.0-10.0-3.0","spark_pilot_norest","10511","8","9","Female","","","","","","","null","<div style=""font-size:200px;color:red;"">1</div>","null","","","","","","","","","","","","",""
"revaluation","100","505803","0.0-3.0-11.0-11.0-0.0","spark_pilot_norest","10511","8","9","Female","","false","","","","","[901.3999999761581]","./assets/img/space/animals/cat.jpg","[""ArrowRight""]","practice block","space","0","{""ArrowUp,ArrowLeft"":3,""ArrowUp,ArrowRight"":36,""ArrowDown,ArrowLeft"":15,""ArrowDown,ArrowRight"":23}","true","ArrowUp,ArrowRight","","","","","","",""
"html-keyboard-response","101","506304","0.0-3.0-11.0-11.0-1.0","spark_pilot_norest","10511","8","9","Female","","","","","","","null","<div style=""font-size:60px;"">+</div>","null","fixation","","","","","","","","","","","",""
"revaluation","102","507210","0.0-3.0-11.0-11.0-0.1","spark_pilot_norest","10511","8","9","Female","","false","","","","","[903.5]","./assets/img/space/animals/rabbit.jpg","[""ArrowRight""]","practice block","space","0","{""ArrowUp,ArrowLeft"":3,""ArrowUp,ArrowRight"":36,""ArrowDown,ArrowLeft"":15,""ArrowDown,ArrowRight"":23}","true","ArrowDown,ArrowRight","","","","","","",""
"html-keyboard-response","103","507714","0.0-3.0-11.0-11.0-1.1","spark_pilot_norest","10511","8","9","Female","","","","","","","null","<div style=""font-size:60px;"">+</div>","null","fixation","","","","","","","","","","","",""
"learning-instructions","104","513497","0.0-3.0-12.0-0.0","spark_pilot_norest","10511","8","9","Female","","","","","","","1205.300000011921","<p> Before you start, we're going to ask you a few questions about how the game works. </p>","","instructions","","","","","","","","","","","",""
"comp-q","105","520374","0.0-3.0-13.0-0.0-0.0","spark_pilot_norest","10511","8","9","Female","","","","","","","1299.800000011921","<p> <b> True or False? </b> </p>
            <p> There can be 50 pieces of treasure in a given animal's chest. </p>","1","comp_question","","","","true","","","","","","","",""
"comp-q","106","528092","0.0-3.0-13.0-0.0-1.0","spark_pilot_norest","10511","8","9","Female","","","","","","","1080.199999988079","<p> <b> That's right! </b> The amount of treasure in each chest can range from 0 to 40 pieces. </p>","0","comp_answer","","","","","","","","","","","",""
"comp-q","107","536289","0.0-3.0-13.0-0.1-0.1","spark_pilot_norest","10511","8","9","Female","","","","","","","1097.199999988079","<p> <b> True or False? </b> </p><p> In this game, all animals have the same amount of treasure in their left and right chests. </p>","1","comp_question","","","","true","","","","","","","",""
"comp-q","108","542642","0.0-3.0-13.0-0.1-1.1","spark_pilot_norest","10511","8","9","Female","","","","","","","1130.3999999761581","<p> <b> That's right! </b> Animals have different amounts of treasure in their treasure chests. </p>","0","comp_answer","","","","","","","","","","","",""
"comp-q","109","549392","0.0-3.0-13.0-0.2-0.2","spark_pilot_norest","10511","8","9","Female","","","","","","","910.5","<p> <b> True or False? </b> </p><p> The same animal will always be there if you go up in the same place. </p>","1","comp_question","","","","false","","","","","","","",""
"comp-q","110","557244","0.0-3.0-13.0-0.2-1.2","spark_pilot_norest","10511","8","9","Female","","","","","","","1563.1000000238419","<p> <b>Incorrect.</b> One animal lives in the upper part and one lives in the lower part of every place. </p>","0","comp_answer","","","","","","","","","","","",""
"comp-q","111","564528","0.0-3.0-13.0-0.3-0.3","spark_pilot_norest","10511","8","9","Female","","","","","","","1457.4000000357628","<p> <b> True or False? </b> </p><p> The same animal will always be there if you go up in the same place. </p>","0","comp_question","","","","true","","","","","","","",""
"comp-q","112","572956","0.0-3.0-13.0-0.3-1.3","spark_pilot_norest","10511","8","9","Female","","","","","","","1994.8999999761581","<p> <b> That's right! </b> One animal lives in the upper part and one lives in the lower part of every place. </p>","0","comp_answer","","","","","","","","","","","",""
"comp-q","113","580288","0.0-3.0-13.0-0.4-0.4","spark_pilot_norest","10511","8","9","Female","","","","","","","1817","<p> <b> True or False? </b> </p><p> If you see a different picture, it means you are in a new place. </p>","1","comp_question","","","","true","","","","","","","",""
"comp-q","114","592514","0.0-3.0-13.0-0.4-1.4","spark_pilot_norest","10511","8","9","Female","","","","","","","1002.8999999761581","<p> <b> That's right! </b> Lots of different images may show the same place. For example,  you may see three different images that all remind you that you are in outer space. </p>","0","comp_answer","","","","","","","","","","","",""
"learning-instructions","115","603778","0.0-3.0-14.0-0.0","spark_pilot_norest","10511","8","9","Female","","","","","","","1417.2000000476837","<p> Good job. Remember to do your best because the amount of treasure you earn will be converted into bonus money. </p>
            <p> It’s time to start the real game! </p>","","instructions","","","","","","","","","","","",""
"learning-instructions","116","607672","0.0-4.0-0.0-0.0","spark_pilot_norest","10511","8","9","Female","","","","","","","1141","<p> This time you are searching for treasure in the <b>canyon</b>.</p>","","instructions","","","","","","","","","","","",""
"learning-instructions","117","626162","0.0-4.0-0.0-0.1","spark_pilot_norest","10511","8","9","Female","","","","","","","1210.6000000238419","<p><b>New</b> animals with <b>new</b> treasure chests live here. You need to explore to discover where the animal with the best treasure chest is.</p>
                    <p> Like before, once you figure out which animal has the chest with the most treasure, you should try to get to that animal and select that chest! </p>","","instructions","","","","","","","","","","","",""
"learning-instructions","118","642680","0.0-4.0-1.0-0.0","spark_pilot_norest","10511","8","9","Female","","","","","","","1788.7999999523163","<p> Remember, when you see a picture of the place, use the up and down keys to <b>find an animal</b>.</p>
            <p> When you encounter an animal, you should use the left and right keys to <b>select a treasure chest</b>.</p>
            <p> Don't forget to look out for the robber! </p>","","instructions","","","","","","","","","","","",""
"revaluation","119","646693","0.0-4.0-2.0-0.0","spark_pilot_norest","10511","8","9","Female","","false","","","","","[1888.800000011921]","./assets/img/canyon/catch/2.jpg","[""spaceBar""]","value training","canyon","0","{""ArrowUp,ArrowLeft"":26,""ArrowUp,ArrowRight"":10,""ArrowDown,ArrowLeft"":5,""ArrowDown,ArrowRight"":17}","true","spaceBar","true","revaluation","1","0","","",""
"html-keyboard-response","120","647207","0.0-4.0-2.0-1.0","spark_pilot_norest","10511","8","9","Female","","","","","","","null","<div style=""font-size:60px;"">+</div>","null","fixation","","","","","","","","","1","","",""
"revaluation","121","653232","0.0-4.0-2.0-0.1","spark_pilot_norest","10511","8","9","Female","","false","","","","","[977.5,1370.9000000357628]","./assets/img/canyon/memory/19.jpg","[""ArrowUp"",""ArrowRight""]","value training","canyon","10","{""ArrowUp,ArrowLeft"":26,""ArrowUp,ArrowRight"":10,""ArrowDown,ArrowLeft"":5,""ArrowDown,ArrowRight"":17}","false","ArrowUp,ArrowRight","false","revaluation","1","2","","",""
"html-keyboard-response","122","653734","0.0-4.0-2.0-1.1","spark_pilot_norest","10511","8","9","Female","","","","","","","null","<div style=""font-size:60px;"">+</div>","null","fixation","","","","","","","","","3","","",""
"revaluation","123","659752","0.0-4.0-2.0-0.2","spark_pilot_norest","10511","8","9","Female","","false","","","","","[1634.5,1464.3999999761581]","./assets/img/canyon/memory/8.jpg","[""ArrowDown"",""ArrowLeft""]","value training","canyon","5","{""ArrowUp,ArrowLeft"":26,""ArrowUp,ArrowRight"":10,""ArrowDown,ArrowLeft"":5,""ArrowDown,ArrowRight"":17}","false","ArrowDown,ArrowLeft","false","revaluation","1","4","","",""
"html-keyboard-response","124","660267","0.0-4.0-2.0-1.2","spark_pilot_norest","10511","8","9","Female","","","","","","","null","<div style=""font-size:60px;"">+</div>","null","fixation","","","","","","","","","5","","",""
"revaluation","125","664289","0.0-4.0-2.0-0.3","spark_pilot_norest","10511","8","9","Female","","false","","","","","[963.5]","./assets/img/canyon/catch/3.jpg","[""spaceBar""]","value training","canyon","0","{""ArrowUp,ArrowLeft"":26,""ArrowUp,ArrowRight"":10,""ArrowDown,ArrowLeft"":5,""ArrowDown,ArrowRight"":17}","true","spaceBar","true","revaluation","1","6","","",""
"html-keyboard-response","126","664802","0.0-4.0-2.0-1.3","spark_pilot_norest","10511","8","9","Female","","","","","","","null","<div style=""font-size:60px;"">+</div>","null","fixation","","","","","","","","","7","","",""
"revaluation","127","670837","0.0-4.0-2.0-0.4","spark_pilot_norest","10511","8","9","Female","","false","","","","","[1230.6000000238419,640.8000000119209]","./assets/img/canyon/memory/14.jpg","[""ArrowDown"",""ArrowRight""]","value training","canyon","17","{""ArrowUp,ArrowLeft"":26,""ArrowUp,ArrowRight"":10,""ArrowDown,ArrowLeft"":5,""ArrowDown,ArrowRight"":17}","false","ArrowDown,ArrowRight","false","revaluation","1","8","","",""
"html-keyboard-response","128","671339","0.0-4.0-2.0-1.4","spark_pilot_norest","10511","8","9","Female","","","","","","","null","<div style=""font-size:60px;"">+</div>","null","fixation","","","","","","","","","9","","",""
"revaluation","129","677344","0.0-4.0-2.0-0.5","spark_pilot_norest","10511","8","9","Female","","false","","","","","[1166.0999999642372,1740.5]","./assets/img/canyon/memory/41.jpg","[""ArrowDown"",""ArrowRight""]","value training","canyon","17","{""ArrowUp,ArrowLeft"":26,""ArrowUp,ArrowRight"":10,""ArrowDown,ArrowLeft"":5,""ArrowDown,ArrowRight"":17}","false","ArrowDown,ArrowRight","false","revaluation","1","10","","",""
"html-keyboard-response","130","677846","0.0-4.0-2.0-1.5","spark_pilot_norest","10511","8","9","Female","","","","","","","null","<div style=""font-size:60px;"">+</div>","null","fixation","","","","","","","","","11","","",""
"revaluation","131","683850","0.0-4.0-2.0-0.6","spark_pilot_norest","10511","8","9","Female","","false","","","","","[1834.699999988079,1152.800000011921]","./assets/img/canyon/memory/26.jpg","[""ArrowUp"",""ArrowRight""]","value training","canyon","10","{""ArrowUp,ArrowLeft"":26,""ArrowUp,ArrowRight"":10,""ArrowDown,ArrowLeft"":5,""ArrowDown,ArrowRight"":17}","false","ArrowUp,ArrowRight","false","revaluation","1","12","","",""
"html-keyboard-response","132","684352","0.0-4.0-2.0-1.6","spark_pilot_norest","10511","8","9","Female","","","","","","","null","<div style=""font-size:60px;"">+</div>","null","fixation","","","","","","","","","13","","",""
"revaluation","133","690359","0.0-4.0-2.0-0.7","spark_pilot_norest","10511","8","9","Female","","false","","","","","[1102.1000000238419,669.0999999642372]","./assets/img/canyon/memory/13.jpg","[""ArrowUp"",""ArrowLeft""]","value training","canyon","26","{""ArrowUp,ArrowLeft"":26,""ArrowUp,ArrowRight"":10,""ArrowDown,ArrowLeft"":5,""ArrowDown,ArrowRight"":17}","true","ArrowUp,ArrowLeft","false","revaluation","1","14","","",""
"html-keyboard-response","134","690873","0.0-4.0-2.0-1.7","spark_pilot_norest","10511","8","9","Female","","","","","","","null","<div style=""font-size:60px;"">+</div>","null","fixation","","","","","","","","","15","","",""
"revaluation","135","696877","0.0-4.0-2.0-0.8","spark_pilot_norest","10511","8","9","Female","","false","","","","","[1511.5,1086.4000000357628]","./assets/img/canyon/memory/28.jpg","[""ArrowDown"",""ArrowRight""]","value training","canyon","17","{""ArrowUp,ArrowLeft"":26,""ArrowUp,ArrowRight"":10,""ArrowDown,ArrowLeft"":5,""ArrowDown,ArrowRight"":17}","false","ArrowDown,ArrowRight","false","revaluation","1","16","","",""
"html-keyboard-response","136","697378","0.0-4.0-2.0-1.8","spark_pilot_norest","10511","8","9","Female","","","","","","","null","<div style=""font-size:60px;"">+</div>","null","fixation","","","","","","","","","17","","",""
"revaluation","137","701383","0.0-4.0-2.0-0.9","spark_pilot_norest","10511","8","9","Female","","true","","","","","[]","./assets/img/canyon/memory/24.jpg","[]","value training","canyon","-5","{""ArrowUp,ArrowLeft"":26,""ArrowUp,ArrowRight"":10,""ArrowDown,ArrowLeft"":5,""ArrowDown,ArrowRight"":17}","false","","false","revaluation","1","18","","",""
"html-keyboard-response","138","701885","0.0-4.0-2.0-1.9","spark_pilot_norest","10511","8","9","Female","","","","","","","null","<div style=""font-size:60px;"">+</div>","null","fixation","","","","","","","","","19","","",""
"revaluation","139","707889","0.0-4.0-2.0-0.10","spark_pilot_norest","10511","8","9","Female","","false","","","","","[819.8999999761581,858.1999999880791]","./assets/img/canyon/memory/27.jpg","[""ArrowUp"",""ArrowRight""]","value training","canyon","10","{""ArrowUp,ArrowLeft"":26,""ArrowUp,ArrowRight"":10,""ArrowDown,ArrowLeft"":5,""ArrowDown,ArrowRight"":17}","false","ArrowUp,ArrowRight","false","revaluation","1","20","","",""
"html-keyboard-response","140","708391","0.0-4.0-2.0-1.10","spark_pilot_norest","10511","8","9","Female","","","","","","","null","<div style=""font-size:60px;"">+</div>","null","fixation","","","","","","","","","21","","",""
"revaluation","141","712395","0.0-4.0-2.0-0.11","spark_pilot_norest","10511","8","9","Female","","true","","","","","[]","./assets/img/canyon/memory/3.jpg","[]","value training","canyon","-5","{""ArrowUp,ArrowLeft"":26,""ArrowUp,ArrowRight"":10,""ArrowDown,ArrowLeft"":5,""ArrowDown,ArrowRight"":17}","false","","false","revaluation","1","22","","",""
"html-keyboard-response","142","712896","0.0-4.0-2.0-1.11","spark_pilot_norest","10511","8","9","Female","","","","","","","null","<div style=""font-size:60px;"">+</div>","null","fixation","","","","","","","","","23","","",""
"revaluation","143","718902","0.0-4.0-2.0-0.12","spark_pilot_norest","10511","8","9","Female","","false","","","","","[1047.300000011921,597.9000000357628]","./assets/img/canyon/memory/7.jpg","[""ArrowUp"",""ArrowLeft""]","value training","canyon","26","{""ArrowUp,ArrowLeft"":26,""ArrowUp,ArrowRight"":10,""ArrowDown,ArrowLeft"":5,""ArrowDown,ArrowRight"":17}","true","ArrowUp,ArrowLeft","false","revaluation","1","24","","",""
"html-keyboard-response","144","719404","0.0-4.0-2.0-1.12","spark_pilot_norest","10511","8","9","Female","","","","","","","null","<div style=""font-size:60px;"">+</div>","null","fixation","","","","","","","","","25","","",""
"revaluation","145","725408","0.0-4.0-2.0-0.13","spark_pilot_norest","10511","8","9","Female","","false","","","","","[1435.4000000357628,914.6999999880791]","./assets/img/canyon/memory/14.jpg","[""ArrowUp"",""ArrowLeft""]","value training","canyon","26","{""ArrowUp,ArrowLeft"":26,""ArrowUp,ArrowRight"":10,""ArrowDown,ArrowLeft"":5,""ArrowDown,ArrowRight"":17}","true","ArrowUp,ArrowLeft","false","revaluation","1","26","","",""
"html-keyboard-response","146","725910","0.0-4.0-2.0-1.13","spark_pilot_norest","10511","8","9","Female","","","","","","","null","<div style=""font-size:60px;"">+</div>","null","fixation","","","","","","","","","27","","",""
"revaluation","147","731915","0.0-4.0-2.0-0.14","spark_pilot_norest","10511","8","9","Female","","false","","","","","[1642,441.30000001192093]","./assets/img/canyon/memory/34.jpg","[""ArrowUp"",""ArrowLeft""]","value training","canyon","26","{""ArrowUp,ArrowLeft"":26,""ArrowUp,ArrowRight"":10,""ArrowDown,ArrowLeft"":5,""ArrowDown,ArrowRight"":17}","true","ArrowUp,ArrowLeft","false","revaluation","1","28","","",""
"html-keyboard-response","148","732417","0.0-4.0-2.0-1.14","spark_pilot_norest","10511","8","9","Female","","","","","","","null","<div style=""font-size:60px;"">+</div>","null","fixation","","","","","","","","","29","","",""
"revaluation","149","738432","0.0-4.0-2.0-0.15","spark_pilot_norest","10511","8","9","Female","","false","","","","","[1206.3999999761581,557.5999999642372]","./assets/img/canyon/memory/36.jpg","[""ArrowUp"",""ArrowLeft""]","value training","canyon","26","{""ArrowUp,ArrowLeft"":26,""ArrowUp,ArrowRight"":10,""ArrowDown,ArrowLeft"":5,""ArrowDown,ArrowRight"":17}","true","ArrowUp,ArrowLeft","false","revaluation","1","30","","",""
"html-keyboard-response","150","738934","0.0-4.0-2.0-1.15","spark_pilot_norest","10511","8","9","Female","","","","","","","null","<div style=""font-size:60px;"">+</div>","null","fixation","","","","","","","","","31","","",""
"revaluation","151","744939","0.0-4.0-2.0-0.16","spark_pilot_norest","10511","8","9","Female","","false","","","","","[1473.699999988079,728.6000000238419]","./assets/img/canyon/memory/2.jpg","[""ArrowUp"",""ArrowLeft""]","value training","canyon","26","{""ArrowUp,ArrowLeft"":26,""ArrowUp,ArrowRight"":10,""ArrowDown,ArrowLeft"":5,""ArrowDown,ArrowRight"":17}","true","ArrowUp,ArrowLeft","false","revaluation","1","32","","",""
"html-keyboard-response","152","745440","0.0-4.0-2.0-1.16","spark_pilot_norest","10511","8","9","Female","","","","","","","null","<div style=""font-size:60px;"">+</div>","null","fixation","","","","","","","","","33","","",""
"revaluation","153","751444","0.0-4.0-2.0-0.17","spark_pilot_norest","10511","8","9","Female","","false","","","","","[518.8999999761581,1222.5]","./assets/img/canyon/memory/40.jpg","[""ArrowDown"",""ArrowRight""]","value training","canyon","17","{""ArrowUp,ArrowLeft"":26,""ArrowUp,ArrowRight"":10,""ArrowDown,ArrowLeft"":5,""ArrowDown,ArrowRight"":17}","false","ArrowDown,ArrowRight","false","revaluation","1","34","","",""
"html-keyboard-response","154","751945","0.0-4.0-2.0-1.17","spark_pilot_norest","10511","8","9","Female","","","","","","","null","<div style=""font-size:60px;"">+</div>","null","fixation","","","","","","","","","35","","",""
"revaluation","155","755949","0.0-4.0-2.0-0.18","spark_pilot_norest","10511","8","9","Female","","false","","","","","[950]","./assets/img/canyon/catch/4.jpg","[""spaceBar""]","value training","canyon","0","{""ArrowUp,ArrowLeft"":26,""ArrowUp,ArrowRight"":10,""ArrowDown,ArrowLeft"":5,""ArrowDown,ArrowRight"":17}","true","spaceBar","true","revaluation","1","36","","",""
"html-keyboard-response","156","756451","0.0-4.0-2.0-1.18","spark_pilot_norest","10511","8","9","Female","","","","","","","null","<div style=""font-size:60px;"">+</div>","null","fixation","","","","","","","","","37","","",""
"revaluation","157","762456","0.0-4.0-2.0-0.19","spark_pilot_norest","10511","8","9","Female","","false","","","","","[1164.6000000238419,1003.5]","./assets/img/canyon/memory/28.jpg","[""ArrowUp"",""ArrowRight""]","value training","canyon","10","{""ArrowUp,ArrowLeft"":26,""ArrowUp,ArrowRight"":10,""ArrowDown,ArrowLeft"":5,""ArrowDown,ArrowRight"":17}","false","ArrowUp,ArrowRight","false","revaluation","1","38","","",""
"html-keyboard-response","158","762958","0.0-4.0-2.0-1.19","spark_pilot_norest","10511","8","9","Female","","","","","","","null","<div style=""font-size:60px;"">+</div>","null","fixation","","","","","","","","","39","","",""
"revaluation","159","766962","0.0-4.0-2.0-0.20","spark_pilot_norest","10511","8","9","Female","","false","","","","","[945.6999999880791]","./assets/img/canyon/catch/0.jpg","[""spaceBar""]","value training","canyon","0","{""ArrowUp,ArrowLeft"":26,""ArrowUp,ArrowRight"":10,""ArrowDown,ArrowLeft"":5,""ArrowDown,ArrowRight"":17}","true","spaceBar","true","revaluation","1","40","","",""
"html-keyboard-response","160","767464","0.0-4.0-2.0-1.20","spark_pilot_norest","10511","8","9","Female","","","","","","","null","<div style=""font-size:60px;"">+</div>","null","fixation","","","","","","","","","41","","",""
"revaluation","161","773468","0.0-4.0-2.0-0.21","spark_pilot_norest","10511","8","9","Female","","false","","","","","[1071.6000000238419,798.9000000357628]","./assets/img/canyon/memory/11.jpg","[""ArrowUp"",""ArrowLeft""]","value training","canyon","26","{""ArrowUp,ArrowLeft"":26,""ArrowUp,ArrowRight"":10,""ArrowDown,ArrowLeft"":5,""ArrowDown,ArrowRight"":17}","true","ArrowUp,ArrowLeft","false","revaluation","1","42","","",""
"html-keyboard-response","162","773970","0.0-4.0-2.0-1.21","spark_pilot_norest","10511","8","9","Female","","","","","","","null","<div style=""font-size:60px;"">+</div>","null","fixation","","","","","","","","","43","","",""
"revaluation","163","779975","0.0-4.0-2.0-0.22","spark_pilot_norest","10511","8","9","Female","","false","","","","","[804,1044]","./assets/img/canyon/memory/30.jpg","[""ArrowUp"",""ArrowLeft""]","value training","canyon","26","{""ArrowUp,ArrowLeft"":26,""ArrowUp,ArrowRight"":10,""ArrowDown,ArrowLeft"":5,""ArrowDown,ArrowRight"":17}","true","ArrowUp,ArrowLeft","false","revaluation","1","44","","",""
"html-keyboard-response","164","780477","0.0-4.0-2.0-1.22","spark_pilot_norest","10511","8","9","Female","","","","","","","null","<div style=""font-size:60px;"">+</div>","null","fixation","","","","","","","","","45","","",""
"revaluation","165","786482","0.0-4.0-2.0-0.23","spark_pilot_norest","10511","8","9","Female","","false","","","","","[1169.699999988079,608.5]","./assets/img/canyon/memory/31.jpg","[""ArrowUp"",""ArrowLeft""]","value training","canyon","26","{""ArrowUp,ArrowLeft"":26,""ArrowUp,ArrowRight"":10,""ArrowDown,ArrowLeft"":5,""ArrowDown,ArrowRight"":17}","true","ArrowUp,ArrowLeft","false","revaluation","1","46","","",""
"html-keyboard-response","166","786984","0.0-4.0-2.0-1.23","spark_pilot_norest","10511","8","9","Female","","","","","","","null","<div style=""font-size:60px;"">+</div>","null","fixation","","","","","","","","","47","","",""
"revaluation","167","792988","0.0-4.0-2.0-0.24","spark_pilot_norest","10511","8","9","Female","","false","","","","","[1839.300000011921,1046.5]","./assets/img/canyon/memory/27.jpg","[""ArrowUp"",""ArrowLeft""]","value training","canyon","26","{""ArrowUp,ArrowLeft"":26,""ArrowUp,ArrowRight"":10,""ArrowDown,ArrowLeft"":5,""ArrowDown,ArrowRight"":17}","true","ArrowUp,ArrowLeft","false","revaluation","1","48","","",""
"html-keyboard-response","168","793490","0.0-4.0-2.0-1.24","spark_pilot_norest","10511","8","9","Female","","","","","","","null","<div style=""font-size:60px;"">+</div>","null","fixation","","","","","","","","","49","","",""
"revaluation","169","799499","0.0-4.0-2.0-0.25","spark_pilot_norest","10511","8","9","Female","","false","","","","","[852.6999999880791,924]","./assets/img/canyon/memory/18.jpg","[""ArrowUp"",""ArrowLeft""]","value training","canyon","26","{""ArrowUp,ArrowLeft"":26,""ArrowUp,ArrowRight"":10,""ArrowDown,ArrowLeft"":5,""ArrowDown,ArrowRight"":17}","true","ArrowUp,ArrowLeft","false","revaluation","1","50","","",""
"html-keyboard-response","170","800001","0.0-4.0-2.0-1.25","spark_pilot_norest","10511","8","9","Female","","","","","","","null","<div style=""font-size:60px;"">+</div>","null","fixation","","","","","","","","","51","","",""
"revaluation","171","804006","0.0-4.0-2.0-0.26","spark_pilot_norest","10511","8","9","Female","","false","","","","","[958]","./assets/img/canyon/catch/5.jpg","[""spaceBar""]","value training","canyon","0","{""ArrowUp,ArrowLeft"":26,""ArrowUp,ArrowRight"":10,""ArrowDown,ArrowLeft"":5,""ArrowDown,ArrowRight"":17}","true","spaceBar","true","revaluation","1","52","","",""
"html-keyboard-response","172","804508","0.0-4.0-2.0-1.26","spark_pilot_norest","10511","8","9","Female","","","","","","","null","<div style=""font-size:60px;"">+</div>","null","fixation","","","","","","","","","53","","",""
"revaluation","173","808514","0.0-4.0-2.0-0.27","spark_pilot_norest","10511","8","9","Female","","false","","","","","[194]","./assets/img/canyon/catch/6.jpg","[""spaceBar""]","value training","canyon","0","{""ArrowUp,ArrowLeft"":26,""ArrowUp,ArrowRight"":10,""ArrowDown,ArrowLeft"":5,""ArrowDown,ArrowRight"":17}","true","spaceBar","true","revaluation","1","54","","",""
"html-keyboard-response","174","809016","0.0-4.0-2.0-1.27","spark_pilot_norest","10511","8","9","Female","","","","","","","null","<div style=""font-size:60px;"">+</div>","null","fixation","","","","","","","","","55","","",""
"revaluation","175","815021","0.0-4.0-2.0-0.28","spark_pilot_norest","10511","8","9","Female","","false","","","","","[1119,574.0999999642372]","./assets/img/canyon/memory/5.jpg","[""ArrowUp"",""ArrowLeft""]","value training","canyon","26","{""ArrowUp,ArrowLeft"":26,""ArrowUp,ArrowRight"":10,""ArrowDown,ArrowLeft"":5,""ArrowDown,ArrowRight"":17}","true","ArrowUp,ArrowLeft","false","revaluation","1","56","","",""
"html-keyboard-response","176","815522","0.0-4.0-2.0-1.28","spark_pilot_norest","10511","8","9","Female","","","","","","","null","<div style=""font-size:60px;"">+</div>","null","fixation","","","","","","","","","57","","",""
"revaluation","177","821528","0.0-4.0-2.0-0.29","spark_pilot_norest","10511","8","9","Female","","false","","","","","[989,1468.6000000238419]","./assets/img/canyon/memory/31.jpg","[""ArrowUp"",""ArrowRight""]","value training","canyon","10","{""ArrowUp,ArrowLeft"":26,""ArrowUp,ArrowRight"":10,""ArrowDown,ArrowLeft"":5,""ArrowDown,ArrowRight"":17}","false","ArrowUp,ArrowRight","false","revaluation","1","58","","",""
"html-keyboard-response","178","822030","0.0-4.0-2.0-1.29","spark_pilot_norest","10511","8","9","Female","","","","","","","null","<div style=""font-size:60px;"">+</div>","null","fixation","","","","","","","","","59","","",""
"revaluation","179","828036","0.0-4.0-2.0-0.30","spark_pilot_norest","10511","8","9","Female","","false","","","","","[1177.3999999761581,568]","./assets/img/canyon/memory/30.jpg","[""ArrowUp"",""ArrowLeft""]","value training","canyon","26","{""ArrowUp,ArrowLeft"":26,""ArrowUp,ArrowRight"":10,""ArrowDown,ArrowLeft"":5,""ArrowDown,ArrowRight"":17}","true","ArrowUp,ArrowLeft","false","revaluation","1","60","","",""
"html-keyboard-response","180","828548","0.0-4.0-2.0-1.30","spark_pilot_norest","10511","8","9","Female","","","","","","","null","<div style=""font-size:60px;"">+</div>","null","fixation","","","","","","","","","61","","",""
"revaluation","181","834553","0.0-4.0-2.0-0.31","spark_pilot_norest","10511","8","9","Female","","false","","","","","[1490.0999999642372,1073.5999999642372]","./assets/img/canyon/memory/21.jpg","[""ArrowDown"",""ArrowLeft""]","value training","canyon","5","{""ArrowUp,ArrowLeft"":26,""ArrowUp,ArrowRight"":10,""ArrowDown,ArrowLeft"":5,""ArrowDown,ArrowRight"":17}","false","ArrowDown,ArrowLeft","false","revaluation","1","62","","",""
"html-keyboard-response","182","835056","0.0-4.0-2.0-1.31","spark_pilot_norest","10511","8","9","Female","","","","","","","null","<div style=""font-size:60px;"">+</div>","null","fixation","","","","","","","","","63","","",""
"revaluation","183","841061","0.0-4.0-2.0-0.32","spark_pilot_norest","10511","8","9","Female","","false","","","","","[1382.800000011921,638.5999999642372]","./assets/img/canyon/memory/18.jpg","[""ArrowDown"",""ArrowRight""]","value training","canyon","17","{""ArrowUp,ArrowLeft"":26,""ArrowUp,ArrowRight"":10,""ArrowDown,ArrowLeft"":5,""ArrowDown,ArrowRight"":17}","false","ArrowDown,ArrowRight","false","revaluation","1","64","","",""
"html-keyboard-response","184","841563","0.0-4.0-2.0-1.32","spark_pilot_norest","10511","8","9","Female","","","","","","","null","<div style=""font-size:60px;"">+</div>","null","fixation","","","","","","","","","65","","",""
"revaluation","185","845568","0.0-4.0-2.0-0.33","spark_pilot_norest","10511","8","9","Female","","false","","","","","[1218.800000011921]","./assets/img/canyon/catch/1.jpg","[""spaceBar""]","value training","canyon","0","{""ArrowUp,ArrowLeft"":26,""ArrowUp,ArrowRight"":10,""ArrowDown,ArrowLeft"":5,""ArrowDown,ArrowRight"":17}","true","spaceBar","true","revaluation","1","66","","",""
"html-keyboard-response","186","846070","0.0-4.0-2.0-1.33","spark_pilot_norest","10511","8","9","Female","","","","","","","null","<div style=""font-size:60px;"">+</div>","null","fixation","","","","","","","","","67","","",""
"revaluation","187","852074","0.0-4.0-2.0-0.34","spark_pilot_norest","10511","8","9","Female","","false","","","","","[968.8999999761581,792.3000000119209]","./assets/img/canyon/memory/40.jpg","[""ArrowUp"",""ArrowLeft""]","value training","canyon","26","{""ArrowUp,ArrowLeft"":26,""ArrowUp,ArrowRight"":10,""ArrowDown,ArrowLeft"":5,""ArrowDown,ArrowRight"":17}","true","ArrowUp,ArrowLeft","false","revaluation","1","68","","",""
"html-keyboard-response","188","852576","0.0-4.0-2.0-1.34","spark_pilot_norest","10511","8","9","Female","","","","","","","null","<div style=""font-size:60px;"">+</div>","null","fixation","","","","","","","","","69","","",""
"revaluation","189","858589","0.0-4.0-2.0-0.35","spark_pilot_norest","10511","8","9","Female","","false","","","","","[1383.2999999523163,494.89999997615814]","./assets/img/canyon/memory/24.jpg","[""ArrowUp"",""ArrowLeft""]","value training","canyon","26","{""ArrowUp,ArrowLeft"":26,""ArrowUp,ArrowRight"":10,""ArrowDown,ArrowLeft"":5,""ArrowDown,ArrowRight"":17}","true","ArrowUp,ArrowLeft","false","revaluation","1","70","","",""
"html-keyboard-response","190","859091","0.0-4.0-2.0-1.35","spark_pilot_norest","10511","8","9","Female","","","","","","","null","<div style=""font-size:60px;"">+</div>","null","fixation","","","","","","","","","71","","",""
"revaluation","191","865097","0.0-4.0-2.0-0.36","spark_pilot_norest","10511","8","9","Female","","false","","","","","[850.6999999880791,634.6000000238419]","./assets/img/canyon/memory/13.jpg","[""ArrowUp"",""ArrowLeft""]","value training","canyon","26","{""ArrowUp,ArrowLeft"":26,""ArrowUp,ArrowRight"":10,""ArrowDown,ArrowLeft"":5,""ArrowDown,ArrowRight"":17}","true","ArrowUp,ArrowLeft","false","revaluation","1","72","","",""
"html-keyboard-response","192","865598","0.0-4.0-2.0-1.36","spark_pilot_norest","10511","8","9","Female","","","","","","","null","<div style=""font-size:60px;"">+</div>","null","fixation","","","","","","","","","73","","",""
"revaluation","193","871608","0.0-4.0-2.0-0.37","spark_pilot_norest","10511","8","9","Female","","false","","","","","[809,600.6000000238419]","./assets/img/canyon/memory/21.jpg","[""ArrowUp"",""ArrowLeft""]","value training","canyon","26","{""ArrowUp,ArrowLeft"":26,""ArrowUp,ArrowRight"":10,""ArrowDown,ArrowLeft"":5,""ArrowDown,ArrowRight"":17}","true","ArrowUp,ArrowLeft","false","revaluation","1","74","","",""
"html-keyboard-response","194","872109","0.0-4.0-2.0-1.37","spark_pilot_norest","10511","8","9","Female","","","","","","","null","<div style=""font-size:60px;"">+</div>","null","fixation","","","","","","","","","75","","",""
"revaluation","195","878115","0.0-4.0-2.0-0.38","spark_pilot_norest","10511","8","9","Female","","false","","","","","[977.5,593]","./assets/img/canyon/memory/19.jpg","[""ArrowUp"",""ArrowLeft""]","value training","canyon","26","{""ArrowUp,ArrowLeft"":26,""ArrowUp,ArrowRight"":10,""ArrowDown,ArrowLeft"":5,""ArrowDown,ArrowRight"":17}","true","ArrowUp,ArrowLeft","false","revaluation","1","76","","",""
"html-keyboard-response","196","878616","0.0-4.0-2.0-1.38","spark_pilot_norest","10511","8","9","Female","","","","","","","null","<div style=""font-size:60px;"">+</div>","null","fixation","","","","","","","","","77","","",""
"revaluation","197","882621","0.0-4.0-2.0-0.39","spark_pilot_norest","10511","8","9","Female","","true","","","","","[]","./assets/img/canyon/memory/36.jpg","[]","value training","canyon","-5","{""ArrowUp,ArrowLeft"":26,""ArrowUp,ArrowRight"":10,""ArrowDown,ArrowLeft"":5,""ArrowDown,ArrowRight"":17}","false","","false","revaluation","1","78","","",""
"html-keyboard-response","198","883124","0.0-4.0-2.0-1.39","spark_pilot_norest","10511","8","9","Female","","","","","","","null","<div style=""font-size:60px;"">+</div>","null","fixation","","","","","","","","","79","","",""
"revaluation","199","889130","0.0-4.0-2.0-0.40","spark_pilot_norest","10511","8","9","Female","","false","","","","","[882.9000000357628,681.6000000238419]","./assets/img/canyon/memory/41.jpg","[""ArrowUp"",""ArrowLeft""]","value training","canyon","26","{""ArrowUp,ArrowLeft"":26,""ArrowUp,ArrowRight"":10,""ArrowDown,ArrowLeft"":5,""ArrowDown,ArrowRight"":17}","true","ArrowUp,ArrowLeft","false","revaluation","1","80","","",""
"html-keyboard-response","200","889633","0.0-4.0-2.0-1.40","spark_pilot_norest","10511","8","9","Female","","","","","","","null","<div style=""font-size:60px;"">+</div>","null","fixation","","","","","","","","","81","","",""
"revaluation","201","895637","0.0-4.0-2.0-0.41","spark_pilot_norest","10511","8","9","Female","","false","","","","","[1254.4000000357628,741.8000000119209]","./assets/img/canyon/memory/3.jpg","[""ArrowUp"",""ArrowRight""]","value training","canyon","10","{""ArrowUp,ArrowLeft"":26,""ArrowUp,ArrowRight"":10,""ArrowDown,ArrowLeft"":5,""ArrowDown,ArrowRight"":17}","false","ArrowUp,ArrowRight","false","revaluation","1","82","","",""
"html-keyboard-response","202","896140","0.0-4.0-2.0-1.41","spark_pilot_norest","10511","8","9","Female","","","","","","","null","<div style=""font-size:60px;"">+</div>","null","fixation","","","","","","","","","83","","",""
"revaluation","203","902152","0.0-4.0-2.0-0.42","spark_pilot_norest","10511","8","9","Female","","false","","","","","[954.5,868.1999999880791]","./assets/img/canyon/memory/26.jpg","[""ArrowUp"",""ArrowRight""]","value training","canyon","10","{""ArrowUp,ArrowLeft"":26,""ArrowUp,ArrowRight"":10,""ArrowDown,ArrowLeft"":5,""ArrowDown,ArrowRight"":17}","false","ArrowUp,ArrowRight","false","revaluation","1","84","","",""
"html-keyboard-response","204","902654","0.0-4.0-2.0-1.42","spark_pilot_norest","10511","8","9","Female","","","","","","","null","<div style=""font-size:60px;"">+</div>","null","fixation","","","","","","","","","85","","",""
"revaluation","205","908661","0.0-4.0-2.0-0.43","spark_pilot_norest","10511","8","9","Female","","false","","","","","[1592.5999999642372,631.3000000119209]","./assets/img/canyon/memory/7.jpg","[""ArrowUp"",""ArrowLeft""]","value training","canyon","26","{""ArrowUp,ArrowLeft"":26,""ArrowUp,ArrowRight"":10,""ArrowDown,ArrowLeft"":5,""ArrowDown,ArrowRight"":17}","true","ArrowUp,ArrowLeft","false","revaluation","1","86","","",""
"html-keyboard-response","206","909163","0.0-4.0-2.0-1.43","spark_pilot_norest","10511","8","9","Female","","","","","","","null","<div style=""font-size:60px;"">+</div>","null","fixation","","","","","","","","","87","","",""
"revaluation","207","915170","0.0-4.0-2.0-0.44","spark_pilot_norest","10511","8","9","Female","","false","","","","","[883.1000000238419,625.5]","./assets/img/canyon/memory/8.jpg","[""ArrowUp"",""ArrowLeft""]","value training","canyon","26","{""ArrowUp,ArrowLeft"":26,""ArrowUp,ArrowRight"":10,""ArrowDown,ArrowLeft"":5,""ArrowDown,ArrowRight"":17}","true","ArrowUp,ArrowLeft","false","revaluation","1","88","","",""
"html-keyboard-response","208","915672","0.0-4.0-2.0-1.44","spark_pilot_norest","10511","8","9","Female","","","","","","","null","<div style=""font-size:60px;"">+</div>","null","fixation","","","","","","","","","89","","",""
"revaluation","209","921679","0.0-4.0-2.0-0.45","spark_pilot_norest","10511","8","9","Female","","false","","","","","[790,605]","./assets/img/canyon/memory/5.jpg","[""ArrowUp"",""ArrowLeft""]","value training","canyon","26","{""ArrowUp,ArrowLeft"":26,""ArrowUp,ArrowRight"":10,""ArrowDown,ArrowLeft"":5,""ArrowDown,ArrowRight"":17}","true","ArrowUp,ArrowLeft","false","revaluation","1","90","","",""
"html-keyboard-response","210","922181","0.0-4.0-2.0-1.45","spark_pilot_norest","10511","8","9","Female","","","","","","","null","<div style=""font-size:60px;"">+</div>","null","fixation","","","","","","","","","91","","",""
"revaluation","211","928188","0.0-4.0-2.0-0.46","spark_pilot_norest","10511","8","9","Female","","false","","","","","[912.9000000357628,1416.4000000357628]","./assets/img/canyon/memory/34.jpg","[""ArrowUp"",""ArrowLeft""]","value training","canyon","26","{""ArrowUp,ArrowLeft"":26,""ArrowUp,ArrowRight"":10,""ArrowDown,ArrowLeft"":5,""ArrowDown,ArrowRight"":17}","true","ArrowUp,ArrowLeft","false","revaluation","1","92","","",""
"html-keyboard-response","212","928690","0.0-4.0-2.0-1.46","spark_pilot_norest","10511","8","9","Female","","","","","","","null","<div style=""font-size:60px;"">+</div>","null","fixation","","","","","","","","","93","","",""
"revaluation","213","934696","0.0-4.0-2.0-0.47","spark_pilot_norest","10511","8","9","Female","","false","","","","","[676.6999999880791,427.19999998807907]","./assets/img/canyon/memory/11.jpg","[""ArrowUp"",""ArrowLeft""]","value training","canyon","26","{""ArrowUp,ArrowLeft"":26,""ArrowUp,ArrowRight"":10,""ArrowDown,ArrowLeft"":5,""ArrowDown,ArrowRight"":17}","true","ArrowUp,ArrowLeft","false","revaluation","1","94","","",""
"html-keyboard-response","214","935199","0.0-4.0-2.0-1.47","spark_pilot_norest","10511","8","9","Female","","","","","","","null","<div style=""font-size:60px;"">+</div>","null","fixation","","","","","","","","","95","","",""
"revaluation","215","939203","0.0-4.0-2.0-0.48","spark_pilot_norest","10511","8","9","Female","","false","","","","","[1160.199999988079]","./assets/img/canyon/catch/7.jpg","[""spaceBar""]","value training","canyon","0","{""ArrowUp,ArrowLeft"":26,""ArrowUp,ArrowRight"":10,""ArrowDown,ArrowLeft"":5,""ArrowDown,ArrowRight"":17}","true","spaceBar","true","revaluation","1","96","","",""
"html-keyboard-response","216","939705","0.0-4.0-2.0-1.48","spark_pilot_norest","10511","8","9","Female","","","","","","","null","<div style=""font-size:60px;"">+</div>","null","fixation","","","","","","","","","97","","",""
"revaluation","217","945711","0.0-4.0-2.0-0.49","spark_pilot_norest","10511","8","9","Female","","false","","","","","[1117.5,756.8999999761581]","./assets/img/canyon/memory/2.jpg","[""ArrowUp"",""ArrowLeft""]","value training","canyon","26","{""ArrowUp,ArrowLeft"":26,""ArrowUp,ArrowRight"":10,""ArrowDown,ArrowLeft"":5,""ArrowDown,ArrowRight"":17}","true","ArrowUp,ArrowLeft","false","revaluation","1","98","","",""
"html-keyboard-response","218","946213","0.0-4.0-2.0-1.49","spark_pilot_norest","10511","8","9","Female","","","","","","","null","<div style=""font-size:60px;"">+</div>","null","fixation","","","","","","","","","99","","",""
"learning-instructions","219","1048590","0.0-4.0-3.0-0.0","spark_pilot_norest","10511","8","9","Female","","","","","","","89289.5","<p> Now, you will travel with a friend who will choose whether you go up or down first. </p>
            <p> On these turns, you will just see the animal that they found. You will still get to choose which chest to search for treasure.</p>","","instructions","","","","","","","","","","","",""
"revaluation","220","1052597","0.0-4.0-4.0-0.0","spark_pilot_norest","10511","8","9","Female","","false","","","","","[1449.699999988079]","./assets/img/canyon/animals/giraffe.jpg","[""ArrowRight""]","revaluation","canyon","11","{""ArrowUp,ArrowLeft"":2,""ArrowUp,ArrowRight"":11,""ArrowDown,ArrowLeft"":8,""ArrowDown,ArrowRight"":27}","true","ArrowUp,ArrowRight","","revaluation","1","0","","",""
"html-keyboard-response","221","1053099","0.0-4.0-4.0-1.0","spark_pilot_norest","10511","8","9","Female","","","","","","","null","<div style=""font-size:60px;"">+</div>","null","fixation","","","","","","","","","1","","",""
"revaluation","222","1057103","0.0-4.0-4.0-0.1","spark_pilot_norest","10511","8","9","Female","","false","","","","","[770.2999999523163]","./assets/img/canyon/animals/giraffe.jpg","[""ArrowLeft""]","revaluation","canyon","2","{""ArrowUp,ArrowLeft"":2,""ArrowUp,ArrowRight"":11,""ArrowDown,ArrowLeft"":8,""ArrowDown,ArrowRight"":27}","false","ArrowUp,ArrowLeft","","revaluation","1","2","","",""
"html-keyboard-response","223","1057605","0.0-4.0-4.0-1.1","spark_pilot_norest","10511","8","9","Female","","","","","","","null","<div style=""font-size:60px;"">+</div>","null","fixation","","","","","","","","","3","","",""
"revaluation","224","1061609","0.0-4.0-4.0-0.2","spark_pilot_norest","10511","8","9","Female","","false","","","","","[913.8000000119209]","./assets/img/canyon/animals/giraffe.jpg","[""ArrowRight""]","revaluation","canyon","11","{""ArrowUp,ArrowLeft"":2,""ArrowUp,ArrowRight"":11,""ArrowDown,ArrowLeft"":8,""ArrowDown,ArrowRight"":27}","true","ArrowUp,ArrowRight","","revaluation","1","4","","",""
"html-keyboard-response","225","1062111","0.0-4.0-4.0-1.2","spark_pilot_norest","10511","8","9","Female","","","","","","","null","<div style=""font-size:60px;"">+</div>","null","fixation","","","","","","","","","5","","",""
"revaluation","226","1066116","0.0-4.0-4.0-0.3","spark_pilot_norest","10511","8","9","Female","","false","","","","","[734.8000000119209]","./assets/img/canyon/animals/giraffe.jpg","[""ArrowRight""]","revaluation","canyon","11","{""ArrowUp,ArrowLeft"":2,""ArrowUp,ArrowRight"":11,""ArrowDown,ArrowLeft"":8,""ArrowDown,ArrowRight"":27}","true","ArrowUp,ArrowRight","","revaluation","1","6","","",""
"html-keyboard-response","227","1066618","0.0-4.0-4.0-1.3","spark_pilot_norest","10511","8","9","Female","","","","","","","null","<div style=""font-size:60px;"">+</div>","null","fixation","","","","","","","","","7","","",""
"revaluation","228","1070623","0.0-4.0-4.0-0.4","spark_pilot_norest","10511","8","9","Female","","false","","","","","[732.4000000357628]","./assets/img/canyon/animals/giraffe.jpg","[""ArrowRight""]","revaluation","canyon","11","{""ArrowUp,ArrowLeft"":2,""ArrowUp,ArrowRight"":11,""ArrowDown,ArrowLeft"":8,""ArrowDown,ArrowRight"":27}","true","ArrowUp,ArrowRight","","revaluation","1","8","","",""
"html-keyboard-response","229","1071124","0.0-4.0-4.0-1.4","spark_pilot_norest","10511","8","9","Female","","","","","","","null","<div style=""font-size:60px;"">+</div>","null","fixation","","","","","","","","","9","","",""
"revaluation","230","1075128","0.0-4.0-4.0-0.5","spark_pilot_norest","10511","8","9","Female","","false","","","","","[1162.300000011921]","./assets/img/canyon/animals/lion.jpg","[""ArrowLeft""]","revaluation","canyon","8","{""ArrowUp,ArrowLeft"":2,""ArrowUp,ArrowRight"":11,""ArrowDown,ArrowLeft"":8,""ArrowDown,ArrowRight"":27}","false","ArrowDown,ArrowLeft","","revaluation","1","10","","",""
"html-keyboard-response","231","1075631","0.0-4.0-4.0-1.5","spark_pilot_norest","10511","8","9","Female","","","","","","","null","<div style=""font-size:60px;"">+</div>","null","fixation","","","","","","","","","11","","",""
"revaluation","232","1079635","0.0-4.0-4.0-0.6","spark_pilot_norest","10511","8","9","Female","","false","","","","","[703.6000000238419]","./assets/img/canyon/animals/lion.jpg","[""ArrowRight""]","revaluation","canyon","27","{""ArrowUp,ArrowLeft"":2,""ArrowUp,ArrowRight"":11,""ArrowDown,ArrowLeft"":8,""ArrowDown,ArrowRight"":27}","true","ArrowDown,ArrowRight","","revaluation","1","12","","",""
"html-keyboard-response","233","1080137","0.0-4.0-4.0-1.6","spark_pilot_norest","10511","8","9","Female","","","","","","","null","<div style=""font-size:60px;"">+</div>","null","fixation","","","","","","","","","13","","",""
"revaluation","234","1084142","0.0-4.0-4.0-0.7","spark_pilot_norest","10511","8","9","Female","","false","","","","","[580.8000000119209]","./assets/img/canyon/animals/lion.jpg","[""ArrowRight""]","revaluation","canyon","27","{""ArrowUp,ArrowLeft"":2,""ArrowUp,ArrowRight"":11,""ArrowDown,ArrowLeft"":8,""ArrowDown,ArrowRight"":27}","true","ArrowDown,ArrowRight","","revaluation","1","14","","",""
"html-keyboard-response","235","1084643","0.0-4.0-4.0-1.7","spark_pilot_norest","10511","8","9","Female","","","","","","","null","<div style=""font-size:60px;"">+</div>","null","fixation","","","","","","","","","15","","",""
"revaluation","236","1088647","0.0-4.0-4.0-0.8","spark_pilot_norest","10511","8","9","Female","","false","","","","","[1075.300000011921]","./assets/img/canyon/animals/giraffe.jpg","[""ArrowRight""]","revaluation","canyon","11","{""ArrowUp,ArrowLeft"":2,""ArrowUp,ArrowRight"":11,""ArrowDown,ArrowLeft"":8,""ArrowDown,ArrowRight"":27}","true","ArrowUp,ArrowRight","","revaluation","1","16","","",""
"html-keyboard-response","237","1089149","0.0-4.0-4.0-1.8","spark_pilot_norest","10511","8","9","Female","","","","","","","null","<div style=""font-size:60px;"">+</div>","null","fixation","","","","","","","","","17","","",""
"revaluation","238","1093153","0.0-4.0-4.0-0.9","spark_pilot_norest","10511","8","9","Female","","false","","","","","[825.1000000238419]","./assets/img/canyon/animals/lion.jpg","[""ArrowRight""]","revaluation","canyon","27","{""ArrowUp,ArrowLeft"":2,""ArrowUp,ArrowRight"":11,""ArrowDown,ArrowLeft"":8,""ArrowDown,ArrowRight"":27}","true","ArrowDown,ArrowRight","","revaluation","1","18","","",""
"html-keyboard-response","239","1093655","0.0-4.0-4.0-1.9","spark_pilot_norest","10511","8","9","Female","","","","","","","null","<div style=""font-size:60px;"">+</div>","null","fixation","","","","","","","","","19","","",""
"revaluation","240","1097659","0.0-4.0-4.0-0.10","spark_pilot_norest","10511","8","9","Female","","false","","","","","[983.0999999642372]","./assets/img/canyon/animals/lion.jpg","[""ArrowRight""]","revaluation","canyon","27","{""ArrowUp,ArrowLeft"":2,""ArrowUp,ArrowRight"":11,""ArrowDown,ArrowLeft"":8,""ArrowDown,ArrowRight"":27}","true","ArrowDown,ArrowRight","","revaluation","1","20","","",""
"html-keyboard-response","241","1098160","0.0-4.0-4.0-1.10","spark_pilot_norest","10511","8","9","Female","","","","","","","null","<div style=""font-size:60px;"">+</div>","null","fixation","","","","","","","","","21","","",""
"revaluation","242","1102165","0.0-4.0-4.0-0.11","spark_pilot_norest","10511","8","9","Female","","false","","","","","[670]","./assets/img/canyon/animals/giraffe.jpg","[""ArrowRight""]","revaluation","canyon","11","{""ArrowUp,ArrowLeft"":2,""ArrowUp,ArrowRight"":11,""ArrowDown,ArrowLeft"":8,""ArrowDown,ArrowRight"":27}","true","ArrowUp,ArrowRight","","revaluation","1","22","","",""
"html-keyboard-response","243","1102677","0.0-4.0-4.0-1.11","spark_pilot_norest","10511","8","9","Female","","","","","","","null","<div style=""font-size:60px;"">+</div>","null","fixation","","","","","","","","","23","","",""
"revaluation","244","1106682","0.0-4.0-4.0-0.12","spark_pilot_norest","10511","8","9","Female","","false","","","","","[865]","./assets/img/canyon/animals/giraffe.jpg","[""ArrowRight""]","revaluation","canyon","11","{""ArrowUp,ArrowLeft"":2,""ArrowUp,ArrowRight"":11,""ArrowDown,ArrowLeft"":8,""ArrowDown,ArrowRight"":27}","true","ArrowUp,ArrowRight","","revaluation","1","24","","",""
"html-keyboard-response","245","1107184","0.0-4.0-4.0-1.12","spark_pilot_norest","10511","8","9","Female","","","","","","","null","<div style=""font-size:60px;"">+</div>","null","fixation","","","","","","","","","25","","",""
"revaluation","246","1111188","0.0-4.0-4.0-0.13","spark_pilot_norest","10511","8","9","Female","","false","","","","","[645.5]","./assets/img/canyon/animals/lion.jpg","[""ArrowRight""]","revaluation","canyon","27","{""ArrowUp,ArrowLeft"":2,""ArrowUp,ArrowRight"":11,""ArrowDown,ArrowLeft"":8,""ArrowDown,ArrowRight"":27}","true","ArrowDown,ArrowRight","","revaluation","1","26","","",""
"html-keyboard-response","247","1111691","0.0-4.0-4.0-1.13","spark_pilot_norest","10511","8","9","Female","","","","","","","null","<div style=""font-size:60px;"">+</div>","null","fixation","","","","","","","","","27","","",""
"revaluation","248","1115695","0.0-4.0-4.0-0.14","spark_pilot_norest","10511","8","9","Female","","false","","","","","[1930.6000000238419]","./assets/img/canyon/animals/lion.jpg","[""ArrowRight""]","revaluation","canyon","27","{""ArrowUp,ArrowLeft"":2,""ArrowUp,ArrowRight"":11,""ArrowDown,ArrowLeft"":8,""ArrowDown,ArrowRight"":27}","true","ArrowDown,ArrowRight","","revaluation","1","28","","",""
"html-keyboard-response","249","1116197","0.0-4.0-4.0-1.14","spark_pilot_norest","10511","8","9","Female","","","","","","","null","<div style=""font-size:60px;"">+</div>","null","fixation","","","","","","","","","29","","",""
"revaluation","250","1120202","0.0-4.0-4.0-0.15","spark_pilot_norest","10511","8","9","Female","","false","","","","","[1185.6000000238419]","./assets/img/canyon/animals/giraffe.jpg","[""ArrowRight""]","revaluation","canyon","11","{""ArrowUp,ArrowLeft"":2,""ArrowUp,ArrowRight"":11,""ArrowDown,ArrowLeft"":8,""ArrowDown,ArrowRight"":27}","true","ArrowUp,ArrowRight","","revaluation","1","30","","",""
"html-keyboard-response","251","1120704","0.0-4.0-4.0-1.15","spark_pilot_norest","10511","8","9","Female","","","","","","","null","<div style=""font-size:60px;"">+</div>","null","fixation","","","","","","","","","31","","",""
"revaluation","252","1124734","0.0-4.0-4.0-0.16","spark_pilot_norest","10511","8","9","Female","","false","","","","","[942.1999999880791]","./assets/img/canyon/animals/lion.jpg","[""ArrowRight""]","revaluation","canyon","27","{""ArrowUp,ArrowLeft"":2,""ArrowUp,ArrowRight"":11,""ArrowDown,ArrowLeft"":8,""ArrowDown,ArrowRight"":27}","true","ArrowDown,ArrowRight","","revaluation","1","32","","",""
"html-keyboard-response","253","1125236","0.0-4.0-4.0-1.16","spark_pilot_norest","10511","8","9","Female","","","","","","","null","<div style=""font-size:60px;"">+</div>","null","fixation","","","","","","","","","33","","",""
"revaluation","254","1129240","0.0-4.0-4.0-0.17","spark_pilot_norest","10511","8","9","Female","","false","","","","","[745.8999999761581]","./assets/img/canyon/animals/lion.jpg","[""ArrowRight""]","revaluation","canyon","27","{""ArrowUp,ArrowLeft"":2,""ArrowUp,ArrowRight"":11,""ArrowDown,ArrowLeft"":8,""ArrowDown,ArrowRight"":27}","true","ArrowDown,ArrowRight","","revaluation","1","34","","",""
"html-keyboard-response","255","1129742","0.0-4.0-4.0-1.17","spark_pilot_norest","10511","8","9","Female","","","","","","","null","<div style=""font-size:60px;"">+</div>","null","fixation","","","","","","","","","35","","",""
"learning-instructions","256","1138041","0.0-4.0-5.0-0.0","spark_pilot_norest","10511","8","9","Female","","","","","","","null","<p> You have almost finished this part of the game! </p>
            <p> We are going to ask you to make a few more choices. </p>","","instructions","","","","","","","","","","","",""
"learning-instructions","257","1154016","0.0-4.0-5.0-0.1","spark_pilot_norest","10511","8","9","Female","","","","","","","null","<p> First, you need to decide whether to go up or down. When you see each picture, use the arrow keys to make your choice. </p>
            <p><b>You will not see which animal you found, but try to get to the one that will give you the most treasure.</b></p>","","instructions","","","","","","","","","","","",""
"html-keyboard-response","258","1155022","0.0-4.0-6.0-0.0","spark_pilot_norest","10511","8","9","Female","","","","","","","null","<div style=""font-size:100px;color:red;"">Starting in...</div>","null","","","","","","","","","","","","",""
"html-keyboard-response","259","1156035","0.0-4.0-6.0-1.0","spark_pilot_norest","10511","8","9","Female","","","","","","","null","<div style=""font-size:200px;color:red;"">3</div>","null","","","","","","","","","","","","",""
"html-keyboard-response","260","1157036","0.0-4.0-6.0-2.0","spark_pilot_norest","10511","8","9","Female","","","","","","","null","<div style=""font-size:200px;color:red;"">2</div>","null","","","","","","","","","","","","",""
"html-keyboard-response","261","1158046","0.0-4.0-6.0-3.0","spark_pilot_norest","10511","8","9","Female","","","","","","","null","<div style=""font-size:200px;color:red;"">1</div>","null","","","","","","","","","","","","",""
"revaluation","262","1158984","0.0-4.0-7.0-0.0","spark_pilot_norest","10511","8","9","Female","","false","","","","","[935.8999999761581]","./assets/img/canyon/test/0.jpg","[""ArrowUp""]","first stage test","canyon","0","{""ArrowUp,ArrowLeft"":2,""ArrowUp,ArrowRight"":11,""ArrowDown,ArrowLeft"":8,""ArrowDown,ArrowRight"":27}","false","ArrowUp","false","revaluation","1","","","",""
"html-keyboard-response","263","1159493","0.0-4.0-7.0-1.0","spark_pilot_norest","10511","8","9","Female","","","","","","","null","<div style=""font-size:60px;"">+</div>","null","fixation","","","","","","","","","","","",""
"revaluation","264","1161064","0.0-4.0-7.0-0.1","spark_pilot_norest","10511","8","9","Female","","false","","","","","[1567.699999988079]","./assets/img/canyon/test/1.jpg","[""ArrowDown""]","first stage test","canyon","0","{""ArrowUp,ArrowLeft"":2,""ArrowUp,ArrowRight"":11,""ArrowDown,ArrowLeft"":8,""ArrowDown,ArrowRight"":27}","true","ArrowDown","false","revaluation","1","","","",""
"html-keyboard-response","265","1161568","0.0-4.0-7.0-1.1","spark_pilot_norest","10511","8","9","Female","","","","","","","null","<div style=""font-size:60px;"">+</div>","null","fixation","","","","","","","","","","","",""
"revaluation","266","1163112","0.0-4.0-7.0-0.2","spark_pilot_norest","10511","8","9","Female","","false","","","","","[1540.8999999761581]","./assets/img/canyon/test/3.jpg","[""ArrowUp""]","first stage test","canyon","0","{""ArrowUp,ArrowLeft"":2,""ArrowUp,ArrowRight"":11,""ArrowDown,ArrowLeft"":8,""ArrowDown,ArrowRight"":27}","false","ArrowUp","false","revaluation","1","","","",""
"html-keyboard-response","267","1163627","0.0-4.0-7.0-1.2","spark_pilot_norest","10511","8","9","Female","","","","","","","null","<div style=""font-size:60px;"">+</div>","null","fixation","","","","","","","","","","","",""
"revaluation","268","1164536","0.0-4.0-7.0-0.3","spark_pilot_norest","10511","8","9","Female","","false","","","","","[906.1000000238419]","./assets/img/canyon/test/2.jpg","[""ArrowDown""]","first stage test","canyon","0","{""ArrowUp,ArrowLeft"":2,""ArrowUp,ArrowRight"":11,""ArrowDown,ArrowLeft"":8,""ArrowDown,ArrowRight"":27}","true","ArrowDown","false","revaluation","1","","","",""
"html-keyboard-response","269","1165045","0.0-4.0-7.0-1.3","spark_pilot_norest","10511","8","9","Female","","","","","","","null","<div style=""font-size:60px;"">+</div>","null","fixation","","","","","","","","","","","",""
"learning-instructions","270","1178395","0.0-4.0-8.0-0.0","spark_pilot_norest","10511","8","9","Female","","","","","","","null","<p> Now you will see the animals again and can search their chests for treasure. </p>
            <p> This time, you will not see how much treasure you earned, but you will earn more bonus money for making better choices. </p>","","instructions","","","","","","","","","","","",""
"html-keyboard-response","271","1179407","0.0-4.0-9.0-0.0","spark_pilot_norest","10511","8","9","Female","","","","","","","null","<div style=""font-size:100px;color:red;"">Starting in...</div>","null","","","","","","","","","","","","",""
"html-keyboard-response","272","1180411","0.0-4.0-9.0-1.0","spark_pilot_norest","10511","8","9","Female","","","","","","","null","<div style=""font-size:200px;color:red;"">3</div>","null","","","","","","","","","","","","",""
"html-keyboard-response","273","1181416","0.0-4.0-9.0-2.0","spark_pilot_norest","10511","8","9","Female","","","","","","","null","<div style=""font-size:200px;color:red;"">2</div>","null","","","","","","","","","","","","",""
"html-keyboard-response","274","1182424","0.0-4.0-9.0-3.0","spark_pilot_norest","10511","8","9","Female","","","","","","","null","<div style=""font-size:200px;color:red;"">1</div>","null","","","","","","","","","","","","",""
"revaluation","275","1183240","0.0-4.0-10.0-0.0","spark_pilot_norest","10511","8","9","Female","","false","","","","","[813.8999999761581]","./assets/img/canyon/animals/giraffe.jpg","[""ArrowRight""]","second stage test","canyon","0","{""ArrowUp,ArrowLeft"":2,""ArrowUp,ArrowRight"":11,""ArrowDown,ArrowLeft"":8,""ArrowDown,ArrowRight"":27}","true","ArrowUp,ArrowRight","","revaluation","1","","","",""
"html-keyboard-response","276","1183746","0.0-4.0-10.0-1.0","spark_pilot_norest","10511","8","9","Female","","","","","","","null","<div style=""font-size:60px;"">+</div>","null","fixation","","","","","","","","","","","",""
"revaluation","277","1184800","0.0-4.0-10.0-0.1","spark_pilot_norest","10511","8","9","Female","","false","","","","","[1052.300000011921]","./assets/img/canyon/animals/giraffe.jpg","[""ArrowLeft""]","second stage test","canyon","0","{""ArrowUp,ArrowLeft"":2,""ArrowUp,ArrowRight"":11,""ArrowDown,ArrowLeft"":8,""ArrowDown,ArrowRight"":27}","false","ArrowUp,ArrowLeft","","revaluation","1","","","",""
"html-keyboard-response","278","1185302","0.0-4.0-10.0-1.1","spark_pilot_norest","10511","8","9","Female","","","","","","","null","<div style=""font-size:60px;"">+</div>","null","fixation","","","","","","","","","","","",""
"revaluation","279","1187008","0.0-4.0-10.0-0.2","spark_pilot_norest","10511","8","9","Female","","false","","","","","[1703.2000000476837]","./assets/img/canyon/animals/giraffe.jpg","[""ArrowLeft""]","second stage test","canyon","0","{""ArrowUp,ArrowLeft"":2,""ArrowUp,ArrowRight"":11,""ArrowDown,ArrowLeft"":8,""ArrowDown,ArrowRight"":27}","false","ArrowUp,ArrowLeft","","revaluation","1","","","",""
"html-keyboard-response","280","1187517","0.0-4.0-10.0-1.2","spark_pilot_norest","10511","8","9","Female","","","","","","","null","<div style=""font-size:60px;"">+</div>","null","fixation","","","","","","","","","","","",""
"revaluation","281","1188248","0.0-4.0-10.0-0.3","spark_pilot_norest","10511","8","9","Female","","false","","","","","[729.3000000119209]","./assets/img/canyon/animals/giraffe.jpg","[""ArrowLeft""]","second stage test","canyon","0","{""ArrowUp,ArrowLeft"":2,""ArrowUp,ArrowRight"":11,""ArrowDown,ArrowLeft"":8,""ArrowDown,ArrowRight"":27}","false","ArrowUp,ArrowLeft","","revaluation","1","","","",""
"html-keyboard-response","282","1188762","0.0-4.0-10.0-1.3","spark_pilot_norest","10511","8","9","Female","","","","","","","null","<div style=""font-size:60px;"">+</div>","null","fixation","","","","","","","","","","","",""
"revaluation","283","1190864","0.0-4.0-10.0-0.4","spark_pilot_norest","10511","8","9","Female","","false","","","","","[2099.800000011921]","./assets/img/canyon/animals/lion.jpg","[""ArrowLeft""]","second stage test","canyon","0","{""ArrowUp,ArrowLeft"":2,""ArrowUp,ArrowRight"":11,""ArrowDown,ArrowLeft"":8,""ArrowDown,ArrowRight"":27}","false","ArrowDown,ArrowLeft","","revaluation","1","","","",""
"html-keyboard-response","284","1191371","0.0-4.0-10.0-1.4","spark_pilot_norest","10511","8","9","Female","","","","","","","null","<div style=""font-size:60px;"">+</div>","null","fixation","","","","","","","","","","","",""
"revaluation","285","1192136","0.0-4.0-10.0-0.5","spark_pilot_norest","10511","8","9","Female","","false","","","","","[763.5]","./assets/img/canyon/animals/lion.jpg","[""ArrowRight""]","second stage test","canyon","0","{""ArrowUp,ArrowLeft"":2,""ArrowUp,ArrowRight"":11,""ArrowDown,ArrowLeft"":8,""ArrowDown,ArrowRight"":27}","true","ArrowDown,ArrowRight","","revaluation","1","","","",""
"html-keyboard-response","286","1192645","0.0-4.0-10.0-1.5","spark_pilot_norest","10511","8","9","Female","","","","","","","null","<div style=""font-size:60px;"">+</div>","null","fixation","","","","","","","","","","","",""
"revaluation","287","1193448","0.0-4.0-10.0-0.6","spark_pilot_norest","10511","8","9","Female","","false","","","","","[801]","./assets/img/canyon/animals/lion.jpg","[""ArrowRight""]","second stage test","canyon","0","{""ArrowUp,ArrowLeft"":2,""ArrowUp,ArrowRight"":11,""ArrowDown,ArrowLeft"":8,""ArrowDown,ArrowRight"":27}","true","ArrowDown,ArrowRight","","revaluation","1","","","",""
"html-keyboard-response","288","1193957","0.0-4.0-10.0-1.6","spark_pilot_norest","10511","8","9","Female","","","","","","","null","<div style=""font-size:60px;"">+</div>","null","fixation","","","","","","","","","","","",""
"revaluation","289","1194681","0.0-4.0-10.0-0.7","spark_pilot_norest","10511","8","9","Female","","false","","","","","[721.7999999523163]","./assets/img/canyon/animals/lion.jpg","[""ArrowRight""]","second stage test","canyon","0","{""ArrowUp,ArrowLeft"":2,""ArrowUp,ArrowRight"":11,""ArrowDown,ArrowLeft"":8,""ArrowDown,ArrowRight"":27}","true","ArrowDown,ArrowRight","","revaluation","1","","","",""
"html-keyboard-response","290","1195184","0.0-4.0-10.0-1.7","spark_pilot_norest","10511","8","9","Female","","","","","","","null","<div style=""font-size:60px;"">+</div>","null","fixation","","","","","","","","","","","",""
"learning-instructions","291","1200493","0.0-4.0-0.1-0.2","spark_pilot_norest","10511","8","9","Female","","","","","","","2601.600000023842","<p> This time you are searching for treasure in the <b>ocean</b>.</p>","","instructions","","","","","","","","","","","",""
"learning-instructions","292","1219118","0.0-4.0-0.1-0.3","spark_pilot_norest","10511","8","9","Female","","","","","","","1376.9000000357628","<p><b>New</b> animals with <b>new</b> treasure chests live here. You need to explore to discover where the animal with the best treasure chest is.</p>
                    <p> Like before, once you figure out which animal has the chest with the most treasure, you should try to get to that animal and select that chest! </p>","","instructions","","","","","","","","","","","",""
"learning-instructions","293","1234824","0.0-4.0-1.1-0.1","spark_pilot_norest","10511","8","9","Female","","","","","","","972.5","<p> Remember, when you see a picture of the place, use the up and down keys to <b>find an animal</b>.</p>
            <p> When you encounter an animal, you should use the left and right keys to <b>select a treasure chest</b>.</p>
            <p> Don't forget to look out for the robber! </p>","","instructions","","","","","","","","","","","",""
"revaluation","294","1238840","0.0-4.0-2.1-0.50","spark_pilot_norest","10511","8","9","Female","","true","","","","","[]","./assets/img/ocean/memory/36.jpg","[]","value training","ocean","-5","{""ArrowUp,ArrowLeft"":23,""ArrowUp,ArrowRight"":10,""ArrowDown,ArrowLeft"":8,""ArrowDown,ArrowRight"":30}","false","","false","original","2","0","","",""
"html-keyboard-response","295","1239355","0.0-4.0-2.1-1.50","spark_pilot_norest","10511","8","9","Female","","","","","","","null","<div style=""font-size:60px;"">+</div>","null","fixation","","","","","","","","","1","","",""
"revaluation","296","1245389","0.0-4.0-2.1-0.51","spark_pilot_norest","10511","8","9","Female","","false","","","","","[938.1000000238419,1113]","./assets/img/ocean/memory/14.jpg","[""ArrowUp"",""ArrowRight""]","value training","ocean","10","{""ArrowUp,ArrowLeft"":23,""ArrowUp,ArrowRight"":10,""ArrowDown,ArrowLeft"":8,""ArrowDown,ArrowRight"":30}","false","ArrowUp,ArrowRight","false","original","2","2","","",""
"html-keyboard-response","297","1245905","0.0-4.0-2.1-1.51","spark_pilot_norest","10511","8","9","Female","","","","","","","null","<div style=""font-size:60px;"">+</div>","null","fixation","","","","","","","","","3","","",""
"revaluation","298","1251929","0.0-4.0-2.1-0.52","spark_pilot_norest","10511","8","9","Female","","false","","","","","[821.4000000357628,665.1000000238419]","./assets/img/ocean/memory/2.jpg","[""ArrowUp"",""ArrowLeft""]","value training","ocean","23","{""ArrowUp,ArrowLeft"":23,""ArrowUp,ArrowRight"":10,""ArrowDown,ArrowLeft"":8,""ArrowDown,ArrowRight"":30}","false","ArrowUp,ArrowLeft","false","original","2","4","","",""
"html-keyboard-response","299","1252442","0.0-4.0-2.1-1.52","spark_pilot_norest","10511","8","9","Female","","","","","","","null","<div style=""font-size:60px;"">+</div>","null","fixation","","","","","","","","","5","","",""
"revaluation","300","1258472","0.0-4.0-2.1-0.53","spark_pilot_norest","10511","8","9","Female","","false","","","","","[883.8999999761581,794.6000000238419]","./assets/img/ocean/memory/26.jpg","[""ArrowDown"",""ArrowRight""]","value training","ocean","30","{""ArrowUp,ArrowLeft"":23,""ArrowUp,ArrowRight"":10,""ArrowDown,ArrowLeft"":8,""ArrowDown,ArrowRight"":30}","true","ArrowDown,ArrowRight","false","original","2","6","","",""
"html-keyboard-response","301","1258983","0.0-4.0-2.1-1.53","spark_pilot_norest","10511","8","9","Female","","","","","","","null","<div style=""font-size:60px;"">+</div>","null","fixation","","","","","","","","","7","","",""
"revaluation","302","1262995","0.0-4.0-2.1-0.54","spark_pilot_norest","10511","8","9","Female","","false","","","","","[1439.6000000238419]","./assets/img/ocean/catch/3.jpg","[""spaceBar""]","value training","ocean","0","{""ArrowUp,ArrowLeft"":23,""ArrowUp,ArrowRight"":10,""ArrowDown,ArrowLeft"":8,""ArrowDown,ArrowRight"":30}","true","spaceBar","true","original","2","8","","",""
"html-keyboard-response","303","1263508","0.0-4.0-2.1-1.54","spark_pilot_norest","10511","8","9","Female","","","","","","","null","<div style=""font-size:60px;"">+</div>","null","fixation","","","","","","","","","9","","",""
"revaluation","304","1269513","0.0-4.0-2.1-0.55","spark_pilot_norest","10511","8","9","Female","","false","","","","","[618,696.2000000476837]","./assets/img/ocean/memory/14.jpg","[""ArrowDown"",""ArrowLeft""]","value training","ocean","8","{""ArrowUp,ArrowLeft"":23,""ArrowUp,ArrowRight"":10,""ArrowDown,ArrowLeft"":8,""ArrowDown,ArrowRight"":30}","false","ArrowDown,ArrowLeft","false","original","2","10","","",""
"html-keyboard-response","305","1270014","0.0-4.0-2.1-1.55","spark_pilot_norest","10511","8","9","Female","","","","","","","null","<div style=""font-size:60px;"">+</div>","null","fixation","","","","","","","","","11","","",""
"revaluation","306","1276021","0.0-4.0-2.1-0.56","spark_pilot_norest","10511","8","9","Female","","false","","","","","[639,917.4000000357628]","./assets/img/ocean/memory/24.jpg","[""ArrowUp"",""ArrowLeft""]","value training","ocean","23","{""ArrowUp,ArrowLeft"":23,""ArrowUp,ArrowRight"":10,""ArrowDown,ArrowLeft"":8,""ArrowDown,ArrowRight"":30}","false","ArrowUp,ArrowLeft","false","original","2","12","","",""
"html-keyboard-response","307","1276523","0.0-4.0-2.1-1.56","spark_pilot_norest","10511","8","9","Female","","","","","","","null","<div style=""font-size:60px;"">+</div>","null","fixation","","","","","","","","","13","","",""
"revaluation","308","1282527","0.0-4.0-2.1-0.57","spark_pilot_norest","10511","8","9","Female","","false","","","","","[851.8000000119209,1018.3000000119209]","./assets/img/ocean/memory/13.jpg","[""ArrowDown"",""ArrowRight""]","value training","ocean","30","{""ArrowUp,ArrowLeft"":23,""ArrowUp,ArrowRight"":10,""ArrowDown,ArrowLeft"":8,""ArrowDown,ArrowRight"":30}","true","ArrowDown,ArrowRight","false","original","2","14","","",""
"html-keyboard-response","309","1283029","0.0-4.0-2.1-1.57","spark_pilot_norest","10511","8","9","Female","","","","","","","null","<div style=""font-size:60px;"">+</div>","null","fixation","","","","","","","","","15","","",""
"revaluation","310","1287034","0.0-4.0-2.1-0.58","spark_pilot_norest","10511","8","9","Female","","false","","","","","[872.5]","./assets/img/ocean/catch/1.jpg","[""spaceBar""]","value training","ocean","0","{""ArrowUp,ArrowLeft"":23,""ArrowUp,ArrowRight"":10,""ArrowDown,ArrowLeft"":8,""ArrowDown,ArrowRight"":30}","true","spaceBar","true","original","2","16","","",""
"html-keyboard-response","311","1287538","0.0-4.0-2.1-1.58","spark_pilot_norest","10511","8","9","Female","","","","","","","null","<div style=""font-size:60px;"">+</div>","null","fixation","","","","","","","","","17","","",""
"revaluation","312","1293546","0.0-4.0-2.1-0.59","spark_pilot_norest","10511","8","9","Female","","false","","","","","[1065.7999999523163,978.3000000119209]","./assets/img/ocean/memory/21.jpg","[""ArrowDown"",""ArrowRight""]","value training","ocean","30","{""ArrowUp,ArrowLeft"":23,""ArrowUp,ArrowRight"":10,""ArrowDown,ArrowLeft"":8,""ArrowDown,ArrowRight"":30}","true","ArrowDown,ArrowRight","false","original","2","18","","",""
