"trial_type","trial_index","time_elapsed","internal_node_id","task_version","subject_id","assigned_condition","age","gender","success","timeout","failed_images","failed_audio","failed_video","browser_interaction","value","rt","stimulus","response","task_part","environment","score","rewardMap","correct","fullState","isCatch","condition","order","trial_num","key_press","ground_truth","bonus"
"pavlovia","0","950","0.0-0.0","spark_pilot_norest","12718","2","9","Female","","","","","","","","","","","","","","","","","","","","","","",""
"preload","1","27789","0.0-1.0","spark_pilot_norest","12718","2","9","Female","true","false","[]","[]","[]","[{""event"":""fullscreenenter"",""trial"":2,""time"":41716},{""event"":""blur"",""trial"":475,""time"":3658440},{""event"":""focus"",""trial"":475,""time"":3868686}]","","","","","","","","","","","","","","","","",""
"fullscreen","2","42698","0.0-2.0","spark_pilot_norest","12718","2","9","Female","true","","","","","","","","","","","","","","","","","","","","","",""
"call-function","3","44129","0.0-3.0","spark_pilot_norest","12718","2","9","Female","","","","","","","","","","","","","","","","","","","","","","",""
"audio-button-response","4","47145","0.0-4.0-0.0-0.0","spark_pilot_norest","12718","2","9","Female","","","","","","","","2972","./assets/audio/audiotest/turtle.mp3","4","audio_test","","","","","","","","","","","",""
"audio-button-response","5","49745","0.0-4.0-0.1-0.1","spark_pilot_norest","12718","2","9","Female","","","","","","","","1599","./assets/audio/audiotest/turtle.mp3","4","audio_test","","","","","","","","","","","",""
"audio-button-response","6","53911","0.0-4.0-0.2-0.2","spark_pilot_norest","12718","2","9","Female","","","","","","","","3164","./assets/audio/audiotest/turtle.mp3","2","audio_test","","","","","","","","","","","",""
"learning-instructions","7","73396","0.0-4.0-1.0-0.0","spark_pilot_norest","12718","2","9","Female","","","","","","","","12532.000000000015","<p> Welcome! Please remember to stay in fullscreen mode and don't click away from the experiment. </p>","","instructions","","","","","","","","","","","",""
"learning-instructions","8","83745","0.0-4.0-1.0-0.1","spark_pilot_norest","12718","2","9","Female","","","","","","","","1964","<p> Today you will be playing a game to earn treasure. </p>
            <p> At the end of the experiment, you will earn a bonus based on how much treasure you find. </p>
            <img src='./assets/img/instructions/treasure.jpg' class='instructions-image'>","","instructions","","","","","","","","","","","",""
"learning-instructions","9","93612","0.0-4.0-1.0-0.2","spark_pilot_norest","12718","2","9","Female","","","","","","","","1634","<p> Animals have hidden treasure in treasure chests. </p>
            <p> You need to first find an animal and then choose which of their treasure chests to search. </p>
            <img src='./assets/img/space/animals/cat.jpg' class='instructions-image'>","","instructions","","","","","","","","","","","",""
"learning-instructions","10","111778","0.0-4.0-1.0-0.3","spark_pilot_norest","12718","2","9","Female","","","","","","","","4025.0000000000146","<p> In each round, you will search for treasure in a different place. In the real game, there will be two rounds. </p>
            <p> You will begin with a separate, practice round where you will search for treasure in outer space. </p>
            <img src='./assets/img/space/0.jpg' class='instructions-image'>","","instructions","","","","","","","","","","","",""
"learning-instructions","11","126712","0.0-4.0-1.0-0.4","spark_pilot_norest","12718","2","9","Female","","","","","","","","3544","<p> On every turn, you will see a picture of the place that you are in, but the specific image may be different each time. </p>
            <p> For example, both of these images mean you are in outer space. </p>
            <img src='./assets/img/instructions/outerspace.jpg' class='instructions-image'>","","instructions","","","","","","","","","","","",""
"learning-instructions","12","136945","0.0-4.0-1.0-0.5","spark_pilot_norest","12718","2","9","Female","","","","","","","","2428","<p> You need to decide which direction to travel in. </p>
            <p> You can choose between going <b>up or down</b> by using the arrow keys. </p>
            <img src='./assets/img/instructions/updown.jpg' class='instructions-image'>","","instructions","","","","","","","","","","","",""
"learning-instructions","13","148995","0.0-4.0-1.0-0.6","spark_pilot_norest","12718","2","9","Female","","","","","","","","3265.000000000029","<p> You will have <b>2 seconds</b> to make your choice. </p>
            <p> If you do not make a choice within 2 seconds, you will not find an animal or earn treasure. </p>
            <img src='./assets/img/instructions/2seconds.jpg' class='instructions-image'>","","instructions","","","","","","","","","","","",""
"learning-instructions","14","156912","0.0-4.0-1.0-0.7","spark_pilot_norest","12718","2","9","Female","","","","","","","","902","<p> Let’s try practicing that now! </p>
            <p> When you see a picture of the place you are in, press the <b>up</b> key to travel up. </p>
            <img src='./assets/img/instructions/pressUp.jpg' class='instructions-image'>","","instructions","","","","","","","","","","","",""
"revaluation","15","160920","0.0-4.0-2.0-0.0","spark_pilot_norest","12718","2","9","Female","","false","","","","","","[1148]","./assets/img/space/0.jpg","[""ArrowUp""]","first stage practice","space","0","null","null","ArrowUp","false","","","","","",""
"html-keyboard-response","16","161421","0.0-4.0-2.0-1.0","spark_pilot_norest","12718","2","9","Female","","","","","","","","null","<div style=""font-size:60px;"">+</div>","null","fixation","","","","","","","","","","","",""
"revaluation","17","165424","0.0-4.0-2.0-0.1","spark_pilot_norest","12718","2","9","Female","","false","","","","","","[1505]","./assets/img/space/1.jpg","[""ArrowUp""]","first stage practice","space","0","null","null","ArrowUp","false","","","","","",""
"html-keyboard-response","18","165924","0.0-4.0-2.0-1.1","spark_pilot_norest","12718","2","9","Female","","","","","","","","null","<div style=""font-size:60px;"">+</div>","null","fixation","","","","","","","","","","","",""
"revaluation","19","169927","0.0-4.0-2.0-0.2","spark_pilot_norest","12718","2","9","Female","","false","","","","","","[1287]","./assets/img/space/2.jpg","[""ArrowUp""]","first stage practice","space","0","null","null","ArrowUp","false","","","","","",""
"html-keyboard-response","20","170428","0.0-4.0-2.0-1.2","spark_pilot_norest","12718","2","9","Female","","","","","","","","null","<div style=""font-size:60px;"">+</div>","null","fixation","","","","","","","","","","","",""
"learning-instructions","21","180711","0.0-4.0-3.0-0.0","spark_pilot_norest","12718","2","9","Female","","","","","","","","5600","<p> Great job! Now try pressing the <b>down</b> key to travel down. </p>
            <img src='./assets/img/instructions/pressDown.jpg' class='instructions-image'>","","instructions","","","","","","","","","","","",""
"revaluation","22","184712","0.0-4.0-4.0-0.0","spark_pilot_norest","12718","2","9","Female","","false","","","","","","[809]","./assets/img/space/3.jpg","[""ArrowDown""]","first stage practice","space","0","null","null","ArrowDown","false","","","","","",""
"html-keyboard-response","23","185214","0.0-4.0-4.0-1.0","spark_pilot_norest","12718","2","9","Female","","","","","","","","null","<div style=""font-size:60px;"">+</div>","null","fixation","","","","","","","","","","","",""
"revaluation","24","189217","0.0-4.0-4.0-0.1","spark_pilot_norest","12718","2","9","Female","","false","","","","","","[1292.999999999971]","./assets/img/space/4.jpg","[""ArrowDown""]","first stage practice","space","0","null","null","ArrowDown","false","","","","","",""
"html-keyboard-response","25","189718","0.0-4.0-4.0-1.1","spark_pilot_norest","12718","2","9","Female","","","","","","","","null","<div style=""font-size:60px;"">+</div>","null","fixation","","","","","","","","","","","",""
"revaluation","26","193721","0.0-4.0-4.0-0.2","spark_pilot_norest","12718","2","9","Female","","false","","","","","","[1393]","./assets/img/space/5.jpg","[""ArrowDown""]","first stage practice","space","0","null","null","ArrowDown","false","","","","","",""
"html-keyboard-response","27","194223","0.0-4.0-4.0-1.2","spark_pilot_norest","12718","2","9","Female","","","","","","","","null","<div style=""font-size:60px;"">+</div>","null","fixation","","","","","","","","","","","",""
"learning-instructions","28","207061","0.0-4.0-5.0-0.0","spark_pilot_norest","12718","2","9","Female","","","","","","","","3012","<p> The animals don’t move, so the animal in the upper part of a place will stay in the upper part of a place, and the animal in the lower part of a place will stay in the lower part of a place. </p>","","instructions","","","","","","","","","","","",""
"learning-instructions","29","218029","0.0-4.0-5.0-0.1","spark_pilot_norest","12718","2","9","Female","","","","","","","","1862","<p> Each animal has two treasure chests for you to choose from. </p>
            <p> The amount of treasure in each chest can range from <b> 0 to 40 pieces.</b></p>","","instructions","","","","","","","","","","","",""
"learning-instructions","30","252462","0.0-4.0-5.0-0.2","spark_pilot_norest","12718","2","9","Female","","","","","","","","23271","<p> You should decide which chest to search for treasure by using the <b>left</b> and <b>right</b> arrow keys. </p>
            <p><b> Pay attention to which animal is on the screen, as the animals have different treasure chests. </b></p>
            <img src='./assets/img/instructions/leftright.jpg' class='instructions-image'>","","instructions","","","","","","","","","","","",""
"learning-instructions","31","260128","0.0-4.0-5.0-0.3","spark_pilot_norest","12718","2","9","Female","","","","","","","","1322","<p> Let’s try practicing that now. </p>
            <p> When you see an animal, choose which chest to search for treasure. </p>
            <img src='./assets/img/instructions/chooseChest.jpg' class='instructions-image'>","","instructions","","","","","","","","","","","",""
"revaluation","32","264132","0.0-4.0-6.0-0.0","spark_pilot_norest","12718","2","9","Female","","false","","","","","","[1143.0000000000582]","./assets/img/space/animals/rabbit.jpg","[""ArrowRight""]","second stage practice","space","23","{""ArrowUp,ArrowLeft"":3,""ArrowUp,ArrowRight"":36,""ArrowDown,ArrowLeft"":15,""ArrowDown,ArrowRight"":23}","true","ArrowDown,ArrowRight","","","","","","",""
"html-keyboard-response","33","264633","0.0-4.0-6.0-1.0","spark_pilot_norest","12718","2","9","Female","","","","","","","","null","<div style=""font-size:60px;"">+</div>","null","fixation","","","","","","","","","","","",""
"revaluation","34","268637","0.0-4.0-6.0-0.1","spark_pilot_norest","12718","2","9","Female","","false","","","","","","[692]","./assets/img/space/animals/rabbit.jpg","[""ArrowLeft""]","second stage practice","space","15","{""ArrowUp,ArrowLeft"":3,""ArrowUp,ArrowRight"":36,""ArrowDown,ArrowLeft"":15,""ArrowDown,ArrowRight"":23}","false","ArrowDown,ArrowLeft","","","","","","",""
"html-keyboard-response","35","269138","0.0-4.0-6.0-1.1","spark_pilot_norest","12718","2","9","Female","","","","","","","","null","<div style=""font-size:60px;"">+</div>","null","fixation","","","","","","","","","","","",""
"revaluation","36","273142","0.0-4.0-6.0-0.2","spark_pilot_norest","12718","2","9","Female","","false","","","","","","[1427]","./assets/img/space/animals/cat.jpg","[""ArrowLeft""]","second stage practice","space","3","{""ArrowUp,ArrowLeft"":3,""ArrowUp,ArrowRight"":36,""ArrowDown,ArrowLeft"":15,""ArrowDown,ArrowRight"":23}","false","ArrowUp,ArrowLeft","","","","","","",""
"html-keyboard-response","37","273644","0.0-4.0-6.0-1.2","spark_pilot_norest","12718","2","9","Female","","","","","","","","null","<div style=""font-size:60px;"">+</div>","null","fixation","","","","","","","","","","","",""
"revaluation","38","277647","0.0-4.0-6.0-0.3","spark_pilot_norest","12718","2","9","Female","","false","","","","","","[845]","./assets/img/space/animals/cat.jpg","[""ArrowRight""]","second stage practice","space","36","{""ArrowUp,ArrowLeft"":3,""ArrowUp,ArrowRight"":36,""ArrowDown,ArrowLeft"":15,""ArrowDown,ArrowRight"":23}","true","ArrowUp,ArrowRight","","","","","","",""
"html-keyboard-response","39","278149","0.0-4.0-6.0-1.3","spark_pilot_norest","12718","2","9","Female","","","","","","","","null","<div style=""font-size:60px;"">+</div>","null","fixation","","","","","","","","","","","",""
"learning-instructions","40","296361","0.0-4.0-7.0-0.0","spark_pilot_norest","12718","2","9","Female","","","","","","","","1426.9999999999418","<p> Great job. Now let’s try putting it together. </p>
            <p> On each turn, you will first see a picture to remind you of the place you are in, and you need to choose whether to go up or down. </p>
            <p> Then you will see an animal and choose which of its chests to search for treasure. </p>","","instructions","","","","","","","","","","","",""
"learning-instructions","41","305228","0.0-4.0-7.0-0.1","spark_pilot_norest","12718","2","9","Female","","","","","","","","632","<p> When you choose whether to go up or down, try to go to the animal with the chest with the most treasure. </p>
            <p> Try practicing that now! </p>","","instructions","","","","","","","","","","","",""
"revaluation","42","311232","0.0-4.0-8.0-0.0","spark_pilot_norest","12718","2","9","Female","","false","","","","","","[1004,1502.0000000000582]","./assets/img/space/6.jpg","[""ArrowUp"",""ArrowLeft""]","full practice","space","3","{""ArrowUp,ArrowLeft"":3,""ArrowUp,ArrowRight"":36,""ArrowDown,ArrowLeft"":15,""ArrowDown,ArrowRight"":23}","false","ArrowUp,ArrowLeft","false","","","","","",""
"html-keyboard-response","43","311732","0.0-4.0-8.0-1.0","spark_pilot_norest","12718","2","9","Female","","","","","","","","null","<div style=""font-size:60px;"">+</div>","null","fixation","","","","","","","","","","","",""
"revaluation","44","317737","0.0-4.0-8.0-0.1","spark_pilot_norest","12718","2","9","Female","","true","","","","","","[1363]","./assets/img/space/7.jpg","[""ArrowDown""]","full practice","space","-5","{""ArrowUp,ArrowLeft"":3,""ArrowUp,ArrowRight"":36,""ArrowDown,ArrowLeft"":15,""ArrowDown,ArrowRight"":23}","false","ArrowDown","false","","","","","",""
"html-keyboard-response","45","318238","0.0-4.0-8.0-1.1","spark_pilot_norest","12718","2","9","Female","","","","","","","","null","<div style=""font-size:60px;"">+</div>","null","fixation","","","","","","","","","","","",""
"revaluation","46","324242","0.0-4.0-8.0-0.2","spark_pilot_norest","12718","2","9","Female","","false","","","","","","[1021,758]","./assets/img/space/8.jpg","[""ArrowUp"",""ArrowRight""]","full practice","space","36","{""ArrowUp,ArrowLeft"":3,""ArrowUp,ArrowRight"":36,""ArrowDown,ArrowLeft"":15,""ArrowDown,ArrowRight"":23}","true","ArrowUp,ArrowRight","false","","","","","",""
"html-keyboard-response","47","324744","0.0-4.0-8.0-1.2","spark_pilot_norest","12718","2","9","Female","","","","","","","","null","<div style=""font-size:60px;"">+</div>","null","fixation","","","","","","","","","","","",""
"revaluation","48","330749","0.0-4.0-8.0-0.3","spark_pilot_norest","12718","2","9","Female","","false","","","","","","[1122,800.0000000000582]","./assets/img/space/9.jpg","[""ArrowUp"",""ArrowRight""]","full practice","space","36","{""ArrowUp,ArrowLeft"":3,""ArrowUp,ArrowRight"":36,""ArrowDown,ArrowLeft"":15,""ArrowDown,ArrowRight"":23}","true","ArrowUp,ArrowRight","false","","","","","",""
"html-keyboard-response","49","331251","0.0-4.0-8.0-1.3","spark_pilot_norest","12718","2","9","Female","","","","","","","","null","<div style=""font-size:60px;"">+</div>","null","fixation","","","","","","","","","","","",""
"revaluation","50","337256","0.0-4.0-8.0-0.4","spark_pilot_norest","12718","2","9","Female","","false","","","","","","[1427,1190]","./assets/img/space/10.jpg","[""ArrowUp"",""ArrowLeft""]","full practice","space","3","{""ArrowUp,ArrowLeft"":3,""ArrowUp,ArrowRight"":36,""ArrowDown,ArrowLeft"":15,""ArrowDown,ArrowRight"":23}","false","ArrowUp,ArrowLeft","false","","","","","",""
"html-keyboard-response","51","337758","0.0-4.0-8.0-1.4","spark_pilot_norest","12718","2","9","Female","","","","","","","","null","<div style=""font-size:60px;"">+</div>","null","fixation","","","","","","","","","","","",""
"learning-instructions","52","349461","0.0-4.0-9.0-0.0","spark_pilot_norest","12718","2","9","Female","","","","","","","","1421","<p> One last thing: sometimes, you will see a robber. The robber can be anywhere in the picture. </p>
            <p> If you do not stop them, you will lose treasure. </p>
            <img src='./assets/img/instructions/robber.jpg' class='instructions-image'>","","instructions","","","","","","","","","","","",""
"learning-instructions","53","357645","0.0-4.0-9.0-0.1","spark_pilot_norest","12718","2","9","Female","","","","","","","","1042","<p> If you see the robber, you should <b>press the space bar</b> rather than using the arrow keys. </p>
            <p> Try practicing that now! </p>","","instructions","","","","","","","","","","","",""
"revaluation","54","361648","0.0-4.0-10.0-0.0","spark_pilot_norest","12718","2","9","Female","","false","","","","","","[1281]","./assets/img/space/catch/0.jpg","[""spaceBar""]","catch practice","space","0","{""ArrowUp,ArrowLeft"":3,""ArrowUp,ArrowRight"":36,""ArrowDown,ArrowLeft"":15,""ArrowDown,ArrowRight"":23}","true","spaceBar","true","","","","","",""
"html-keyboard-response","55","362150","0.0-4.0-10.0-1.0","spark_pilot_norest","12718","2","9","Female","","","","","","","","null","<div style=""font-size:60px;"">+</div>","null","fixation","","","","","","","","","","","",""
"revaluation","56","366154","0.0-4.0-10.0-0.1","spark_pilot_norest","12718","2","9","Female","","false","","","","","","[746]","./assets/img/space/catch/1.jpg","[""spaceBar""]","catch practice","space","0","{""ArrowUp,ArrowLeft"":3,""ArrowUp,ArrowRight"":36,""ArrowDown,ArrowLeft"":15,""ArrowDown,ArrowRight"":23}","true","spaceBar","true","","","","","",""
"html-keyboard-response","57","366655","0.0-4.0-10.0-1.1","spark_pilot_norest","12718","2","9","Female","","","","","","","","null","<div style=""font-size:60px;"">+</div>","null","fixation","","","","","","","","","","","",""
"revaluation","58","370659","0.0-4.0-10.0-0.2","spark_pilot_norest","12718","2","9","Female","","false","","","","","","[654]","./assets/img/space/catch/2.jpg","[""spaceBar""]","catch practice","space","0","{""ArrowUp,ArrowLeft"":3,""ArrowUp,ArrowRight"":36,""ArrowDown,ArrowLeft"":15,""ArrowDown,ArrowRight"":23}","true","spaceBar","true","","","","","",""
"html-keyboard-response","59","371161","0.0-4.0-10.0-1.2","spark_pilot_norest","12718","2","9","Female","","","","","","","","null","<div style=""font-size:60px;"">+</div>","null","fixation","","","","","","","","","","","",""
"learning-instructions","60","378811","0.0-4.0-11.0-0.0-0.0","spark_pilot_norest","12718","2","9","Female","","","","","","","","2428","<p> Now, you will practice a shortened version of the game to get a sense of how it all fits together. </p>","","instructions","","","","","","","","","","","",""
"learning-instructions","61","383511","0.0-4.0-11.0-0.0-0.1","spark_pilot_norest","12718","2","9","Female","","","","","","","","1526","<p>This time you are searching for treasure in outer space.</p>","","instructions","","","","","","","","","","","",""
"learning-instructions","62","402577","0.0-4.0-11.0-1.0-0.0","spark_pilot_norest","12718","2","9","Female","","","","","","","","4324","<p> Remember, when you see a picture of the place, use the up and down keys to <b>find an animal</b>.</p>
            <p> When you encounter an animal, you should use the left and right keys to <b>select a treasure chest</b>.</p>
            <p> Don't forget to look out for the robber! </p>","","instructions","","","","","","","","","","","",""
"revaluation","63","408582","0.0-4.0-11.0-2.0-0.0","spark_pilot_norest","12718","2","9","Female","","false","","","","","","[1536,480]","./assets/img/space/11.jpg","[""ArrowUp"",""ArrowRight""]","practice block","space","36","{""ArrowUp,ArrowLeft"":3,""ArrowUp,ArrowRight"":36,""ArrowDown,ArrowLeft"":15,""ArrowDown,ArrowRight"":23}","true","ArrowUp,ArrowRight","false","","","","","",""
"html-keyboard-response","64","409083","0.0-4.0-11.0-2.0-1.0","spark_pilot_norest","12718","2","9","Female","","","","","","","","null","<div style=""font-size:60px;"">+</div>","null","fixation","","","","","","","","","","","",""
"revaluation","65","415088","0.0-4.0-11.0-2.0-0.1","spark_pilot_norest","12718","2","9","Female","","false","","","","","","[1520.9999999999418,1453]","./assets/img/space/12.jpg","[""ArrowDown"",""ArrowLeft""]","practice block","space","15","{""ArrowUp,ArrowLeft"":3,""ArrowUp,ArrowRight"":36,""ArrowDown,ArrowLeft"":15,""ArrowDown,ArrowRight"":23}","false","ArrowDown,ArrowLeft","false","","","","","",""
"html-keyboard-response","66","415589","0.0-4.0-11.0-2.0-1.1","spark_pilot_norest","12718","2","9","Female","","","","","","","","null","<div style=""font-size:60px;"">+</div>","null","fixation","","","","","","","","","","","",""
"revaluation","67","419593","0.0-4.0-11.0-2.0-0.2","spark_pilot_norest","12718","2","9","Female","","true","","","","","","[]","./assets/img/space/13.jpg","[]","practice block","space","-5","{""ArrowUp,ArrowLeft"":3,""ArrowUp,ArrowRight"":36,""ArrowDown,ArrowLeft"":15,""ArrowDown,ArrowRight"":23}","false","","false","","","","","",""
"html-keyboard-response","68","420094","0.0-4.0-11.0-2.0-1.2","spark_pilot_norest","12718","2","9","Female","","","","","","","","null","<div style=""font-size:60px;"">+</div>","null","fixation","","","","","","","","","","","",""
"revaluation","69","426099","0.0-4.0-11.0-2.0-0.3","spark_pilot_norest","12718","2","9","Female","","false","","","","","","[737,1808.9999999999418]","./assets/img/space/14.jpg","[""ArrowUp"",""ArrowLeft""]","practice block","space","3","{""ArrowUp,ArrowLeft"":3,""ArrowUp,ArrowRight"":36,""ArrowDown,ArrowLeft"":15,""ArrowDown,ArrowRight"":23}","false","ArrowUp,ArrowLeft","false","","","","","",""
"html-keyboard-response","70","426599","0.0-4.0-11.0-2.0-1.3","spark_pilot_norest","12718","2","9","Female","","","","","","","","null","<div style=""font-size:60px;"">+</div>","null","fixation","","","","","","","","","","","",""
"revaluation","71","432603","0.0-4.0-11.0-2.0-0.4","spark_pilot_norest","12718","2","9","Female","","false","","","","","","[1496.0000000000582,946]","./assets/img/space/11.jpg","[""ArrowUp"",""ArrowRight""]","practice block","space","36","{""ArrowUp,ArrowLeft"":3,""ArrowUp,ArrowRight"":36,""ArrowDown,ArrowLeft"":15,""ArrowDown,ArrowRight"":23}","true","ArrowUp,ArrowRight","false","","","","","",""
"html-keyboard-response","72","433105","0.0-4.0-11.0-2.0-1.4","spark_pilot_norest","12718","2","9","Female","","","","","","","","null","<div style=""font-size:60px;"">+</div>","null","fixation","","","","","","","","","","","",""
"revaluation","73","439109","0.0-4.0-11.0-2.0-0.5","spark_pilot_norest","12718","2","9","Female","","false","","","","","","[1825.0000000000582,1684]","./assets/img/space/12.jpg","[""ArrowDown"",""ArrowLeft""]","practice block","space","15","{""ArrowUp,ArrowLeft"":3,""ArrowUp,ArrowRight"":36,""ArrowDown,ArrowLeft"":15,""ArrowDown,ArrowRight"":23}","false","ArrowDown,ArrowLeft","false","","","","","",""
"html-keyboard-response","74","439610","0.0-4.0-11.0-2.0-1.5","spark_pilot_norest","12718","2","9","Female","","","","","","","","null","<div style=""font-size:60px;"">+</div>","null","fixation","","","","","","","","","","","",""
"revaluation","75","445615","0.0-4.0-11.0-2.0-0.6","spark_pilot_norest","12718","2","9","Female","","false","","","","","","[899,1483]","./assets/img/space/13.jpg","[""ArrowDown"",""ArrowLeft""]","practice block","space","15","{""ArrowUp,ArrowLeft"":3,""ArrowUp,ArrowRight"":36,""ArrowDown,ArrowLeft"":15,""ArrowDown,ArrowRight"":23}","false","ArrowDown,ArrowLeft","false","","","","","",""
"html-keyboard-response","76","446117","0.0-4.0-11.0-2.0-1.6","spark_pilot_norest","12718","2","9","Female","","","","","","","","null","<div style=""font-size:60px;"">+</div>","null","fixation","","","","","","","","","","","",""
"revaluation","77","452121","0.0-4.0-11.0-2.0-0.7","spark_pilot_norest","12718","2","9","Female","","false","","","","","","[1210,789]","./assets/img/space/14.jpg","[""ArrowUp"",""ArrowRight""]","practice block","space","36","{""ArrowUp,ArrowLeft"":3,""ArrowUp,ArrowRight"":36,""ArrowDown,ArrowLeft"":15,""ArrowDown,ArrowRight"":23}","true","ArrowUp,ArrowRight","false","","","","","",""
"html-keyboard-response","78","452623","0.0-4.0-11.0-2.0-1.7","spark_pilot_norest","12718","2","9","Female","","","","","","","","null","<div style=""font-size:60px;"">+</div>","null","fixation","","","","","","","","","","","",""
"revaluation","79","456626","0.0-4.0-11.0-2.0-0.8","spark_pilot_norest","12718","2","9","Female","","false","","","","","","[1400]","./assets/img/space/catch/3.jpg","[""spaceBar""]","practice block","space","0","{""ArrowUp,ArrowLeft"":3,""ArrowUp,ArrowRight"":36,""ArrowDown,ArrowLeft"":15,""ArrowDown,ArrowRight"":23}","true","spaceBar","true","","","","","",""
"html-keyboard-response","80","457127","0.0-4.0-11.0-2.0-1.8","spark_pilot_norest","12718","2","9","Female","","","","","","","","null","<div style=""font-size:60px;"">+</div>","null","fixation","","","","","","","","","","","",""
"learning-instructions","81","472977","0.0-4.0-11.0-3.0-0.0","spark_pilot_norest","12718","2","9","Female","","","","","","","","1677.0000000000582","<p> Now, you will travel with a friend who will choose whether you go up or down first. </p>
            <p> On these turns, you will just see the animal that they found. You will still get to choose which chest to search for treasure.</p>","","instructions","","","","","","","","","","","",""
"revaluation","82","476981","0.0-4.0-11.0-4.0-0.0","spark_pilot_norest","12718","2","9","Female","","false","","","","","","[1506.0000000000582]","./assets/img/space/animals/rabbit.jpg","[""ArrowRight""]","practice block","space","23","{""ArrowUp,ArrowLeft"":3,""ArrowUp,ArrowRight"":36,""ArrowDown,ArrowLeft"":15,""ArrowDown,ArrowRight"":23}","true","ArrowDown,ArrowRight","","","","","","",""
"html-keyboard-response","83","477482","0.0-4.0-11.0-4.0-1.0","spark_pilot_norest","12718","2","9","Female","","","","","","","","null","<div style=""font-size:60px;"">+</div>","null","fixation","","","","","","","","","","","",""
"revaluation","84","481486","0.0-4.0-11.0-4.0-0.1","spark_pilot_norest","12718","2","9","Female","","false","","","","","","[997]","./assets/img/space/animals/cat.jpg","[""ArrowLeft""]","practice block","space","3","{""ArrowUp,ArrowLeft"":3,""ArrowUp,ArrowRight"":36,""ArrowDown,ArrowLeft"":15,""ArrowDown,ArrowRight"":23}","false","ArrowUp,ArrowLeft","","","","","","",""
"html-keyboard-response","85","481987","0.0-4.0-11.0-4.0-1.1","spark_pilot_norest","12718","2","9","Female","","","","","","","","null","<div style=""font-size:60px;"">+</div>","null","fixation","","","","","","","","","","","",""
"revaluation","86","485990","0.0-4.0-11.0-4.0-0.2","spark_pilot_norest","12718","2","9","Female","","false","","","","","","[588]","./assets/img/space/animals/cat.jpg","[""ArrowRight""]","practice block","space","36","{""ArrowUp,ArrowLeft"":3,""ArrowUp,ArrowRight"":36,""ArrowDown,ArrowLeft"":15,""ArrowDown,ArrowRight"":23}","true","ArrowUp,ArrowRight","","","","","","",""
"html-keyboard-response","87","486492","0.0-4.0-11.0-4.0-1.2","spark_pilot_norest","12718","2","9","Female","","","","","","","","null","<div style=""font-size:60px;"">+</div>","null","fixation","","","","","","","","","","","",""
"revaluation","88","490495","0.0-4.0-11.0-4.0-0.3","spark_pilot_norest","12718","2","9","Female","","false","","","","","","[517]","./assets/img/space/animals/rabbit.jpg","[""ArrowLeft""]","practice block","space","15","{""ArrowUp,ArrowLeft"":3,""ArrowUp,ArrowRight"":36,""ArrowDown,ArrowLeft"":15,""ArrowDown,ArrowRight"":23}","false","ArrowDown,ArrowLeft","","","","","","",""
"html-keyboard-response","89","490997","0.0-4.0-11.0-4.0-1.3","spark_pilot_norest","12718","2","9","Female","","","","","","","","null","<div style=""font-size:60px;"">+</div>","null","fixation","","","","","","","","","","","",""
"learning-instructions","90","499908","0.0-4.0-11.0-5.0-0.0","spark_pilot_norest","12718","2","9","Female","","","","","","","","null","<p> You have almost finished this part of the game! </p>
            <p> We are going to ask you to make a few more choices. </p>","","instructions","","","","","","","","","","","",""
"learning-instructions","91","515892","0.0-4.0-11.0-5.0-0.1","spark_pilot_norest","12718","2","9","Female","","","","","","","","null","<p> First, you need to decide whether to go up or down. When you see each picture, use the arrow keys to make your choice. </p>
            <p><b>You will not see which animal you found, but try to get to the one that will give you the most treasure.</b></p>","","instructions","","","","","","","","","","","",""
"html-keyboard-response","92","516893","0.0-4.0-11.0-6.0-0.0","spark_pilot_norest","12718","2","9","Female","","","","","","","","null","<div style=""font-size:100px;color:red;"">Starting in...</div>","null","","","","","","","","","","","","",""
"html-keyboard-response","93","517895","0.0-4.0-11.0-6.0-1.0","spark_pilot_norest","12718","2","9","Female","","","","","","","","null","<div style=""font-size:200px;color:red;"">3</div>","null","","","","","","","","","","","","",""
"html-keyboard-response","94","518896","0.0-4.0-11.0-6.0-2.0","spark_pilot_norest","12718","2","9","Female","","","","","","","","null","<div style=""font-size:200px;color:red;"">2</div>","null","","","","","","","","","","","","",""
"html-keyboard-response","95","519897","0.0-4.0-11.0-6.0-3.0","spark_pilot_norest","12718","2","9","Female","","","","","","","","null","<div style=""font-size:200px;color:red;"">1</div>","null","","","","","","","","","","","","",""
"revaluation","96","520492","0.0-4.0-11.0-7.0","spark_pilot_norest","12718","2","9","Female","","false","","","","","","[593]","./assets/img/space/15.jpg","[""ArrowUp""]","practice block","space","0","{""ArrowUp,ArrowLeft"":3,""ArrowUp,ArrowRight"":36,""ArrowDown,ArrowLeft"":15,""ArrowDown,ArrowRight"":23}","true","ArrowUp","false","","","","","",""
"html-keyboard-response","97","520993","0.0-4.0-11.0-8.0","spark_pilot_norest","12718","2","9","Female","","","","","","","","null","<div style=""font-size:60px;"">+</div>","null","fixation","","","","","","","","","","","",""
"learning-instructions","98","535347","0.0-4.0-11.0-9.0-0.0","spark_pilot_norest","12718","2","9","Female","","","","","","","","null","<p> Now you will see the animals again and can search their chests for treasure. </p>
            <p> This time, you will not see how much treasure you earned, but you will earn more bonus money for making better choices. </p>","","instructions","","","","","","","","","","","",""
"html-keyboard-response","99","536349","0.0-4.0-11.0-10.0-0.0","spark_pilot_norest","12718","2","9","Female","","","","","","","","null","<div style=""font-size:100px;color:red;"">Starting in...</div>","null","","","","","","","","","","","","",""
"html-keyboard-response","100","537350","0.0-4.0-11.0-10.0-1.0","spark_pilot_norest","12718","2","9","Female","","","","","","","","null","<div style=""font-size:200px;color:red;"">3</div>","null","","","","","","","","","","","","",""
"html-keyboard-response","101","538351","0.0-4.0-11.0-10.0-2.0","spark_pilot_norest","12718","2","9","Female","","","","","","","","null","<div style=""font-size:200px;color:red;"">2</div>","null","","","","","","","","","","","","",""
"html-keyboard-response","102","539352","0.0-4.0-11.0-10.0-3.0","spark_pilot_norest","12718","2","9","Female","","","","","","","","null","<div style=""font-size:200px;color:red;"">1</div>","null","","","","","","","","","","","","",""
"revaluation","103","540731","0.0-4.0-11.0-11.0-0.0","spark_pilot_norest","12718","2","9","Female","","false","","","","","","[1376.9999999998836]","./assets/img/space/animals/cat.jpg","[""ArrowRight""]","practice block","space","0","{""ArrowUp,ArrowLeft"":3,""ArrowUp,ArrowRight"":36,""ArrowDown,ArrowLeft"":15,""ArrowDown,ArrowRight"":23}","true","ArrowUp,ArrowRight","","","","","","",""
"html-keyboard-response","104","541233","0.0-4.0-11.0-11.0-1.0","spark_pilot_norest","12718","2","9","Female","","","","","","","","null","<div style=""font-size:60px;"">+</div>","null","fixation","","","","","","","","","","","",""
"revaluation","105","542518","0.0-4.0-11.0-11.0-0.1","spark_pilot_norest","12718","2","9","Female","","false","","","","","","[1284]","./assets/img/space/animals/rabbit.jpg","[""ArrowLeft""]","practice block","space","0","{""ArrowUp,ArrowLeft"":3,""ArrowUp,ArrowRight"":36,""ArrowDown,ArrowLeft"":15,""ArrowDown,ArrowRight"":23}","false","ArrowDown,ArrowLeft","","","","","","",""
"html-keyboard-response","106","543019","0.0-4.0-11.0-11.0-1.1","spark_pilot_norest","12718","2","9","Female","","","","","","","","null","<div style=""font-size:60px;"">+</div>","null","fixation","","","","","","","","","","","",""
"learning-instructions","107","549293","0.0-4.0-12.0-0.0","spark_pilot_norest","12718","2","9","Female","","","","","","","","1711","<p> Before you start, we're going to ask you a few questions about how the game works. </p>","","instructions","","","","","","","","","","","",""
"comp-q","108","557343","0.0-4.0-13.0-0.0-0.0","spark_pilot_norest","12718","2","9","Female","","","","","","","","2486","<p> <b> True or False? </b> </p>
            <p> There can be 50 pieces of treasure in a given animal's chest. </p>","1","comp_question","","","","true","","","","","","","",""
"comp-q","109","567410","0.0-4.0-13.0-0.0-1.0","spark_pilot_norest","12718","2","9","Female","","","","","","","","3430.9999999998836","<p> <b> That's right! </b> The amount of treasure in each chest can range from 0 to 40 pieces. </p>","0","comp_answer","","","","","","","","","","","",""
"comp-q","110","576610","0.0-4.0-13.0-0.1-0.1","spark_pilot_norest","12718","2","9","Female","","","","","","","","1288","<p> <b> True or False? </b> </p><p> In this game, all animals have the same amount of treasure in their left and right chests. </p>","1","comp_question","","","","true","","","","","","","",""
"comp-q","111","583609","0.0-4.0-13.0-0.1-1.1","spark_pilot_norest","12718","2","9","Female","","","","","","","","1783","<p> <b> That's right! </b> Animals have different amounts of treasure in their treasure chests. </p>","0","comp_answer","","","","","","","","","","","",""
"comp-q","112","590910","0.0-4.0-13.0-0.2-0.2","spark_pilot_norest","12718","2","9","Female","","","","","","","","1477","<p> <b> True or False? </b> </p><p> The same animal will always be there if you go up in the same place. </p>","1","comp_question","","","","false","","","","","","","",""
"comp-q","113","599759","0.0-4.0-13.0-0.2-1.2","spark_pilot_norest","12718","2","9","Female","","","","","","","","2564.0000000001164","<p> <b>Incorrect.</b> One animal lives in the upper part and one lives in the lower part of every place. </p>","0","comp_answer","","","","","","","","","","","",""
"comp-q","114","606577","0.0-4.0-13.0-0.3-0.3","spark_pilot_norest","12718","2","9","Female","","","","","","","","996.9999999998836","<p> <b> True or False? </b> </p><p> The same animal will always be there if you go up in the same place. </p>","0","comp_question","","","","true","","","","","","","",""
"comp-q","115","615460","0.0-4.0-13.0-0.3-1.3","spark_pilot_norest","12718","2","9","Female","","","","","","","","1652","<p> <b> That's right! </b> One animal lives in the upper part and one lives in the lower part of every place. </p>","0","comp_answer","","","","","","","","","","","",""
"comp-q","116","622992","0.0-4.0-13.0-0.4-0.4","spark_pilot_norest","12718","2","9","Female","","","","","","","","2030","<p> <b> True or False? </b> </p><p> If you see a different picture, it means you are in a new place. </p>","0","comp_question","","","","false","","","","","","","",""
"comp-q","117","636443","0.0-4.0-13.0-0.4-1.4","spark_pilot_norest","12718","2","9","Female","","","","","","","","2381","<p> <b>Incorrect.</b> Lots of different images may show the same place. For example,  you may see three different images that all remind you that you are in outer space. </p>","0","comp_answer","","","","","","","","","","","",""
"comp-q","118","648860","0.0-4.0-13.0-0.5-0.5","spark_pilot_norest","12718","2","9","Female","","","","","","","","6918","<p> <b> True or False? </b> </p><p> If you see a different picture, it means you are in a new place. </p>","1","comp_question","","","","true","","","","","","","",""
"comp-q","119","662059","0.0-4.0-13.0-0.5-1.5","spark_pilot_norest","12718","2","9","Female","","","","","","","","1080","<p> <b> That's right! </b> Lots of different images may show the same place. For example,  you may see three different images that all remind you that you are in outer space. </p>","0","comp_answer","","","","","","","","","","","",""
"learning-instructions","120","675560","0.0-4.0-14.0-0.0","spark_pilot_norest","12718","2","9","Female","","","","","","","","2549","<p> Good job. Remember to do your best because the amount of treasure you earn will be converted into bonus money. </p>
            <p> It’s time to start the real game! </p>","","instructions","","","","","","","","","","","",""
"learning-instructions","121","683309","0.0-5.0-0.0-0.0","spark_pilot_norest","12718","2","9","Female","","","","","","","","5057","<p> This time you are searching for treasure in the <b>ocean</b>.</p>","","instructions","","","","","","","","","","","",""
"learning-instructions","122","701793","0.0-5.0-0.0-0.1","spark_pilot_norest","12718","2","9","Female","","","","","","","","1220","<p><b>New</b> animals with <b>new</b> treasure chests live here. You need to explore to discover where the animal with the best treasure chest is.</p>
                    <p> Like before, once you figure out which animal has the chest with the most treasure, you should try to get to that animal and select that chest! </p>","","instructions","","","","","","","","","","","",""
"learning-instructions","123","717693","0.0-5.0-1.0-0.0","spark_pilot_norest","12718","2","9","Female","","","","","","","","1172","<p> Remember, when you see a picture of the place, use the up and down keys to <b>find an animal</b>.</p>
            <p> When you encounter an animal, you should use the left and right keys to <b>select a treasure chest</b>.</p>
            <p> Don't forget to look out for the robber! </p>","","instructions","","","","","","","","","","","",""
"revaluation","124","721696","0.0-5.0-2.0-0.0","spark_pilot_norest","12718","2","9","Female","","true","","","","","","[]","./assets/img/ocean/memory/27.jpg","[]","value training","ocean","-5","{""ArrowUp,ArrowLeft"":23,""ArrowUp,ArrowRight"":10,""ArrowDown,ArrowLeft"":8,""ArrowDown,ArrowRight"":30}","false","","false","revaluation","1","0","","",""
"html-keyboard-response","125","722198","0.0-5.0-2.0-1.0","spark_pilot_norest","12718","2","9","Female","","","","","","","","null","<div style=""font-size:60px;"">+</div>","null","fixation","","","","","","","","","1","","",""
"revaluation","126","728202","0.0-5.0-2.0-0.1","spark_pilot_norest","12718","2","9","Female","","false","","","","","","[588,1467]","./assets/img/ocean/memory/3.jpg","[""ArrowUp"",""ArrowLeft""]","value training","ocean","23","{""ArrowUp,ArrowLeft"":23,""ArrowUp,ArrowRight"":10,""ArrowDown,ArrowLeft"":8,""ArrowDown,ArrowRight"":30}","false","ArrowUp,ArrowLeft","false","revaluation","1","2","","",""
"html-keyboard-response","127","728703","0.0-5.0-2.0-1.1","spark_pilot_norest","12718","2","9","Female","","","","","","","","null","<div style=""font-size:60px;"">+</div>","null","fixation","","","","","","","","","3","","",""
"revaluation","128","734708","0.0-5.0-2.0-0.2","spark_pilot_norest","12718","2","9","Female","","false","","","","","","[787,1288]","./assets/img/ocean/memory/41.jpg","[""ArrowUp"",""ArrowRight""]","value training","ocean","10","{""ArrowUp,ArrowLeft"":23,""ArrowUp,ArrowRight"":10,""ArrowDown,ArrowLeft"":8,""ArrowDown,ArrowRight"":30}","false","ArrowUp,ArrowRight","false","revaluation","1","4","","",""
"html-keyboard-response","129","735209","0.0-5.0-2.0-1.2","spark_pilot_norest","12718","2","9","Female","","","","","","","","null","<div style=""font-size:60px;"">+</div>","null","fixation","","","","","","","","","5","","",""
"revaluation","130","741214","0.0-5.0-2.0-0.3","spark_pilot_norest","12718","2","9","Female","","false","","","","","","[1174.0000000001164,1647]","./assets/img/ocean/memory/40.jpg","[""ArrowDown"",""ArrowLeft""]","value training","ocean","8","{""ArrowUp,ArrowLeft"":23,""ArrowUp,ArrowRight"":10,""ArrowDown,ArrowLeft"":8,""ArrowDown,ArrowRight"":30}","false","ArrowDown,ArrowLeft","false","revaluation","1","6","","",""
"html-keyboard-response","131","741716","0.0-5.0-2.0-1.3","spark_pilot_norest","12718","2","9","Female","","","","","","","","null","<div style=""font-size:60px;"">+</div>","null","fixation","","","","","","","","","7","","",""
"revaluation","132","747719","0.0-5.0-2.0-0.4","spark_pilot_norest","12718","2","9","Female","","false","","","","","","[964,1519]","./assets/img/ocean/memory/19.jpg","[""ArrowUp"",""ArrowLeft""]","value training","ocean","23","{""ArrowUp,ArrowLeft"":23,""ArrowUp,ArrowRight"":10,""ArrowDown,ArrowLeft"":8,""ArrowDown,ArrowRight"":30}","false","ArrowUp,ArrowLeft","false","revaluation","1","8","","",""
"html-keyboard-response","133","748219","0.0-5.0-2.0-1.4","spark_pilot_norest","12718","2","9","Female","","","","","","","","null","<div style=""font-size:60px;"">+</div>","null","fixation","","","","","","","","","9","","",""
"revaluation","134","754224","0.0-5.0-2.0-0.5","spark_pilot_norest","12718","2","9","Female","","false","","","","","","[673,1214.9999999998836]","./assets/img/ocean/memory/26.jpg","[""ArrowUp"",""ArrowLeft""]","value training","ocean","23","{""ArrowUp,ArrowLeft"":23,""ArrowUp,ArrowRight"":10,""ArrowDown,ArrowLeft"":8,""ArrowDown,ArrowRight"":30}","false","ArrowUp,ArrowLeft","false","revaluation","1","10","","",""
"html-keyboard-response","135","754725","0.0-5.0-2.0-1.5","spark_pilot_norest","12718","2","9","Female","","","","","","","","null","<div style=""font-size:60px;"">+</div>","null","fixation","","","","","","","","","11","","",""
"revaluation","136","760730","0.0-5.0-2.0-0.6","spark_pilot_norest","12718","2","9","Female","","false","","","","","","[1082.9999999998836,639]","./assets/img/ocean/memory/7.jpg","[""ArrowDown"",""ArrowRight""]","value training","ocean","30","{""ArrowUp,ArrowLeft"":23,""ArrowUp,ArrowRight"":10,""ArrowDown,ArrowLeft"":8,""ArrowDown,ArrowRight"":30}","true","ArrowDown,ArrowRight","false","revaluation","1","12","","",""
"html-keyboard-response","137","761231","0.0-5.0-2.0-1.6","spark_pilot_norest","12718","2","9","Female","","","","","","","","null","<div style=""font-size:60px;"">+</div>","null","fixation","","","","","","","","","13","","",""
"revaluation","138","767236","0.0-5.0-2.0-0.7","spark_pilot_norest","12718","2","9","Female","","false","","","","","","[522,534]","./assets/img/ocean/memory/16.jpg","[""ArrowUp"",""ArrowRight""]","value training","ocean","10","{""ArrowUp,ArrowLeft"":23,""ArrowUp,ArrowRight"":10,""ArrowDown,ArrowLeft"":8,""ArrowDown,ArrowRight"":30}","false","ArrowUp,ArrowRight","false","revaluation","1","14","","",""
"html-keyboard-response","139","767737","0.0-5.0-2.0-1.7","spark_pilot_norest","12718","2","9","Female","","","","","","","","null","<div style=""font-size:60px;"">+</div>","null","fixation","","","","","","","","","15","","",""
"revaluation","140","771741","0.0-5.0-2.0-0.8","spark_pilot_norest","12718","2","9","Female","","false","","","","","","[506]","./assets/img/ocean/catch/0.jpg","[""ArrowDown""]","value training","ocean","-10","{""ArrowUp,ArrowLeft"":23,""ArrowUp,ArrowRight"":10,""ArrowDown,ArrowLeft"":8,""ArrowDown,ArrowRight"":30}","false","ArrowDown","true","revaluation","1","16","","",""
"html-keyboard-response","141","772242","0.0-5.0-2.0-1.8","spark_pilot_norest","12718","2","9","Female","","","","","","","","null","<div style=""font-size:60px;"">+</div>","null","fixation","","","","","","","","","17","","",""
"revaluation","142","778247","0.0-5.0-2.0-0.9","spark_pilot_norest","12718","2","9","Female","","false","","","","","","[1726,800]","./assets/img/ocean/memory/9.jpg","[""ArrowDown"",""ArrowRight""]","value training","ocean","30","{""ArrowUp,ArrowLeft"":23,""ArrowUp,ArrowRight"":10,""ArrowDown,ArrowLeft"":8,""ArrowDown,ArrowRight"":30}","true","ArrowDown,ArrowRight","false","revaluation","1","18","","",""
"html-keyboard-response","143","778748","0.0-5.0-2.0-1.9","spark_pilot_norest","12718","2","9","Female","","","","","","","","null","<div style=""font-size:60px;"">+</div>","null","fixation","","","","","","","","","19","","",""
"revaluation","144","782752","0.0-5.0-2.0-0.10","spark_pilot_norest","12718","2","9","Female","","true","","","","","","[]","./assets/img/ocean/memory/30.jpg","[]","value training","ocean","-5","{""ArrowUp,ArrowLeft"":23,""ArrowUp,ArrowRight"":10,""ArrowDown,ArrowLeft"":8,""ArrowDown,ArrowRight"":30}","false","","false","revaluation","1","20","","",""
"html-keyboard-response","145","783253","0.0-5.0-2.0-1.10","spark_pilot_norest","12718","2","9","Female","","","","","","","","null","<div style=""font-size:60px;"">+</div>","null","fixation","","","","","","","","","21","","",""
"revaluation","146","789257","0.0-5.0-2.0-0.11","spark_pilot_norest","12718","2","9","Female","","false","","","","","","[842,1551.9999999998836]","./assets/img/ocean/memory/18.jpg","[""ArrowDown"",""ArrowRight""]","value training","ocean","30","{""ArrowUp,ArrowLeft"":23,""ArrowUp,ArrowRight"":10,""ArrowDown,ArrowLeft"":8,""ArrowDown,ArrowRight"":30}","true","ArrowDown,ArrowRight","false","revaluation","1","22","","",""
"html-keyboard-response","147","789759","0.0-5.0-2.0-1.11","spark_pilot_norest","12718","2","9","Female","","","","","","","","null","<div style=""font-size:60px;"">+</div>","null","fixation","","","","","","","","","23","","",""
"revaluation","148","795763","0.0-5.0-2.0-0.12","spark_pilot_norest","12718","2","9","Female","","false","","","","","","[680,492.9999999998836]","./assets/img/ocean/memory/5.jpg","[""ArrowDown"",""ArrowLeft""]","value training","ocean","8","{""ArrowUp,ArrowLeft"":23,""ArrowUp,ArrowRight"":10,""ArrowDown,ArrowLeft"":8,""ArrowDown,ArrowRight"":30}","false","ArrowDown,ArrowLeft","false","revaluation","1","24","","",""
"html-keyboard-response","149","796265","0.0-5.0-2.0-1.12","spark_pilot_norest","12718","2","9","Female","","","","","","","","null","<div style=""font-size:60px;"">+</div>","null","fixation","","","","","","","","","25","","",""
"revaluation","150","802269","0.0-5.0-2.0-0.13","spark_pilot_norest","12718","2","9","Female","","false","","","","","","[1175,945]","./assets/img/ocean/memory/14.jpg","[""ArrowUp"",""ArrowRight""]","value training","ocean","10","{""ArrowUp,ArrowLeft"":23,""ArrowUp,ArrowRight"":10,""ArrowDown,ArrowLeft"":8,""ArrowDown,ArrowRight"":30}","false","ArrowUp,ArrowRight","false","revaluation","1","26","","",""
"html-keyboard-response","151","802770","0.0-5.0-2.0-1.13","spark_pilot_norest","12718","2","9","Female","","","","","","","","null","<div style=""font-size:60px;"">+</div>","null","fixation","","","","","","","","","27","","",""
"revaluation","152","808775","0.0-5.0-2.0-0.14","spark_pilot_norest","12718","2","9","Female","","false","","","","","","[970,732]","./assets/img/ocean/memory/5.jpg","[""ArrowUp"",""ArrowRight""]","value training","ocean","10","{""ArrowUp,ArrowLeft"":23,""ArrowUp,ArrowRight"":10,""ArrowDown,ArrowLeft"":8,""ArrowDown,ArrowRight"":30}","false","ArrowUp,ArrowRight","false","revaluation","1","28","","",""
"html-keyboard-response","153","809277","0.0-5.0-2.0-1.14","spark_pilot_norest","12718","2","9","Female","","","","","","","","null","<div style=""font-size:60px;"">+</div>","null","fixation","","","","","","","","","29","","",""
"revaluation","154","815281","0.0-5.0-2.0-0.15","spark_pilot_norest","12718","2","9","Female","","false","","","","","","[869,635]","./assets/img/ocean/memory/39.jpg","[""ArrowUp"",""ArrowRight""]","value training","ocean","10","{""ArrowUp,ArrowLeft"":23,""ArrowUp,ArrowRight"":10,""ArrowDown,ArrowLeft"":8,""ArrowDown,ArrowRight"":30}","false","ArrowUp,ArrowRight","false","revaluation","1","30","","",""
"html-keyboard-response","155","815783","0.0-5.0-2.0-1.15","spark_pilot_norest","12718","2","9","Female","","","","","","","","null","<div style=""font-size:60px;"">+</div>","null","fixation","","","","","","","","","31","","",""
"revaluation","156","821787","0.0-5.0-2.0-0.16","spark_pilot_norest","12718","2","9","Female","","false","","","","","","[956,974.9999999998836]","./assets/img/ocean/memory/12.jpg","[""ArrowDown"",""ArrowRight""]","value training","ocean","30","{""ArrowUp,ArrowLeft"":23,""ArrowUp,ArrowRight"":10,""ArrowDown,ArrowLeft"":8,""ArrowDown,ArrowRight"":30}","true","ArrowDown,ArrowRight","false","revaluation","1","32","","",""
"html-keyboard-response","157","822289","0.0-5.0-2.0-1.16","spark_pilot_norest","12718","2","9","Female","","","","","","","","null","<div style=""font-size:60px;"">+</div>","null","fixation","","","","","","","","","33","","",""
"revaluation","158","828293","0.0-5.0-2.0-0.17","spark_pilot_norest","12718","2","9","Female","","false","","","","","","[984,1275]","./assets/img/ocean/memory/17.jpg","[""ArrowDown"",""ArrowLeft""]","value training","ocean","8","{""ArrowUp,ArrowLeft"":23,""ArrowUp,ArrowRight"":10,""ArrowDown,ArrowLeft"":8,""ArrowDown,ArrowRight"":30}","false","ArrowDown,ArrowLeft","false","revaluation","1","34","","",""
"html-keyboard-response","159","828795","0.0-5.0-2.0-1.17","spark_pilot_norest","12718","2","9","Female","","","","","","","","null","<div style=""font-size:60px;"">+</div>","null","fixation","","","","","","","","","35","","",""
"revaluation","160","834799","0.0-5.0-2.0-0.18","spark_pilot_norest","12718","2","9","Female","","false","","","","","","[927,1224]","./assets/img/ocean/memory/40.jpg","[""ArrowUp"",""ArrowRight""]","value training","ocean","10","{""ArrowUp,ArrowLeft"":23,""ArrowUp,ArrowRight"":10,""ArrowDown,ArrowLeft"":8,""ArrowDown,ArrowRight"":30}","false","ArrowUp,ArrowRight","false","revaluation","1","36","","",""
"html-keyboard-response","161","835301","0.0-5.0-2.0-1.18","spark_pilot_norest","12718","2","9","Female","","","","","","","","null","<div style=""font-size:60px;"">+</div>","null","fixation","","","","","","","","","37","","",""
"revaluation","162","841305","0.0-5.0-2.0-0.19","spark_pilot_norest","12718","2","9","Female","","false","","","","","","[960,1075]","./assets/img/ocean/memory/39.jpg","[""ArrowDown"",""ArrowRight""]","value training","ocean","30","{""ArrowUp,ArrowLeft"":23,""ArrowUp,ArrowRight"":10,""ArrowDown,ArrowLeft"":8,""ArrowDown,ArrowRight"":30}","true","ArrowDown,ArrowRight","false","revaluation","1","38","","",""
"html-keyboard-response","163","841807","0.0-5.0-2.0-1.19","spark_pilot_norest","12718","2","9","Female","","","","","","","","null","<div style=""font-size:60px;"">+</div>","null","fixation","","","","","","","","","39","","",""
"revaluation","164","847811","0.0-5.0-2.0-0.20","spark_pilot_norest","12718","2","9","Female","","false","","","","","","[1027,901.9999999998836]","./assets/img/ocean/memory/30.jpg","[""ArrowUp"",""ArrowRight""]","value training","ocean","10","{""ArrowUp,ArrowLeft"":23,""ArrowUp,ArrowRight"":10,""ArrowDown,ArrowLeft"":8,""ArrowDown,ArrowRight"":30}","false","ArrowUp,ArrowRight","false","revaluation","1","40","","",""
"html-keyboard-response","165","848313","0.0-5.0-2.0-1.20","spark_pilot_norest","12718","2","9","Female","","","","","","","","null","<div style=""font-size:60px;"">+</div>","null","fixation","","","","","","","","","41","","",""
"revaluation","166","852317","0.0-5.0-2.0-0.21","spark_pilot_norest","12718","2","9","Female","","false","","","","","","[1835]","./assets/img/ocean/catch/1.jpg","[""spaceBar""]","value training","ocean","0","{""ArrowUp,ArrowLeft"":23,""ArrowUp,ArrowRight"":10,""ArrowDown,ArrowLeft"":8,""ArrowDown,ArrowRight"":30}","true","spaceBar","true","revaluation","1","42","","",""
"html-keyboard-response","167","852818","0.0-5.0-2.0-1.21","spark_pilot_norest","12718","2","9","Female","","","","","","","","null","<div style=""font-size:60px;"">+</div>","null","fixation","","","","","","","","","43","","",""
"revaluation","168","858823","0.0-5.0-2.0-0.22","spark_pilot_norest","12718","2","9","Female","","false","","","","","","[898,738]","./assets/img/ocean/memory/36.jpg","[""ArrowDown"",""ArrowRight""]","value training","ocean","30","{""ArrowUp,ArrowLeft"":23,""ArrowUp,ArrowRight"":10,""ArrowDown,ArrowLeft"":8,""ArrowDown,ArrowRight"":30}","true","ArrowDown,ArrowRight","false","revaluation","1","44","","",""
"html-keyboard-response","169","859324","0.0-5.0-2.0-1.22","spark_pilot_norest","12718","2","9","Female","","","","","","","","null","<div style=""font-size:60px;"">+</div>","null","fixation","","","","","","","","","45","","",""
"revaluation","170","863327","0.0-5.0-2.0-0.23","spark_pilot_norest","12718","2","9","Female","","false","","","","","","[1501]","./assets/img/ocean/catch/2.jpg","[""spaceBar""]","value training","ocean","0","{""ArrowUp,ArrowLeft"":23,""ArrowUp,ArrowRight"":10,""ArrowDown,ArrowLeft"":8,""ArrowDown,ArrowRight"":30}","true","spaceBar","true","revaluation","1","46","","",""
"html-keyboard-response","171","863828","0.0-5.0-2.0-1.23","spark_pilot_norest","12718","2","9","Female","","","","","","","","null","<div style=""font-size:60px;"">+</div>","null","fixation","","","","","","","","","47","","",""
"revaluation","172","869833","0.0-5.0-2.0-0.24","spark_pilot_norest","12718","2","9","Female","","false","","","","","","[858,749]","./assets/img/ocean/memory/8.jpg","[""ArrowUp"",""ArrowLeft""]","value training","ocean","23","{""ArrowUp,ArrowLeft"":23,""ArrowUp,ArrowRight"":10,""ArrowDown,ArrowLeft"":8,""ArrowDown,ArrowRight"":30}","false","ArrowUp,ArrowLeft","false","revaluation","1","48","","",""
"html-keyboard-response","173","870334","0.0-5.0-2.0-1.24","spark_pilot_norest","12718","2","9","Female","","","","","","","","null","<div style=""font-size:60px;"">+</div>","null","fixation","","","","","","","","","49","","",""
"revaluation","174","876338","0.0-5.0-2.0-0.25","spark_pilot_norest","12718","2","9","Female","","false","","","","","","[1771,1978]","./assets/img/ocean/memory/26.jpg","[""ArrowDown"",""ArrowLeft""]","value training","ocean","8","{""ArrowUp,ArrowLeft"":23,""ArrowUp,ArrowRight"":10,""ArrowDown,ArrowLeft"":8,""ArrowDown,ArrowRight"":30}","false","ArrowDown,ArrowLeft","false","revaluation","1","50","","",""
"html-keyboard-response","175","876840","0.0-5.0-2.0-1.25","spark_pilot_norest","12718","2","9","Female","","","","","","","","null","<div style=""font-size:60px;"">+</div>","null","fixation","","","","","","","","","51","","",""
"revaluation","176","880843","0.0-5.0-2.0-0.26","spark_pilot_norest","12718","2","9","Female","","false","","","","","","[1558]","./assets/img/ocean/catch/4.jpg","[""spaceBar""]","value training","ocean","0","{""ArrowUp,ArrowLeft"":23,""ArrowUp,ArrowRight"":10,""ArrowDown,ArrowLeft"":8,""ArrowDown,ArrowRight"":30}","true","spaceBar","true","revaluation","1","52","","",""
"html-keyboard-response","177","881344","0.0-5.0-2.0-1.26","spark_pilot_norest","12718","2","9","Female","","","","","","","","null","<div style=""font-size:60px;"">+</div>","null","fixation","","","","","","","","","53","","",""
"revaluation","178","887349","0.0-5.0-2.0-0.27","spark_pilot_norest","12718","2","9","Female","","false","","","","","","[1535,941]","./assets/img/ocean/memory/36.jpg","[""ArrowDown"",""ArrowRight""]","value training","ocean","30","{""ArrowUp,ArrowLeft"":23,""ArrowUp,ArrowRight"":10,""ArrowDown,ArrowLeft"":8,""ArrowDown,ArrowRight"":30}","true","ArrowDown,ArrowRight","false","revaluation","1","54","","",""
"html-keyboard-response","179","887850","0.0-5.0-2.0-1.27","spark_pilot_norest","12718","2","9","Female","","","","","","","","null","<div style=""font-size:60px;"">+</div>","null","fixation","","","","","","","","","55","","",""
"revaluation","180","893854","0.0-5.0-2.0-0.28","spark_pilot_norest","12718","2","9","Female","","false","","","","","","[771,1005.9999999998836]","./assets/img/ocean/memory/38.jpg","[""ArrowDown"",""ArrowLeft""]","value training","ocean","8","{""ArrowUp,ArrowLeft"":23,""ArrowUp,ArrowRight"":10,""ArrowDown,ArrowLeft"":8,""ArrowDown,ArrowRight"":30}","false","ArrowDown,ArrowLeft","false","revaluation","1","56","","",""
"html-keyboard-response","181","894355","0.0-5.0-2.0-1.28","spark_pilot_norest","12718","2","9","Female","","","","","","","","null","<div style=""font-size:60px;"">+</div>","null","fixation","","","","","","","","","57","","",""
"revaluation","182","900359","0.0-5.0-2.0-0.29","spark_pilot_norest","12718","2","9","Female","","false","","","","","","[1752.0000000001164,801]","./assets/img/ocean/memory/7.jpg","[""ArrowDown"",""ArrowRight""]","value training","ocean","30","{""ArrowUp,ArrowLeft"":23,""ArrowUp,ArrowRight"":10,""ArrowDown,ArrowLeft"":8,""ArrowDown,ArrowRight"":30}","true","ArrowDown,ArrowRight","false","revaluation","1","58","","",""
"html-keyboard-response","183","900860","0.0-5.0-2.0-1.29","spark_pilot_norest","12718","2","9","Female","","","","","","","","null","<div style=""font-size:60px;"">+</div>","null","fixation","","","","","","","","","59","","",""
"revaluation","184","906864","0.0-5.0-2.0-0.30","spark_pilot_norest","12718","2","9","Female","","false","","","","","","[1085,1475]","./assets/img/ocean/memory/24.jpg","[""ArrowDown"",""ArrowRight""]","value training","ocean","30","{""ArrowUp,ArrowLeft"":23,""ArrowUp,ArrowRight"":10,""ArrowDown,ArrowLeft"":8,""ArrowDown,ArrowRight"":30}","true","ArrowDown,ArrowRight","false","revaluation","1","60","","",""
"html-keyboard-response","185","907365","0.0-5.0-2.0-1.30","spark_pilot_norest","12718","2","9","Female","","","","","","","","null","<div style=""font-size:60px;"">+</div>","null","fixation","","","","","","","","","61","","",""
"revaluation","186","913370","0.0-5.0-2.0-0.31","spark_pilot_norest","12718","2","9","Female","","false","","","","","","[884,625]","./assets/img/ocean/memory/8.jpg","[""ArrowDown"",""ArrowRight""]","value training","ocean","30","{""ArrowUp,ArrowLeft"":23,""ArrowUp,ArrowRight"":10,""ArrowDown,ArrowLeft"":8,""ArrowDown,ArrowRight"":30}","true","ArrowDown,ArrowRight","false","revaluation","1","62","","",""
"html-keyboard-response","187","913871","0.0-5.0-2.0-1.31","spark_pilot_norest","12718","2","9","Female","","","","","","","","null","<div style=""font-size:60px;"">+</div>","null","fixation","","","","","","","","","63","","",""
"revaluation","188","919875","0.0-5.0-2.0-0.32","spark_pilot_norest","12718","2","9","Female","","false","","","","","","[844.9999999998836,1245]","./assets/img/ocean/memory/38.jpg","[""ArrowDown"",""ArrowRight""]","value training","ocean","30","{""ArrowUp,ArrowLeft"":23,""ArrowUp,ArrowRight"":10,""ArrowDown,ArrowLeft"":8,""ArrowDown,ArrowRight"":30}","true","ArrowDown,ArrowRight","false","revaluation","1","64","","",""
"html-keyboard-response","189","920376","0.0-5.0-2.0-1.32","spark_pilot_norest","12718","2","9","Female","","","","","","","","null","<div style=""font-size:60px;"">+</div>","null","fixation","","","","","","","","","65","","",""
"revaluation","190","926380","0.0-5.0-2.0-0.33","spark_pilot_norest","12718","2","9","Female","","false","","","","","","[863.9999999998836,544]","./assets/img/ocean/memory/12.jpg","[""ArrowUp"",""ArrowLeft""]","value training","ocean","23","{""ArrowUp,ArrowLeft"":23,""ArrowUp,ArrowRight"":10,""ArrowDown,ArrowLeft"":8,""ArrowDown,ArrowRight"":30}","false","ArrowUp,ArrowLeft","false","revaluation","1","66","","",""
"html-keyboard-response","191","926880","0.0-5.0-2.0-1.33","spark_pilot_norest","12718","2","9","Female","","","","","","","","null","<div style=""font-size:60px;"">+</div>","null","fixation","","","","","","","","","67","","",""
"revaluation","192","930884","0.0-5.0-2.0-0.34","spark_pilot_norest","12718","2","9","Female","","false","","","","","","[1752]","./assets/img/ocean/catch/6.jpg","[""spaceBar""]","value training","ocean","0","{""ArrowUp,ArrowLeft"":23,""ArrowUp,ArrowRight"":10,""ArrowDown,ArrowLeft"":8,""ArrowDown,ArrowRight"":30}","true","spaceBar","true","revaluation","1","68","","",""
"html-keyboard-response","193","931385","0.0-5.0-2.0-1.34","spark_pilot_norest","12718","2","9","Female","","","","","","","","null","<div style=""font-size:60px;"">+</div>","null","fixation","","","","","","","","","69","","",""
"revaluation","194","937388","0.0-5.0-2.0-0.35","spark_pilot_norest","12718","2","9","Female","","false","","","","","","[821,693.9999999998836]","./assets/img/ocean/memory/41.jpg","[""ArrowDown"",""ArrowLeft""]","value training","ocean","8","{""ArrowUp,ArrowLeft"":23,""ArrowUp,ArrowRight"":10,""ArrowDown,ArrowLeft"":8,""ArrowDown,ArrowRight"":30}","false","ArrowDown,ArrowLeft","false","revaluation","1","70","","",""
"html-keyboard-response","195","937890","0.0-5.0-2.0-1.35","spark_pilot_norest","12718","2","9","Female","","","","","","","","null","<div style=""font-size:60px;"">+</div>","null","fixation","","","","","","","","","71","","",""
"revaluation","196","943894","0.0-5.0-2.0-0.36","spark_pilot_norest","12718","2","9","Female","","false","","","","","","[483,847]","./assets/img/ocean/memory/24.jpg","[""ArrowDown"",""ArrowLeft""]","value training","ocean","8","{""ArrowUp,ArrowLeft"":23,""ArrowUp,ArrowRight"":10,""ArrowDown,ArrowLeft"":8,""ArrowDown,ArrowRight"":30}","false","ArrowDown,ArrowLeft","false","revaluation","1","72","","",""
"html-keyboard-response","197","944396","0.0-5.0-2.0-1.36","spark_pilot_norest","12718","2","9","Female","","","","","","","","null","<div style=""font-size:60px;"">+</div>","null","fixation","","","","","","","","","73","","",""
"revaluation","198","950400","0.0-5.0-2.0-0.37","spark_pilot_norest","12718","2","9","Female","","false","","","","","","[1099,1228]","./assets/img/ocean/memory/33.jpg","[""ArrowDown"",""ArrowLeft""]","value training","ocean","8","{""ArrowUp,ArrowLeft"":23,""ArrowUp,ArrowRight"":10,""ArrowDown,ArrowLeft"":8,""ArrowDown,ArrowRight"":30}","false","ArrowDown,ArrowLeft","false","revaluation","1","74","","",""
"html-keyboard-response","199","950902","0.0-5.0-2.0-1.37","spark_pilot_norest","12718","2","9","Female","","","","","","","","null","<div style=""font-size:60px;"">+</div>","null","fixation","","","","","","","","","75","","",""
"revaluation","200","956906","0.0-5.0-2.0-0.38","spark_pilot_norest","12718","2","9","Female","","true","","","","","","[946.0000000001164]","./assets/img/ocean/memory/9.jpg","[""ArrowDown""]","value training","ocean","-5","{""ArrowUp,ArrowLeft"":23,""ArrowUp,ArrowRight"":10,""ArrowDown,ArrowLeft"":8,""ArrowDown,ArrowRight"":30}","false","ArrowDown","false","revaluation","1","76","","",""
"html-keyboard-response","201","957408","0.0-5.0-2.0-1.38","spark_pilot_norest","12718","2","9","Female","","","","","","","","null","<div style=""font-size:60px;"">+</div>","null","fixation","","","","","","","","","77","","",""
"revaluation","202","961411","0.0-5.0-2.0-0.39","spark_pilot_norest","12718","2","9","Female","","true","","","","","","[]","./assets/img/ocean/catch/5.jpg","[]","value training","ocean","-5","{""ArrowUp,ArrowLeft"":23,""ArrowUp,ArrowRight"":10,""ArrowDown,ArrowLeft"":8,""ArrowDown,ArrowRight"":30}","false","","true","revaluation","1","78","","",""
"html-keyboard-response","203","961913","0.0-5.0-2.0-1.39","spark_pilot_norest","12718","2","9","Female","","","","","","","","null","<div style=""font-size:60px;"">+</div>","null","fixation","","","","","","","","","79","","",""
"revaluation","204","965916","0.0-5.0-2.0-0.40","spark_pilot_norest","12718","2","9","Female","","true","","","","","","[]","./assets/img/ocean/memory/14.jpg","[]","value training","ocean","-5","{""ArrowUp,ArrowLeft"":23,""ArrowUp,ArrowRight"":10,""ArrowDown,ArrowLeft"":8,""ArrowDown,ArrowRight"":30}","false","","false","revaluation","1","80","","",""
"html-keyboard-response","205","966418","0.0-5.0-2.0-1.40","spark_pilot_norest","12718","2","9","Female","","","","","","","","null","<div style=""font-size:60px;"">+</div>","null","fixation","","","","","","","","","81","","",""
"revaluation","206","970421","0.0-5.0-2.0-0.41","spark_pilot_norest","12718","2","9","Female","","false","","","","","","[1389]","./assets/img/ocean/catch/7.jpg","[""spaceBar""]","value training","ocean","0","{""ArrowUp,ArrowLeft"":23,""ArrowUp,ArrowRight"":10,""ArrowDown,ArrowLeft"":8,""ArrowDown,ArrowRight"":30}","true","spaceBar","true","revaluation","1","82","","",""
"html-keyboard-response","207","970922","0.0-5.0-2.0-1.41","spark_pilot_norest","12718","2","9","Female","","","","","","","","null","<div style=""font-size:60px;"">+</div>","null","fixation","","","","","","","","","83","","",""
"revaluation","208","976926","0.0-5.0-2.0-0.42","spark_pilot_norest","12718","2","9","Female","","false","","","","","","[1998,1022]","./assets/img/ocean/memory/17.jpg","[""ArrowDown"",""ArrowRight""]","value training","ocean","30","{""ArrowUp,ArrowLeft"":23,""ArrowUp,ArrowRight"":10,""ArrowDown,ArrowLeft"":8,""ArrowDown,ArrowRight"":30}","true","ArrowDown,ArrowRight","false","revaluation","1","84","","",""
"html-keyboard-response","209","977427","0.0-5.0-2.0-1.42","spark_pilot_norest","12718","2","9","Female","","","","","","","","null","<div style=""font-size:60px;"">+</div>","null","fixation","","","","","","","","","85","","",""
"revaluation","210","983430","0.0-5.0-2.0-0.43","spark_pilot_norest","12718","2","9","Female","","false","","","","","","[924,589]","./assets/img/ocean/memory/33.jpg","[""ArrowDown"",""ArrowRight""]","value training","ocean","30","{""ArrowUp,ArrowLeft"":23,""ArrowUp,ArrowRight"":10,""ArrowDown,ArrowLeft"":8,""ArrowDown,ArrowRight"":30}","true","ArrowDown,ArrowRight","false","revaluation","1","86","","",""
"html-keyboard-response","211","983932","0.0-5.0-2.0-1.43","spark_pilot_norest","12718","2","9","Female","","","","","","","","null","<div style=""font-size:60px;"">+</div>","null","fixation","","","","","","","","","87","","",""
"revaluation","212","989935","0.0-5.0-2.0-0.44","spark_pilot_norest","12718","2","9","Female","","false","","","","","","[822,1713]","./assets/img/ocean/memory/19.jpg","[""ArrowDown"",""ArrowRight""]","value training","ocean","30","{""ArrowUp,ArrowLeft"":23,""ArrowUp,ArrowRight"":10,""ArrowDown,ArrowLeft"":8,""ArrowDown,ArrowRight"":30}","true","ArrowDown,ArrowRight","false","revaluation","1","88","","",""
"html-keyboard-response","213","990436","0.0-5.0-2.0-1.44","spark_pilot_norest","12718","2","9","Female","","","","","","","","null","<div style=""font-size:60px;"">+</div>","null","fixation","","","","","","","","","89","","",""
"revaluation","214","996441","0.0-5.0-2.0-0.45","spark_pilot_norest","12718","2","9","Female","","false","","","","","","[661,846]","./assets/img/ocean/memory/16.jpg","[""ArrowUp"",""ArrowLeft""]","value training","ocean","23","{""ArrowUp,ArrowLeft"":23,""ArrowUp,ArrowRight"":10,""ArrowDown,ArrowLeft"":8,""ArrowDown,ArrowRight"":30}","false","ArrowUp,ArrowLeft","false","revaluation","1","90","","",""
"html-keyboard-response","215","996942","0.0-5.0-2.0-1.45","spark_pilot_norest","12718","2","9","Female","","","","","","","","null","<div style=""font-size:60px;"">+</div>","null","fixation","","","","","","","","","91","","",""
"revaluation","216","1002947","0.0-5.0-2.0-0.46","spark_pilot_norest","12718","2","9","Female","","false","","","","","","[785,909]","./assets/img/ocean/memory/3.jpg","[""ArrowDown"",""ArrowRight""]","value training","ocean","30","{""ArrowUp,ArrowLeft"":23,""ArrowUp,ArrowRight"":10,""ArrowDown,ArrowLeft"":8,""ArrowDown,ArrowRight"":30}","true","ArrowDown,ArrowRight","false","revaluation","1","92","","",""
"html-keyboard-response","217","1003448","0.0-5.0-2.0-1.46","spark_pilot_norest","12718","2","9","Female","","","","","","","","null","<div style=""font-size:60px;"">+</div>","null","fixation","","","","","","","","","93","","",""
"revaluation","218","1009452","0.0-5.0-2.0-0.47","spark_pilot_norest","12718","2","9","Female","","false","","","","","","[297,1313.9999999998836]","./assets/img/ocean/memory/18.jpg","[""ArrowDown"",""ArrowRight""]","value training","ocean","30","{""ArrowUp,ArrowLeft"":23,""ArrowUp,ArrowRight"":10,""ArrowDown,ArrowLeft"":8,""ArrowDown,ArrowRight"":30}","true","ArrowDown,ArrowRight","false","revaluation","1","94","","",""
"html-keyboard-response","219","1009953","0.0-5.0-2.0-1.47","spark_pilot_norest","12718","2","9","Female","","","","","","","","null","<div style=""font-size:60px;"">+</div>","null","fixation","","","","","","","","","95","","",""
"revaluation","220","1013957","0.0-5.0-2.0-0.48","spark_pilot_norest","12718","2","9","Female","","true","","","","","","[]","./assets/img/ocean/catch/3.jpg","[]","value training","ocean","-5","{""ArrowUp,ArrowLeft"":23,""ArrowUp,ArrowRight"":10,""ArrowDown,ArrowLeft"":8,""ArrowDown,ArrowRight"":30}","false","","true","revaluation","1","96","","",""
"html-keyboard-response","221","1014458","0.0-5.0-2.0-1.48","spark_pilot_norest","12718","2","9","Female","","","","","","","","null","<div style=""font-size:60px;"">+</div>","null","fixation","","","","","","","","","97","","",""
"revaluation","222","1020463","0.0-5.0-2.0-0.49","spark_pilot_norest","12718","2","9","Female","","false","","","","","","[1131,1205.9999999998836]","./assets/img/ocean/memory/27.jpg","[""ArrowUp"",""ArrowLeft""]","value training","ocean","23","{""ArrowUp,ArrowLeft"":23,""ArrowUp,ArrowRight"":10,""ArrowDown,ArrowLeft"":8,""ArrowDown,ArrowRight"":30}","false","ArrowUp,ArrowLeft","false","revaluation","1","98","","",""
"html-keyboard-response","223","1020964","0.0-5.0-2.0-1.49","spark_pilot_norest","12718","2","9","Female","","","","","","","","null","<div style=""font-size:60px;"">+</div>","null","fixation","","","","","","","","","99","","",""
"learning-instructions","224","1036790","0.0-5.0-3.0-0.0","spark_pilot_norest","12718","2","9","Female","","","","","","","","2945","<p> Now, you will travel with a friend who will choose whether you go up or down first. </p>
            <p> On these turns, you will just see the animal that they found. You will still get to choose which chest to search for treasure.</p>","","instructions","","","","","","","","","","","",""
"revaluation","225","1040793","0.0-5.0-4.0-0.0","spark_pilot_norest","12718","2","9","Female","","false","","","","","","[1279.9999999998836]","./assets/img/ocean/animals/seahorse.jpg","[""ArrowRight""]","revaluation","ocean","15","{""ArrowUp,ArrowLeft"":27,""ArrowUp,ArrowRight"":15,""ArrowDown,ArrowLeft"":21,""ArrowDown,ArrowRight"":7}","false","ArrowUp,ArrowRight","","revaluation","1","0","","",""
"html-keyboard-response","226","1041295","0.0-5.0-4.0-1.0","spark_pilot_norest","12718","2","9","Female","","","","","","","","null","<div style=""font-size:60px;"">+</div>","null","fixation","","","","","","","","","1","","",""
"revaluation","227","1045298","0.0-5.0-4.0-0.1","spark_pilot_norest","12718","2","9","Female","","false","","","","","","[593]","./assets/img/ocean/animals/octopus.jpg","[""ArrowRight""]","revaluation","ocean","7","{""ArrowUp,ArrowLeft"":27,""ArrowUp,ArrowRight"":15,""ArrowDown,ArrowLeft"":21,""ArrowDown,ArrowRight"":7}","false","ArrowDown,ArrowRight","","revaluation","1","2","","",""
"html-keyboard-response","228","1045799","0.0-5.0-4.0-1.1","spark_pilot_norest","12718","2","9","Female","","","","","","","","null","<div style=""font-size:60px;"">+</div>","null","fixation","","","","","","","","","3","","",""
"revaluation","229","1049802","0.0-5.0-4.0-0.2","spark_pilot_norest","12718","2","9","Female","","false","","","","","","[862]","./assets/img/ocean/animals/seahorse.jpg","[""ArrowLeft""]","revaluation","ocean","27","{""ArrowUp,ArrowLeft"":27,""ArrowUp,ArrowRight"":15,""ArrowDown,ArrowLeft"":21,""ArrowDown,ArrowRight"":7}","true","ArrowUp,ArrowLeft","","revaluation","1","4","","",""
"html-keyboard-response","230","1050303","0.0-5.0-4.0-1.2","spark_pilot_norest","12718","2","9","Female","","","","","","","","null","<div style=""font-size:60px;"">+</div>","null","fixation","","","","","","","","","5","","",""
"revaluation","231","1054306","0.0-5.0-4.0-0.3","spark_pilot_norest","12718","2","9","Female","","true","","","","","","[]","./assets/img/ocean/animals/seahorse.jpg","[]","revaluation","ocean","-5","{""ArrowUp,ArrowLeft"":27,""ArrowUp,ArrowRight"":15,""ArrowDown,ArrowLeft"":21,""ArrowDown,ArrowRight"":7}","false","ArrowUp","","revaluation","1","6","","",""
"html-keyboard-response","232","1054808","0.0-5.0-4.0-1.3","spark_pilot_norest","12718","2","9","Female","","","","","","","","null","<div style=""font-size:60px;"">+</div>","null","fixation","","","","","","","","","7","","",""
"revaluation","233","1058811","0.0-5.0-4.0-0.4","spark_pilot_norest","12718","2","9","Female","","false","","","","","","[837]","./assets/img/ocean/animals/octopus.jpg","[""ArrowRight""]","revaluation","ocean","7","{""ArrowUp,ArrowLeft"":27,""ArrowUp,ArrowRight"":15,""ArrowDown,ArrowLeft"":21,""ArrowDown,ArrowRight"":7}","false","ArrowDown,ArrowRight","","revaluation","1","8","","",""
"html-keyboard-response","234","1059312","0.0-5.0-4.0-1.4","spark_pilot_norest","12718","2","9","Female","","","","","","","","null","<div style=""font-size:60px;"">+</div>","null","fixation","","","","","","","","","9","","",""
"revaluation","235","1063316","0.0-5.0-4.0-0.5","spark_pilot_norest","12718","2","9","Female","","false","","","","","","[859.9999999997672]","./assets/img/ocean/animals/seahorse.jpg","[""ArrowLeft""]","revaluation","ocean","27","{""ArrowUp,ArrowLeft"":27,""ArrowUp,ArrowRight"":15,""ArrowDown,ArrowLeft"":21,""ArrowDown,ArrowRight"":7}","true","ArrowUp,ArrowLeft","","revaluation","1","10","","",""
"html-keyboard-response","236","1063817","0.0-5.0-4.0-1.5","spark_pilot_norest","12718","2","9","Female","","","","","","","","null","<div style=""font-size:60px;"">+</div>","null","fixation","","","","","","","","","11","","",""
"revaluation","237","1067819","0.0-5.0-4.0-0.6","spark_pilot_norest","12718","2","9","Female","","false","","","","","","[894]","./assets/img/ocean/animals/seahorse.jpg","[""ArrowRight""]","revaluation","ocean","15","{""ArrowUp,ArrowLeft"":27,""ArrowUp,ArrowRight"":15,""ArrowDown,ArrowLeft"":21,""ArrowDown,ArrowRight"":7}","false","ArrowUp,ArrowRight","","revaluation","1","12","","",""
"html-keyboard-response","238","1068321","0.0-5.0-4.0-1.6","spark_pilot_norest","12718","2","9","Female","","","","","","","","null","<div style=""font-size:60px;"">+</div>","null","fixation","","","","","","","","","13","","",""
"revaluation","239","1072323","0.0-5.0-4.0-0.7","spark_pilot_norest","12718","2","9","Female","","false","","","","","","[1075]","./assets/img/ocean/animals/octopus.jpg","[""ArrowLeft""]","revaluation","ocean","21","{""ArrowUp,ArrowLeft"":27,""ArrowUp,ArrowRight"":15,""ArrowDown,ArrowLeft"":21,""ArrowDown,ArrowRight"":7}","true","ArrowDown,ArrowLeft","","revaluation","1","14","","",""
"html-keyboard-response","240","1072824","0.0-5.0-4.0-1.7","spark_pilot_norest","12718","2","9","Female","","","","","","","","null","<div style=""font-size:60px;"">+</div>","null","fixation","","","","","","","","","15","","",""
"revaluation","241","1076828","0.0-5.0-4.0-0.8","spark_pilot_norest","12718","2","9","Female","","false","","","","","","[1141]","./assets/img/ocean/animals/seahorse.jpg","[""ArrowRight""]","revaluation","ocean","15","{""ArrowUp,ArrowLeft"":27,""ArrowUp,ArrowRight"":15,""ArrowDown,ArrowLeft"":21,""ArrowDown,ArrowRight"":7}","false","ArrowUp,ArrowRight","","revaluation","1","16","","",""
"html-keyboard-response","242","1077328","0.0-5.0-4.0-1.8","spark_pilot_norest","12718","2","9","Female","","","","","","","","null","<div style=""font-size:60px;"">+</div>","null","fixation","","","","","","","","","17","","",""
"revaluation","243","1081332","0.0-5.0-4.0-0.9","spark_pilot_norest","12718","2","9","Female","","false","","","","","","[1127]","./assets/img/ocean/animals/octopus.jpg","[""ArrowLeft""]","revaluation","ocean","21","{""ArrowUp,ArrowLeft"":27,""ArrowUp,ArrowRight"":15,""ArrowDown,ArrowLeft"":21,""ArrowDown,ArrowRight"":7}","true","ArrowDown,ArrowLeft","","revaluation","1","18","","",""
"html-keyboard-response","244","1081833","0.0-5.0-4.0-1.9","spark_pilot_norest","12718","2","9","Female","","","","","","","","null","<div style=""font-size:60px;"">+</div>","null","fixation","","","","","","","","","19","","",""
"revaluation","245","1085837","0.0-5.0-4.0-0.10","spark_pilot_norest","12718","2","9","Female","","false","","","","","","[665]","./assets/img/ocean/animals/octopus.jpg","[""ArrowRight""]","revaluation","ocean","7","{""ArrowUp,ArrowLeft"":27,""ArrowUp,ArrowRight"":15,""ArrowDown,ArrowLeft"":21,""ArrowDown,ArrowRight"":7}","false","ArrowDown,ArrowRight","","revaluation","1","20","","",""
"html-keyboard-response","246","1086338","0.0-5.0-4.0-1.10","spark_pilot_norest","12718","2","9","Female","","","","","","","","null","<div style=""font-size:60px;"">+</div>","null","fixation","","","","","","","","","21","","",""
"revaluation","247","1090342","0.0-5.0-4.0-0.11","spark_pilot_norest","12718","2","9","Female","","false","","","","","","[1424]","./assets/img/ocean/animals/seahorse.jpg","[""ArrowLeft""]","revaluation","ocean","27","{""ArrowUp,ArrowLeft"":27,""ArrowUp,ArrowRight"":15,""ArrowDown,ArrowLeft"":21,""ArrowDown,ArrowRight"":7}","true","ArrowUp,ArrowLeft","","revaluation","1","22","","",""
"html-keyboard-response","248","1090843","0.0-5.0-4.0-1.11","spark_pilot_norest","12718","2","9","Female","","","","","","","","null","<div style=""font-size:60px;"">+</div>","null","fixation","","","","","","","","","23","","",""
"revaluation","249","1094846","0.0-5.0-4.0-0.12","spark_pilot_norest","12718","2","9","Female","","false","","","","","","[1367]","./assets/img/ocean/animals/octopus.jpg","[""ArrowLeft""]","revaluation","ocean","21","{""ArrowUp,ArrowLeft"":27,""ArrowUp,ArrowRight"":15,""ArrowDown,ArrowLeft"":21,""ArrowDown,ArrowRight"":7}","true","ArrowDown,ArrowLeft","","revaluation","1","24","","",""
"html-keyboard-response","250","1095348","0.0-5.0-4.0-1.12","spark_pilot_norest","12718","2","9","Female","","","","","","","","null","<div style=""font-size:60px;"">+</div>","null","fixation","","","","","","","","","25","","",""
"revaluation","251","1099351","0.0-5.0-4.0-0.13","spark_pilot_norest","12718","2","9","Female","","false","","","","","","[1401]","./assets/img/ocean/animals/seahorse.jpg","[""ArrowLeft""]","revaluation","ocean","27","{""ArrowUp,ArrowLeft"":27,""ArrowUp,ArrowRight"":15,""ArrowDown,ArrowLeft"":21,""ArrowDown,ArrowRight"":7}","true","ArrowUp,ArrowLeft","","revaluation","1","26","","",""
"html-keyboard-response","252","1099852","0.0-5.0-4.0-1.13","spark_pilot_norest","12718","2","9","Female","","","","","","","","null","<div style=""font-size:60px;"">+</div>","null","fixation","","","","","","","","","27","","",""
"revaluation","253","1103855","0.0-5.0-4.0-0.14","spark_pilot_norest","12718","2","9","Female","","false","","","","","","[1591]","./assets/img/ocean/animals/octopus.jpg","[""ArrowRight""]","revaluation","ocean","7","{""ArrowUp,ArrowLeft"":27,""ArrowUp,ArrowRight"":15,""ArrowDown,ArrowLeft"":21,""ArrowDown,ArrowRight"":7}","false","ArrowDown,ArrowRight","","revaluation","1","28","","",""
"html-keyboard-response","254","1104356","0.0-5.0-4.0-1.14","spark_pilot_norest","12718","2","9","Female","","","","","","","","null","<div style=""font-size:60px;"">+</div>","null","fixation","","","","","","","","","29","","",""
"revaluation","255","1108359","0.0-5.0-4.0-0.15","spark_pilot_norest","12718","2","9","Female","","false","","","","","","[1654]","./assets/img/ocean/animals/octopus.jpg","[""ArrowLeft""]","revaluation","ocean","21","{""ArrowUp,ArrowLeft"":27,""ArrowUp,ArrowRight"":15,""ArrowDown,ArrowLeft"":21,""ArrowDown,ArrowRight"":7}","true","ArrowDown,ArrowLeft","","revaluation","1","30","","",""
"html-keyboard-response","256","1108861","0.0-5.0-4.0-1.15","spark_pilot_norest","12718","2","9","Female","","","","","","","","null","<div style=""font-size:60px;"">+</div>","null","fixation","","","","","","","","","31","","",""
"revaluation","257","1112864","0.0-5.0-4.0-0.16","spark_pilot_norest","12718","2","9","Female","","false","","","","","","[673]","./assets/img/ocean/animals/octopus.jpg","[""ArrowLeft""]","revaluation","ocean","21","{""ArrowUp,ArrowLeft"":27,""ArrowUp,ArrowRight"":15,""ArrowDown,ArrowLeft"":21,""ArrowDown,ArrowRight"":7}","true","ArrowDown,ArrowLeft","","revaluation","1","32","","",""
"html-keyboard-response","258","1113366","0.0-5.0-4.0-1.16","spark_pilot_norest","12718","2","9","Female","","","","","","","","null","<div style=""font-size:60px;"">+</div>","null","fixation","","","","","","","","","33","","",""
"revaluation","259","1117369","0.0-5.0-4.0-0.17","spark_pilot_norest","12718","2","9","Female","","false","","","","","","[1081]","./assets/img/ocean/animals/seahorse.jpg","[""ArrowLeft""]","revaluation","ocean","27","{""ArrowUp,ArrowLeft"":27,""ArrowUp,ArrowRight"":15,""ArrowDown,ArrowLeft"":21,""ArrowDown,ArrowRight"":7}","true","ArrowUp,ArrowLeft","","revaluation","1","34","","",""
"html-keyboard-response","260","1117870","0.0-5.0-4.0-1.17","spark_pilot_norest","12718","2","9","Female","","","","","","","","null","<div style=""font-size:60px;"">+</div>","null","fixation","","","","","","","","","35","","",""
"learning-instructions","261","1125970","0.0-5.0-5.0-0.0","spark_pilot_norest","12718","2","9","Female","","","","","","","","null","<p> You have almost finished this part of the game! </p>
            <p> We are going to ask you to make a few more choices. </p>","","instructions","","","","","","","","","","","",""
"learning-instructions","262","1141942","0.0-5.0-5.0-0.1","spark_pilot_norest","12718","2","9","Female","","","","","","","","null","<p> First, you need to decide whether to go up or down. When you see each picture, use the arrow keys to make your choice. </p>
            <p><b>You will not see which animal you found, but try to get to the one that will give you the most treasure.</b></p>","","instructions","","","","","","","","","","","",""
"html-keyboard-response","263","1142944","0.0-5.0-6.0-0.0","spark_pilot_norest","12718","2","9","Female","","","","","","","","null","<div style=""font-size:100px;color:red;"">Starting in...</div>","null","","","","","","","","","","","","",""
"html-keyboard-response","264","1143945","0.0-5.0-6.0-1.0","spark_pilot_norest","12718","2","9","Female","","","","","","","","null","<div style=""font-size:200px;color:red;"">3</div>","null","","","","","","","","","","","","",""
"html-keyboard-response","265","1144946","0.0-5.0-6.0-2.0","spark_pilot_norest","12718","2","9","Female","","","","","","","","null","<div style=""font-size:200px;color:red;"">2</div>","null","","","","","","","","","","","","",""
"html-keyboard-response","266","1145948","0.0-5.0-6.0-3.0","spark_pilot_norest","12718","2","9","Female","","","","","","","","null","<div style=""font-size:200px;color:red;"">1</div>","null","","","","","","","","","","","","",""
"revaluation","267","1146669","0.0-5.0-7.0-0.0","spark_pilot_norest","12718","2","9","Female","","false","","","","","","[720]","./assets/img/ocean/test/0.jpg","[""ArrowDown""]","first stage test","ocean","0","{""ArrowUp,ArrowLeft"":27,""ArrowUp,ArrowRight"":15,""ArrowDown,ArrowLeft"":21,""ArrowDown,ArrowRight"":7}","false","ArrowDown","false","revaluation","1","","","",""
"html-keyboard-response","268","1147170","0.0-5.0-7.0-1.0","spark_pilot_norest","12718","2","9","Female","","","","","","","","null","<div style=""font-size:60px;"">+</div>","null","fixation","","","","","","","","","","","",""
"revaluation","269","1148066","0.0-5.0-7.0-0.1","spark_pilot_norest","12718","2","9","Female","","false","","","","","","[894.9999999997672]","./assets/img/ocean/test/1.jpg","[""ArrowDown""]","first stage test","ocean","0","{""ArrowUp,ArrowLeft"":27,""ArrowUp,ArrowRight"":15,""ArrowDown,ArrowLeft"":21,""ArrowDown,ArrowRight"":7}","false","ArrowDown","false","revaluation","1","","","",""
"html-keyboard-response","270","1148567","0.0-5.0-7.0-1.1","spark_pilot_norest","12718","2","9","Female","","","","","","","","null","<div style=""font-size:60px;"">+</div>","null","fixation","","","","","","","","","","","",""
"revaluation","271","1149164","0.0-5.0-7.0-0.2","spark_pilot_norest","12718","2","9","Female","","false","","","","","","[596]","./assets/img/ocean/test/3.jpg","[""ArrowDown""]","first stage test","ocean","0","{""ArrowUp,ArrowLeft"":27,""ArrowUp,ArrowRight"":15,""ArrowDown,ArrowLeft"":21,""ArrowDown,ArrowRight"":7}","false","ArrowDown","false","revaluation","1","","","",""
"html-keyboard-response","272","1149666","0.0-5.0-7.0-1.2","spark_pilot_norest","12718","2","9","Female","","","","","","","","null","<div style=""font-size:60px;"">+</div>","null","fixation","","","","","","","","","","","",""
"revaluation","273","1150170","0.0-5.0-7.0-0.3","spark_pilot_norest","12718","2","9","Female","","false","","","","","","[503]","./assets/img/ocean/test/2.jpg","[""ArrowUp""]","first stage test","ocean","0","{""ArrowUp,ArrowLeft"":27,""ArrowUp,ArrowRight"":15,""ArrowDown,ArrowLeft"":21,""ArrowDown,ArrowRight"":7}","true","ArrowUp","false","revaluation","1","","","",""
"html-keyboard-response","274","1150672","0.0-5.0-7.0-1.3","spark_pilot_norest","12718","2","9","Female","","","","","","","","null","<div style=""font-size:60px;"">+</div>","null","fixation","","","","","","","","","","","",""
"learning-instructions","275","1164011","0.0-5.0-8.0-0.0","spark_pilot_norest","12718","2","9","Female","","","","","","","","null","<p> Now you will see the animals again and can search their chests for treasure. </p>
            <p> This time, you will not see how much treasure you earned, but you will earn more bonus money for making better choices. </p>","","instructions","","","","","","","","","","","",""
"html-keyboard-response","276","1165012","0.0-5.0-9.0-0.0","spark_pilot_norest","12718","2","9","Female","","","","","","","","null","<div style=""font-size:100px;color:red;"">Starting in...</div>","null","","","","","","","","","","","","",""
"html-keyboard-response","277","1166013","0.0-5.0-9.0-1.0","spark_pilot_norest","12718","2","9","Female","","","","","","","","null","<div style=""font-size:200px;color:red;"">3</div>","null","","","","","","","","","","","","",""
"html-keyboard-response","278","1167014","0.0-5.0-9.0-2.0","spark_pilot_norest","12718","2","9","Female","","","","","","","","null","<div style=""font-size:200px;color:red;"">2</div>","null","","","","","","","","","","","","",""
"html-keyboard-response","279","1168016","0.0-5.0-9.0-3.0","spark_pilot_norest","12718","2","9","Female","","","","","","","","null","<div style=""font-size:200px;color:red;"">1</div>","null","","","","","","","","","","","","",""
"revaluation","280","1168915","0.0-5.0-10.0-0.0","spark_pilot_norest","12718","2","9","Female","","false","","","","","","[898.9999999997672]","./assets/img/ocean/animals/seahorse.jpg","[""ArrowRight""]","second stage test","ocean","0","{""ArrowUp,ArrowLeft"":27,""ArrowUp,ArrowRight"":15,""ArrowDown,ArrowLeft"":21,""ArrowDown,ArrowRight"":7}","false","ArrowUp,ArrowRight","","revaluation","1","","","",""
"html-keyboard-response","281","1169417","0.0-5.0-10.0-1.0","spark_pilot_norest","12718","2","9","Female","","","","","","","","null","<div style=""font-size:60px;"">+</div>","null","fixation","","","","","","","","","","","",""
"revaluation","282","1169949","0.0-5.0-10.0-0.1","spark_pilot_norest","12718","2","9","Female","","false","","","","","","[531]","./assets/img/ocean/animals/seahorse.jpg","[""ArrowLeft""]","second stage test","ocean","0","{""ArrowUp,ArrowLeft"":27,""ArrowUp,ArrowRight"":15,""ArrowDown,ArrowLeft"":21,""ArrowDown,ArrowRight"":7}","true","ArrowUp,ArrowLeft","","revaluation","1","","","",""
"html-keyboard-response","283","1170450","0.0-5.0-10.0-1.1","spark_pilot_norest","12718","2","9","Female","","","","","","","","null","<div style=""font-size:60px;"">+</div>","null","fixation","","","","","","","","","","","",""
"revaluation","284","1170934","0.0-5.0-10.0-0.2","spark_pilot_norest","12718","2","9","Female","","false","","","","","","[483]","./assets/img/ocean/animals/seahorse.jpg","[""ArrowRight""]","second stage test","ocean","0","{""ArrowUp,ArrowLeft"":27,""ArrowUp,ArrowRight"":15,""ArrowDown,ArrowLeft"":21,""ArrowDown,ArrowRight"":7}","false","ArrowUp,ArrowRight","","revaluation","1","","","",""
"html-keyboard-response","285","1171435","0.0-5.0-10.0-1.2","spark_pilot_norest","12718","2","9","Female","","","","","","","","null","<div style=""font-size:60px;"">+</div>","null","fixation","","","","","","","","","","","",""
"revaluation","286","1171992","0.0-5.0-10.0-0.3","spark_pilot_norest","12718","2","9","Female","","false","","","","","","[555]","./assets/img/ocean/animals/seahorse.jpg","[""ArrowLeft""]","second stage test","ocean","0","{""ArrowUp,ArrowLeft"":27,""ArrowUp,ArrowRight"":15,""ArrowDown,ArrowLeft"":21,""ArrowDown,ArrowRight"":7}","true","ArrowUp,ArrowLeft","","revaluation","1","","","",""
"html-keyboard-response","287","1172494","0.0-5.0-10.0-1.3","spark_pilot_norest","12718","2","9","Female","","","","","","","","null","<div style=""font-size:60px;"">+</div>","null","fixation","","","","","","","","","","","",""
"revaluation","288","1173026","0.0-5.0-10.0-0.4","spark_pilot_norest","12718","2","9","Female","","false","","","","","","[531]","./assets/img/ocean/animals/octopus.jpg","[""ArrowRight""]","second stage test","ocean","0","{""ArrowUp,ArrowLeft"":27,""ArrowUp,ArrowRight"":15,""ArrowDown,ArrowLeft"":21,""ArrowDown,ArrowRight"":7}","false","ArrowDown,ArrowRight","","revaluation","1","","","",""
"html-keyboard-response","289","1173528","0.0-5.0-10.0-1.4","spark_pilot_norest","12718","2","9","Female","","","","","","","","null","<div style=""font-size:60px;"">+</div>","null","fixation","","","","","","","","","","","",""
"revaluation","290","1174594","0.0-5.0-10.0-0.5","spark_pilot_norest","12718","2","9","Female","","false","","","","","","[1065.0000000002328]","./assets/img/ocean/animals/octopus.jpg","[""ArrowRight""]","second stage test","ocean","0","{""ArrowUp,ArrowLeft"":27,""ArrowUp,ArrowRight"":15,""ArrowDown,ArrowLeft"":21,""ArrowDown,ArrowRight"":7}","false","ArrowDown,ArrowRight","","revaluation","1","","","",""
"html-keyboard-response","291","1175096","0.0-5.0-10.0-1.5","spark_pilot_norest","12718","2","9","Female","","","","","","","","null","<div style=""font-size:60px;"">+</div>","null","fixation","","","","","","","","","","","",""
"revaluation","292","1175736","0.0-5.0-10.0-0.6","spark_pilot_norest","12718","2","9","Female","","false","","","","","","[639]","./assets/img/ocean/animals/octopus.jpg","[""ArrowRight""]","second stage test","ocean","0","{""ArrowUp,ArrowLeft"":27,""ArrowUp,ArrowRight"":15,""ArrowDown,ArrowLeft"":21,""ArrowDown,ArrowRight"":7}","false","ArrowDown,ArrowRight","","revaluation","1","","","",""
"html-keyboard-response","293","1176237","0.0-5.0-10.0-1.6","spark_pilot_norest","12718","2","9","Female","","","","","","","","null","<div style=""font-size:60px;"">+</div>","null","fixation","","","","","","","","","","","",""
"revaluation","294","1176903","0.0-5.0-10.0-0.7","spark_pilot_norest","12718","2","9","Female","","false","","","","","","[664.9999999997672]","./assets/img/ocean/animals/octopus.jpg","[""ArrowRight""]","second stage test","ocean","0","{""ArrowUp,ArrowLeft"":27,""ArrowUp,ArrowRight"":15,""ArrowDown,ArrowLeft"":21,""ArrowDown,ArrowRight"":7}","false","ArrowDown,ArrowRight","","revaluation","1","","","",""
"html-keyboard-response","295","1177404","0.0-5.0-10.0-1.7","spark_pilot_norest","12718","2","9","Female","","","","","","","","null","<div style=""font-size:60px;"">+</div>","null","fixation","","","","","","","","","","","",""
"learning-instructions","296","1181290","0.0-5.0-0.1-0.2","spark_pilot_norest","12718","2","9","Female","","","","","","","","1134","<p> This time you are searching for treasure in the <b>canyon</b>.</p>","","instructions","","","","","","","","","","","",""
"learning-instructions","297","1201057","0.0-5.0-0.1-0.3","spark_pilot_norest","12718","2","9","Female","","","","","","","","2517","<p><b>New</b> animals with <b>new</b> treasure chests live here. You need to explore to discover where the animal with the best treasure chest is.</p>
                    <p> Like before, once you figure out which animal has the chest with the most treasure, you should try to get to that animal and select that chest! </p>","","instructions","","","","","","","","","","","",""
"learning-instructions","298","1226906","0.0-5.0-1.1-0.1","spark_pilot_norest","12718","2","9","Female","","","","","","","","11119.999999999767","<p> Remember, when you see a picture of the place, use the up and down keys to <b>find an animal</b>.</p>
            <p> When you encounter an animal, you should use the left and right keys to <b>select a treasure chest</b>.</p>
            <p> Don't forget to look out for the robber! </p>","","instructions","","","","","","","","","","","",""
"revaluation","299","1232910","0.0-5.0-2.1-0.50","spark_pilot_norest","12718","2","9","Female","","false","","","","","","[1637,1047]","./assets/img/canyon/memory/12.jpg","[""ArrowDown"",""ArrowRight""]","value training","canyon","17","{""ArrowUp,ArrowLeft"":26,""ArrowUp,ArrowRight"":10,""ArrowDown,ArrowLeft"":5,""ArrowDown,ArrowRight"":17}","false","ArrowDown,ArrowRight","false","original","2","0","","",""
"html-keyboard-response","300","1233412","0.0-5.0-2.1-1.50","spark_pilot_norest","12718","2","9","Female","","","","","","","","null","<div style=""font-size:60px;"">+</div>","null","fixation","","","","","","","","","1","","",""
"revaluation","301","1239415","0.0-5.0-2.1-0.51","spark_pilot_norest","12718","2","9","Female","","false","","","","","","[958,721]","./assets/img/canyon/memory/36.jpg","[""ArrowDown"",""ArrowRight""]","value training","canyon","17","{""ArrowUp,ArrowLeft"":26,""ArrowUp,ArrowRight"":10,""ArrowDown,ArrowLeft"":5,""ArrowDown,ArrowRight"":17}","false","ArrowDown,ArrowRight","false","original","2","2","","",""
"html-keyboard-response","302","1239917","0.0-5.0-2.1-1.51","spark_pilot_norest","12718","2","9","Female","","","","","","","","null","<div style=""font-size:60px;"">+</div>","null","fixation","","","","","","","","","3","","",""
"revaluation","303","1245921","0.0-5.0-2.1-0.52","spark_pilot_norest","12718","2","9","Female","","true","","","","","","[961]","./assets/img/canyon/memory/39.jpg","[""ArrowUp""]","value training","canyon","-5","{""ArrowUp,ArrowLeft"":26,""ArrowUp,ArrowRight"":10,""ArrowDown,ArrowLeft"":5,""ArrowDown,ArrowRight"":17}","false","ArrowUp","false","original","2","4","","",""
"html-keyboard-response","304","1246423","0.0-5.0-2.1-1.52","spark_pilot_norest","12718","2","9","Female","","","","","","","","null","<div style=""font-size:60px;"">+</div>","null","fixation","","","","","","","","","5","","",""
"revaluation","305","1252427","0.0-5.0-2.1-0.53","spark_pilot_norest","12718","2","9","Female","","false","","","","","","[1274,731]","./assets/img/canyon/memory/16.jpg","[""ArrowDown"",""ArrowLeft""]","value training","canyon","5","{""ArrowUp,ArrowLeft"":26,""ArrowUp,ArrowRight"":10,""ArrowDown,ArrowLeft"":5,""ArrowDown,ArrowRight"":17}","false","ArrowDown,ArrowLeft","false","original","2","6","","",""
"html-keyboard-response","306","1252928","0.0-5.0-2.1-1.53","spark_pilot_norest","12718","2","9","Female","","","","","","","","null","<div style=""font-size:60px;"">+</div>","null","fixation","","","","","","","","","7","","",""
"revaluation","307","1258933","0.0-5.0-2.1-0.54","spark_pilot_norest","12718","2","9","Female","","false","","","","","","[1905.0000000002328,1234.9999999997672]","./assets/img/canyon/memory/7.jpg","[""ArrowDown"",""ArrowRight""]","value training","canyon","17","{""ArrowUp,ArrowLeft"":26,""ArrowUp,ArrowRight"":10,""ArrowDown,ArrowLeft"":5,""ArrowDown,ArrowRight"":17}","false","ArrowDown,ArrowRight","false","original","2","8","","",""
"html-keyboard-response","308","1259434","0.0-5.0-2.1-1.54","spark_pilot_norest","12718","2","9","Female","","","","","","","","null","<div style=""font-size:60px;"">+</div>","null","fixation","","","","","","","","","9","","",""
"revaluation","309","1263438","0.0-5.0-2.1-0.55","spark_pilot_norest","12718","2","9","Female","","true","","","","","","[]","./assets/img/canyon/memory/26.jpg","[]","value training","canyon","-5","{""ArrowUp,ArrowLeft"":26,""ArrowUp,ArrowRight"":10,""ArrowDown,ArrowLeft"":5,""ArrowDown,ArrowRight"":17}","false","","false","original","2","10","","",""
"html-keyboard-response","310","1263939","0.0-5.0-2.1-1.55","spark_pilot_norest","12718","2","9","Female","","","","","","","","null","<div style=""font-size:60px;"">+</div>","null","fixation","","","","","","","","","11","","",""
"revaluation","311","1269944","0.0-5.0-2.1-0.56","spark_pilot_norest","12718","2","9","Female","","true","","","","","","[1001.0000000002328]","./assets/img/canyon/memory/7.jpg","[""ArrowDown""]","value training","canyon","-5","{""ArrowUp,ArrowLeft"":26,""ArrowUp,ArrowRight"":10,""ArrowDown,ArrowLeft"":5,""ArrowDown,ArrowRight"":17}","false","ArrowDown","false","original","2","12","","",""
"html-keyboard-response","312","1270445","0.0-5.0-2.1-1.56","spark_pilot_norest","12718","2","9","Female","","","","","","","","null","<div style=""font-size:60px;"">+</div>","null","fixation","","","","","","","","","13","","",""
"revaluation","313","1276450","0.0-5.0-2.1-0.57","spark_pilot_norest","12718","2","9","Female","","false","","","","","","[936,39]","./assets/img/canyon/memory/27.jpg","[""ArrowDown"",""ArrowLeft""]","value training","canyon","5","{""ArrowUp,ArrowLeft"":26,""ArrowUp,ArrowRight"":10,""ArrowDown,ArrowLeft"":5,""ArrowDown,ArrowRight"":17}","false","ArrowDown,ArrowLeft","false","original","2","14","","",""
"html-keyboard-response","314","1276951","0.0-5.0-2.1-1.57","spark_pilot_norest","12718","2","9","Female","","","","","","","","null","<div style=""font-size:60px;"">+</div>","null","fixation","","","","","","","","","15","","",""
"revaluation","315","1280954","0.0-5.0-2.1-0.58","spark_pilot_norest","12718","2","9","Female","","true","","","","","","[]","./assets/img/canyon/memory/9.jpg","[]","value training","canyon","-5","{""ArrowUp,ArrowLeft"":26,""ArrowUp,ArrowRight"":10,""ArrowDown,ArrowLeft"":5,""ArrowDown,ArrowRight"":17}","false","","false","original","2","16","","",""
"html-keyboard-response","316","1281456","0.0-5.0-2.1-1.58","spark_pilot_norest","12718","2","9","Female","","","","","","","","null","<div style=""font-size:60px;"">+</div>","null","fixation","","","","","","","","","17","","",""
