"trial_type","trial_index","time_elapsed","internal_node_id","task_version","subject_id","assigned_condition","age","gender","success","timeout","failed_images","failed_audio","failed_video","browser_interaction","rt","stimulus","response","task_part","environment","score","rewardMap","correct","fullState","isCatch","condition","order","trial_num","key_press","ground_truth","bonus"
"pavlovia","0","1413","0.0-0.0","spark_pilot_norest","9157","6","15","Male","","","","","","","","","","","","","","","","","","","","","",""
"preload","1","46643","0.0-1.0","spark_pilot_norest","9157","6","15","Male","true","false","[]","[]","[]","[{""event"":""fullscreenenter"",""trial"":2,""time"":49618}]","","","","","","","","","","","","","","","",""
"fullscreen","2","50610","0.0-2.0","spark_pilot_norest","9157","6","15","Male","true","","","","","","","","","","","","","","","","","","","","",""
"audio-button-response","3","52646","0.0-3.0-0.0-0.0","spark_pilot_norest","9157","6","15","Male","","","","","","","1861","./assets/audio/audiotest/turtle.mp3","2","audio_test","","","","","","","","","","","",""
"learning-instructions","4","62748","0.0-3.0-1.0-0.0","spark_pilot_norest","9157","6","15","Male","","","","","","","3115.2000000476837","<p> Welcome! Please remember to stay in fullscreen mode and don't click away from the experiment. </p>","","instructions","","","","","","","","","","","",""
"learning-instructions","5","75469","0.0-3.0-1.0-0.1","spark_pilot_norest","9157","6","15","Male","","","","","","","4316.399999856949","<p> Today you will be playing a game to earn treasure. </p>
            <p> At the end of the experiment, you will earn a bonus based on how much treasure you find. </p>
            <img src='./assets/img/instructions/treasure.jpg' class='instructions-image'>","","instructions","","","","","","","","","","","",""
"learning-instructions","6","85157","0.0-3.0-1.0-0.2","spark_pilot_norest","9157","6","15","Male","","","","","","","1434.7000000476837","<p> Animals have hidden treasure in treasure chests. </p>
            <p> You need to first find an animal and then choose which of their treasure chests to search. </p>
            <img src='./assets/img/space/animals/cat.jpg' class='instructions-image'>","","instructions","","","","","","","","","","","",""
"learning-instructions","7","100859","0.0-3.0-1.0-0.3","spark_pilot_norest","9157","6","15","Male","","","","","","","2556.7000000476837","<p> In each round, you will search for treasure in a different place. In the real game, there will be two rounds. </p>
            <p> You will begin with a separate, practice round where you will search for treasure in outer space. </p>
            <img src='./assets/img/space/0.jpg' class='instructions-image'>","","instructions","","","","","","","","","","","",""
"learning-instructions","8","114864","0.0-3.0-1.0-0.4","spark_pilot_norest","9157","6","15","Male","","","","","","","2591.4000000953674","<p> On every turn, you will see a picture of the place that you are in, but the specific image may be different each time. </p>
            <p> For example, both of these images mean you are in outer space. </p>
            <img src='./assets/img/instructions/outerspace.jpg' class='instructions-image'>","","instructions","","","","","","","","","","","",""
"learning-instructions","9","123891","0.0-3.0-1.0-0.5","spark_pilot_norest","9157","6","15","Male","","","","","","","1209.0999999046326","<p> You need to decide which direction to travel in. </p>
            <p> You can choose between going <b>up or down</b> by using the arrow keys. </p>
            <img src='./assets/img/instructions/updown.jpg' class='instructions-image'>","","instructions","","","","","","","","","","","",""
"learning-instructions","10","134208","0.0-3.0-1.0-0.6","spark_pilot_norest","9157","6","15","Male","","","","","","","1505.3999998569489","<p> You will have <b>2 seconds</b> to make your choice. </p>
            <p> If you do not make a choice within 2 seconds, you will not find an animal or earn treasure. </p>
            <img src='./assets/img/instructions/2seconds.jpg' class='instructions-image'>","","instructions","","","","","","","","","","","",""
"learning-instructions","11","143062","0.0-3.0-1.0-0.7","spark_pilot_norest","9157","6","15","Male","","","","","","","1829.3999998569489","<p> Let’s try practicing that now! </p>
            <p> When you see a picture of the place you are in, press the <b>up</b> key to travel up. </p>
            <img src='./assets/img/instructions/pressUp.jpg' class='instructions-image'>","","instructions","","","","","","","","","","","",""
"revaluation","12","147073","0.0-3.0-2.0-0.0","spark_pilot_norest","9157","6","15","Male","","false","","","","","[608]","./assets/img/space/0.jpg","[""ArrowUp""]","first stage practice","space","0","null","null","ArrowUp","false","","","","","",""
"html-keyboard-response","13","147575","0.0-3.0-2.0-1.0","spark_pilot_norest","9157","6","15","Male","","","","","","","null","<div style=""font-size:60px;"">+</div>","null","fixation","","","","","","","","","","","",""
"revaluation","14","151592","0.0-3.0-2.0-0.1","spark_pilot_norest","9157","6","15","Male","","false","","","","","[1060.1999998092651]","./assets/img/space/1.jpg","[""ArrowUp""]","first stage practice","space","0","null","null","ArrowUp","false","","","","","",""
"html-keyboard-response","15","152093","0.0-3.0-2.0-1.1","spark_pilot_norest","9157","6","15","Male","","","","","","","null","<div style=""font-size:60px;"">+</div>","null","fixation","","","","","","","","","","","",""
"revaluation","16","156121","0.0-3.0-2.0-0.2","spark_pilot_norest","9157","6","15","Male","","false","","","","","[1029.6000001430511]","./assets/img/space/2.jpg","[""ArrowUp""]","first stage practice","space","0","null","null","ArrowUp","false","","","","","",""
"html-keyboard-response","17","156631","0.0-3.0-2.0-1.2","spark_pilot_norest","9157","6","15","Male","","","","","","","null","<div style=""font-size:60px;"">+</div>","null","fixation","","","","","","","","","","","",""
"learning-instructions","18","162953","0.0-3.0-3.0-0.0","spark_pilot_norest","9157","6","15","Male","","","","","","","1630.6999998092651","<p> Great job! Now try pressing the <b>down</b> key to travel down. </p>
            <img src='./assets/img/instructions/pressDown.jpg' class='instructions-image'>","","instructions","","","","","","","","","","","",""
"revaluation","19","166981","0.0-3.0-4.0-0.0","spark_pilot_norest","9157","6","15","Male","","false","","","","","[1371.3999998569489]","./assets/img/space/3.jpg","[""ArrowDown""]","first stage practice","space","0","null","null","ArrowDown","false","","","","","",""
"html-keyboard-response","20","167490","0.0-3.0-4.0-1.0","spark_pilot_norest","9157","6","15","Male","","","","","","","null","<div style=""font-size:60px;"">+</div>","null","fixation","","","","","","","","","","","",""
"revaluation","21","171521","0.0-3.0-4.0-0.1","spark_pilot_norest","9157","6","15","Male","","false","","","","","[1033.2000000476837]","./assets/img/space/4.jpg","[""ArrowDown""]","first stage practice","space","0","null","null","ArrowDown","false","","","","","",""
"html-keyboard-response","22","172030","0.0-3.0-4.0-1.1","spark_pilot_norest","9157","6","15","Male","","","","","","","null","<div style=""font-size:60px;"">+</div>","null","fixation","","","","","","","","","","","",""
"revaluation","23","176061","0.0-3.0-4.0-0.2","spark_pilot_norest","9157","6","15","Male","","false","","","","","[291.60000014305115]","./assets/img/space/5.jpg","[""ArrowDown""]","first stage practice","space","0","null","null","ArrowDown","false","","","","","",""
"html-keyboard-response","24","176580","0.0-3.0-4.0-1.2","spark_pilot_norest","9157","6","15","Male","","","","","","","null","<div style=""font-size:60px;"">+</div>","null","fixation","","","","","","","","","","","",""
"learning-instructions","25","188039","0.0-3.0-5.0-0.0","spark_pilot_norest","9157","6","15","Male","","","","","","","1606.5","<p> The animals don’t move, so the animal in the upper part of a place will stay in the upper part of a place, and the animal in the lower part of a place will stay in the lower part of a place. </p>","","instructions","","","","","","","","","","","",""
"learning-instructions","26","198903","0.0-3.0-5.0-0.1","spark_pilot_norest","9157","6","15","Male","","","","","","","1750.0999999046326","<p> Each animal has two treasure chests for you to choose from. </p>
            <p> The amount of treasure in each chest can range from <b> 0 to 40 pieces.</b></p>","","instructions","","","","","","","","","","","",""
"learning-instructions","27","212979","0.0-3.0-5.0-0.2","spark_pilot_norest","9157","6","15","Male","","","","","","","2897.399999856949","<p> You should decide which chest to search for treasure by using the <b>left</b> and <b>right</b> arrow keys. </p>
            <p><b> Pay attention to which animal is on the screen, as the animals have different treasure chests. </b></p>
            <img src='./assets/img/instructions/leftright.jpg' class='instructions-image'>","","instructions","","","","","","","","","","","",""
"learning-instructions","28","221381","0.0-3.0-5.0-0.3","spark_pilot_norest","9157","6","15","Male","","","","","","","2039","<p> Let’s try practicing that now. </p>
            <p> When you see an animal, choose which chest to search for treasure. </p>
            <img src='./assets/img/instructions/chooseChest.jpg' class='instructions-image'>","","instructions","","","","","","","","","","","",""
"revaluation","29","225401","0.0-3.0-6.0-0.0","spark_pilot_norest","9157","6","15","Male","","false","","","","","[910.3000001907349]","./assets/img/space/animals/rabbit.jpg","[""ArrowRight""]","second stage practice","space","23","{""ArrowUp,ArrowLeft"":3,""ArrowUp,ArrowRight"":36,""ArrowDown,ArrowLeft"":15,""ArrowDown,ArrowRight"":23}","true","ArrowDown,ArrowRight","","","","","","",""
"html-keyboard-response","30","225920","0.0-3.0-6.0-1.0","spark_pilot_norest","9157","6","15","Male","","","","","","","null","<div style=""font-size:60px;"">+</div>","null","fixation","","","","","","","","","","","",""
"revaluation","31","229956","0.0-3.0-6.0-0.1","spark_pilot_norest","9157","6","15","Male","","false","","","","","[306.7999999523163]","./assets/img/space/animals/cat.jpg","[""ArrowLeft""]","second stage practice","space","3","{""ArrowUp,ArrowLeft"":3,""ArrowUp,ArrowRight"":36,""ArrowDown,ArrowLeft"":15,""ArrowDown,ArrowRight"":23}","false","ArrowUp,ArrowLeft","","","","","","",""
"html-keyboard-response","32","230470","0.0-3.0-6.0-1.1","spark_pilot_norest","9157","6","15","Male","","","","","","","null","<div style=""font-size:60px;"">+</div>","null","fixation","","","","","","","","","","","",""
"revaluation","33","234501","0.0-3.0-6.0-0.2","spark_pilot_norest","9157","6","15","Male","","false","","","","","[260.2999999523163]","./assets/img/space/animals/cat.jpg","[""ArrowLeft""]","second stage practice","space","3","{""ArrowUp,ArrowLeft"":3,""ArrowUp,ArrowRight"":36,""ArrowDown,ArrowLeft"":15,""ArrowDown,ArrowRight"":23}","false","ArrowUp,ArrowLeft","","","","","","",""
"html-keyboard-response","34","235006","0.0-3.0-6.0-1.2","spark_pilot_norest","9157","6","15","Male","","","","","","","null","<div style=""font-size:60px;"">+</div>","null","fixation","","","","","","","","","","","",""
"revaluation","35","239041","0.0-3.0-6.0-0.3","spark_pilot_norest","9157","6","15","Male","","false","","","","","[1037.5]","./assets/img/space/animals/rabbit.jpg","[""ArrowRight""]","second stage practice","space","23","{""ArrowUp,ArrowLeft"":3,""ArrowUp,ArrowRight"":36,""ArrowDown,ArrowLeft"":15,""ArrowDown,ArrowRight"":23}","true","ArrowDown,ArrowRight","","","","","","",""
"html-keyboard-response","36","239556","0.0-3.0-6.0-1.3","spark_pilot_norest","9157","6","15","Male","","","","","","","null","<div style=""font-size:60px;"">+</div>","null","fixation","","","","","","","","","","","",""
"learning-instructions","37","257457","0.0-3.0-7.0-0.0","spark_pilot_norest","9157","6","15","Male","","","","","","","1094.5","<p> Great job. Now let’s try putting it together. </p>
            <p> On each turn, you will first see a picture to remind you of the place you are in, and you need to choose whether to go up or down. </p>
            <p> Then you will see an animal and choose which of its chests to search for treasure. </p>","","instructions","","","","","","","","","","","",""
"learning-instructions","38","266381","0.0-3.0-7.0-0.1","spark_pilot_norest","9157","6","15","Male","","","","","","","668.8999998569489","<p> When you choose whether to go up or down, try to go to the animal with the chest with the most treasure. </p>
            <p> Try practicing that now! </p>","","instructions","","","","","","","","","","","",""
"revaluation","39","272431","0.0-3.0-8.0-0.0","spark_pilot_norest","9157","6","15","Male","","false","","","","","[990.1000001430511,789.2999999523163]","./assets/img/space/6.jpg","[""ArrowUp"",""ArrowLeft""]","full practice","space","3","{""ArrowUp,ArrowLeft"":3,""ArrowUp,ArrowRight"":36,""ArrowDown,ArrowLeft"":15,""ArrowDown,ArrowRight"":23}","false","ArrowUp,ArrowLeft","false","","","","","",""
"html-keyboard-response","40","272950","0.0-3.0-8.0-1.0","spark_pilot_norest","9157","6","15","Male","","","","","","","null","<div style=""font-size:60px;"">+</div>","null","fixation","","","","","","","","","","","",""
"revaluation","41","278981","0.0-3.0-8.0-0.1","spark_pilot_norest","9157","6","15","Male","","false","","","","","[908.6000001430511,652.5999999046326]","./assets/img/space/7.jpg","[""ArrowUp"",""ArrowRight""]","full practice","space","36","{""ArrowUp,ArrowLeft"":3,""ArrowUp,ArrowRight"":36,""ArrowDown,ArrowLeft"":15,""ArrowDown,ArrowRight"":23}","true","ArrowUp,ArrowRight","false","","","","","",""
"html-keyboard-response","42","279500","0.0-3.0-8.0-1.1","spark_pilot_norest","9157","6","15","Male","","","","","","","null","<div style=""font-size:60px;"">+</div>","null","fixation","","","","","","","","","","","",""
"revaluation","43","285522","0.0-3.0-8.0-0.2","spark_pilot_norest","9157","6","15","Male","","false","","","","","[687.2999999523163,579.6000001430511]","./assets/img/space/8.jpg","[""ArrowUp"",""ArrowRight""]","full practice","space","36","{""ArrowUp,ArrowLeft"":3,""ArrowUp,ArrowRight"":36,""ArrowDown,ArrowLeft"":15,""ArrowDown,ArrowRight"":23}","true","ArrowUp,ArrowRight","false","","","","","",""
"html-keyboard-response","44","286030","0.0-3.0-8.0-1.2","spark_pilot_norest","9157","6","15","Male","","","","","","","null","<div style=""font-size:60px;"">+</div>","null","fixation","","","","","","","","","","","",""
"revaluation","45","292071","0.0-3.0-8.0-0.3","spark_pilot_norest","9157","6","15","Male","","false","","","","","[819.7999999523163,525.3999998569489]","./assets/img/space/9.jpg","[""ArrowUp"",""ArrowRight""]","full practice","space","36","{""ArrowUp,ArrowLeft"":3,""ArrowUp,ArrowRight"":36,""ArrowDown,ArrowLeft"":15,""ArrowDown,ArrowRight"":23}","true","ArrowUp,ArrowRight","false","","","","","",""
"html-keyboard-response","46","292590","0.0-3.0-8.0-1.3","spark_pilot_norest","9157","6","15","Male","","","","","","","null","<div style=""font-size:60px;"">+</div>","null","fixation","","","","","","","","","","","",""
"revaluation","47","298608","0.0-3.0-8.0-0.4","spark_pilot_norest","9157","6","15","Male","","false","","","","","[685.2999999523163,375.5]","./assets/img/space/10.jpg","[""ArrowUp"",""ArrowRight""]","full practice","space","36","{""ArrowUp,ArrowLeft"":3,""ArrowUp,ArrowRight"":36,""ArrowDown,ArrowLeft"":15,""ArrowDown,ArrowRight"":23}","true","ArrowUp,ArrowRight","false","","","","","",""
"html-keyboard-response","48","299110","0.0-3.0-8.0-1.4","spark_pilot_norest","9157","6","15","Male","","","","","","","null","<div style=""font-size:60px;"">+</div>","null","fixation","","","","","","","","","","","",""
"learning-instructions","49","311072","0.0-3.0-9.0-0.0","spark_pilot_norest","9157","6","15","Male","","","","","","","1670.0999999046326","<p> One last thing: sometimes, you will see a robber. The robber can be anywhere in the picture. </p>
            <p> If you do not stop them, you will lose treasure. </p>
            <img src='./assets/img/instructions/robber.jpg' class='instructions-image'>","","instructions","","","","","","","","","","","",""
"learning-instructions","50","320369","0.0-3.0-9.0-0.1","spark_pilot_norest","9157","6","15","Male","","","","","","","2147.2999999523163","<p> If you see the robber, you should <b>press the space bar</b> rather than using the arrow keys. </p>
            <p> Try practicing that now! </p>","","instructions","","","","","","","","","","","",""
"revaluation","51","324480","0.0-3.0-10.0-0.0","spark_pilot_norest","9157","6","15","Male","","false","","","","","[999.5]","./assets/img/space/catch/0.jpg","[""ArrowUp""]","catch practice","space","-10","{""ArrowUp,ArrowLeft"":3,""ArrowUp,ArrowRight"":36,""ArrowDown,ArrowLeft"":15,""ArrowDown,ArrowRight"":23}","false","ArrowUp","true","","","","","",""
"html-keyboard-response","52","324989","0.0-3.0-10.0-1.0","spark_pilot_norest","9157","6","15","Male","","","","","","","null","<div style=""font-size:60px;"">+</div>","null","fixation","","","","","","","","","","","",""
"revaluation","53","329010","0.0-3.0-10.0-0.1","spark_pilot_norest","9157","6","15","Male","","false","","","","","[461.2999999523163]","./assets/img/space/catch/1.jpg","[""spaceBar""]","catch practice","space","0","{""ArrowUp,ArrowLeft"":3,""ArrowUp,ArrowRight"":36,""ArrowDown,ArrowLeft"":15,""ArrowDown,ArrowRight"":23}","true","spaceBar","true","","","","","",""
"html-keyboard-response","54","329512","0.0-3.0-10.0-1.1","spark_pilot_norest","9157","6","15","Male","","","","","","","null","<div style=""font-size:60px;"">+</div>","null","fixation","","","","","","","","","","","",""
"revaluation","55","333540","0.0-3.0-10.0-0.2","spark_pilot_norest","9157","6","15","Male","","false","","","","","[619.9000000953674]","./assets/img/space/catch/2.jpg","[""spaceBar""]","catch practice","space","0","{""ArrowUp,ArrowLeft"":3,""ArrowUp,ArrowRight"":36,""ArrowDown,ArrowLeft"":15,""ArrowDown,ArrowRight"":23}","true","spaceBar","true","","","","","",""
"html-keyboard-response","56","334050","0.0-3.0-10.0-1.2","spark_pilot_norest","9157","6","15","Male","","","","","","","null","<div style=""font-size:60px;"">+</div>","null","fixation","","","","","","","","","","","",""
"learning-instructions","57","341080","0.0-3.0-11.0-0.0-0.0","spark_pilot_norest","9157","6","15","Male","","","","","","","1778.7999999523163","<p> Now, you will practice a shortened version of the game to get a sense of how it all fits together. </p>","","instructions","","","","","","","","","","","",""
"learning-instructions","58","346382","0.0-3.0-11.0-0.0-0.1","spark_pilot_norest","9157","6","15","Male","","","","","","","2120.9000000953674","<p>This time you are searching for treasure in outer space.</p>","","instructions","","","","","","","","","","","",""
"learning-instructions","59","362059","0.0-3.0-11.0-1.0-0.0","spark_pilot_norest","9157","6","15","Male","","","","","","","917.7000000476837","<p> Remember, when you see a picture of the place, use the up and down keys to <b>find an animal</b>.</p>
            <p> When you encounter an animal, you should use the left and right keys to <b>select a treasure chest</b>.</p>
            <p> Don't forget to look out for the robber! </p>","","instructions","","","","","","","","","","","",""
"revaluation","60","368110","0.0-3.0-11.0-2.0-0.0","spark_pilot_norest","9157","6","15","Male","","false","","","","","[913.5999999046326,552.3999998569489]","./assets/img/space/11.jpg","[""ArrowUp"",""ArrowRight""]","practice block","space","36","{""ArrowUp,ArrowLeft"":3,""ArrowUp,ArrowRight"":36,""ArrowDown,ArrowLeft"":15,""ArrowDown,ArrowRight"":23}","true","ArrowUp,ArrowRight","false","","","","","",""
"html-keyboard-response","61","368630","0.0-3.0-11.0-2.0-1.0","spark_pilot_norest","9157","6","15","Male","","","","","","","null","<div style=""font-size:60px;"">+</div>","null","fixation","","","","","","","","","","","",""
"revaluation","62","374680","0.0-3.0-11.0-2.0-0.1","spark_pilot_norest","9157","6","15","Male","","false","","","","","[596.6000001430511,468.2999999523163]","./assets/img/space/12.jpg","[""ArrowDown"",""ArrowRight""]","practice block","space","23","{""ArrowUp,ArrowLeft"":3,""ArrowUp,ArrowRight"":36,""ArrowDown,ArrowLeft"":15,""ArrowDown,ArrowRight"":23}","false","ArrowDown,ArrowRight","false","","","","","",""
"html-keyboard-response","63","375189","0.0-3.0-11.0-2.0-1.1","spark_pilot_norest","9157","6","15","Male","","","","","","","null","<div style=""font-size:60px;"">+</div>","null","fixation","","","","","","","","","","","",""
"revaluation","64","381229","0.0-3.0-11.0-2.0-0.2","spark_pilot_norest","9157","6","15","Male","","false","","","","","[485.7999999523163,279.90000009536743]","./assets/img/space/13.jpg","[""ArrowDown"",""ArrowLeft""]","practice block","space","15","{""ArrowUp,ArrowLeft"":3,""ArrowUp,ArrowRight"":36,""ArrowDown,ArrowLeft"":15,""ArrowDown,ArrowRight"":23}","false","ArrowDown,ArrowLeft","false","","","","","",""
"html-keyboard-response","65","381739","0.0-3.0-11.0-2.0-1.2","spark_pilot_norest","9157","6","15","Male","","","","","","","null","<div style=""font-size:60px;"">+</div>","null","fixation","","","","","","","","","","","",""
"revaluation","66","387789","0.0-3.0-11.0-2.0-0.3","spark_pilot_norest","9157","6","15","Male","","false","","","","","[391.40000009536743,573.7000000476837]","./assets/img/space/14.jpg","[""ArrowUp"",""ArrowRight""]","practice block","space","36","{""ArrowUp,ArrowLeft"":3,""ArrowUp,ArrowRight"":36,""ArrowDown,ArrowLeft"":15,""ArrowDown,ArrowRight"":23}","true","ArrowUp,ArrowRight","false","","","","","",""
"html-keyboard-response","67","388304","0.0-3.0-11.0-2.0-1.3","spark_pilot_norest","9157","6","15","Male","","","","","","","null","<div style=""font-size:60px;"">+</div>","null","fixation","","","","","","","","","","","",""
"revaluation","68","394327","0.0-3.0-11.0-2.0-0.4","spark_pilot_norest","9157","6","15","Male","","false","","","","","[594.5,613]","./assets/img/space/11.jpg","[""ArrowUp"",""ArrowRight""]","practice block","space","36","{""ArrowUp,ArrowLeft"":3,""ArrowUp,ArrowRight"":36,""ArrowDown,ArrowLeft"":15,""ArrowDown,ArrowRight"":23}","true","ArrowUp,ArrowRight","false","","","","","",""
"html-keyboard-response","69","394828","0.0-3.0-11.0-2.0-1.4","spark_pilot_norest","9157","6","15","Male","","","","","","","null","<div style=""font-size:60px;"">+</div>","null","fixation","","","","","","","","","","","",""
"revaluation","70","400834","0.0-3.0-11.0-2.0-0.5","spark_pilot_norest","9157","6","15","Male","","false","","","","","[757.9000000953674,524.7999999523163]","./assets/img/space/12.jpg","[""ArrowUp"",""ArrowRight""]","practice block","space","36","{""ArrowUp,ArrowLeft"":3,""ArrowUp,ArrowRight"":36,""ArrowDown,ArrowLeft"":15,""ArrowDown,ArrowRight"":23}","true","ArrowUp,ArrowRight","false","","","","","",""
"html-keyboard-response","71","401335","0.0-3.0-11.0-2.0-1.5","spark_pilot_norest","9157","6","15","Male","","","","","","","null","<div style=""font-size:60px;"">+</div>","null","fixation","","","","","","","","","","","",""
"revaluation","72","407340","0.0-3.0-11.0-2.0-0.6","spark_pilot_norest","9157","6","15","Male","","false","","","","","[508.39999985694885,419.2000000476837]","./assets/img/space/13.jpg","[""ArrowUp"",""ArrowRight""]","practice block","space","36","{""ArrowUp,ArrowLeft"":3,""ArrowUp,ArrowRight"":36,""ArrowDown,ArrowLeft"":15,""ArrowDown,ArrowRight"":23}","true","ArrowUp,ArrowRight","false","","","","","",""
"html-keyboard-response","73","407841","0.0-3.0-11.0-2.0-1.6","spark_pilot_norest","9157","6","15","Male","","","","","","","null","<div style=""font-size:60px;"">+</div>","null","fixation","","","","","","","","","","","",""
"revaluation","74","413847","0.0-3.0-11.0-2.0-0.7","spark_pilot_norest","9157","6","15","Male","","false","","","","","[489.10000014305115,296.60000014305115]","./assets/img/space/14.jpg","[""ArrowUp"",""ArrowRight""]","practice block","space","36","{""ArrowUp,ArrowLeft"":3,""ArrowUp,ArrowRight"":36,""ArrowDown,ArrowLeft"":15,""ArrowDown,ArrowRight"":23}","true","ArrowUp,ArrowRight","false","","","","","",""
"html-keyboard-response","75","414348","0.0-3.0-11.0-2.0-1.7","spark_pilot_norest","9157","6","15","Male","","","","","","","null","<div style=""font-size:60px;"">+</div>","null","fixation","","","","","","","","","","","",""
"revaluation","76","418351","0.0-3.0-11.0-2.0-0.8","spark_pilot_norest","9157","6","15","Male","","false","","","","","[798.5]","./assets/img/space/catch/3.jpg","[""spaceBar""]","practice block","space","0","{""ArrowUp,ArrowLeft"":3,""ArrowUp,ArrowRight"":36,""ArrowDown,ArrowLeft"":15,""ArrowDown,ArrowRight"":23}","true","spaceBar","true","","","","","",""
"html-keyboard-response","77","418854","0.0-3.0-11.0-2.0-1.8","spark_pilot_norest","9157","6","15","Male","","","","","","","null","<div style=""font-size:60px;"">+</div>","null","fixation","","","","","","","","","","","",""
"learning-instructions","78","435378","0.0-3.0-11.0-3.0-0.0","spark_pilot_norest","9157","6","15","Male","","","","","","","3472.300000190735","<p> Now, you will travel with a friend who will choose whether you go up or down first. </p>
            <p> On these turns, you will just see the animal that they found. You will still get to choose which chest to search for treasure.</p>","","instructions","","","","","","","","","","","",""
"revaluation","79","439404","0.0-3.0-11.0-4.0-0.0","spark_pilot_norest","9157","6","15","Male","","false","","","","","[1009.5]","./assets/img/space/animals/rabbit.jpg","[""ArrowRight""]","practice block","space","23","{""ArrowUp,ArrowLeft"":3,""ArrowUp,ArrowRight"":36,""ArrowDown,ArrowLeft"":15,""ArrowDown,ArrowRight"":23}","true","ArrowDown,ArrowRight","","","","","","",""
"html-keyboard-response","80","439924","0.0-3.0-11.0-4.0-1.0","spark_pilot_norest","9157","6","15","Male","","","","","","","null","<div style=""font-size:60px;"">+</div>","null","fixation","","","","","","","","","","","",""
"revaluation","81","443954","0.0-3.0-11.0-4.0-0.1","spark_pilot_norest","9157","6","15","Male","","false","","","","","[526.6000001430511]","./assets/img/space/animals/cat.jpg","[""ArrowRight""]","practice block","space","36","{""ArrowUp,ArrowLeft"":3,""ArrowUp,ArrowRight"":36,""ArrowDown,ArrowLeft"":15,""ArrowDown,ArrowRight"":23}","true","ArrowUp,ArrowRight","","","","","","",""
"html-keyboard-response","82","444474","0.0-3.0-11.0-4.0-1.1","spark_pilot_norest","9157","6","15","Male","","","","","","","null","<div style=""font-size:60px;"">+</div>","null","fixation","","","","","","","","","","","",""
"revaluation","83","448504","0.0-3.0-11.0-4.0-0.2","spark_pilot_norest","9157","6","15","Male","","false","","","","","[520.5999999046326]","./assets/img/space/animals/rabbit.jpg","[""ArrowRight""]","practice block","space","23","{""ArrowUp,ArrowLeft"":3,""ArrowUp,ArrowRight"":36,""ArrowDown,ArrowLeft"":15,""ArrowDown,ArrowRight"":23}","true","ArrowDown,ArrowRight","","","","","","",""
"html-keyboard-response","84","449014","0.0-3.0-11.0-4.0-1.2","spark_pilot_norest","9157","6","15","Male","","","","","","","null","<div style=""font-size:60px;"">+</div>","null","fixation","","","","","","","","","","","",""
"revaluation","85","453044","0.0-3.0-11.0-4.0-0.3","spark_pilot_norest","9157","6","15","Male","","false","","","","","[396.7999999523163]","./assets/img/space/animals/cat.jpg","[""ArrowRight""]","practice block","space","36","{""ArrowUp,ArrowLeft"":3,""ArrowUp,ArrowRight"":36,""ArrowDown,ArrowLeft"":15,""ArrowDown,ArrowRight"":23}","true","ArrowUp,ArrowRight","","","","","","",""
"html-keyboard-response","86","453554","0.0-3.0-11.0-4.0-1.3","spark_pilot_norest","9157","6","15","Male","","","","","","","null","<div style=""font-size:60px;"">+</div>","null","fixation","","","","","","","","","","","",""
"learning-instructions","87","461694","0.0-3.0-11.0-5.0-0.0","spark_pilot_norest","9157","6","15","Male","","","","","","","null","<p> You have almost finished this part of the game! </p>
            <p> We are going to ask you to make a few more choices. </p>","","instructions","","","","","","","","","","","",""
"learning-instructions","88","477724","0.0-3.0-11.0-5.0-0.1","spark_pilot_norest","9157","6","15","Male","","","","","","","null","<p> First, you need to decide whether to go up or down. When you see each picture, use the arrow keys to make your choice. </p>
            <p><b>You will not see which animal you found, but try to get to the one that will give you the most treasure.</b></p>","","instructions","","","","","","","","","","","",""
"html-keyboard-response","89","478734","0.0-3.0-11.0-6.0-0.0","spark_pilot_norest","9157","6","15","Male","","","","","","","null","<div style=""font-size:100px;color:red;"">Starting in...</div>","null","","","","","","","","","","","","",""
"html-keyboard-response","90","479754","0.0-3.0-11.0-6.0-1.0","spark_pilot_norest","9157","6","15","Male","","","","","","","null","<div style=""font-size:200px;color:red;"">3</div>","null","","","","","","","","","","","","",""
"html-keyboard-response","91","480774","0.0-3.0-11.0-6.0-2.0","spark_pilot_norest","9157","6","15","Male","","","","","","","null","<div style=""font-size:200px;color:red;"">2</div>","null","","","","","","","","","","","","",""
"html-keyboard-response","92","481794","0.0-3.0-11.0-6.0-3.0","spark_pilot_norest","9157","6","15","Male","","","","","","","null","<div style=""font-size:200px;color:red;"">1</div>","null","","","","","","","","","","","","",""
"revaluation","93","482341","0.0-3.0-11.0-7.0","spark_pilot_norest","9157","6","15","Male","","false","","","","","[544.0999999046326]","./assets/img/space/15.jpg","[""ArrowUp""]","practice block","space","0","{""ArrowUp,ArrowLeft"":3,""ArrowUp,ArrowRight"":36,""ArrowDown,ArrowLeft"":15,""ArrowDown,ArrowRight"":23}","true","ArrowUp","false","","","","","",""
"html-keyboard-response","94","482854","0.0-3.0-11.0-8.0","spark_pilot_norest","9157","6","15","Male","","","","","","","null","<div style=""font-size:60px;"">+</div>","null","fixation","","","","","","","","","","","",""
"learning-instructions","95","496244","0.0-3.0-11.0-9.0-0.0","spark_pilot_norest","9157","6","15","Male","","","","","","","null","<p> Now you will see the animals again and can search their chests for treasure. </p>
            <p> This time, you will not see how much treasure you earned, but you will earn more bonus money for making better choices. </p>","","instructions","","","","","","","","","","","",""
"html-keyboard-response","96","497263","0.0-3.0-11.0-10.0-0.0","spark_pilot_norest","9157","6","15","Male","","","","","","","null","<div style=""font-size:100px;color:red;"">Starting in...</div>","null","","","","","","","","","","","","",""
"html-keyboard-response","97","498273","0.0-3.0-11.0-10.0-1.0","spark_pilot_norest","9157","6","15","Male","","","","","","","null","<div style=""font-size:200px;color:red;"">3</div>","null","","","","","","","","","","","","",""
"html-keyboard-response","98","499293","0.0-3.0-11.0-10.0-2.0","spark_pilot_norest","9157","6","15","Male","","","","","","","null","<div style=""font-size:200px;color:red;"">2</div>","null","","","","","","","","","","","","",""
"html-keyboard-response","99","500304","0.0-3.0-11.0-10.0-3.0","spark_pilot_norest","9157","6","15","Male","","","","","","","null","<div style=""font-size:200px;color:red;"">1</div>","null","","","","","","","","","","","","",""
"revaluation","100","500956","0.0-3.0-11.0-11.0-0.0","spark_pilot_norest","9157","6","15","Male","","false","","","","","[648.7000000476837]","./assets/img/space/animals/cat.jpg","[""ArrowRight""]","practice block","space","0","{""ArrowUp,ArrowLeft"":3,""ArrowUp,ArrowRight"":36,""ArrowDown,ArrowLeft"":15,""ArrowDown,ArrowRight"":23}","true","ArrowUp,ArrowRight","","","","","","",""
"html-keyboard-response","101","501474","0.0-3.0-11.0-11.0-1.0","spark_pilot_norest","9157","6","15","Male","","","","","","","null","<div style=""font-size:60px;"">+</div>","null","fixation","","","","","","","","","","","",""
"revaluation","102","502053","0.0-3.0-11.0-11.0-0.1","spark_pilot_norest","9157","6","15","Male","","false","","","","","[576.3999998569489]","./assets/img/space/animals/rabbit.jpg","[""ArrowRight""]","practice block","space","0","{""ArrowUp,ArrowLeft"":3,""ArrowUp,ArrowRight"":36,""ArrowDown,ArrowLeft"":15,""ArrowDown,ArrowRight"":23}","true","ArrowDown,ArrowRight","","","","","","",""
"html-keyboard-response","103","502563","0.0-3.0-11.0-11.0-1.1","spark_pilot_norest","9157","6","15","Male","","","","","","","null","<div style=""font-size:60px;"">+</div>","null","fixation","","","","","","","","","","","",""
"learning-instructions","104","508896","0.0-3.0-12.0-0.0","spark_pilot_norest","9157","6","15","Male","","","","","","","1760.9000000953674","<p> Before you start, we're going to ask you a few questions about how the game works. </p>","","instructions","","","","","","","","","","","",""
"comp-q","105","515286","0.0-3.0-13.0-0.0-0.0","spark_pilot_norest","9157","6","15","Male","","","","","","","818.3999998569489","<p> <b> True or False? </b> </p>
            <p> There can be 50 pieces of treasure in a given animal's chest. </p>","1","comp_question","","","","true","","","","","","","",""
"comp-q","106","523826","0.0-3.0-13.0-0.0-1.0","spark_pilot_norest","9157","6","15","Male","","","","","","","1900.9000000953674","<p> <b> That's right! </b> The amount of treasure in each chest can range from 0 to 40 pieces. </p>","0","comp_answer","","","","","","","","","","","",""
"comp-q","107","531696","0.0-3.0-13.0-0.1-0.1","spark_pilot_norest","9157","6","15","Male","","","","","","","750.5999999046326","<p> <b> True or False? </b> </p><p> In this game, all animals have the same amount of treasure in their left and right chests. </p>","1","comp_question","","","","true","","","","","","","",""
"comp-q","108","538856","0.0-3.0-13.0-0.1-1.1","spark_pilot_norest","9157","6","15","Male","","","","","","","1940.7000000476837","<p> <b> That's right! </b> Animals have different amounts of treasure in their treasure chests. </p>","0","comp_answer","","","","","","","","","","","",""
"comp-q","109","545386","0.0-3.0-13.0-0.2-0.2","spark_pilot_norest","9157","6","15","Male","","","","","","","700.5","<p> <b> True or False? </b> </p><p> The same animal will always be there if you go up in the same place. </p>","0","comp_question","","","","true","","","","","","","",""
"comp-q","110","553746","0.0-3.0-13.0-0.2-1.2","spark_pilot_norest","9157","6","15","Male","","","","","","","1920.7999999523163","<p> <b> That's right! </b> One animal lives in the upper part and one lives in the lower part of every place. </p>","0","comp_answer","","","","","","","","","","","",""
"comp-q","111","560518","0.0-3.0-13.0-0.3-0.3","spark_pilot_norest","9157","6","15","Male","","","","","","","1251.9000000953674","<p> <b> True or False? </b> </p><p> If you see a different picture, it means you are in a new place. </p>","1","comp_question","","","","true","","","","","","","",""
"comp-q","112","573232","0.0-3.0-13.0-0.3-1.3","spark_pilot_norest","9157","6","15","Male","","","","","","","1506","<p> <b> That's right! </b> Lots of different images may show the same place. For example,  you may see three different images that all remind you that you are in outer space. </p>","0","comp_answer","","","","","","","","","","","",""
"learning-instructions","113","585671","0.0-3.0-14.0-0.0","spark_pilot_norest","9157","6","15","Male","","","","","","","2595.2999999523163","<p> Good job. Remember to do your best because the amount of treasure you earn will be converted into bonus money. </p>
            <p> It’s time to start the real game! </p>","","instructions","","","","","","","","","","","",""
"learning-instructions","114","589988","0.0-4.0-0.0-0.0","spark_pilot_norest","9157","6","15","Male","","","","","","","1552.0999999046326","<p> This time you are searching for treasure in the <b>canyon</b>.</p>","","instructions","","","","","","","","","","","",""
"learning-instructions","115","609026","0.0-4.0-0.0-0.1","spark_pilot_norest","9157","6","15","Male","","","","","","","1759.6999998092651","<p><b>New</b> animals with <b>new</b> treasure chests live here. You need to explore to discover where the animal with the best treasure chest is.</p>
                    <p> Like before, once you figure out which animal has the chest with the most treasure, you should try to get to that animal and select that chest! </p>","","instructions","","","","","","","","","","","",""
"learning-instructions","116","625135","0.0-4.0-1.0-0.0","spark_pilot_norest","9157","6","15","Male","","","","","","","1378.8000001907349","<p> Remember, when you see a picture of the place, use the up and down keys to <b>find an animal</b>.</p>
            <p> When you encounter an animal, you should use the left and right keys to <b>select a treasure chest</b>.</p>
            <p> Don't forget to look out for the robber! </p>","","instructions","","","","","","","","","","","",""
"revaluation","117","631185","0.0-4.0-2.0-0.0","spark_pilot_norest","9157","6","15","Male","","false","","","","","[1092.2999999523163,547]","./assets/img/canyon/memory/1.jpg","[""ArrowUp"",""ArrowRight""]","value training","canyon","10","{""ArrowUp,ArrowLeft"":23,""ArrowUp,ArrowRight"":10,""ArrowDown,ArrowLeft"":8,""ArrowDown,ArrowRight"":30}","false","ArrowUp,ArrowRight","false","revaluation","1","0","","",""
"html-keyboard-response","118","631704","0.0-4.0-2.0-1.0","spark_pilot_norest","9157","6","15","Male","","","","","","","null","<div style=""font-size:60px;"">+</div>","null","fixation","","","","","","","","","1","","",""
"revaluation","119","637745","0.0-4.0-2.0-0.1","spark_pilot_norest","9157","6","15","Male","","false","","","","","[642.5,387.09999990463257]","./assets/img/canyon/memory/20.jpg","[""ArrowUp"",""ArrowLeft""]","value training","canyon","23","{""ArrowUp,ArrowLeft"":23,""ArrowUp,ArrowRight"":10,""ArrowDown,ArrowLeft"":8,""ArrowDown,ArrowRight"":30}","false","ArrowUp,ArrowLeft","false","revaluation","1","2","","",""
"html-keyboard-response","120","638254","0.0-4.0-2.0-1.1","spark_pilot_norest","9157","6","15","Male","","","","","","","null","<div style=""font-size:60px;"">+</div>","null","fixation","","","","","","","","","3","","",""
"revaluation","121","644295","0.0-4.0-2.0-0.2","spark_pilot_norest","9157","6","15","Male","","false","","","","","[300.5,424.09999990463257]","./assets/img/canyon/memory/0.jpg","[""ArrowDown"",""ArrowRight""]","value training","canyon","30","{""ArrowUp,ArrowLeft"":23,""ArrowUp,ArrowRight"":10,""ArrowDown,ArrowLeft"":8,""ArrowDown,ArrowRight"":30}","true","ArrowDown,ArrowRight","false","revaluation","1","4","","",""
"html-keyboard-response","122","644804","0.0-4.0-2.0-1.2","spark_pilot_norest","9157","6","15","Male","","","","","","","null","<div style=""font-size:60px;"">+</div>","null","fixation","","","","","","","","","5","","",""
"revaluation","123","650865","0.0-4.0-2.0-0.3","spark_pilot_norest","9157","6","15","Male","","false","","","","","[286.5,285.10000014305115]","./assets/img/canyon/memory/38.jpg","[""ArrowDown"",""ArrowLeft""]","value training","canyon","8","{""ArrowUp,ArrowLeft"":23,""ArrowUp,ArrowRight"":10,""ArrowDown,ArrowLeft"":8,""ArrowDown,ArrowRight"":30}","false","ArrowDown,ArrowLeft","false","revaluation","1","6","","",""
"html-keyboard-response","124","651369","0.0-4.0-2.0-1.3","spark_pilot_norest","9157","6","15","Male","","","","","","","null","<div style=""font-size:60px;"">+</div>","null","fixation","","","","","","","","","7","","",""
"revaluation","125","657376","0.0-4.0-2.0-0.4","spark_pilot_norest","9157","6","15","Male","","false","","","","","[570.7999999523163,407.09999990463257]","./assets/img/canyon/memory/37.jpg","[""ArrowDown"",""ArrowRight""]","value training","canyon","30","{""ArrowUp,ArrowLeft"":23,""ArrowUp,ArrowRight"":10,""ArrowDown,ArrowLeft"":8,""ArrowDown,ArrowRight"":30}","true","ArrowDown,ArrowRight","false","revaluation","1","8","","",""
"html-keyboard-response","126","657878","0.0-4.0-2.0-1.4","spark_pilot_norest","9157","6","15","Male","","","","","","","null","<div style=""font-size:60px;"">+</div>","null","fixation","","","","","","","","","9","","",""
"revaluation","127","663882","0.0-4.0-2.0-0.5","spark_pilot_norest","9157","6","15","Male","","false","","","","","[678,365.2999999523163]","./assets/img/canyon/memory/21.jpg","[""ArrowDown"",""ArrowRight""]","value training","canyon","30","{""ArrowUp,ArrowLeft"":23,""ArrowUp,ArrowRight"":10,""ArrowDown,ArrowLeft"":8,""ArrowDown,ArrowRight"":30}","true","ArrowDown,ArrowRight","false","revaluation","1","10","","",""
"html-keyboard-response","128","664384","0.0-4.0-2.0-1.5","spark_pilot_norest","9157","6","15","Male","","","","","","","null","<div style=""font-size:60px;"">+</div>","null","fixation","","","","","","","","","11","","",""
"revaluation","129","670390","0.0-4.0-2.0-0.6","spark_pilot_norest","9157","6","15","Male","","false","","","","","[1603,882.2000000476837]","./assets/img/canyon/memory/17.jpg","[""ArrowDown"",""ArrowRight""]","value training","canyon","30","{""ArrowUp,ArrowLeft"":23,""ArrowUp,ArrowRight"":10,""ArrowDown,ArrowLeft"":8,""ArrowDown,ArrowRight"":30}","true","ArrowDown,ArrowRight","false","revaluation","1","12","","",""
"html-keyboard-response","130","670891","0.0-4.0-2.0-1.6","spark_pilot_norest","9157","6","15","Male","","","","","","","null","<div style=""font-size:60px;"">+</div>","null","fixation","","","","","","","","","13","","",""
"revaluation","131","674895","0.0-4.0-2.0-0.7","spark_pilot_norest","9157","6","15","Male","","false","","","","","[624]","./assets/img/canyon/catch/3.jpg","[""spaceBar""]","value training","canyon","0","{""ArrowUp,ArrowLeft"":23,""ArrowUp,ArrowRight"":10,""ArrowDown,ArrowLeft"":8,""ArrowDown,ArrowRight"":30}","true","spaceBar","true","revaluation","1","14","","",""
"html-keyboard-response","132","675397","0.0-4.0-2.0-1.7","spark_pilot_norest","9157","6","15","Male","","","","","","","null","<div style=""font-size:60px;"">+</div>","null","fixation","","","","","","","","","15","","",""
"revaluation","133","681402","0.0-4.0-2.0-0.8","spark_pilot_norest","9157","6","15","Male","","false","","","","","[773.6000001430511,324.2999999523163]","./assets/img/canyon/memory/22.jpg","[""ArrowDown"",""ArrowRight""]","value training","canyon","30","{""ArrowUp,ArrowLeft"":23,""ArrowUp,ArrowRight"":10,""ArrowDown,ArrowLeft"":8,""ArrowDown,ArrowRight"":30}","true","ArrowDown,ArrowRight","false","revaluation","1","16","","",""
"html-keyboard-response","134","681903","0.0-4.0-2.0-1.8","spark_pilot_norest","9157","6","15","Male","","","","","","","null","<div style=""font-size:60px;"">+</div>","null","fixation","","","","","","","","","17","","",""
"revaluation","135","687909","0.0-4.0-2.0-0.9","spark_pilot_norest","9157","6","15","Male","","false","","","","","[882.7999999523163,298]","./assets/img/canyon/memory/38.jpg","[""ArrowDown"",""ArrowRight""]","value training","canyon","30","{""ArrowUp,ArrowLeft"":23,""ArrowUp,ArrowRight"":10,""ArrowDown,ArrowLeft"":8,""ArrowDown,ArrowRight"":30}","true","ArrowDown,ArrowRight","false","revaluation","1","18","","",""
"html-keyboard-response","136","688410","0.0-4.0-2.0-1.9","spark_pilot_norest","9157","6","15","Male","","","","","","","null","<div style=""font-size:60px;"">+</div>","null","fixation","","","","","","","","","19","","",""
"revaluation","137","694421","0.0-4.0-2.0-0.10","spark_pilot_norest","9157","6","15","Male","","false","","","","","[1432.5,751.2000000476837]","./assets/img/canyon/memory/2.jpg","[""ArrowDown"",""ArrowRight""]","value training","canyon","30","{""ArrowUp,ArrowLeft"":23,""ArrowUp,ArrowRight"":10,""ArrowDown,ArrowLeft"":8,""ArrowDown,ArrowRight"":30}","true","ArrowDown,ArrowRight","false","revaluation","1","20","","",""
"html-keyboard-response","138","694922","0.0-4.0-2.0-1.10","spark_pilot_norest","9157","6","15","Male","","","","","","","null","<div style=""font-size:60px;"">+</div>","null","fixation","","","","","","","","","21","","",""
"revaluation","139","700926","0.0-4.0-2.0-0.11","spark_pilot_norest","9157","6","15","Male","","false","","","","","[744.6000001430511,808.5]","./assets/img/canyon/memory/35.jpg","[""ArrowDown"",""ArrowRight""]","value training","canyon","30","{""ArrowUp,ArrowLeft"":23,""ArrowUp,ArrowRight"":10,""ArrowDown,ArrowLeft"":8,""ArrowDown,ArrowRight"":30}","true","ArrowDown,ArrowRight","false","revaluation","1","22","","",""
"html-keyboard-response","140","701428","0.0-4.0-2.0-1.11","spark_pilot_norest","9157","6","15","Male","","","","","","","null","<div style=""font-size:60px;"">+</div>","null","fixation","","","","","","","","","23","","",""
"revaluation","141","707433","0.0-4.0-2.0-0.12","spark_pilot_norest","9157","6","15","Male","","false","","","","","[862.7000000476837,565.3000001907349]","./assets/img/canyon/memory/13.jpg","[""ArrowDown"",""ArrowRight""]","value training","canyon","30","{""ArrowUp,ArrowLeft"":23,""ArrowUp,ArrowRight"":10,""ArrowDown,ArrowLeft"":8,""ArrowDown,ArrowRight"":30}","true","ArrowDown,ArrowRight","false","revaluation","1","24","","",""
"html-keyboard-response","142","707935","0.0-4.0-2.0-1.12","spark_pilot_norest","9157","6","15","Male","","","","","","","null","<div style=""font-size:60px;"">+</div>","null","fixation","","","","","","","","","25","","",""
"revaluation","143","713940","0.0-4.0-2.0-0.13","spark_pilot_norest","9157","6","15","Male","","false","","","","","[1339.8000001907349,826.2999999523163]","./assets/img/canyon/memory/22.jpg","[""ArrowDown"",""ArrowRight""]","value training","canyon","30","{""ArrowUp,ArrowLeft"":23,""ArrowUp,ArrowRight"":10,""ArrowDown,ArrowLeft"":8,""ArrowDown,ArrowRight"":30}","true","ArrowDown,ArrowRight","false","revaluation","1","26","","",""
"html-keyboard-response","144","714442","0.0-4.0-2.0-1.13","spark_pilot_norest","9157","6","15","Male","","","","","","","null","<div style=""font-size:60px;"">+</div>","null","fixation","","","","","","","","","27","","",""
"revaluation","145","718447","0.0-4.0-2.0-0.14","spark_pilot_norest","9157","6","15","Male","","false","","","","","[456.7000000476837]","./assets/img/canyon/catch/6.jpg","[""spaceBar""]","value training","canyon","0","{""ArrowUp,ArrowLeft"":23,""ArrowUp,ArrowRight"":10,""ArrowDown,ArrowLeft"":8,""ArrowDown,ArrowRight"":30}","true","spaceBar","true","revaluation","1","28","","",""
"html-keyboard-response","146","718948","0.0-4.0-2.0-1.14","spark_pilot_norest","9157","6","15","Male","","","","","","","null","<div style=""font-size:60px;"">+</div>","null","fixation","","","","","","","","","29","","",""
"revaluation","147","724953","0.0-4.0-2.0-0.15","spark_pilot_norest","9157","6","15","Male","","false","","","","","[1109.9000000953674,861.8999998569489]","./assets/img/canyon/memory/3.jpg","[""ArrowDown"",""ArrowRight""]","value training","canyon","30","{""ArrowUp,ArrowLeft"":23,""ArrowUp,ArrowRight"":10,""ArrowDown,ArrowLeft"":8,""ArrowDown,ArrowRight"":30}","true","ArrowDown,ArrowRight","false","revaluation","1","30","","",""
"html-keyboard-response","148","725455","0.0-4.0-2.0-1.15","spark_pilot_norest","9157","6","15","Male","","","","","","","null","<div style=""font-size:60px;"">+</div>","null","fixation","","","","","","","","","31","","",""
"revaluation","149","731461","0.0-4.0-2.0-0.16","spark_pilot_norest","9157","6","15","Male","","false","","","","","[723.7999999523163,1018.1000001430511]","./assets/img/canyon/memory/1.jpg","[""ArrowDown"",""ArrowRight""]","value training","canyon","30","{""ArrowUp,ArrowLeft"":23,""ArrowUp,ArrowRight"":10,""ArrowDown,ArrowLeft"":8,""ArrowDown,ArrowRight"":30}","true","ArrowDown,ArrowRight","false","revaluation","1","32","","",""
"html-keyboard-response","150","731962","0.0-4.0-2.0-1.16","spark_pilot_norest","9157","6","15","Male","","","","","","","null","<div style=""font-size:60px;"">+</div>","null","fixation","","","","","","","","","33","","",""
"revaluation","151","735966","0.0-4.0-2.0-0.17","spark_pilot_norest","9157","6","15","Male","","false","","","","","[1248.5]","./assets/img/canyon/catch/2.jpg","[""spaceBar""]","value training","canyon","0","{""ArrowUp,ArrowLeft"":23,""ArrowUp,ArrowRight"":10,""ArrowDown,ArrowLeft"":8,""ArrowDown,ArrowRight"":30}","true","spaceBar","true","revaluation","1","34","","",""
"html-keyboard-response","152","736468","0.0-4.0-2.0-1.17","spark_pilot_norest","9157","6","15","Male","","","","","","","null","<div style=""font-size:60px;"">+</div>","null","fixation","","","","","","","","","35","","",""
"revaluation","153","742474","0.0-4.0-2.0-0.18","spark_pilot_norest","9157","6","15","Male","","false","","","","","[662.2000000476837,445.40000009536743]","./assets/img/canyon/memory/17.jpg","[""ArrowDown"",""ArrowRight""]","value training","canyon","30","{""ArrowUp,ArrowLeft"":23,""ArrowUp,ArrowRight"":10,""ArrowDown,ArrowLeft"":8,""ArrowDown,ArrowRight"":30}","true","ArrowDown,ArrowRight","false","revaluation","1","36","","",""
"html-keyboard-response","154","742975","0.0-4.0-2.0-1.18","spark_pilot_norest","9157","6","15","Male","","","","","","","null","<div style=""font-size:60px;"">+</div>","null","fixation","","","","","","","","","37","","",""
"revaluation","155","748980","0.0-4.0-2.0-0.19","spark_pilot_norest","9157","6","15","Male","","false","","","","","[915.2000000476837,322.7000000476837]","./assets/img/canyon/memory/26.jpg","[""ArrowDown"",""ArrowRight""]","value training","canyon","30","{""ArrowUp,ArrowLeft"":23,""ArrowUp,ArrowRight"":10,""ArrowDown,ArrowLeft"":8,""ArrowDown,ArrowRight"":30}","true","ArrowDown,ArrowRight","false","revaluation","1","38","","",""
"html-keyboard-response","156","749482","0.0-4.0-2.0-1.19","spark_pilot_norest","9157","6","15","Male","","","","","","","null","<div style=""font-size:60px;"">+</div>","null","fixation","","","","","","","","","39","","",""
"revaluation","157","755488","0.0-4.0-2.0-0.20","spark_pilot_norest","9157","6","15","Male","","false","","","","","[833.0999999046326,343.40000009536743]","./assets/img/canyon/memory/28.jpg","[""ArrowDown"",""ArrowRight""]","value training","canyon","30","{""ArrowUp,ArrowLeft"":23,""ArrowUp,ArrowRight"":10,""ArrowDown,ArrowLeft"":8,""ArrowDown,ArrowRight"":30}","true","ArrowDown,ArrowRight","false","revaluation","1","40","","",""
"html-keyboard-response","158","755990","0.0-4.0-2.0-1.20","spark_pilot_norest","9157","6","15","Male","","","","","","","null","<div style=""font-size:60px;"">+</div>","null","fixation","","","","","","","","","41","","",""
"revaluation","159","761994","0.0-4.0-2.0-0.21","spark_pilot_norest","9157","6","15","Male","","false","","","","","[876.3999998569489,572.2000000476837]","./assets/img/canyon/memory/15.jpg","[""ArrowDown"",""ArrowRight""]","value training","canyon","30","{""ArrowUp,ArrowLeft"":23,""ArrowUp,ArrowRight"":10,""ArrowDown,ArrowLeft"":8,""ArrowDown,ArrowRight"":30}","true","ArrowDown,ArrowRight","false","revaluation","1","42","","",""
"html-keyboard-response","160","762495","0.0-4.0-2.0-1.21","spark_pilot_norest","9157","6","15","Male","","","","","","","null","<div style=""font-size:60px;"">+</div>","null","fixation","","","","","","","","","43","","",""
"revaluation","161","768501","0.0-4.0-2.0-0.22","spark_pilot_norest","9157","6","15","Male","","false","","","","","[731.5,705.8000001907349]","./assets/img/canyon/memory/32.jpg","[""ArrowDown"",""ArrowRight""]","value training","canyon","30","{""ArrowUp,ArrowLeft"":23,""ArrowUp,ArrowRight"":10,""ArrowDown,ArrowLeft"":8,""ArrowDown,ArrowRight"":30}","true","ArrowDown,ArrowRight","false","revaluation","1","44","","",""
"html-keyboard-response","162","769003","0.0-4.0-2.0-1.22","spark_pilot_norest","9157","6","15","Male","","","","","","","null","<div style=""font-size:60px;"">+</div>","null","fixation","","","","","","","","","45","","",""
"revaluation","163","775009","0.0-4.0-2.0-0.23","spark_pilot_norest","9157","6","15","Male","","false","","","","","[567.6999998092651,823]","./assets/img/canyon/memory/19.jpg","[""ArrowDown"",""ArrowRight""]","value training","canyon","30","{""ArrowUp,ArrowLeft"":23,""ArrowUp,ArrowRight"":10,""ArrowDown,ArrowLeft"":8,""ArrowDown,ArrowRight"":30}","true","ArrowDown,ArrowRight","false","revaluation","1","46","","",""
"html-keyboard-response","164","775510","0.0-4.0-2.0-1.23","spark_pilot_norest","9157","6","15","Male","","","","","","","null","<div style=""font-size:60px;"">+</div>","null","fixation","","","","","","","","","47","","",""
"revaluation","165","781517","0.0-4.0-2.0-0.24","spark_pilot_norest","9157","6","15","Male","","false","","","","","[580.3999998569489,739.2999999523163]","./assets/img/canyon/memory/2.jpg","[""ArrowDown"",""ArrowRight""]","value training","canyon","30","{""ArrowUp,ArrowLeft"":23,""ArrowUp,ArrowRight"":10,""ArrowDown,ArrowLeft"":8,""ArrowDown,ArrowRight"":30}","true","ArrowDown,ArrowRight","false","revaluation","1","48","","",""
"html-keyboard-response","166","782018","0.0-4.0-2.0-1.24","spark_pilot_norest","9157","6","15","Male","","","","","","","null","<div style=""font-size:60px;"">+</div>","null","fixation","","","","","","","","","49","","",""
"revaluation","167","788024","0.0-4.0-2.0-0.25","spark_pilot_norest","9157","6","15","Male","","false","","","","","[512.2999999523163,286.59999990463257]","./assets/img/canyon/memory/26.jpg","[""ArrowDown"",""ArrowRight""]","value training","canyon","30","{""ArrowUp,ArrowLeft"":23,""ArrowUp,ArrowRight"":10,""ArrowDown,ArrowLeft"":8,""ArrowDown,ArrowRight"":30}","true","ArrowDown,ArrowRight","false","revaluation","1","50","","",""
"html-keyboard-response","168","788539","0.0-4.0-2.0-1.25","spark_pilot_norest","9157","6","15","Male","","","","","","","null","<div style=""font-size:60px;"">+</div>","null","fixation","","","","","","","","","51","","",""
"revaluation","169","794543","0.0-4.0-2.0-0.26","spark_pilot_norest","9157","6","15","Male","","false","","","","","[687.8999998569489,366.7999999523163]","./assets/img/canyon/memory/32.jpg","[""ArrowDown"",""ArrowRight""]","value training","canyon","30","{""ArrowUp,ArrowLeft"":23,""ArrowUp,ArrowRight"":10,""ArrowDown,ArrowLeft"":8,""ArrowDown,ArrowRight"":30}","true","ArrowDown,ArrowRight","false","revaluation","1","52","","",""
"html-keyboard-response","170","795045","0.0-4.0-2.0-1.26","spark_pilot_norest","9157","6","15","Male","","","","","","","null","<div style=""font-size:60px;"">+</div>","null","fixation","","","","","","","","","53","","",""
"revaluation","171","799050","0.0-4.0-2.0-0.27","spark_pilot_norest","9157","6","15","Male","","false","","","","","[1133.5]","./assets/img/canyon/catch/7.jpg","[""spaceBar""]","value training","canyon","0","{""ArrowUp,ArrowLeft"":23,""ArrowUp,ArrowRight"":10,""ArrowDown,ArrowLeft"":8,""ArrowDown,ArrowRight"":30}","true","spaceBar","true","revaluation","1","54","","",""
"html-keyboard-response","172","799551","0.0-4.0-2.0-1.27","spark_pilot_norest","9157","6","15","Male","","","","","","","null","<div style=""font-size:60px;"">+</div>","null","fixation","","","","","","","","","55","","",""
"revaluation","173","805558","0.0-4.0-2.0-0.28","spark_pilot_norest","9157","6","15","Male","","false","","","","","[1195.7999999523163,930.5]","./assets/img/canyon/memory/13.jpg","[""ArrowDown"",""ArrowRight""]","value training","canyon","30","{""ArrowUp,ArrowLeft"":23,""ArrowUp,ArrowRight"":10,""ArrowDown,ArrowLeft"":8,""ArrowDown,ArrowRight"":30}","true","ArrowDown,ArrowRight","false","revaluation","1","56","","",""
"html-keyboard-response","174","806059","0.0-4.0-2.0-1.28","spark_pilot_norest","9157","6","15","Male","","","","","","","null","<div style=""font-size:60px;"">+</div>","null","fixation","","","","","","","","","57","","",""
"revaluation","175","812064","0.0-4.0-2.0-0.29","spark_pilot_norest","9157","6","15","Male","","false","","","","","[928.0999999046326,918.7000000476837]","./assets/img/canyon/memory/28.jpg","[""ArrowDown"",""ArrowRight""]","value training","canyon","30","{""ArrowUp,ArrowLeft"":23,""ArrowUp,ArrowRight"":10,""ArrowDown,ArrowLeft"":8,""ArrowDown,ArrowRight"":30}","true","ArrowDown,ArrowRight","false","revaluation","1","58","","",""
"html-keyboard-response","176","812567","0.0-4.0-2.0-1.29","spark_pilot_norest","9157","6","15","Male","","","","","","","null","<div style=""font-size:60px;"">+</div>","null","fixation","","","","","","","","","59","","",""
"revaluation","177","818572","0.0-4.0-2.0-0.30","spark_pilot_norest","9157","6","15","Male","","false","","","","","[836.5999999046326,443.7000000476837]","./assets/img/canyon/memory/36.jpg","[""ArrowDown"",""ArrowRight""]","value training","canyon","30","{""ArrowUp,ArrowLeft"":23,""ArrowUp,ArrowRight"":10,""ArrowDown,ArrowLeft"":8,""ArrowDown,ArrowRight"":30}","true","ArrowDown,ArrowRight","false","revaluation","1","60","","",""
"html-keyboard-response","178","819074","0.0-4.0-2.0-1.30","spark_pilot_norest","9157","6","15","Male","","","","","","","null","<div style=""font-size:60px;"">+</div>","null","fixation","","","","","","","","","61","","",""
"revaluation","179","825078","0.0-4.0-2.0-0.31","spark_pilot_norest","9157","6","15","Male","","false","","","","","[625.1999998092651,856.5]","./assets/img/canyon/memory/23.jpg","[""ArrowDown"",""ArrowRight""]","value training","canyon","30","{""ArrowUp,ArrowLeft"":23,""ArrowUp,ArrowRight"":10,""ArrowDown,ArrowLeft"":8,""ArrowDown,ArrowRight"":30}","true","ArrowDown,ArrowRight","false","revaluation","1","62","","",""
"html-keyboard-response","180","825580","0.0-4.0-2.0-1.31","spark_pilot_norest","9157","6","15","Male","","","","","","","null","<div style=""font-size:60px;"">+</div>","null","fixation","","","","","","","","","63","","",""
"revaluation","181","831585","0.0-4.0-2.0-0.32","spark_pilot_norest","9157","6","15","Male","","false","","","","","[535.2000000476837,382]","./assets/img/canyon/memory/36.jpg","[""ArrowDown"",""ArrowRight""]","value training","canyon","30","{""ArrowUp,ArrowLeft"":23,""ArrowUp,ArrowRight"":10,""ArrowDown,ArrowLeft"":8,""ArrowDown,ArrowRight"":30}","true","ArrowDown,ArrowRight","false","revaluation","1","64","","",""
"html-keyboard-response","182","832087","0.0-4.0-2.0-1.32","spark_pilot_norest","9157","6","15","Male","","","","","","","null","<div style=""font-size:60px;"">+</div>","null","fixation","","","","","","","","","65","","",""
"revaluation","183","838093","0.0-4.0-2.0-0.33","spark_pilot_norest","9157","6","15","Male","","false","","","","","[595.2999999523163,378.09999990463257]","./assets/img/canyon/memory/21.jpg","[""ArrowDown"",""ArrowRight""]","value training","canyon","30","{""ArrowUp,ArrowLeft"":23,""ArrowUp,ArrowRight"":10,""ArrowDown,ArrowLeft"":8,""ArrowDown,ArrowRight"":30}","true","ArrowDown,ArrowRight","false","revaluation","1","66","","",""
"html-keyboard-response","184","838594","0.0-4.0-2.0-1.33","spark_pilot_norest","9157","6","15","Male","","","","","","","null","<div style=""font-size:60px;"">+</div>","null","fixation","","","","","","","","","67","","",""
"revaluation","185","844599","0.0-4.0-2.0-0.34","spark_pilot_norest","9157","6","15","Male","","false","","","","","[1081,727.8999998569489]","./assets/img/canyon/memory/25.jpg","[""ArrowDown"",""ArrowRight""]","value training","canyon","30","{""ArrowUp,ArrowLeft"":23,""ArrowUp,ArrowRight"":10,""ArrowDown,ArrowLeft"":8,""ArrowDown,ArrowRight"":30}","true","ArrowDown,ArrowRight","false","revaluation","1","68","","",""
"html-keyboard-response","186","845100","0.0-4.0-2.0-1.34","spark_pilot_norest","9157","6","15","Male","","","","","","","null","<div style=""font-size:60px;"">+</div>","null","fixation","","","","","","","","","69","","",""
"revaluation","187","851106","0.0-4.0-2.0-0.35","spark_pilot_norest","9157","6","15","Male","","false","","","","","[454.7000000476837,1189.5999999046326]","./assets/img/canyon/memory/35.jpg","[""ArrowDown"",""ArrowRight""]","value training","canyon","30","{""ArrowUp,ArrowLeft"":23,""ArrowUp,ArrowRight"":10,""ArrowDown,ArrowLeft"":8,""ArrowDown,ArrowRight"":30}","true","ArrowDown,ArrowRight","false","revaluation","1","70","","",""
"html-keyboard-response","188","851608","0.0-4.0-2.0-1.35","spark_pilot_norest","9157","6","15","Male","","","","","","","null","<div style=""font-size:60px;"">+</div>","null","fixation","","","","","","","","","71","","",""
"revaluation","189","857613","0.0-4.0-2.0-0.36","spark_pilot_norest","9157","6","15","Male","","false","","","","","[947.2999999523163,969.5999999046326]","./assets/img/canyon/memory/9.jpg","[""ArrowDown"",""ArrowRight""]","value training","canyon","30","{""ArrowUp,ArrowLeft"":23,""ArrowUp,ArrowRight"":10,""ArrowDown,ArrowLeft"":8,""ArrowDown,ArrowRight"":30}","true","ArrowDown,ArrowRight","false","revaluation","1","72","","",""
"html-keyboard-response","190","858115","0.0-4.0-2.0-1.36","spark_pilot_norest","9157","6","15","Male","","","","","","","null","<div style=""font-size:60px;"">+</div>","null","fixation","","","","","","","","","73","","",""
"revaluation","191","864120","0.0-4.0-2.0-0.37","spark_pilot_norest","9157","6","15","Male","","false","","","","","[1159.5999999046326,959]","./assets/img/canyon/memory/0.jpg","[""ArrowDown"",""ArrowRight""]","value training","canyon","30","{""ArrowUp,ArrowLeft"":23,""ArrowUp,ArrowRight"":10,""ArrowDown,ArrowLeft"":8,""ArrowDown,ArrowRight"":30}","true","ArrowDown,ArrowRight","false","revaluation","1","74","","",""
"html-keyboard-response","192","864622","0.0-4.0-2.0-1.37","spark_pilot_norest","9157","6","15","Male","","","","","","","null","<div style=""font-size:60px;"">+</div>","null","fixation","","","","","","","","","75","","",""
"revaluation","193","868626","0.0-4.0-2.0-0.38","spark_pilot_norest","9157","6","15","Male","","false","","","","","[1484.4000000953674]","./assets/img/canyon/catch/0.jpg","[""spaceBar""]","value training","canyon","0","{""ArrowUp,ArrowLeft"":23,""ArrowUp,ArrowRight"":10,""ArrowDown,ArrowLeft"":8,""ArrowDown,ArrowRight"":30}","true","spaceBar","true","revaluation","1","76","","",""
"html-keyboard-response","194","869127","0.0-4.0-2.0-1.38","spark_pilot_norest","9157","6","15","Male","","","","","","","null","<div style=""font-size:60px;"">+</div>","null","fixation","","","","","","","","","77","","",""
"revaluation","195","873131","0.0-4.0-2.0-0.39","spark_pilot_norest","9157","6","15","Male","","true","","","","","[]","./assets/img/canyon/catch/1.jpg","[]","value training","canyon","-5","{""ArrowUp,ArrowLeft"":23,""ArrowUp,ArrowRight"":10,""ArrowDown,ArrowLeft"":8,""ArrowDown,ArrowRight"":30}","false","","true","revaluation","1","78","","",""
"html-keyboard-response","196","873633","0.0-4.0-2.0-1.39","spark_pilot_norest","9157","6","15","Male","","","","","","","null","<div style=""font-size:60px;"">+</div>","null","fixation","","","","","","","","","79","","",""
"revaluation","197","877637","0.0-4.0-2.0-0.40","spark_pilot_norest","9157","6","15","Male","","false","","","","","[746.0999999046326]","./assets/img/canyon/catch/4.jpg","[""spaceBar""]","value training","canyon","0","{""ArrowUp,ArrowLeft"":23,""ArrowUp,ArrowRight"":10,""ArrowDown,ArrowLeft"":8,""ArrowDown,ArrowRight"":30}","true","spaceBar","true","revaluation","1","80","","",""
"html-keyboard-response","198","878139","0.0-4.0-2.0-1.40","spark_pilot_norest","9157","6","15","Male","","","","","","","null","<div style=""font-size:60px;"">+</div>","null","fixation","","","","","","","","","81","","",""
"revaluation","199","884149","0.0-4.0-2.0-0.41","spark_pilot_norest","9157","6","15","Male","","false","","","","","[615,461.90000009536743]","./assets/img/canyon/memory/37.jpg","[""ArrowDown"",""ArrowRight""]","value training","canyon","30","{""ArrowUp,ArrowLeft"":23,""ArrowUp,ArrowRight"":10,""ArrowDown,ArrowLeft"":8,""ArrowDown,ArrowRight"":30}","true","ArrowDown,ArrowRight","false","revaluation","1","82","","",""
"html-keyboard-response","200","884651","0.0-4.0-2.0-1.41","spark_pilot_norest","9157","6","15","Male","","","","","","","null","<div style=""font-size:60px;"">+</div>","null","fixation","","","","","","","","","83","","",""
"revaluation","201","890655","0.0-4.0-2.0-0.42","spark_pilot_norest","9157","6","15","Male","","false","","","","","[823.7000000476837,263.10000014305115]","./assets/img/canyon/memory/23.jpg","[""ArrowDown"",""ArrowRight""]","value training","canyon","30","{""ArrowUp,ArrowLeft"":23,""ArrowUp,ArrowRight"":10,""ArrowDown,ArrowLeft"":8,""ArrowDown,ArrowRight"":30}","true","ArrowDown,ArrowRight","false","revaluation","1","84","","",""
"html-keyboard-response","202","891157","0.0-4.0-2.0-1.42","spark_pilot_norest","9157","6","15","Male","","","","","","","null","<div style=""font-size:60px;"">+</div>","null","fixation","","","","","","","","","85","","",""
"revaluation","203","897162","0.0-4.0-2.0-0.43","spark_pilot_norest","9157","6","15","Male","","false","","","","","[773.2000000476837,555.2999999523163]","./assets/img/canyon/memory/9.jpg","[""ArrowDown"",""ArrowRight""]","value training","canyon","30","{""ArrowUp,ArrowLeft"":23,""ArrowUp,ArrowRight"":10,""ArrowDown,ArrowLeft"":8,""ArrowDown,ArrowRight"":30}","true","ArrowDown,ArrowRight","false","revaluation","1","86","","",""
"html-keyboard-response","204","897664","0.0-4.0-2.0-1.43","spark_pilot_norest","9157","6","15","Male","","","","","","","null","<div style=""font-size:60px;"">+</div>","null","fixation","","","","","","","","","87","","",""
"revaluation","205","903680","0.0-4.0-2.0-0.44","spark_pilot_norest","9157","6","15","Male","","false","","","","","[1106.2999999523163,286.7999999523163]","./assets/img/canyon/memory/3.jpg","[""ArrowDown"",""ArrowRight""]","value training","canyon","30","{""ArrowUp,ArrowLeft"":23,""ArrowUp,ArrowRight"":10,""ArrowDown,ArrowLeft"":8,""ArrowDown,ArrowRight"":30}","true","ArrowDown,ArrowRight","false","revaluation","1","88","","",""
"html-keyboard-response","206","904182","0.0-4.0-2.0-1.44","spark_pilot_norest","9157","6","15","Male","","","","","","","null","<div style=""font-size:60px;"">+</div>","null","fixation","","","","","","","","","89","","",""
"revaluation","207","910188","0.0-4.0-2.0-0.45","spark_pilot_norest","9157","6","15","Male","","false","","","","","[444.2999999523163,779.1000001430511]","./assets/img/canyon/memory/20.jpg","[""ArrowDown"",""ArrowRight""]","value training","canyon","30","{""ArrowUp,ArrowLeft"":23,""ArrowUp,ArrowRight"":10,""ArrowDown,ArrowLeft"":8,""ArrowDown,ArrowRight"":30}","true","ArrowDown,ArrowRight","false","revaluation","1","90","","",""
"html-keyboard-response","208","910690","0.0-4.0-2.0-1.45","spark_pilot_norest","9157","6","15","Male","","","","","","","null","<div style=""font-size:60px;"">+</div>","null","fixation","","","","","","","","","91","","",""
"revaluation","209","914693","0.0-4.0-2.0-0.46","spark_pilot_norest","9157","6","15","Male","","false","","","","","[985.5]","./assets/img/canyon/catch/5.jpg","[""spaceBar""]","value training","canyon","0","{""ArrowUp,ArrowLeft"":23,""ArrowUp,ArrowRight"":10,""ArrowDown,ArrowLeft"":8,""ArrowDown,ArrowRight"":30}","true","spaceBar","true","revaluation","1","92","","",""
"html-keyboard-response","210","915195","0.0-4.0-2.0-1.46","spark_pilot_norest","9157","6","15","Male","","","","","","","null","<div style=""font-size:60px;"">+</div>","null","fixation","","","","","","","","","93","","",""
"revaluation","211","921202","0.0-4.0-2.0-0.47","spark_pilot_norest","9157","6","15","Male","","false","","","","","[703.5,613.2999999523163]","./assets/img/canyon/memory/15.jpg","[""ArrowDown"",""ArrowRight""]","value training","canyon","30","{""ArrowUp,ArrowLeft"":23,""ArrowUp,ArrowRight"":10,""ArrowDown,ArrowLeft"":8,""ArrowDown,ArrowRight"":30}","true","ArrowDown,ArrowRight","false","revaluation","1","94","","",""
"html-keyboard-response","212","921704","0.0-4.0-2.0-1.47","spark_pilot_norest","9157","6","15","Male","","","","","","","null","<div style=""font-size:60px;"">+</div>","null","fixation","","","","","","","","","95","","",""
"revaluation","213","927709","0.0-4.0-2.0-0.48","spark_pilot_norest","9157","6","15","Male","","false","","","","","[451,290.5]","./assets/img/canyon/memory/19.jpg","[""ArrowDown"",""ArrowRight""]","value training","canyon","30","{""ArrowUp,ArrowLeft"":23,""ArrowUp,ArrowRight"":10,""ArrowDown,ArrowLeft"":8,""ArrowDown,ArrowRight"":30}","true","ArrowDown,ArrowRight","false","revaluation","1","96","","",""
"html-keyboard-response","214","928211","0.0-4.0-2.0-1.48","spark_pilot_norest","9157","6","15","Male","","","","","","","null","<div style=""font-size:60px;"">+</div>","null","fixation","","","","","","","","","97","","",""
"revaluation","215","934218","0.0-4.0-2.0-0.49","spark_pilot_norest","9157","6","15","Male","","false","","","","","[679.6000001430511,581.9000000953674]","./assets/img/canyon/memory/25.jpg","[""ArrowDown"",""ArrowRight""]","value training","canyon","30","{""ArrowUp,ArrowLeft"":23,""ArrowUp,ArrowRight"":10,""ArrowDown,ArrowLeft"":8,""ArrowDown,ArrowRight"":30}","true","ArrowDown,ArrowRight","false","revaluation","1","98","","",""
"html-keyboard-response","216","934720","0.0-4.0-2.0-1.49","spark_pilot_norest","9157","6","15","Male","","","","","","","null","<div style=""font-size:60px;"">+</div>","null","fixation","","","","","","","","","99","","",""
"learning-instructions","217","949935","0.0-4.0-3.0-0.0","spark_pilot_norest","9157","6","15","Male","","","","","","","2196.899999856949","<p> Now, you will travel with a friend who will choose whether you go up or down first. </p>
            <p> On these turns, you will just see the animal that they found. You will still get to choose which chest to search for treasure.</p>","","instructions","","","","","","","","","","","",""
"revaluation","218","953967","0.0-4.0-4.0-0.0","spark_pilot_norest","9157","6","15","Male","","false","","","","","[981.2000000476837]","./assets/img/canyon/animals/lion.jpg","[""ArrowRight""]","revaluation","canyon","7","{""ArrowUp,ArrowLeft"":27,""ArrowUp,ArrowRight"":15,""ArrowDown,ArrowLeft"":21,""ArrowDown,ArrowRight"":7}","false","ArrowDown,ArrowRight","","revaluation","1","0","","",""
"html-keyboard-response","219","954487","0.0-4.0-4.0-1.0","spark_pilot_norest","9157","6","15","Male","","","","","","","null","<div style=""font-size:60px;"">+</div>","null","fixation","","","","","","","","","1","","",""
"revaluation","220","958507","0.0-4.0-4.0-0.1","spark_pilot_norest","9157","6","15","Male","","false","","","","","[572.3999998569489]","./assets/img/canyon/animals/lion.jpg","[""ArrowLeft""]","revaluation","canyon","21","{""ArrowUp,ArrowLeft"":27,""ArrowUp,ArrowRight"":15,""ArrowDown,ArrowLeft"":21,""ArrowDown,ArrowRight"":7}","true","ArrowDown,ArrowLeft","","revaluation","1","2","","",""
"html-keyboard-response","221","959026","0.0-4.0-4.0-1.1","spark_pilot_norest","9157","6","15","Male","","","","","","","null","<div style=""font-size:60px;"">+</div>","null","fixation","","","","","","","","","3","","",""
"revaluation","222","963057","0.0-4.0-4.0-0.2","spark_pilot_norest","9157","6","15","Male","","false","","","","","[848.5]","./assets/img/canyon/animals/giraffe.jpg","[""ArrowRight""]","revaluation","canyon","15","{""ArrowUp,ArrowLeft"":27,""ArrowUp,ArrowRight"":15,""ArrowDown,ArrowLeft"":21,""ArrowDown,ArrowRight"":7}","false","ArrowUp,ArrowRight","","revaluation","1","4","","",""
"html-keyboard-response","223","963577","0.0-4.0-4.0-1.2","spark_pilot_norest","9157","6","15","Male","","","","","","","null","<div style=""font-size:60px;"">+</div>","null","fixation","","","","","","","","","5","","",""
"revaluation","224","967607","0.0-4.0-4.0-0.3","spark_pilot_norest","9157","6","15","Male","","false","","","","","[377.90000009536743]","./assets/img/canyon/animals/giraffe.jpg","[""ArrowLeft""]","revaluation","canyon","27","{""ArrowUp,ArrowLeft"":27,""ArrowUp,ArrowRight"":15,""ArrowDown,ArrowLeft"":21,""ArrowDown,ArrowRight"":7}","true","ArrowUp,ArrowLeft","","revaluation","1","6","","",""
"html-keyboard-response","225","968127","0.0-4.0-4.0-1.3","spark_pilot_norest","9157","6","15","Male","","","","","","","null","<div style=""font-size:60px;"">+</div>","null","fixation","","","","","","","","","7","","",""
"revaluation","226","972157","0.0-4.0-4.0-0.4","spark_pilot_norest","9157","6","15","Male","","false","","","","","[803.3999998569489]","./assets/img/canyon/animals/lion.jpg","[""ArrowLeft""]","revaluation","canyon","21","{""ArrowUp,ArrowLeft"":27,""ArrowUp,ArrowRight"":15,""ArrowDown,ArrowLeft"":21,""ArrowDown,ArrowRight"":7}","true","ArrowDown,ArrowLeft","","revaluation","1","8","","",""
"html-keyboard-response","227","972677","0.0-4.0-4.0-1.4","spark_pilot_norest","9157","6","15","Male","","","","","","","null","<div style=""font-size:60px;"">+</div>","null","fixation","","","","","","","","","9","","",""
"revaluation","228","976707","0.0-4.0-4.0-0.5","spark_pilot_norest","9157","6","15","Male","","false","","","","","[774.4000000953674]","./assets/img/canyon/animals/lion.jpg","[""ArrowLeft""]","revaluation","canyon","21","{""ArrowUp,ArrowLeft"":27,""ArrowUp,ArrowRight"":15,""ArrowDown,ArrowLeft"":21,""ArrowDown,ArrowRight"":7}","true","ArrowDown,ArrowLeft","","revaluation","1","10","","",""
"html-keyboard-response","229","977226","0.0-4.0-4.0-1.5","spark_pilot_norest","9157","6","15","Male","","","","","","","null","<div style=""font-size:60px;"">+</div>","null","fixation","","","","","","","","","11","","",""
"revaluation","230","981232","0.0-4.0-4.0-0.6","spark_pilot_norest","9157","6","15","Male","","false","","","","","[679.6999998092651]","./assets/img/canyon/animals/lion.jpg","[""ArrowLeft""]","revaluation","canyon","21","{""ArrowUp,ArrowLeft"":27,""ArrowUp,ArrowRight"":15,""ArrowDown,ArrowLeft"":21,""ArrowDown,ArrowRight"":7}","true","ArrowDown,ArrowLeft","","revaluation","1","12","","",""
"html-keyboard-response","231","981734","0.0-4.0-4.0-1.6","spark_pilot_norest","9157","6","15","Male","","","","","","","null","<div style=""font-size:60px;"">+</div>","null","fixation","","","","","","","","","13","","",""
"revaluation","232","985738","0.0-4.0-4.0-0.7","spark_pilot_norest","9157","6","15","Male","","false","","","","","[740.2999999523163]","./assets/img/canyon/animals/giraffe.jpg","[""ArrowLeft""]","revaluation","canyon","27","{""ArrowUp,ArrowLeft"":27,""ArrowUp,ArrowRight"":15,""ArrowDown,ArrowLeft"":21,""ArrowDown,ArrowRight"":7}","true","ArrowUp,ArrowLeft","","revaluation","1","14","","",""
"html-keyboard-response","233","986240","0.0-4.0-4.0-1.7","spark_pilot_norest","9157","6","15","Male","","","","","","","null","<div style=""font-size:60px;"">+</div>","null","fixation","","","","","","","","","15","","",""
"revaluation","234","990245","0.0-4.0-4.0-0.8","spark_pilot_norest","9157","6","15","Male","","false","","","","","[905.7999999523163]","./assets/img/canyon/animals/giraffe.jpg","[""ArrowLeft""]","revaluation","canyon","27","{""ArrowUp,ArrowLeft"":27,""ArrowUp,ArrowRight"":15,""ArrowDown,ArrowLeft"":21,""ArrowDown,ArrowRight"":7}","true","ArrowUp,ArrowLeft","","revaluation","1","16","","",""
"html-keyboard-response","235","990747","0.0-4.0-4.0-1.8","spark_pilot_norest","9157","6","15","Male","","","","","","","null","<div style=""font-size:60px;"">+</div>","null","fixation","","","","","","","","","17","","",""
"revaluation","236","994751","0.0-4.0-4.0-0.9","spark_pilot_norest","9157","6","15","Male","","false","","","","","[711.4000000953674]","./assets/img/canyon/animals/giraffe.jpg","[""ArrowLeft""]","revaluation","canyon","27","{""ArrowUp,ArrowLeft"":27,""ArrowUp,ArrowRight"":15,""ArrowDown,ArrowLeft"":21,""ArrowDown,ArrowRight"":7}","true","ArrowUp,ArrowLeft","","revaluation","1","18","","",""
"html-keyboard-response","237","995253","0.0-4.0-4.0-1.9","spark_pilot_norest","9157","6","15","Male","","","","","","","null","<div style=""font-size:60px;"">+</div>","null","fixation","","","","","","","","","19","","",""
"revaluation","238","999258","0.0-4.0-4.0-0.10","spark_pilot_norest","9157","6","15","Male","","false","","","","","[877.1999998092651]","./assets/img/canyon/animals/giraffe.jpg","[""ArrowLeft""]","revaluation","canyon","27","{""ArrowUp,ArrowLeft"":27,""ArrowUp,ArrowRight"":15,""ArrowDown,ArrowLeft"":21,""ArrowDown,ArrowRight"":7}","true","ArrowUp,ArrowLeft","","revaluation","1","20","","",""
"html-keyboard-response","239","999760","0.0-4.0-4.0-1.10","spark_pilot_norest","9157","6","15","Male","","","","","","","null","<div style=""font-size:60px;"">+</div>","null","fixation","","","","","","","","","21","","",""
"revaluation","240","1003764","0.0-4.0-4.0-0.11","spark_pilot_norest","9157","6","15","Male","","false","","","","","[762.9000000953674]","./assets/img/canyon/animals/giraffe.jpg","[""ArrowLeft""]","revaluation","canyon","27","{""ArrowUp,ArrowLeft"":27,""ArrowUp,ArrowRight"":15,""ArrowDown,ArrowLeft"":21,""ArrowDown,ArrowRight"":7}","true","ArrowUp,ArrowLeft","","revaluation","1","22","","",""
"html-keyboard-response","241","1004266","0.0-4.0-4.0-1.11","spark_pilot_norest","9157","6","15","Male","","","","","","","null","<div style=""font-size:60px;"">+</div>","null","fixation","","","","","","","","","23","","",""
"revaluation","242","1008271","0.0-4.0-4.0-0.12","spark_pilot_norest","9157","6","15","Male","","false","","","","","[334.89999985694885]","./assets/img/canyon/animals/giraffe.jpg","[""ArrowLeft""]","revaluation","canyon","27","{""ArrowUp,ArrowLeft"":27,""ArrowUp,ArrowRight"":15,""ArrowDown,ArrowLeft"":21,""ArrowDown,ArrowRight"":7}","true","ArrowUp,ArrowLeft","","revaluation","1","24","","",""
"html-keyboard-response","243","1008773","0.0-4.0-4.0-1.12","spark_pilot_norest","9157","6","15","Male","","","","","","","null","<div style=""font-size:60px;"">+</div>","null","fixation","","","","","","","","","25","","",""
"revaluation","244","1012777","0.0-4.0-4.0-0.13","spark_pilot_norest","9157","6","15","Male","","false","","","","","[349.40000009536743]","./assets/img/canyon/animals/lion.jpg","[""ArrowLeft""]","revaluation","canyon","21","{""ArrowUp,ArrowLeft"":27,""ArrowUp,ArrowRight"":15,""ArrowDown,ArrowLeft"":21,""ArrowDown,ArrowRight"":7}","true","ArrowDown,ArrowLeft","","revaluation","1","26","","",""
"html-keyboard-response","245","1013279","0.0-4.0-4.0-1.13","spark_pilot_norest","9157","6","15","Male","","","","","","","null","<div style=""font-size:60px;"">+</div>","null","fixation","","","","","","","","","27","","",""
"revaluation","246","1017282","0.0-4.0-4.0-0.14","spark_pilot_norest","9157","6","15","Male","","false","","","","","[356.5]","./assets/img/canyon/animals/lion.jpg","[""ArrowLeft""]","revaluation","canyon","21","{""ArrowUp,ArrowLeft"":27,""ArrowUp,ArrowRight"":15,""ArrowDown,ArrowLeft"":21,""ArrowDown,ArrowRight"":7}","true","ArrowDown,ArrowLeft","","revaluation","1","28","","",""
"html-keyboard-response","247","1017784","0.0-4.0-4.0-1.14","spark_pilot_norest","9157","6","15","Male","","","","","","","null","<div style=""font-size:60px;"">+</div>","null","fixation","","","","","","","","","29","","",""
"revaluation","248","1021789","0.0-4.0-4.0-0.15","spark_pilot_norest","9157","6","15","Male","","false","","","","","[353.7999999523163]","./assets/img/canyon/animals/lion.jpg","[""ArrowLeft""]","revaluation","canyon","21","{""ArrowUp,ArrowLeft"":27,""ArrowUp,ArrowRight"":15,""ArrowDown,ArrowLeft"":21,""ArrowDown,ArrowRight"":7}","true","ArrowDown,ArrowLeft","","revaluation","1","30","","",""
"html-keyboard-response","249","1022291","0.0-4.0-4.0-1.15","spark_pilot_norest","9157","6","15","Male","","","","","","","null","<div style=""font-size:60px;"">+</div>","null","fixation","","","","","","","","","31","","",""
"revaluation","250","1026296","0.0-4.0-4.0-0.16","spark_pilot_norest","9157","6","15","Male","","false","","","","","[423.5]","./assets/img/canyon/animals/lion.jpg","[""ArrowLeft""]","revaluation","canyon","21","{""ArrowUp,ArrowLeft"":27,""ArrowUp,ArrowRight"":15,""ArrowDown,ArrowLeft"":21,""ArrowDown,ArrowRight"":7}","true","ArrowDown,ArrowLeft","","revaluation","1","32","","",""
"html-keyboard-response","251","1026797","0.0-4.0-4.0-1.16","spark_pilot_norest","9157","6","15","Male","","","","","","","null","<div style=""font-size:60px;"">+</div>","null","fixation","","","","","","","","","33","","",""
"revaluation","252","1030802","0.0-4.0-4.0-0.17","spark_pilot_norest","9157","6","15","Male","","false","","","","","[373]","./assets/img/canyon/animals/giraffe.jpg","[""ArrowLeft""]","revaluation","canyon","27","{""ArrowUp,ArrowLeft"":27,""ArrowUp,ArrowRight"":15,""ArrowDown,ArrowLeft"":21,""ArrowDown,ArrowRight"":7}","true","ArrowUp,ArrowLeft","","revaluation","1","34","","",""
"html-keyboard-response","253","1031303","0.0-4.0-4.0-1.17","spark_pilot_norest","9157","6","15","Male","","","","","","","null","<div style=""font-size:60px;"">+</div>","null","fixation","","","","","","","","","35","","",""
"learning-instructions","254","1039550","0.0-4.0-5.0-0.0","spark_pilot_norest","9157","6","15","Male","","","","","","","null","<p> You have almost finished this part of the game! </p>
            <p> We are going to ask you to make a few more choices. </p>","","instructions","","","","","","","","","","","",""
"learning-instructions","255","1055551","0.0-4.0-5.0-0.1","spark_pilot_norest","9157","6","15","Male","","","","","","","null","<p> First, you need to decide whether to go up or down. When you see each picture, use the arrow keys to make your choice. </p>
            <p><b>You will not see which animal you found, but try to get to the one that will give you the most treasure.</b></p>","","instructions","","","","","","","","","","","",""
"html-keyboard-response","256","1056560","0.0-4.0-6.0-0.0","spark_pilot_norest","9157","6","15","Male","","","","","","","null","<div style=""font-size:100px;color:red;"">Starting in...</div>","null","","","","","","","","","","","","",""
"html-keyboard-response","257","1057570","0.0-4.0-6.0-1.0","spark_pilot_norest","9157","6","15","Male","","","","","","","null","<div style=""font-size:200px;color:red;"">3</div>","null","","","","","","","","","","","","",""
"html-keyboard-response","258","1058591","0.0-4.0-6.0-2.0","spark_pilot_norest","9157","6","15","Male","","","","","","","null","<div style=""font-size:200px;color:red;"">2</div>","null","","","","","","","","","","","","",""
"html-keyboard-response","259","1059601","0.0-4.0-6.0-3.0","spark_pilot_norest","9157","6","15","Male","","","","","","","null","<div style=""font-size:200px;color:red;"">1</div>","null","","","","","","","","","","","","",""
"revaluation","260","1060430","0.0-4.0-7.0-0.0","spark_pilot_norest","9157","6","15","Male","","false","","","","","[826.2999999523163]","./assets/img/canyon/test/3.jpg","[""ArrowUp""]","first stage test","canyon","0","{""ArrowUp,ArrowLeft"":27,""ArrowUp,ArrowRight"":15,""ArrowDown,ArrowLeft"":21,""ArrowDown,ArrowRight"":7}","true","ArrowUp","false","revaluation","1","","","",""
"html-keyboard-response","261","1060951","0.0-4.0-7.0-1.0","spark_pilot_norest","9157","6","15","Male","","","","","","","null","<div style=""font-size:60px;"">+</div>","null","fixation","","","","","","","","","","","",""
"revaluation","262","1061653","0.0-4.0-7.0-0.1","spark_pilot_norest","9157","6","15","Male","","false","","","","","[699.4000000953674]","./assets/img/canyon/test/0.jpg","[""ArrowUp""]","first stage test","canyon","0","{""ArrowUp,ArrowLeft"":27,""ArrowUp,ArrowRight"":15,""ArrowDown,ArrowLeft"":21,""ArrowDown,ArrowRight"":7}","true","ArrowUp","false","revaluation","1","","","",""
"html-keyboard-response","263","1062161","0.0-4.0-7.0-1.1","spark_pilot_norest","9157","6","15","Male","","","","","","","null","<div style=""font-size:60px;"">+</div>","null","fixation","","","","","","","","","","","",""
"revaluation","264","1062861","0.0-4.0-7.0-0.2","spark_pilot_norest","9157","6","15","Male","","false","","","","","[698]","./assets/img/canyon/test/1.jpg","[""ArrowDown""]","first stage test","canyon","0","{""ArrowUp,ArrowLeft"":27,""ArrowUp,ArrowRight"":15,""ArrowDown,ArrowLeft"":21,""ArrowDown,ArrowRight"":7}","false","ArrowDown","false","revaluation","1","","","",""
"html-keyboard-response","265","1063371","0.0-4.0-7.0-1.2","spark_pilot_norest","9157","6","15","Male","","","","","","","null","<div style=""font-size:60px;"">+</div>","null","fixation","","","","","","","","","","","",""
"revaluation","266","1063790","0.0-4.0-7.0-0.3","spark_pilot_norest","9157","6","15","Male","","false","","","","","[416.5]","./assets/img/canyon/test/2.jpg","[""ArrowDown""]","first stage test","canyon","0","{""ArrowUp,ArrowLeft"":27,""ArrowUp,ArrowRight"":15,""ArrowDown,ArrowLeft"":21,""ArrowDown,ArrowRight"":7}","false","ArrowDown","false","revaluation","1","","","",""
"html-keyboard-response","267","1064306","0.0-4.0-7.0-1.3","spark_pilot_norest","9157","6","15","Male","","","","","","","null","<div style=""font-size:60px;"">+</div>","null","fixation","","","","","","","","","","","",""
"learning-instructions","268","1077671","0.0-4.0-8.0-0.0","spark_pilot_norest","9157","6","15","Male","","","","","","","null","<p> Now you will see the animals again and can search their chests for treasure. </p>
            <p> This time, you will not see how much treasure you earned, but you will earn more bonus money for making better choices. </p>","","instructions","","","","","","","","","","","",""
"html-keyboard-response","269","1078680","0.0-4.0-9.0-0.0","spark_pilot_norest","9157","6","15","Male","","","","","","","null","<div style=""font-size:100px;color:red;"">Starting in...</div>","null","","","","","","","","","","","","",""
"html-keyboard-response","270","1079700","0.0-4.0-9.0-1.0","spark_pilot_norest","9157","6","15","Male","","","","","","","null","<div style=""font-size:200px;color:red;"">3</div>","null","","","","","","","","","","","","",""
"html-keyboard-response","271","1080711","0.0-4.0-9.0-2.0","spark_pilot_norest","9157","6","15","Male","","","","","","","null","<div style=""font-size:200px;color:red;"">2</div>","null","","","","","","","","","","","","",""
"html-keyboard-response","272","1081731","0.0-4.0-9.0-3.0","spark_pilot_norest","9157","6","15","Male","","","","","","","null","<div style=""font-size:200px;color:red;"">1</div>","null","","","","","","","","","","","","",""
"revaluation","273","1082109","0.0-4.0-10.0-0.0","spark_pilot_norest","9157","6","15","Male","","false","","","","","[375.80000019073486]","./assets/img/canyon/animals/giraffe.jpg","[""ArrowLeft""]","second stage test","canyon","0","{""ArrowUp,ArrowLeft"":27,""ArrowUp,ArrowRight"":15,""ArrowDown,ArrowLeft"":21,""ArrowDown,ArrowRight"":7}","true","ArrowUp,ArrowLeft","","revaluation","1","","","",""
"html-keyboard-response","274","1082611","0.0-4.0-10.0-1.0","spark_pilot_norest","9157","6","15","Male","","","","","","","null","<div style=""font-size:60px;"">+</div>","null","fixation","","","","","","","","","","","",""
"revaluation","275","1082949","0.0-4.0-10.0-0.1","spark_pilot_norest","9157","6","15","Male","","false","","","","","[335.7000000476837]","./assets/img/canyon/animals/giraffe.jpg","[""ArrowLeft""]","second stage test","canyon","0","{""ArrowUp,ArrowLeft"":27,""ArrowUp,ArrowRight"":15,""ArrowDown,ArrowLeft"":21,""ArrowDown,ArrowRight"":7}","true","ArrowUp,ArrowLeft","","revaluation","1","","","",""
"html-keyboard-response","276","1083450","0.0-4.0-10.0-1.1","spark_pilot_norest","9157","6","15","Male","","","","","","","null","<div style=""font-size:60px;"">+</div>","null","fixation","","","","","","","","","","","",""
"revaluation","277","1083750","0.0-4.0-10.0-0.2","spark_pilot_norest","9157","6","15","Male","","false","","","","","[296.59999990463257]","./assets/img/canyon/animals/giraffe.jpg","[""ArrowRight""]","second stage test","canyon","0","{""ArrowUp,ArrowLeft"":27,""ArrowUp,ArrowRight"":15,""ArrowDown,ArrowLeft"":21,""ArrowDown,ArrowRight"":7}","false","ArrowUp,ArrowRight","","revaluation","1","","","",""
"html-keyboard-response","278","1084261","0.0-4.0-10.0-1.2","spark_pilot_norest","9157","6","15","Male","","","","","","","null","<div style=""font-size:60px;"">+</div>","null","fixation","","","","","","","","","","","",""
"revaluation","279","1084605","0.0-4.0-10.0-0.3","spark_pilot_norest","9157","6","15","Male","","false","","","","","[341.5]","./assets/img/canyon/animals/giraffe.jpg","[""ArrowRight""]","second stage test","canyon","0","{""ArrowUp,ArrowLeft"":27,""ArrowUp,ArrowRight"":15,""ArrowDown,ArrowLeft"":21,""ArrowDown,ArrowRight"":7}","false","ArrowUp,ArrowRight","","revaluation","1","","","",""
"html-keyboard-response","280","1085121","0.0-4.0-10.0-1.3","spark_pilot_norest","9157","6","15","Male","","","","","","","null","<div style=""font-size:60px;"">+</div>","null","fixation","","","","","","","","","","","",""
"revaluation","281","1085693","0.0-4.0-10.0-0.4","spark_pilot_norest","9157","6","15","Male","","false","","","","","[570]","./assets/img/canyon/animals/lion.jpg","[""ArrowRight""]","second stage test","canyon","0","{""ArrowUp,ArrowLeft"":27,""ArrowUp,ArrowRight"":15,""ArrowDown,ArrowLeft"":21,""ArrowDown,ArrowRight"":7}","false","ArrowDown,ArrowRight","","revaluation","1","","","",""
"html-keyboard-response","282","1086201","0.0-4.0-10.0-1.4","spark_pilot_norest","9157","6","15","Male","","","","","","","null","<div style=""font-size:60px;"">+</div>","null","fixation","","","","","","","","","","","",""
"revaluation","283","1086533","0.0-4.0-10.0-0.5","spark_pilot_norest","9157","6","15","Male","","false","","","","","[329.60000014305115]","./assets/img/canyon/animals/lion.jpg","[""ArrowLeft""]","second stage test","canyon","0","{""ArrowUp,ArrowLeft"":27,""ArrowUp,ArrowRight"":15,""ArrowDown,ArrowLeft"":21,""ArrowDown,ArrowRight"":7}","true","ArrowDown,ArrowLeft","","revaluation","1","","","",""
"html-keyboard-response","284","1087050","0.0-4.0-10.0-1.5","spark_pilot_norest","9157","6","15","Male","","","","","","","null","<div style=""font-size:60px;"">+</div>","null","fixation","","","","","","","","","","","",""
"revaluation","285","1087317","0.0-4.0-10.0-0.6","spark_pilot_norest","9157","6","15","Male","","false","","","","","[264.10000014305115]","./assets/img/canyon/animals/lion.jpg","[""ArrowRight""]","second stage test","canyon","0","{""ArrowUp,ArrowLeft"":27,""ArrowUp,ArrowRight"":15,""ArrowDown,ArrowLeft"":21,""ArrowDown,ArrowRight"":7}","false","ArrowDown,ArrowRight","","revaluation","1","","","",""
"html-keyboard-response","286","1087821","0.0-4.0-10.0-1.6","spark_pilot_norest","9157","6","15","Male","","","","","","","null","<div style=""font-size:60px;"">+</div>","null","fixation","","","","","","","","","","","",""
"revaluation","287","1088101","0.0-4.0-10.0-0.7","spark_pilot_norest","9157","6","15","Male","","false","","","","","[278.09999990463257]","./assets/img/canyon/animals/lion.jpg","[""ArrowRight""]","second stage test","canyon","0","{""ArrowUp,ArrowLeft"":27,""ArrowUp,ArrowRight"":15,""ArrowDown,ArrowLeft"":21,""ArrowDown,ArrowRight"":7}","false","ArrowDown,ArrowRight","","revaluation","1","","","",""
"html-keyboard-response","288","1088610","0.0-4.0-10.0-1.7","spark_pilot_norest","9157","6","15","Male","","","","","","","null","<div style=""font-size:60px;"">+</div>","null","fixation","","","","","","","","","","","",""
"learning-instructions","289","1095942","0.0-4.0-0.1-0.2","spark_pilot_norest","9157","6","15","Male","","","","","","","4630","<p> This time you are searching for treasure in the <b>ocean</b>.</p>","","instructions","","","","","","","","","","","",""
"learning-instructions","290","1114205","0.0-4.0-0.1-0.3","spark_pilot_norest","9157","6","15","Male","","","","","","","1012.0999999046326","<p><b>New</b> animals with <b>new</b> treasure chests live here. You need to explore to discover where the animal with the best treasure chest is.</p>
                    <p> Like before, once you figure out which animal has the chest with the most treasure, you should try to get to that animal and select that chest! </p>","","instructions","","","","","","","","","","","",""
"learning-instructions","291","1131234","0.0-4.0-1.1-0.1","spark_pilot_norest","9157","6","15","Male","","","","","","","2302","<p> Remember, when you see a picture of the place, use the up and down keys to <b>find an animal</b>.</p>
            <p> When you encounter an animal, you should use the left and right keys to <b>select a treasure chest</b>.</p>
            <p> Don't forget to look out for the robber! </p>","","instructions","","","","","","","","","","","",""
"revaluation","292","1137261","0.0-4.0-2.1-0.50","spark_pilot_norest","9157","6","15","Male","","false","","","","","[1057.5,428.7999999523163]","./assets/img/ocean/memory/38.jpg","[""ArrowUp"",""ArrowRight""]","value training","ocean","10","{""ArrowUp,ArrowLeft"":26,""ArrowUp,ArrowRight"":10,""ArrowDown,ArrowLeft"":5,""ArrowDown,ArrowRight"":17}","false","ArrowUp,ArrowRight","false","original","2","0","","",""
"html-keyboard-response","293","1137781","0.0-4.0-2.1-1.50","spark_pilot_norest","9157","6","15","Male","","","","","","","null","<div style=""font-size:60px;"">+</div>","null","fixation","","","","","","","","","1","","",""
"revaluation","294","1143836","0.0-4.0-2.1-0.51","spark_pilot_norest","9157","6","15","Male","","false","","","","","[478,307.89999985694885]","./assets/img/ocean/memory/28.jpg","[""ArrowUp"",""ArrowLeft""]","value training","ocean","26","{""ArrowUp,ArrowLeft"":26,""ArrowUp,ArrowRight"":10,""ArrowDown,ArrowLeft"":5,""ArrowDown,ArrowRight"":17}","true","ArrowUp,ArrowLeft","false","original","2","2","","",""
"html-keyboard-response","295","1144351","0.0-4.0-2.1-1.51","spark_pilot_norest","9157","6","15","Male","","","","","","","null","<div style=""font-size:60px;"">+</div>","null","fixation","","","","","","","","","3","","",""
"revaluation","296","1150391","0.0-4.0-2.1-0.52","spark_pilot_norest","9157","6","15","Male","","false","","","","","[308,450.59999990463257]","./assets/img/ocean/memory/22.jpg","[""ArrowDown"",""ArrowRight""]","value training","ocean","17","{""ArrowUp,ArrowLeft"":26,""ArrowUp,ArrowRight"":10,""ArrowDown,ArrowLeft"":5,""ArrowDown,ArrowRight"":17}","false","ArrowDown,ArrowRight","false","original","2","4","","",""
"html-keyboard-response","297","1150910","0.0-4.0-2.1-1.52","spark_pilot_norest","9157","6","15","Male","","","","","","","null","<div style=""font-size:60px;"">+</div>","null","fixation","","","","","","","","","5","","",""
"revaluation","298","1154930","0.0-4.0-2.1-0.53","spark_pilot_norest","9157","6","15","Male","","false","","","","","[339.89999985694885]","./assets/img/ocean/catch/1.jpg","[""ArrowDown""]","value training","ocean","-10","{""ArrowUp,ArrowLeft"":26,""ArrowUp,ArrowRight"":10,""ArrowDown,ArrowLeft"":5,""ArrowDown,ArrowRight"":17}","false","ArrowDown","true","original","2","6","","",""
"html-keyboard-response","299","1155432","0.0-4.0-2.1-1.53","spark_pilot_norest","9157","6","15","Male","","","","","","","null","<div style=""font-size:60px;"">+</div>","null","fixation","","","","","","","","","7","","",""
"revaluation","300","1161454","0.0-4.0-2.1-0.54","spark_pilot_norest","9157","6","15","Male","","false","","","","","[1955.3999998569489,602.1999998092651]","./assets/img/ocean/memory/0.jpg","[""ArrowDown"",""ArrowLeft""]","value training","ocean","5","{""ArrowUp,ArrowLeft"":26,""ArrowUp,ArrowRight"":10,""ArrowDown,ArrowLeft"":5,""ArrowDown,ArrowRight"":17}","false","ArrowDown,ArrowLeft","false","original","2","8","","",""
"html-keyboard-response","301","1161956","0.0-4.0-2.1-1.54","spark_pilot_norest","9157","6","15","Male","","","","","","","null","<div style=""font-size:60px;"">+</div>","null","fixation","","","","","","","","","9","","",""
"revaluation","302","1167959","0.0-4.0-2.1-0.55","spark_pilot_norest","9157","6","15","Male","","false","","","","","[103.89999985694885,365.89999985694885]","./assets/img/ocean/memory/19.jpg","[""ArrowUp"",""ArrowLeft""]","value training","ocean","26","{""ArrowUp,ArrowLeft"":26,""ArrowUp,ArrowRight"":10,""ArrowDown,ArrowLeft"":5,""ArrowDown,ArrowRight"":17}","true","ArrowUp,ArrowLeft","false","original","2","10","","",""
"html-keyboard-response","303","1168461","0.0-4.0-2.1-1.55","spark_pilot_norest","9157","6","15","Male","","","","","","","null","<div style=""font-size:60px;"">+</div>","null","fixation","","","","","","","","","11","","",""
"revaluation","304","1174465","0.0-4.0-2.1-0.56","spark_pilot_norest","9157","6","15","Male","","false","","","","","[462,404.5]","./assets/img/ocean/memory/23.jpg","[""ArrowUp"",""ArrowLeft""]","value training","ocean","26","{""ArrowUp,ArrowLeft"":26,""ArrowUp,ArrowRight"":10,""ArrowDown,ArrowLeft"":5,""ArrowDown,ArrowRight"":17}","true","ArrowUp,ArrowLeft","false","original","2","12","","",""
"html-keyboard-response","305","1174967","0.0-4.0-2.1-1.56","spark_pilot_norest","9157","6","15","Male","","","","","","","null","<div style=""font-size:60px;"">+</div>","null","fixation","","","","","","","","","13","","",""
"revaluation","306","1180971","0.0-4.0-2.1-0.57","spark_pilot_norest","9157","6","15","Male","","false","","","","","[508,427.10000014305115]","./assets/img/ocean/memory/2.jpg","[""ArrowUp"",""ArrowLeft""]","value training","ocean","26","{""ArrowUp,ArrowLeft"":26,""ArrowUp,ArrowRight"":10,""ArrowDown,ArrowLeft"":5,""ArrowDown,ArrowRight"":17}","true","ArrowUp,ArrowLeft","false","original","2","14","","",""
"html-keyboard-response","307","1181473","0.0-4.0-2.1-1.57","spark_pilot_norest","9157","6","15","Male","","","","","","","null","<div style=""font-size:60px;"">+</div>","null","fixation","","","","","","","","","15","","",""
"revaluation","308","1187478","0.0-4.0-2.1-0.58","spark_pilot_norest","9157","6","15","Male","","false","","","","","[568.5,447.2999999523163]","./assets/img/ocean/memory/21.jpg","[""ArrowUp"",""ArrowLeft""]","value training","ocean","26","{""ArrowUp,ArrowLeft"":26,""ArrowUp,ArrowRight"":10,""ArrowDown,ArrowLeft"":5,""ArrowDown,ArrowRight"":17}","true","ArrowUp,ArrowLeft","false","original","2","16","","",""
"html-keyboard-response","309","1187979","0.0-4.0-2.1-1.58","spark_pilot_norest","9157","6","15","Male","","","","","","","null","<div style=""font-size:60px;"">+</div>","null","fixation","","","","","","","","","17","","",""
"revaluation","310","1193985","0.0-4.0-2.1-0.59","spark_pilot_norest","9157","6","15","Male","","false","","","","","[614.8000001907349,582.7999999523163]","./assets/img/ocean/memory/36.jpg","[""ArrowUp"",""ArrowLeft""]","value training","ocean","26","{""ArrowUp,ArrowLeft"":26,""ArrowUp,ArrowRight"":10,""ArrowDown,ArrowLeft"":5,""ArrowDown,ArrowRight"":17}","true","ArrowUp,ArrowLeft","false","original","2","18","","",""
"html-keyboard-response","311","1194486","0.0-4.0-2.1-1.59","spark_pilot_norest","9157","6","15","Male","","","","","","","null","<div style=""font-size:60px;"">+</div>","null","fixation","","","","","","","","","19","","",""
"revaluation","312","1198492","0.0-4.0-2.1-0.60","spark_pilot_norest","9157","6","15","Male","","false","","","","","[739.5999999046326]","./assets/img/ocean/catch/6.jpg","[""spaceBar""]","value training","ocean","0","{""ArrowUp,ArrowLeft"":26,""ArrowUp,ArrowRight"":10,""ArrowDown,ArrowLeft"":5,""ArrowDown,ArrowRight"":17}","true","spaceBar","true","original","2","20","","",""
