"trial_type","trial_index","time_elapsed","internal_node_id","task_version","subject_id","assigned_condition","age","gender","success","timeout","failed_images","failed_audio","failed_video","browser_interaction","rt","stimulus","response","task_part","environment","score","rewardMap","correct","fullState","isCatch","condition","order","trial_num","key_press","ground_truth","bonus"
"pavlovia","0","3264","0.0-0.0","spark_pilot_norest","8191","8","15","Female","","","","","","","","","","","","","","","","","","","","","",""
"preload","1","24928","0.0-1.0","spark_pilot_norest","8191","8","15","Female","true","false","[]","[]","[]","[{""event"":""fullscreenenter"",""trial"":2,""time"":26890}]","","","","","","","","","","","","","","","",""
"fullscreen","2","27877","0.0-2.0","spark_pilot_norest","8191","8","15","Female","true","","","","","","","","","","","","","","","","","","","","",""
"audio-button-response","3","30404","0.0-3.0-0.0-0.0","spark_pilot_norest","8191","8","15","Female","","","","","","","2509","./assets/audio/audiotest/turtle.mp3","2","audio_test","","","","","","","","","","","",""
"learning-instructions","4","40073","0.0-3.0-1.0-0.0","spark_pilot_norest","8191","8","15","Female","","","","","","","2685.699999809265","<p> Welcome! Please remember to stay in fullscreen mode and don't click away from the experiment. </p>","","instructions","","","","","","","","","","","",""
"learning-instructions","5","49556","0.0-3.0-1.0-0.1","spark_pilot_norest","8191","8","15","Female","","","","","","","1078.3000001907349","<p> Today you will be playing a game to earn treasure. </p>
            <p> At the end of the experiment, you will earn a bonus based on how much treasure you find. </p>
            <img src='./assets/img/instructions/treasure.jpg' class='instructions-image'>","","instructions","","","","","","","","","","","",""
"learning-instructions","6","61104","0.0-3.0-1.0-0.2","spark_pilot_norest","8191","8","15","Female","","","","","","","3298.699999809265","<p> Animals have hidden treasure in treasure chests. </p>
            <p> You need to first find an animal and then choose which of their treasure chests to search. </p>
            <img src='./assets/img/space/animals/cat.jpg' class='instructions-image'>","","instructions","","","","","","","","","","","",""
"learning-instructions","7","75072","0.0-3.0-1.0-0.3","spark_pilot_norest","8191","8","15","Female","","","","","","","827.1000003814697","<p> In each round, you will search for treasure in a different place. In the real game, there will be two rounds. </p>
            <p> You will begin with a separate, practice round where you will search for treasure in outer space. </p>
            <img src='./assets/img/space/0.jpg' class='instructions-image'>","","instructions","","","","","","","","","","","",""
"learning-instructions","8","87644","0.0-3.0-1.0-0.4","spark_pilot_norest","8191","8","15","Female","","","","","","","1170","<p> On every turn, you will see a picture of the place that you are in, but the specific image may be different each time. </p>
            <p> For example, both of these images mean you are in outer space. </p>
            <img src='./assets/img/instructions/outerspace.jpg' class='instructions-image'>","","instructions","","","","","","","","","","","",""
"learning-instructions","9","96467","0.0-3.0-1.0-0.5","spark_pilot_norest","8191","8","15","Female","","","","","","","1003.8000001907349","<p> You need to decide which direction to travel in. </p>
            <p> You can choose between going <b>up or down</b> by using the arrow keys. </p>
            <img src='./assets/img/instructions/updown.jpg' class='instructions-image'>","","instructions","","","","","","","","","","","",""
"learning-instructions","10","106443","0.0-3.0-1.0-0.6","spark_pilot_norest","8191","8","15","Female","","","","","","","1168.3999996185303","<p> You will have <b>2 seconds</b> to make your choice. </p>
            <p> If you do not make a choice within 2 seconds, you will not find an animal or earn treasure. </p>
            <img src='./assets/img/instructions/2seconds.jpg' class='instructions-image'>","","instructions","","","","","","","","","","","",""
"learning-instructions","11","114472","0.0-3.0-1.0-0.7","spark_pilot_norest","8191","8","15","Female","","","","","","","996.9000005722046","<p> Let’s try practicing that now! </p>
            <p> When you see a picture of the place you are in, press the <b>up</b> key to travel up. </p>
            <img src='./assets/img/instructions/pressUp.jpg' class='instructions-image'>","","instructions","","","","","","","","","","","",""
"revaluation","12","118505","0.0-3.0-2.0-0.0","spark_pilot_norest","8191","8","15","Female","","false","","","","","[422]","./assets/img/space/0.jpg","[""ArrowUp""]","first stage practice","space","0","null","null","ArrowUp","false","","","","","",""
"html-keyboard-response","13","119018","0.0-3.0-2.0-1.0","spark_pilot_norest","8191","8","15","Female","","","","","","","null","<div style=""font-size:60px;"">+</div>","null","fixation","","","","","","","","","","","",""
"revaluation","14","123037","0.0-3.0-2.0-0.1","spark_pilot_norest","8191","8","15","Female","","false","","","","","[931.1000003814697]","./assets/img/space/1.jpg","[""ArrowUp""]","first stage practice","space","0","null","null","ArrowUp","false","","","","","",""
"html-keyboard-response","15","123547","0.0-3.0-2.0-1.1","spark_pilot_norest","8191","8","15","Female","","","","","","","null","<div style=""font-size:60px;"">+</div>","null","fixation","","","","","","","","","","","",""
"revaluation","16","127570","0.0-3.0-2.0-0.2","spark_pilot_norest","8191","8","15","Female","","false","","","","","[548.3999996185303]","./assets/img/space/2.jpg","[""ArrowUp""]","first stage practice","space","0","null","null","ArrowUp","false","","","","","",""
"html-keyboard-response","17","128074","0.0-3.0-2.0-1.2","spark_pilot_norest","8191","8","15","Female","","","","","","","null","<div style=""font-size:60px;"">+</div>","null","fixation","","","","","","","","","","","",""
"learning-instructions","18","133462","0.0-3.0-3.0-0.0","spark_pilot_norest","8191","8","15","Female","","","","","","","685.2000007629395","<p> Great job! Now try pressing the <b>down</b> key to travel down. </p>
            <img src='./assets/img/instructions/pressDown.jpg' class='instructions-image'>","","instructions","","","","","","","","","","","",""
"revaluation","19","137486","0.0-3.0-4.0-0.0","spark_pilot_norest","8191","8","15","Female","","false","","","","","[576.6999998092651]","./assets/img/space/3.jpg","[""ArrowDown""]","first stage practice","space","0","null","null","ArrowDown","false","","","","","",""
"html-keyboard-response","20","138002","0.0-3.0-4.0-1.0","spark_pilot_norest","8191","8","15","Female","","","","","","","null","<div style=""font-size:60px;"">+</div>","null","fixation","","","","","","","","","","","",""
"revaluation","21","142030","0.0-3.0-4.0-0.1","spark_pilot_norest","8191","8","15","Female","","false","","","","","[798.6999998092651]","./assets/img/space/4.jpg","[""ArrowDown""]","first stage practice","space","0","null","null","ArrowDown","false","","","","","",""
"html-keyboard-response","22","142543","0.0-3.0-4.0-1.1","spark_pilot_norest","8191","8","15","Female","","","","","","","null","<div style=""font-size:60px;"">+</div>","null","fixation","","","","","","","","","","","",""
"revaluation","23","146547","0.0-3.0-4.0-0.2","spark_pilot_norest","8191","8","15","Female","","false","","","","","[395.19999980926514]","./assets/img/space/5.jpg","[""ArrowDown""]","first stage practice","space","0","null","null","ArrowDown","false","","","","","",""
"html-keyboard-response","24","147059","0.0-3.0-4.0-1.2","spark_pilot_norest","8191","8","15","Female","","","","","","","null","<div style=""font-size:60px;"">+</div>","null","fixation","","","","","","","","","","","",""
"learning-instructions","25","159900","0.0-3.0-5.0-0.0","spark_pilot_norest","8191","8","15","Female","","","","","","","2984.5999994277954","<p> The animals don’t move, so the animal in the upper part of a place will stay in the upper part of a place, and the animal in the lower part of a place will stay in the lower part of a place. </p>","","instructions","","","","","","","","","","","",""
"learning-instructions","26","170702","0.0-3.0-5.0-0.1","spark_pilot_norest","8191","8","15","Female","","","","","","","1675.5","<p> Each animal has two treasure chests for you to choose from. </p>
            <p> The amount of treasure in each chest can range from <b> 0 to 40 pieces.</b></p>","","instructions","","","","","","","","","","","",""
"learning-instructions","27","182931","0.0-3.0-5.0-0.2","spark_pilot_norest","8191","8","15","Female","","","","","","","1042.9000005722046","<p> You should decide which chest to search for treasure by using the <b>left</b> and <b>right</b> arrow keys. </p>
            <p><b> Pay attention to which animal is on the screen, as the animals have different treasure chests. </b></p>
            <img src='./assets/img/instructions/leftright.jpg' class='instructions-image'>","","instructions","","","","","","","","","","","",""
"learning-instructions","28","190491","0.0-3.0-5.0-0.3","spark_pilot_norest","8191","8","15","Female","","","","","","","1184","<p> Let’s try practicing that now. </p>
            <p> When you see an animal, choose which chest to search for treasure. </p>
            <img src='./assets/img/instructions/chooseChest.jpg' class='instructions-image'>","","instructions","","","","","","","","","","","",""
"revaluation","29","194513","0.0-3.0-6.0-0.0","spark_pilot_norest","8191","8","15","Female","","false","","","","","[569.6999998092651]","./assets/img/space/animals/cat.jpg","[""ArrowRight""]","second stage practice","space","36","{""ArrowUp,ArrowLeft"":3,""ArrowUp,ArrowRight"":36,""ArrowDown,ArrowLeft"":15,""ArrowDown,ArrowRight"":23}","true","ArrowUp,ArrowRight","","","","","","",""
"html-keyboard-response","30","195018","0.0-3.0-6.0-1.0","spark_pilot_norest","8191","8","15","Female","","","","","","","null","<div style=""font-size:60px;"">+</div>","null","fixation","","","","","","","","","","","",""
"revaluation","31","199037","0.0-3.0-6.0-0.1","spark_pilot_norest","8191","8","15","Female","","false","","","","","[626.0999994277954]","./assets/img/space/animals/cat.jpg","[""ArrowLeft""]","second stage practice","space","3","{""ArrowUp,ArrowLeft"":3,""ArrowUp,ArrowRight"":36,""ArrowDown,ArrowLeft"":15,""ArrowDown,ArrowRight"":23}","false","ArrowUp,ArrowLeft","","","","","","",""
"html-keyboard-response","32","199549","0.0-3.0-6.0-1.1","spark_pilot_norest","8191","8","15","Female","","","","","","","null","<div style=""font-size:60px;"">+</div>","null","fixation","","","","","","","","","","","",""
"revaluation","33","203565","0.0-3.0-6.0-0.2","spark_pilot_norest","8191","8","15","Female","","false","","","","","[644.1999998092651]","./assets/img/space/animals/rabbit.jpg","[""ArrowRight""]","second stage practice","space","23","{""ArrowUp,ArrowLeft"":3,""ArrowUp,ArrowRight"":36,""ArrowDown,ArrowLeft"":15,""ArrowDown,ArrowRight"":23}","true","ArrowDown,ArrowRight","","","","","","",""
"html-keyboard-response","34","204080","0.0-3.0-6.0-1.2","spark_pilot_norest","8191","8","15","Female","","","","","","","null","<div style=""font-size:60px;"">+</div>","null","fixation","","","","","","","","","","","",""
"revaluation","35","208095","0.0-3.0-6.0-0.3","spark_pilot_norest","8191","8","15","Female","","false","","","","","[429.9000005722046]","./assets/img/space/animals/rabbit.jpg","[""ArrowRight""]","second stage practice","space","23","{""ArrowUp,ArrowLeft"":3,""ArrowUp,ArrowRight"":36,""ArrowDown,ArrowLeft"":15,""ArrowDown,ArrowRight"":23}","true","ArrowDown,ArrowRight","","","","","","",""
"html-keyboard-response","36","208607","0.0-3.0-6.0-1.3","spark_pilot_norest","8191","8","15","Female","","","","","","","null","<div style=""font-size:60px;"">+</div>","null","fixation","","","","","","","","","","","",""
"learning-instructions","37","226995","0.0-3.0-7.0-0.0","spark_pilot_norest","8191","8","15","Female","","","","","","","1567.8000001907349","<p> Great job. Now let’s try putting it together. </p>
            <p> On each turn, you will first see a picture to remind you of the place you are in, and you need to choose whether to go up or down. </p>
            <p> Then you will see an animal and choose which of its chests to search for treasure. </p>","","instructions","","","","","","","","","","","",""
"learning-instructions","38","236001","0.0-3.0-7.0-0.1","spark_pilot_norest","8191","8","15","Female","","","","","","","754.6999998092651","<p> When you choose whether to go up or down, try to go to the animal with the chest with the most treasure. </p>
            <p> Try practicing that now! </p>","","instructions","","","","","","","","","","","",""
"revaluation","39","242031","0.0-3.0-8.0-0.0","spark_pilot_norest","8191","8","15","Female","","false","","","","","[562.5,604.2999992370605]","./assets/img/space/6.jpg","[""ArrowUp"",""ArrowRight""]","full practice","space","36","{""ArrowUp,ArrowLeft"":3,""ArrowUp,ArrowRight"":36,""ArrowDown,ArrowLeft"":15,""ArrowDown,ArrowRight"":23}","true","ArrowUp,ArrowRight","false","","","","","",""
"html-keyboard-response","40","242542","0.0-3.0-8.0-1.0","spark_pilot_norest","8191","8","15","Female","","","","","","","null","<div style=""font-size:60px;"">+</div>","null","fixation","","","","","","","","","","","",""
"revaluation","41","248579","0.0-3.0-8.0-0.1","spark_pilot_norest","8191","8","15","Female","","false","","","","","[548.0999994277954,644.8000001907349]","./assets/img/space/7.jpg","[""ArrowUp"",""ArrowLeft""]","full practice","space","3","{""ArrowUp,ArrowLeft"":3,""ArrowUp,ArrowRight"":36,""ArrowDown,ArrowLeft"":15,""ArrowDown,ArrowRight"":23}","false","ArrowUp,ArrowLeft","false","","","","","",""
"html-keyboard-response","42","249088","0.0-3.0-8.0-1.1","spark_pilot_norest","8191","8","15","Female","","","","","","","null","<div style=""font-size:60px;"">+</div>","null","fixation","","","","","","","","","","","",""
"revaluation","43","255119","0.0-3.0-8.0-0.2","spark_pilot_norest","8191","8","15","Female","","false","","","","","[771.6999998092651,959.2999992370605]","./assets/img/space/8.jpg","[""ArrowDown"",""ArrowRight""]","full practice","space","23","{""ArrowUp,ArrowLeft"":3,""ArrowUp,ArrowRight"":36,""ArrowDown,ArrowLeft"":15,""ArrowDown,ArrowRight"":23}","false","ArrowDown,ArrowRight","false","","","","","",""
"html-keyboard-response","44","255635","0.0-3.0-8.0-1.2","spark_pilot_norest","8191","8","15","Female","","","","","","","null","<div style=""font-size:60px;"">+</div>","null","fixation","","","","","","","","","","","",""
"revaluation","45","261647","0.0-3.0-8.0-0.3","spark_pilot_norest","8191","8","15","Female","","false","","","","","[528.0999994277954,440.3999996185303]","./assets/img/space/9.jpg","[""ArrowDown"",""ArrowRight""]","full practice","space","23","{""ArrowUp,ArrowLeft"":3,""ArrowUp,ArrowRight"":36,""ArrowDown,ArrowLeft"":15,""ArrowDown,ArrowRight"":23}","false","ArrowDown,ArrowRight","false","","","","","",""
"html-keyboard-response","46","262161","0.0-3.0-8.0-1.3","spark_pilot_norest","8191","8","15","Female","","","","","","","null","<div style=""font-size:60px;"">+</div>","null","fixation","","","","","","","","","","","",""
"revaluation","47","268178","0.0-3.0-8.0-0.4","spark_pilot_norest","8191","8","15","Female","","false","","","","","[731.0999994277954,1055]","./assets/img/space/10.jpg","[""ArrowUp"",""ArrowRight""]","full practice","space","36","{""ArrowUp,ArrowLeft"":3,""ArrowUp,ArrowRight"":36,""ArrowDown,ArrowLeft"":15,""ArrowDown,ArrowRight"":23}","true","ArrowUp,ArrowRight","false","","","","","",""
"html-keyboard-response","48","268692","0.0-3.0-8.0-1.4","spark_pilot_norest","8191","8","15","Female","","","","","","","null","<div style=""font-size:60px;"">+</div>","null","fixation","","","","","","","","","","","",""
"learning-instructions","49","280064","0.0-3.0-9.0-0.0","spark_pilot_norest","8191","8","15","Female","","","","","","","956.5","<p> One last thing: sometimes, you will see a robber. The robber can be anywhere in the picture. </p>
            <p> If you do not stop them, you will lose treasure. </p>
            <img src='./assets/img/instructions/robber.jpg' class='instructions-image'>","","instructions","","","","","","","","","","","",""
"learning-instructions","50","287940","0.0-3.0-9.0-0.1","spark_pilot_norest","8191","8","15","Female","","","","","","","702.1000003814697","<p> If you see the robber, you should <b>press the space bar</b> rather than using the arrow keys. </p>
            <p> Try practicing that now! </p>","","instructions","","","","","","","","","","","",""
"revaluation","51","291966","0.0-3.0-10.0-0.0","spark_pilot_norest","8191","8","15","Female","","false","","","","","[1454]","./assets/img/space/catch/0.jpg","[""spaceBar""]","catch practice","space","0","{""ArrowUp,ArrowLeft"":3,""ArrowUp,ArrowRight"":36,""ArrowDown,ArrowLeft"":15,""ArrowDown,ArrowRight"":23}","true","spaceBar","true","","","","","",""
"html-keyboard-response","52","292468","0.0-3.0-10.0-1.0","spark_pilot_norest","8191","8","15","Female","","","","","","","null","<div style=""font-size:60px;"">+</div>","null","fixation","","","","","","","","","","","",""
"revaluation","53","296496","0.0-3.0-10.0-0.1","spark_pilot_norest","8191","8","15","Female","","false","","","","","[635.8999996185303]","./assets/img/space/catch/1.jpg","[""spaceBar""]","catch practice","space","0","{""ArrowUp,ArrowLeft"":3,""ArrowUp,ArrowRight"":36,""ArrowDown,ArrowLeft"":15,""ArrowDown,ArrowRight"":23}","true","spaceBar","true","","","","","",""
"html-keyboard-response","54","297009","0.0-3.0-10.0-1.1","spark_pilot_norest","8191","8","15","Female","","","","","","","null","<div style=""font-size:60px;"">+</div>","null","fixation","","","","","","","","","","","",""
"revaluation","55","301026","0.0-3.0-10.0-0.2","spark_pilot_norest","8191","8","15","Female","","false","","","","","[538.7000007629395]","./assets/img/space/catch/2.jpg","[""spaceBar""]","catch practice","space","0","{""ArrowUp,ArrowLeft"":3,""ArrowUp,ArrowRight"":36,""ArrowDown,ArrowLeft"":15,""ArrowDown,ArrowRight"":23}","true","spaceBar","true","","","","","",""
"html-keyboard-response","56","301542","0.0-3.0-10.0-1.2","spark_pilot_norest","8191","8","15","Female","","","","","","","null","<div style=""font-size:60px;"">+</div>","null","fixation","","","","","","","","","","","",""
"learning-instructions","57","308939","0.0-3.0-11.0-0.0-0.0","spark_pilot_norest","8191","8","15","Female","","","","","","","2131.4000005722046","<p> Now, you will practice a shortened version of the game to get a sense of how it all fits together. </p>","","instructions","","","","","","","","","","","",""
"learning-instructions","58","312848","0.0-3.0-11.0-0.0-0.1","spark_pilot_norest","8191","8","15","Female","","","","","","","731","<p>This time you are searching for treasure in outer space.</p>","","instructions","","","","","","","","","","","",""
"learning-instructions","59","331499","0.0-3.0-11.0-1.0-0.0","spark_pilot_norest","8191","8","15","Female","","","","","","","3891.199999809265","<p> Remember, when you see a picture of the place, use the up and down keys to <b>find an animal</b>.</p>
            <p> When you encounter an animal, you should use the left and right keys to <b>select a treasure chest</b>.</p>
            <p> Don't forget to look out for the robber! </p>","","instructions","","","","","","","","","","","",""
"revaluation","60","335516","0.0-3.0-11.0-2.0-0.0","spark_pilot_norest","8191","8","15","Female","","true","","","","","[]","./assets/img/space/11.jpg","[]","practice block","space","-5","{""ArrowUp,ArrowLeft"":3,""ArrowUp,ArrowRight"":36,""ArrowDown,ArrowLeft"":15,""ArrowDown,ArrowRight"":23}","false","","false","","","","","",""
"html-keyboard-response","61","336030","0.0-3.0-11.0-2.0-1.0","spark_pilot_norest","8191","8","15","Female","","","","","","","null","<div style=""font-size:60px;"">+</div>","null","fixation","","","","","","","","","","","",""
"revaluation","62","342064","0.0-3.0-11.0-2.0-0.1","spark_pilot_norest","8191","8","15","Female","","false","","","","","[385.4000005722046,398.5]","./assets/img/space/12.jpg","[""ArrowUp"",""ArrowRight""]","practice block","space","36","{""ArrowUp,ArrowLeft"":3,""ArrowUp,ArrowRight"":36,""ArrowDown,ArrowLeft"":15,""ArrowDown,ArrowRight"":23}","true","ArrowUp,ArrowRight","false","","","","","",""
"html-keyboard-response","63","342571","0.0-3.0-11.0-2.0-1.1","spark_pilot_norest","8191","8","15","Female","","","","","","","null","<div style=""font-size:60px;"">+</div>","null","fixation","","","","","","","","","","","",""
"revaluation","64","348610","0.0-3.0-11.0-2.0-0.2","spark_pilot_norest","8191","8","15","Female","","false","","","","","[572.3999996185303,601.9000005722046]","./assets/img/space/13.jpg","[""ArrowUp"",""ArrowLeft""]","practice block","space","3","{""ArrowUp,ArrowLeft"":3,""ArrowUp,ArrowRight"":36,""ArrowDown,ArrowLeft"":15,""ArrowDown,ArrowRight"":23}","false","ArrowUp,ArrowLeft","false","","","","","",""
"html-keyboard-response","65","349117","0.0-3.0-11.0-2.0-1.2","spark_pilot_norest","8191","8","15","Female","","","","","","","null","<div style=""font-size:60px;"">+</div>","null","fixation","","","","","","","","","","","",""
"revaluation","66","355132","0.0-3.0-11.0-2.0-0.3","spark_pilot_norest","8191","8","15","Female","","false","","","","","[911.1000003814697,765.1999998092651]","./assets/img/space/14.jpg","[""ArrowUp"",""ArrowRight""]","practice block","space","36","{""ArrowUp,ArrowLeft"":3,""ArrowUp,ArrowRight"":36,""ArrowDown,ArrowLeft"":15,""ArrowDown,ArrowRight"":23}","true","ArrowUp,ArrowRight","false","","","","","",""
"html-keyboard-response","67","355646","0.0-3.0-11.0-2.0-1.3","spark_pilot_norest","8191","8","15","Female","","","","","","","null","<div style=""font-size:60px;"">+</div>","null","fixation","","","","","","","","","","","",""
"revaluation","68","361662","0.0-3.0-11.0-2.0-0.4","spark_pilot_norest","8191","8","15","Female","","false","","","","","[737.6999998092651,346.6000003814697]","./assets/img/space/11.jpg","[""ArrowUp"",""ArrowRight""]","practice block","space","36","{""ArrowUp,ArrowLeft"":3,""ArrowUp,ArrowRight"":36,""ArrowDown,ArrowLeft"":15,""ArrowDown,ArrowRight"":23}","true","ArrowUp,ArrowRight","false","","","","","",""
"html-keyboard-response","69","362163","0.0-3.0-11.0-2.0-1.4","spark_pilot_norest","8191","8","15","Female","","","","","","","null","<div style=""font-size:60px;"">+</div>","null","fixation","","","","","","","","","","","",""
"revaluation","70","368169","0.0-3.0-11.0-2.0-0.5","spark_pilot_norest","8191","8","15","Female","","false","","","","","[478.5,847.8000001907349]","./assets/img/space/12.jpg","[""ArrowDown"",""ArrowRight""]","practice block","space","23","{""ArrowUp,ArrowLeft"":3,""ArrowUp,ArrowRight"":36,""ArrowDown,ArrowLeft"":15,""ArrowDown,ArrowRight"":23}","false","ArrowDown,ArrowRight","false","","","","","",""
"html-keyboard-response","71","368670","0.0-3.0-11.0-2.0-1.5","spark_pilot_norest","8191","8","15","Female","","","","","","","null","<div style=""font-size:60px;"">+</div>","null","fixation","","","","","","","","","","","",""
"revaluation","72","374685","0.0-3.0-11.0-2.0-0.6","spark_pilot_norest","8191","8","15","Female","","false","","","","","[927.3000001907349,870.5]","./assets/img/space/13.jpg","[""ArrowDown"",""ArrowRight""]","practice block","space","23","{""ArrowUp,ArrowLeft"":3,""ArrowUp,ArrowRight"":36,""ArrowDown,ArrowLeft"":15,""ArrowDown,ArrowRight"":23}","false","ArrowDown,ArrowRight","false","","","","","",""
"html-keyboard-response","73","375187","0.0-3.0-11.0-2.0-1.6","spark_pilot_norest","8191","8","15","Female","","","","","","","null","<div style=""font-size:60px;"">+</div>","null","fixation","","","","","","","","","","","",""
"revaluation","74","381192","0.0-3.0-11.0-2.0-0.7","spark_pilot_norest","8191","8","15","Female","","false","","","","","[421.8999996185303,343.80000019073486]","./assets/img/space/14.jpg","[""ArrowUp"",""ArrowRight""]","practice block","space","36","{""ArrowUp,ArrowLeft"":3,""ArrowUp,ArrowRight"":36,""ArrowDown,ArrowLeft"":15,""ArrowDown,ArrowRight"":23}","true","ArrowUp,ArrowRight","false","","","","","",""
"html-keyboard-response","75","381694","0.0-3.0-11.0-2.0-1.7","spark_pilot_norest","8191","8","15","Female","","","","","","","null","<div style=""font-size:60px;"">+</div>","null","fixation","","","","","","","","","","","",""
"revaluation","76","385698","0.0-3.0-11.0-2.0-0.8","spark_pilot_norest","8191","8","15","Female","","false","","","","","[509]","./assets/img/space/catch/3.jpg","[""spaceBar""]","practice block","space","0","{""ArrowUp,ArrowLeft"":3,""ArrowUp,ArrowRight"":36,""ArrowDown,ArrowLeft"":15,""ArrowDown,ArrowRight"":23}","true","spaceBar","true","","","","","",""
"html-keyboard-response","77","386200","0.0-3.0-11.0-2.0-1.8","spark_pilot_norest","8191","8","15","Female","","","","","","","null","<div style=""font-size:60px;"">+</div>","null","fixation","","","","","","","","","","","",""
"learning-instructions","78","400885","0.0-3.0-11.0-3.0-0.0","spark_pilot_norest","8191","8","15","Female","","","","","","","1431","<p> Now, you will travel with a friend who will choose whether you go up or down first. </p>
            <p> On these turns, you will just see the animal that they found. You will still get to choose which chest to search for treasure.</p>","","instructions","","","","","","","","","","","",""
"revaluation","79","404903","0.0-3.0-11.0-4.0-0.0","spark_pilot_norest","8191","8","15","Female","","false","","","","","[1906.6999998092651]","./assets/img/space/animals/cat.jpg","[""ArrowRight""]","practice block","space","36","{""ArrowUp,ArrowLeft"":3,""ArrowUp,ArrowRight"":36,""ArrowDown,ArrowLeft"":15,""ArrowDown,ArrowRight"":23}","true","ArrowUp,ArrowRight","","","","","","",""
"html-keyboard-response","80","405419","0.0-3.0-11.0-4.0-1.0","spark_pilot_norest","8191","8","15","Female","","","","","","","null","<div style=""font-size:60px;"">+</div>","null","fixation","","","","","","","","","","","",""
"revaluation","81","409436","0.0-3.0-11.0-4.0-0.1","spark_pilot_norest","8191","8","15","Female","","false","","","","","[727.1999998092651]","./assets/img/space/animals/rabbit.jpg","[""ArrowLeft""]","practice block","space","15","{""ArrowUp,ArrowLeft"":3,""ArrowUp,ArrowRight"":36,""ArrowDown,ArrowLeft"":15,""ArrowDown,ArrowRight"":23}","false","ArrowDown,ArrowLeft","","","","","","",""
"html-keyboard-response","82","409948","0.0-3.0-11.0-4.0-1.1","spark_pilot_norest","8191","8","15","Female","","","","","","","null","<div style=""font-size:60px;"">+</div>","null","fixation","","","","","","","","","","","",""
"revaluation","83","413979","0.0-3.0-11.0-4.0-0.2","spark_pilot_norest","8191","8","15","Female","","false","","","","","[848]","./assets/img/space/animals/rabbit.jpg","[""ArrowRight""]","practice block","space","23","{""ArrowUp,ArrowLeft"":3,""ArrowUp,ArrowRight"":36,""ArrowDown,ArrowLeft"":15,""ArrowDown,ArrowRight"":23}","true","ArrowDown,ArrowRight","","","","","","",""
"html-keyboard-response","84","414484","0.0-3.0-11.0-4.0-1.2","spark_pilot_norest","8191","8","15","Female","","","","","","","null","<div style=""font-size:60px;"">+</div>","null","fixation","","","","","","","","","","","",""
"revaluation","85","418498","0.0-3.0-11.0-4.0-0.3","spark_pilot_norest","8191","8","15","Female","","false","","","","","[684.6000003814697]","./assets/img/space/animals/cat.jpg","[""ArrowRight""]","practice block","space","36","{""ArrowUp,ArrowLeft"":3,""ArrowUp,ArrowRight"":36,""ArrowDown,ArrowLeft"":15,""ArrowDown,ArrowRight"":23}","true","ArrowUp,ArrowRight","","","","","","",""
"html-keyboard-response","86","419005","0.0-3.0-11.0-4.0-1.3","spark_pilot_norest","8191","8","15","Female","","","","","","","null","<div style=""font-size:60px;"">+</div>","null","fixation","","","","","","","","","","","",""
"learning-instructions","87","427134","0.0-3.0-11.0-5.0-0.0","spark_pilot_norest","8191","8","15","Female","","","","","","","null","<p> You have almost finished this part of the game! </p>
            <p> We are going to ask you to make a few more choices. </p>","","instructions","","","","","","","","","","","",""
"learning-instructions","88","443135","0.0-3.0-11.0-5.0-0.1","spark_pilot_norest","8191","8","15","Female","","","","","","","null","<p> First, you need to decide whether to go up or down. When you see each picture, use the arrow keys to make your choice. </p>
            <p><b>You will not see which animal you found, but try to get to the one that will give you the most treasure.</b></p>","","instructions","","","","","","","","","","","",""
"html-keyboard-response","89","444144","0.0-3.0-11.0-6.0-0.0","spark_pilot_norest","8191","8","15","Female","","","","","","","null","<div style=""font-size:100px;color:red;"">Starting in...</div>","null","","","","","","","","","","","","",""
"html-keyboard-response","90","445149","0.0-3.0-11.0-6.0-1.0","spark_pilot_norest","8191","8","15","Female","","","","","","","null","<div style=""font-size:200px;color:red;"">3</div>","null","","","","","","","","","","","","",""
"html-keyboard-response","91","446160","0.0-3.0-11.0-6.0-2.0","spark_pilot_norest","8191","8","15","Female","","","","","","","null","<div style=""font-size:200px;color:red;"">2</div>","null","","","","","","","","","","","","",""
"html-keyboard-response","92","447176","0.0-3.0-11.0-6.0-3.0","spark_pilot_norest","8191","8","15","Female","","","","","","","null","<div style=""font-size:200px;color:red;"">1</div>","null","","","","","","","","","","","","",""
"revaluation","93","447711","0.0-3.0-11.0-7.0","spark_pilot_norest","8191","8","15","Female","","false","","","","","[529]","./assets/img/space/15.jpg","[""ArrowUp""]","practice block","space","0","{""ArrowUp,ArrowLeft"":3,""ArrowUp,ArrowRight"":36,""ArrowDown,ArrowLeft"":15,""ArrowDown,ArrowRight"":23}","true","ArrowUp","false","","","","","",""
"html-keyboard-response","94","448214","0.0-3.0-11.0-8.0","spark_pilot_norest","8191","8","15","Female","","","","","","","null","<div style=""font-size:60px;"">+</div>","null","fixation","","","","","","","","","","","",""
"learning-instructions","95","461606","0.0-3.0-11.0-9.0-0.0","spark_pilot_norest","8191","8","15","Female","","","","","","","null","<p> Now you will see the animals again and can search their chests for treasure. </p>
            <p> This time, you will not see how much treasure you earned, but you will earn more bonus money for making better choices. </p>","","instructions","","","","","","","","","","","",""
"html-keyboard-response","96","462612","0.0-3.0-11.0-10.0-0.0","spark_pilot_norest","8191","8","15","Female","","","","","","","null","<div style=""font-size:100px;color:red;"">Starting in...</div>","null","","","","","","","","","","","","",""
"html-keyboard-response","97","463617","0.0-3.0-11.0-10.0-1.0","spark_pilot_norest","8191","8","15","Female","","","","","","","null","<div style=""font-size:200px;color:red;"">3</div>","null","","","","","","","","","","","","",""
"html-keyboard-response","98","464631","0.0-3.0-11.0-10.0-2.0","spark_pilot_norest","8191","8","15","Female","","","","","","","null","<div style=""font-size:200px;color:red;"">2</div>","null","","","","","","","","","","","","",""
"html-keyboard-response","99","465635","0.0-3.0-11.0-10.0-3.0","spark_pilot_norest","8191","8","15","Female","","","","","","","null","<div style=""font-size:200px;color:red;"">1</div>","null","","","","","","","","","","","","",""
"revaluation","100","466202","0.0-3.0-11.0-11.0-0.0","spark_pilot_norest","8191","8","15","Female","","false","","","","","[562.6000003814697]","./assets/img/space/animals/cat.jpg","[""ArrowRight""]","practice block","space","0","{""ArrowUp,ArrowLeft"":3,""ArrowUp,ArrowRight"":36,""ArrowDown,ArrowLeft"":15,""ArrowDown,ArrowRight"":23}","true","ArrowUp,ArrowRight","","","","","","",""
"html-keyboard-response","101","466716","0.0-3.0-11.0-11.0-1.0","spark_pilot_norest","8191","8","15","Female","","","","","","","null","<div style=""font-size:60px;"">+</div>","null","fixation","","","","","","","","","","","",""
"revaluation","102","467416","0.0-3.0-11.0-11.0-0.1","spark_pilot_norest","8191","8","15","Female","","false","","","","","[696]","./assets/img/space/animals/rabbit.jpg","[""ArrowRight""]","practice block","space","0","{""ArrowUp,ArrowLeft"":3,""ArrowUp,ArrowRight"":36,""ArrowDown,ArrowLeft"":15,""ArrowDown,ArrowRight"":23}","true","ArrowDown,ArrowRight","","","","","","",""
"html-keyboard-response","103","467930","0.0-3.0-11.0-11.0-1.1","spark_pilot_norest","8191","8","15","Female","","","","","","","null","<div style=""font-size:60px;"">+</div>","null","fixation","","","","","","","","","","","",""
"learning-instructions","104","476297","0.0-3.0-12.0-0.0","spark_pilot_norest","8191","8","15","Female","","","","","","","3783","<p> Before you start, we're going to ask you a few questions about how the game works. </p>","","instructions","","","","","","","","","","","",""
"comp-q","105","486767","0.0-3.0-13.0-0.0-0.0","spark_pilot_norest","8191","8","15","Female","","","","","","","4889.200000762939","<p> <b> True or False? </b> </p>
            <p> There can be 50 pieces of treasure in a given animal's chest. </p>","1","comp_question","","","","true","","","","","","","",""
"comp-q","106","494866","0.0-3.0-13.0-0.0-1.0","spark_pilot_norest","8191","8","15","Female","","","","","","","1441.8999996185303","<p> <b> That's right! </b> The amount of treasure in each chest can range from 0 to 40 pieces. </p>","0","comp_answer","","","","","","","","","","","",""
"comp-q","107","503052","0.0-3.0-13.0-0.1-0.1","spark_pilot_norest","8191","8","15","Female","","","","","","","1077.1000003814697","<p> <b> True or False? </b> </p><p> In this game, all animals have the same amount of treasure in their left and right chests. </p>","1","comp_question","","","","true","","","","","","","",""
"comp-q","108","509912","0.0-3.0-13.0-0.1-1.1","spark_pilot_norest","8191","8","15","Female","","","","","","","1628.1999998092651","<p> <b> That's right! </b> Animals have different amounts of treasure in their treasure chests. </p>","0","comp_answer","","","","","","","","","","","",""
"comp-q","109","518665","0.0-3.0-13.0-0.2-0.2","spark_pilot_norest","8191","8","15","Female","","","","","","","2900.6000003814697","<p> <b> True or False? </b> </p><p> The same animal will always be there if you go up in the same place. </p>","0","comp_question","","","","true","","","","","","","",""
"comp-q","110","526519","0.0-3.0-13.0-0.2-1.2","spark_pilot_norest","8191","8","15","Female","","","","","","","1414.9000005722046","<p> <b> That's right! </b> One animal lives in the upper part and one lives in the lower part of every place. </p>","0","comp_answer","","","","","","","","","","","",""
"comp-q","111","543933","0.0-3.0-13.0-0.3-0.3","spark_pilot_norest","8191","8","15","Female","","","","","","","11888.599999427795","<p> <b> True or False? </b> </p><p> If you see a different picture, it means you are in a new place. </p>","0","comp_question","","","","false","","","","","","","",""
"comp-q","112","556969","0.0-3.0-13.0-0.3-1.3","spark_pilot_norest","8191","8","15","Female","","","","","","","1944","<p> <b>Incorrect.</b> Lots of different images may show the same place. For example,  you may see three different images that all remind you that you are in outer space. </p>","0","comp_answer","","","","","","","","","","","",""
"comp-q","113","565115","0.0-3.0-13.0-0.4-0.4","spark_pilot_norest","8191","8","15","Female","","","","","","","2651.199999809265","<p> <b> True or False? </b> </p><p> If you see a different picture, it means you are in a new place. </p>","1","comp_question","","","","true","","","","","","","",""
"comp-q","114","586213","0.0-3.0-13.0-0.4-1.4","spark_pilot_norest","8191","8","15","Female","","","","","","","9868.5","<p> <b> That's right! </b> Lots of different images may show the same place. For example,  you may see three different images that all remind you that you are in outer space. </p>","0","comp_answer","","","","","","","","","","","",""
"learning-instructions","115","648286","0.0-3.0-14.0-0.0","spark_pilot_norest","8191","8","15","Female","","","","","","","52221.199999809265","<p> Good job. Remember to do your best because the amount of treasure you earn will be converted into bonus money. </p>
            <p> It’s time to start the real game! </p>","","instructions","","","","","","","","","","","",""
"learning-instructions","116","652196","0.0-4.0-0.0-0.0","spark_pilot_norest","8191","8","15","Female","","","","","","","818.2999992370605","<p> This time you are searching for treasure in the <b>canyon</b>.</p>","","instructions","","","","","","","","","","","",""
"learning-instructions","117","672703","0.0-4.0-0.0-0.1","spark_pilot_norest","8191","8","15","Female","","","","","","","3226.199999809265","<p><b>New</b> animals with <b>new</b> treasure chests live here. You need to explore to discover where the animal with the best treasure chest is.</p>
                    <p> Like before, once you figure out which animal has the chest with the most treasure, you should try to get to that animal and select that chest! </p>","","instructions","","","","","","","","","","","",""
"learning-instructions","118","688231","0.0-4.0-1.0-0.0","spark_pilot_norest","8191","8","15","Female","","","","","","","793.8000001907349","<p> Remember, when you see a picture of the place, use the up and down keys to <b>find an animal</b>.</p>
            <p> When you encounter an animal, you should use the left and right keys to <b>select a treasure chest</b>.</p>
            <p> Don't forget to look out for the robber! </p>","","instructions","","","","","","","","","","","",""
"revaluation","119","694257","0.0-4.0-2.0-0.0","spark_pilot_norest","8191","8","15","Female","","false","","","","","[1209.1000003814697,595]","./assets/img/canyon/memory/32.jpg","[""ArrowDown"",""ArrowRight""]","value training","canyon","17","{""ArrowUp,ArrowLeft"":26,""ArrowUp,ArrowRight"":10,""ArrowDown,ArrowLeft"":5,""ArrowDown,ArrowRight"":17}","false","ArrowDown,ArrowRight","false","revaluation","1","0","","",""
"html-keyboard-response","120","694766","0.0-4.0-2.0-1.0","spark_pilot_norest","8191","8","15","Female","","","","","","","null","<div style=""font-size:60px;"">+</div>","null","fixation","","","","","","","","","1","","",""
"revaluation","121","700800","0.0-4.0-2.0-0.1","spark_pilot_norest","8191","8","15","Female","","false","","","","","[609.8999996185303,596.8000001907349]","./assets/img/canyon/memory/14.jpg","[""ArrowUp"",""ArrowLeft""]","value training","canyon","26","{""ArrowUp,ArrowLeft"":26,""ArrowUp,ArrowRight"":10,""ArrowDown,ArrowLeft"":5,""ArrowDown,ArrowRight"":17}","true","ArrowUp,ArrowLeft","false","revaluation","1","2","","",""
"html-keyboard-response","122","701309","0.0-4.0-2.0-1.1","spark_pilot_norest","8191","8","15","Female","","","","","","","null","<div style=""font-size:60px;"">+</div>","null","fixation","","","","","","","","","3","","",""
"revaluation","123","707341","0.0-4.0-2.0-0.2","spark_pilot_norest","8191","8","15","Female","","false","","","","","[559.6000003814697,460.19999980926514]","./assets/img/canyon/memory/7.jpg","[""ArrowDown"",""ArrowLeft""]","value training","canyon","5","{""ArrowUp,ArrowLeft"":26,""ArrowUp,ArrowRight"":10,""ArrowDown,ArrowLeft"":5,""ArrowDown,ArrowRight"":17}","false","ArrowDown,ArrowLeft","false","revaluation","1","4","","",""
"html-keyboard-response","124","707849","0.0-4.0-2.0-1.2","spark_pilot_norest","8191","8","15","Female","","","","","","","null","<div style=""font-size:60px;"">+</div>","null","fixation","","","","","","","","","5","","",""
"revaluation","125","713867","0.0-4.0-2.0-0.3","spark_pilot_norest","8191","8","15","Female","","false","","","","","[745.1000003814697,388.80000019073486]","./assets/img/canyon/memory/39.jpg","[""ArrowUp"",""ArrowRight""]","value training","canyon","10","{""ArrowUp,ArrowLeft"":26,""ArrowUp,ArrowRight"":10,""ArrowDown,ArrowLeft"":5,""ArrowDown,ArrowRight"":17}","false","ArrowUp,ArrowRight","false","revaluation","1","6","","",""
"html-keyboard-response","126","714382","0.0-4.0-2.0-1.3","spark_pilot_norest","8191","8","15","Female","","","","","","","null","<div style=""font-size:60px;"">+</div>","null","fixation","","","","","","","","","7","","",""
"revaluation","127","720397","0.0-4.0-2.0-0.4","spark_pilot_norest","8191","8","15","Female","","false","","","","","[690.9000005722046,320.5]","./assets/img/canyon/memory/18.jpg","[""ArrowDown"",""ArrowRight""]","value training","canyon","17","{""ArrowUp,ArrowLeft"":26,""ArrowUp,ArrowRight"":10,""ArrowDown,ArrowLeft"":5,""ArrowDown,ArrowRight"":17}","false","ArrowDown,ArrowRight","false","revaluation","1","8","","",""
"html-keyboard-response","128","720900","0.0-4.0-2.0-1.4","spark_pilot_norest","8191","8","15","Female","","","","","","","null","<div style=""font-size:60px;"">+</div>","null","fixation","","","","","","","","","9","","",""
"revaluation","129","726905","0.0-4.0-2.0-0.5","spark_pilot_norest","8191","8","15","Female","","false","","","","","[408.3999996185303,1188.2000007629395]","./assets/img/canyon/memory/22.jpg","[""ArrowUp"",""ArrowLeft""]","value training","canyon","26","{""ArrowUp,ArrowLeft"":26,""ArrowUp,ArrowRight"":10,""ArrowDown,ArrowLeft"":5,""ArrowDown,ArrowRight"":17}","true","ArrowUp,ArrowLeft","false","revaluation","1","10","","",""
"html-keyboard-response","130","727406","0.0-4.0-2.0-1.5","spark_pilot_norest","8191","8","15","Female","","","","","","","null","<div style=""font-size:60px;"">+</div>","null","fixation","","","","","","","","","11","","",""
"revaluation","131","731410","0.0-4.0-2.0-0.6","spark_pilot_norest","8191","8","15","Female","","false","","","","","[594.8999996185303]","./assets/img/canyon/catch/7.jpg","[""spaceBar""]","value training","canyon","0","{""ArrowUp,ArrowLeft"":26,""ArrowUp,ArrowRight"":10,""ArrowDown,ArrowLeft"":5,""ArrowDown,ArrowRight"":17}","true","spaceBar","true","revaluation","1","12","","",""
"html-keyboard-response","132","731912","0.0-4.0-2.0-1.6","spark_pilot_norest","8191","8","15","Female","","","","","","","null","<div style=""font-size:60px;"">+</div>","null","fixation","","","","","","","","","13","","",""
"revaluation","133","737918","0.0-4.0-2.0-0.7","spark_pilot_norest","8191","8","15","Female","","false","","","","","[587,665.9000005722046]","./assets/img/canyon/memory/10.jpg","[""ArrowDown"",""ArrowRight""]","value training","canyon","17","{""ArrowUp,ArrowLeft"":26,""ArrowUp,ArrowRight"":10,""ArrowDown,ArrowLeft"":5,""ArrowDown,ArrowRight"":17}","false","ArrowDown,ArrowRight","false","revaluation","1","14","","",""
"html-keyboard-response","134","738419","0.0-4.0-2.0-1.7","spark_pilot_norest","8191","8","15","Female","","","","","","","null","<div style=""font-size:60px;"">+</div>","null","fixation","","","","","","","","","15","","",""
"revaluation","135","744426","0.0-4.0-2.0-0.8","spark_pilot_norest","8191","8","15","Female","","false","","","","","[1030.0999994277954,1264.1999998092651]","./assets/img/canyon/memory/13.jpg","[""ArrowUp"",""ArrowLeft""]","value training","canyon","26","{""ArrowUp,ArrowLeft"":26,""ArrowUp,ArrowRight"":10,""ArrowDown,ArrowLeft"":5,""ArrowDown,ArrowRight"":17}","true","ArrowUp,ArrowLeft","false","revaluation","1","16","","",""
"html-keyboard-response","136","744927","0.0-4.0-2.0-1.8","spark_pilot_norest","8191","8","15","Female","","","","","","","null","<div style=""font-size:60px;"">+</div>","null","fixation","","","","","","","","","17","","",""
"revaluation","137","750932","0.0-4.0-2.0-0.9","spark_pilot_norest","8191","8","15","Female","","false","","","","","[447.19999980926514,631.8000001907349]","./assets/img/canyon/memory/6.jpg","[""ArrowDown"",""ArrowRight""]","value training","canyon","17","{""ArrowUp,ArrowLeft"":26,""ArrowUp,ArrowRight"":10,""ArrowDown,ArrowLeft"":5,""ArrowDown,ArrowRight"":17}","false","ArrowDown,ArrowRight","false","revaluation","1","18","","",""
"html-keyboard-response","138","751434","0.0-4.0-2.0-1.9","spark_pilot_norest","8191","8","15","Female","","","","","","","null","<div style=""font-size:60px;"">+</div>","null","fixation","","","","","","","","","19","","",""
"revaluation","139","757440","0.0-4.0-2.0-0.10","spark_pilot_norest","8191","8","15","Female","","false","","","","","[428,571]","./assets/img/canyon/memory/13.jpg","[""ArrowUp"",""ArrowLeft""]","value training","canyon","26","{""ArrowUp,ArrowLeft"":26,""ArrowUp,ArrowRight"":10,""ArrowDown,ArrowLeft"":5,""ArrowDown,ArrowRight"":17}","true","ArrowUp,ArrowLeft","false","revaluation","1","20","","",""
"html-keyboard-response","140","757942","0.0-4.0-2.0-1.10","spark_pilot_norest","8191","8","15","Female","","","","","","","null","<div style=""font-size:60px;"">+</div>","null","fixation","","","","","","","","","21","","",""
"revaluation","141","761948","0.0-4.0-2.0-0.11","spark_pilot_norest","8191","8","15","Female","","false","","","","","[527.4000005722046]","./assets/img/canyon/catch/6.jpg","[""spaceBar""]","value training","canyon","0","{""ArrowUp,ArrowLeft"":26,""ArrowUp,ArrowRight"":10,""ArrowDown,ArrowLeft"":5,""ArrowDown,ArrowRight"":17}","true","spaceBar","true","revaluation","1","22","","",""
"html-keyboard-response","142","762449","0.0-4.0-2.0-1.11","spark_pilot_norest","8191","8","15","Female","","","","","","","null","<div style=""font-size:60px;"">+</div>","null","fixation","","","","","","","","","23","","",""
"revaluation","143","766455","0.0-4.0-2.0-0.12","spark_pilot_norest","8191","8","15","Female","","false","","","","","[520.7000007629395]","./assets/img/canyon/catch/4.jpg","[""spaceBar""]","value training","canyon","0","{""ArrowUp,ArrowLeft"":26,""ArrowUp,ArrowRight"":10,""ArrowDown,ArrowLeft"":5,""ArrowDown,ArrowRight"":17}","true","spaceBar","true","revaluation","1","24","","",""
"html-keyboard-response","144","766956","0.0-4.0-2.0-1.12","spark_pilot_norest","8191","8","15","Female","","","","","","","null","<div style=""font-size:60px;"">+</div>","null","fixation","","","","","","","","","25","","",""
"revaluation","145","772962","0.0-4.0-2.0-0.13","spark_pilot_norest","8191","8","15","Female","","false","","","","","[1545.6999998092651,1131.7000007629395]","./assets/img/canyon/memory/31.jpg","[""ArrowDown"",""ArrowRight""]","value training","canyon","17","{""ArrowUp,ArrowLeft"":26,""ArrowUp,ArrowRight"":10,""ArrowDown,ArrowLeft"":5,""ArrowDown,ArrowRight"":17}","false","ArrowDown,ArrowRight","false","revaluation","1","26","","",""
"html-keyboard-response","146","773470","0.0-4.0-2.0-1.13","spark_pilot_norest","8191","8","15","Female","","","","","","","null","<div style=""font-size:60px;"">+</div>","null","fixation","","","","","","","","","27","","",""
"revaluation","147","779482","0.0-4.0-2.0-0.14","spark_pilot_norest","8191","8","15","Female","","false","","","","","[689.3999996185303,433.69999980926514]","./assets/img/canyon/memory/22.jpg","[""ArrowUp"",""ArrowRight""]","value training","canyon","10","{""ArrowUp,ArrowLeft"":26,""ArrowUp,ArrowRight"":10,""ArrowDown,ArrowLeft"":5,""ArrowDown,ArrowRight"":17}","false","ArrowUp,ArrowRight","false","revaluation","1","28","","",""
"html-keyboard-response","148","779983","0.0-4.0-2.0-1.14","spark_pilot_norest","8191","8","15","Female","","","","","","","null","<div style=""font-size:60px;"">+</div>","null","fixation","","","","","","","","","29","","",""
"revaluation","149","785989","0.0-4.0-2.0-0.15","spark_pilot_norest","8191","8","15","Female","","false","","","","","[531.6999998092651,347.19999980926514]","./assets/img/canyon/memory/39.jpg","[""ArrowUp"",""ArrowLeft""]","value training","canyon","26","{""ArrowUp,ArrowLeft"":26,""ArrowUp,ArrowRight"":10,""ArrowDown,ArrowLeft"":5,""ArrowDown,ArrowRight"":17}","true","ArrowUp,ArrowLeft","false","revaluation","1","30","","",""
"html-keyboard-response","150","786491","0.0-4.0-2.0-1.15","spark_pilot_norest","8191","8","15","Female","","","","","","","null","<div style=""font-size:60px;"">+</div>","null","fixation","","","","","","","","","31","","",""
"revaluation","151","792498","0.0-4.0-2.0-0.16","spark_pilot_norest","8191","8","15","Female","","false","","","","","[649,935]","./assets/img/canyon/memory/34.jpg","[""ArrowUp"",""ArrowLeft""]","value training","canyon","26","{""ArrowUp,ArrowLeft"":26,""ArrowUp,ArrowRight"":10,""ArrowDown,ArrowLeft"":5,""ArrowDown,ArrowRight"":17}","true","ArrowUp,ArrowLeft","false","revaluation","1","32","","",""
"html-keyboard-response","152","793000","0.0-4.0-2.0-1.16","spark_pilot_norest","8191","8","15","Female","","","","","","","null","<div style=""font-size:60px;"">+</div>","null","fixation","","","","","","","","","33","","",""
"revaluation","153","799006","0.0-4.0-2.0-0.17","spark_pilot_norest","8191","8","15","Female","","false","","","","","[452.5,1013.3999996185303]","./assets/img/canyon/memory/28.jpg","[""ArrowDown"",""ArrowRight""]","value training","canyon","17","{""ArrowUp,ArrowLeft"":26,""ArrowUp,ArrowRight"":10,""ArrowDown,ArrowLeft"":5,""ArrowDown,ArrowRight"":17}","false","ArrowDown,ArrowRight","false","revaluation","1","34","","",""
"html-keyboard-response","154","799509","0.0-4.0-2.0-1.17","spark_pilot_norest","8191","8","15","Female","","","","","","","null","<div style=""font-size:60px;"">+</div>","null","fixation","","","","","","","","","35","","",""
"revaluation","155","805514","0.0-4.0-2.0-0.18","spark_pilot_norest","8191","8","15","Female","","false","","","","","[426.80000019073486,421.5]","./assets/img/canyon/memory/10.jpg","[""ArrowUp"",""ArrowLeft""]","value training","canyon","26","{""ArrowUp,ArrowLeft"":26,""ArrowUp,ArrowRight"":10,""ArrowDown,ArrowLeft"":5,""ArrowDown,ArrowRight"":17}","true","ArrowUp,ArrowLeft","false","revaluation","1","36","","",""
"html-keyboard-response","156","806016","0.0-4.0-2.0-1.18","spark_pilot_norest","8191","8","15","Female","","","","","","","null","<div style=""font-size:60px;"">+</div>","null","fixation","","","","","","","","","37","","",""
"revaluation","157","812021","0.0-4.0-2.0-0.19","spark_pilot_norest","8191","8","15","Female","","false","","","","","[675.5,691.2000007629395]","./assets/img/canyon/memory/27.jpg","[""ArrowDown"",""ArrowRight""]","value training","canyon","17","{""ArrowUp,ArrowLeft"":26,""ArrowUp,ArrowRight"":10,""ArrowDown,ArrowLeft"":5,""ArrowDown,ArrowRight"":17}","false","ArrowDown,ArrowRight","false","revaluation","1","38","","",""
"html-keyboard-response","158","812523","0.0-4.0-2.0-1.19","spark_pilot_norest","8191","8","15","Female","","","","","","","null","<div style=""font-size:60px;"">+</div>","null","fixation","","","","","","","","","39","","",""
"revaluation","159","818530","0.0-4.0-2.0-0.20","spark_pilot_norest","8191","8","15","Female","","false","","","","","[866.1999998092651,349.80000019073486]","./assets/img/canyon/memory/26.jpg","[""ArrowUp"",""ArrowLeft""]","value training","canyon","26","{""ArrowUp,ArrowLeft"":26,""ArrowUp,ArrowRight"":10,""ArrowDown,ArrowLeft"":5,""ArrowDown,ArrowRight"":17}","true","ArrowUp,ArrowLeft","false","revaluation","1","40","","",""
"html-keyboard-response","160","819032","0.0-4.0-2.0-1.20","spark_pilot_norest","8191","8","15","Female","","","","","","","null","<div style=""font-size:60px;"">+</div>","null","fixation","","","","","","","","","41","","",""
"revaluation","161","825037","0.0-4.0-2.0-0.21","spark_pilot_norest","8191","8","15","Female","","false","","","","","[447,527.0999994277954]","./assets/img/canyon/memory/27.jpg","[""ArrowDown"",""ArrowRight""]","value training","canyon","17","{""ArrowUp,ArrowLeft"":26,""ArrowUp,ArrowRight"":10,""ArrowDown,ArrowLeft"":5,""ArrowDown,ArrowRight"":17}","false","ArrowDown,ArrowRight","false","revaluation","1","42","","",""
"html-keyboard-response","162","825539","0.0-4.0-2.0-1.21","spark_pilot_norest","8191","8","15","Female","","","","","","","null","<div style=""font-size:60px;"">+</div>","null","fixation","","","","","","","","","43","","",""
"revaluation","163","831543","0.0-4.0-2.0-0.22","spark_pilot_norest","8191","8","15","Female","","false","","","","","[628.8999996185303,432.5]","./assets/img/canyon/memory/38.jpg","[""ArrowUp"",""ArrowLeft""]","value training","canyon","26","{""ArrowUp,ArrowLeft"":26,""ArrowUp,ArrowRight"":10,""ArrowDown,ArrowLeft"":5,""ArrowDown,ArrowRight"":17}","true","ArrowUp,ArrowLeft","false","revaluation","1","44","","",""
"html-keyboard-response","164","832045","0.0-4.0-2.0-1.22","spark_pilot_norest","8191","8","15","Female","","","","","","","null","<div style=""font-size:60px;"">+</div>","null","fixation","","","","","","","","","45","","",""
"revaluation","165","838052","0.0-4.0-2.0-0.23","spark_pilot_norest","8191","8","15","Female","","false","","","","","[412.8999996185303,497.80000019073486]","./assets/img/canyon/memory/1.jpg","[""ArrowDown"",""ArrowRight""]","value training","canyon","17","{""ArrowUp,ArrowLeft"":26,""ArrowUp,ArrowRight"":10,""ArrowDown,ArrowLeft"":5,""ArrowDown,ArrowRight"":17}","false","ArrowDown,ArrowRight","false","revaluation","1","46","","",""
"html-keyboard-response","166","838555","0.0-4.0-2.0-1.23","spark_pilot_norest","8191","8","15","Female","","","","","","","null","<div style=""font-size:60px;"">+</div>","null","fixation","","","","","","","","","47","","",""
"revaluation","167","842560","0.0-4.0-2.0-0.24","spark_pilot_norest","8191","8","15","Female","","false","","","","","[715]","./assets/img/canyon/catch/3.jpg","[""spaceBar""]","value training","canyon","0","{""ArrowUp,ArrowLeft"":26,""ArrowUp,ArrowRight"":10,""ArrowDown,ArrowLeft"":5,""ArrowDown,ArrowRight"":17}","true","spaceBar","true","revaluation","1","48","","",""
"html-keyboard-response","168","843062","0.0-4.0-2.0-1.24","spark_pilot_norest","8191","8","15","Female","","","","","","","null","<div style=""font-size:60px;"">+</div>","null","fixation","","","","","","","","","49","","",""
"revaluation","169","849067","0.0-4.0-2.0-0.25","spark_pilot_norest","8191","8","15","Female","","false","","","","","[681.5,546.6999998092651]","./assets/img/canyon/memory/26.jpg","[""ArrowUp"",""ArrowLeft""]","value training","canyon","26","{""ArrowUp,ArrowLeft"":26,""ArrowUp,ArrowRight"":10,""ArrowDown,ArrowLeft"":5,""ArrowDown,ArrowRight"":17}","true","ArrowUp,ArrowLeft","false","revaluation","1","50","","",""
"html-keyboard-response","170","849569","0.0-4.0-2.0-1.25","spark_pilot_norest","8191","8","15","Female","","","","","","","null","<div style=""font-size:60px;"">+</div>","null","fixation","","","","","","","","","51","","",""
"revaluation","171","855575","0.0-4.0-2.0-0.26","spark_pilot_norest","8191","8","15","Female","","false","","","","","[845.8999996185303,647.3999996185303]","./assets/img/canyon/memory/14.jpg","[""ArrowDown"",""ArrowRight""]","value training","canyon","17","{""ArrowUp,ArrowLeft"":26,""ArrowUp,ArrowRight"":10,""ArrowDown,ArrowLeft"":5,""ArrowDown,ArrowRight"":17}","false","ArrowDown,ArrowRight","false","revaluation","1","52","","",""
"html-keyboard-response","172","856076","0.0-4.0-2.0-1.26","spark_pilot_norest","8191","8","15","Female","","","","","","","null","<div style=""font-size:60px;"">+</div>","null","fixation","","","","","","","","","53","","",""
"revaluation","173","862083","0.0-4.0-2.0-0.27","spark_pilot_norest","8191","8","15","Female","","false","","","","","[375.5999994277954,525.8000001907349]","./assets/img/canyon/memory/32.jpg","[""ArrowUp"",""ArrowLeft""]","value training","canyon","26","{""ArrowUp,ArrowLeft"":26,""ArrowUp,ArrowRight"":10,""ArrowDown,ArrowLeft"":5,""ArrowDown,ArrowRight"":17}","true","ArrowUp,ArrowLeft","false","revaluation","1","54","","",""
"html-keyboard-response","174","862585","0.0-4.0-2.0-1.27","spark_pilot_norest","8191","8","15","Female","","","","","","","null","<div style=""font-size:60px;"">+</div>","null","fixation","","","","","","","","","55","","",""
"revaluation","175","868592","0.0-4.0-2.0-0.28","spark_pilot_norest","8191","8","15","Female","","false","","","","","[1463.3999996185303,966.6000003814697]","./assets/img/canyon/memory/18.jpg","[""ArrowDown"",""ArrowRight""]","value training","canyon","17","{""ArrowUp,ArrowLeft"":26,""ArrowUp,ArrowRight"":10,""ArrowDown,ArrowLeft"":5,""ArrowDown,ArrowRight"":17}","false","ArrowDown,ArrowRight","false","revaluation","1","56","","",""
"html-keyboard-response","176","869095","0.0-4.0-2.0-1.28","spark_pilot_norest","8191","8","15","Female","","","","","","","null","<div style=""font-size:60px;"">+</div>","null","fixation","","","","","","","","","57","","",""
"revaluation","177","875100","0.0-4.0-2.0-0.29","spark_pilot_norest","8191","8","15","Female","","false","","","","","[575.8000001907349,703.6000003814697]","./assets/img/canyon/memory/1.jpg","[""ArrowUp"",""ArrowLeft""]","value training","canyon","26","{""ArrowUp,ArrowLeft"":26,""ArrowUp,ArrowRight"":10,""ArrowDown,ArrowLeft"":5,""ArrowDown,ArrowRight"":17}","true","ArrowUp,ArrowLeft","false","revaluation","1","58","","",""
"html-keyboard-response","178","875602","0.0-4.0-2.0-1.29","spark_pilot_norest","8191","8","15","Female","","","","","","","null","<div style=""font-size:60px;"">+</div>","null","fixation","","","","","","","","","59","","",""
"revaluation","179","881610","0.0-4.0-2.0-0.30","spark_pilot_norest","8191","8","15","Female","","false","","","","","[419,824.2999992370605]","./assets/img/canyon/memory/35.jpg","[""ArrowUp"",""ArrowLeft""]","value training","canyon","26","{""ArrowUp,ArrowLeft"":26,""ArrowUp,ArrowRight"":10,""ArrowDown,ArrowLeft"":5,""ArrowDown,ArrowRight"":17}","true","ArrowUp,ArrowLeft","false","revaluation","1","60","","",""
"html-keyboard-response","180","882112","0.0-4.0-2.0-1.30","spark_pilot_norest","8191","8","15","Female","","","","","","","null","<div style=""font-size:60px;"">+</div>","null","fixation","","","","","","","","","61","","",""
"revaluation","181","888117","0.0-4.0-2.0-0.31","spark_pilot_norest","8191","8","15","Female","","false","","","","","[1378.5999994277954,1008.6000003814697]","./assets/img/canyon/memory/9.jpg","[""ArrowDown"",""ArrowLeft""]","value training","canyon","5","{""ArrowUp,ArrowLeft"":26,""ArrowUp,ArrowRight"":10,""ArrowDown,ArrowLeft"":5,""ArrowDown,ArrowRight"":17}","false","ArrowDown,ArrowLeft","false","revaluation","1","62","","",""
"html-keyboard-response","182","888618","0.0-4.0-2.0-1.31","spark_pilot_norest","8191","8","15","Female","","","","","","","null","<div style=""font-size:60px;"">+</div>","null","fixation","","","","","","","","","63","","",""
"revaluation","183","892624","0.0-4.0-2.0-0.32","spark_pilot_norest","8191","8","15","Female","","false","","","","","[743.1000003814697]","./assets/img/canyon/catch/5.jpg","[""spaceBar""]","value training","canyon","0","{""ArrowUp,ArrowLeft"":26,""ArrowUp,ArrowRight"":10,""ArrowDown,ArrowLeft"":5,""ArrowDown,ArrowRight"":17}","true","spaceBar","true","revaluation","1","64","","",""
"html-keyboard-response","184","893126","0.0-4.0-2.0-1.32","spark_pilot_norest","8191","8","15","Female","","","","","","","null","<div style=""font-size:60px;"">+</div>","null","fixation","","","","","","","","","65","","",""
"revaluation","185","899131","0.0-4.0-2.0-0.33","spark_pilot_norest","8191","8","15","Female","","false","","","","","[537.5999994277954,331.5]","./assets/img/canyon/memory/24.jpg","[""ArrowUp"",""ArrowLeft""]","value training","canyon","26","{""ArrowUp,ArrowLeft"":26,""ArrowUp,ArrowRight"":10,""ArrowDown,ArrowLeft"":5,""ArrowDown,ArrowRight"":17}","true","ArrowUp,ArrowLeft","false","revaluation","1","66","","",""
"html-keyboard-response","186","899632","0.0-4.0-2.0-1.33","spark_pilot_norest","8191","8","15","Female","","","","","","","null","<div style=""font-size:60px;"">+</div>","null","fixation","","","","","","","","","67","","",""
"revaluation","187","905638","0.0-4.0-2.0-0.34","spark_pilot_norest","8191","8","15","Female","","false","","","","","[406.5,469.19999980926514]","./assets/img/canyon/memory/36.jpg","[""ArrowUp"",""ArrowLeft""]","value training","canyon","26","{""ArrowUp,ArrowLeft"":26,""ArrowUp,ArrowRight"":10,""ArrowDown,ArrowLeft"":5,""ArrowDown,ArrowRight"":17}","true","ArrowUp,ArrowLeft","false","revaluation","1","68","","",""
"html-keyboard-response","188","906140","0.0-4.0-2.0-1.34","spark_pilot_norest","8191","8","15","Female","","","","","","","null","<div style=""font-size:60px;"">+</div>","null","fixation","","","","","","","","","69","","",""
"revaluation","189","912151","0.0-4.0-2.0-0.35","spark_pilot_norest","8191","8","15","Female","","false","","","","","[332.80000019073486,622.9000005722046]","./assets/img/canyon/memory/28.jpg","[""ArrowUp"",""ArrowLeft""]","value training","canyon","26","{""ArrowUp,ArrowLeft"":26,""ArrowUp,ArrowRight"":10,""ArrowDown,ArrowLeft"":5,""ArrowDown,ArrowRight"":17}","true","ArrowUp,ArrowLeft","false","revaluation","1","70","","",""
"html-keyboard-response","190","912654","0.0-4.0-2.0-1.35","spark_pilot_norest","8191","8","15","Female","","","","","","","null","<div style=""font-size:60px;"">+</div>","null","fixation","","","","","","","","","71","","",""
"revaluation","191","918661","0.0-4.0-2.0-0.36","spark_pilot_norest","8191","8","15","Female","","false","","","","","[615.0999994277954,660.3999996185303]","./assets/img/canyon/memory/38.jpg","[""ArrowUp"",""ArrowLeft""]","value training","canyon","26","{""ArrowUp,ArrowLeft"":26,""ArrowUp,ArrowRight"":10,""ArrowDown,ArrowLeft"":5,""ArrowDown,ArrowRight"":17}","true","ArrowUp,ArrowLeft","false","revaluation","1","72","","",""
"html-keyboard-response","192","919163","0.0-4.0-2.0-1.36","spark_pilot_norest","8191","8","15","Female","","","","","","","null","<div style=""font-size:60px;"">+</div>","null","fixation","","","","","","","","","73","","",""
"revaluation","193","925170","0.0-4.0-2.0-0.37","spark_pilot_norest","8191","8","15","Female","","false","","","","","[1079.8000001907349,586.5]","./assets/img/canyon/memory/11.jpg","[""ArrowUp"",""ArrowLeft""]","value training","canyon","26","{""ArrowUp,ArrowLeft"":26,""ArrowUp,ArrowRight"":10,""ArrowDown,ArrowLeft"":5,""ArrowDown,ArrowRight"":17}","true","ArrowUp,ArrowLeft","false","revaluation","1","74","","",""
"html-keyboard-response","194","925672","0.0-4.0-2.0-1.37","spark_pilot_norest","8191","8","15","Female","","","","","","","null","<div style=""font-size:60px;"">+</div>","null","fixation","","","","","","","","","75","","",""
"revaluation","195","931678","0.0-4.0-2.0-0.38","spark_pilot_norest","8191","8","15","Female","","false","","","","","[478.19999980926514,1235.1000003814697]","./assets/img/canyon/memory/34.jpg","[""ArrowUp"",""ArrowLeft""]","value training","canyon","26","{""ArrowUp,ArrowLeft"":26,""ArrowUp,ArrowRight"":10,""ArrowDown,ArrowLeft"":5,""ArrowDown,ArrowRight"":17}","true","ArrowUp,ArrowLeft","false","revaluation","1","76","","",""
"html-keyboard-response","196","932179","0.0-4.0-2.0-1.38","spark_pilot_norest","8191","8","15","Female","","","","","","","null","<div style=""font-size:60px;"">+</div>","null","fixation","","","","","","","","","77","","",""
"revaluation","197","938185","0.0-4.0-2.0-0.39","spark_pilot_norest","8191","8","15","Female","","false","","","","","[493.19999980926514,661.2000007629395]","./assets/img/canyon/memory/24.jpg","[""ArrowUp"",""ArrowLeft""]","value training","canyon","26","{""ArrowUp,ArrowLeft"":26,""ArrowUp,ArrowRight"":10,""ArrowDown,ArrowLeft"":5,""ArrowDown,ArrowRight"":17}","true","ArrowUp,ArrowLeft","false","revaluation","1","78","","",""
"html-keyboard-response","198","938688","0.0-4.0-2.0-1.39","spark_pilot_norest","8191","8","15","Female","","","","","","","null","<div style=""font-size:60px;"">+</div>","null","fixation","","","","","","","","","79","","",""
"revaluation","199","944693","0.0-4.0-2.0-0.40","spark_pilot_norest","8191","8","15","Female","","false","","","","","[572.7999992370605,384]","./assets/img/canyon/memory/35.jpg","[""ArrowUp"",""ArrowLeft""]","value training","canyon","26","{""ArrowUp,ArrowLeft"":26,""ArrowUp,ArrowRight"":10,""ArrowDown,ArrowLeft"":5,""ArrowDown,ArrowRight"":17}","true","ArrowUp,ArrowLeft","false","revaluation","1","80","","",""
"html-keyboard-response","200","945194","0.0-4.0-2.0-1.40","spark_pilot_norest","8191","8","15","Female","","","","","","","null","<div style=""font-size:60px;"">+</div>","null","fixation","","","","","","","","","81","","",""
"revaluation","201","951201","0.0-4.0-2.0-0.41","spark_pilot_norest","8191","8","15","Female","","false","","","","","[379.30000019073486,559.2999992370605]","./assets/img/canyon/memory/11.jpg","[""ArrowUp"",""ArrowLeft""]","value training","canyon","26","{""ArrowUp,ArrowLeft"":26,""ArrowUp,ArrowRight"":10,""ArrowDown,ArrowLeft"":5,""ArrowDown,ArrowRight"":17}","true","ArrowUp,ArrowLeft","false","revaluation","1","82","","",""
"html-keyboard-response","202","951703","0.0-4.0-2.0-1.41","spark_pilot_norest","8191","8","15","Female","","","","","","","null","<div style=""font-size:60px;"">+</div>","null","fixation","","","","","","","","","83","","",""
"revaluation","203","957710","0.0-4.0-2.0-0.42","spark_pilot_norest","8191","8","15","Female","","false","","","","","[392.5999994277954,713.3999996185303]","./assets/img/canyon/memory/36.jpg","[""ArrowUp"",""ArrowLeft""]","value training","canyon","26","{""ArrowUp,ArrowLeft"":26,""ArrowUp,ArrowRight"":10,""ArrowDown,ArrowLeft"":5,""ArrowDown,ArrowRight"":17}","true","ArrowUp,ArrowLeft","false","revaluation","1","84","","",""
"html-keyboard-response","204","958212","0.0-4.0-2.0-1.42","spark_pilot_norest","8191","8","15","Female","","","","","","","null","<div style=""font-size:60px;"">+</div>","null","fixation","","","","","","","","","85","","",""
"revaluation","205","964219","0.0-4.0-2.0-0.43","spark_pilot_norest","8191","8","15","Female","","false","","","","","[1708.5999994277954,756.3000001907349]","./assets/img/canyon/memory/6.jpg","[""ArrowUp"",""ArrowLeft""]","value training","canyon","26","{""ArrowUp,ArrowLeft"":26,""ArrowUp,ArrowRight"":10,""ArrowDown,ArrowLeft"":5,""ArrowDown,ArrowRight"":17}","true","ArrowUp,ArrowLeft","false","revaluation","1","86","","",""
"html-keyboard-response","206","964728","0.0-4.0-2.0-1.43","spark_pilot_norest","8191","8","15","Female","","","","","","","null","<div style=""font-size:60px;"">+</div>","null","fixation","","","","","","","","","87","","",""
"revaluation","207","968733","0.0-4.0-2.0-0.44","spark_pilot_norest","8191","8","15","Female","","false","","","","","[443.9000005722046]","./assets/img/canyon/catch/2.jpg","[""ArrowUp""]","value training","canyon","-10","{""ArrowUp,ArrowLeft"":26,""ArrowUp,ArrowRight"":10,""ArrowDown,ArrowLeft"":5,""ArrowDown,ArrowRight"":17}","false","ArrowUp","true","revaluation","1","88","","",""
"html-keyboard-response","208","969235","0.0-4.0-2.0-1.44","spark_pilot_norest","8191","8","15","Female","","","","","","","null","<div style=""font-size:60px;"">+</div>","null","fixation","","","","","","","","","89","","",""
"revaluation","209","973239","0.0-4.0-2.0-0.45","spark_pilot_norest","8191","8","15","Female","","false","","","","","[566.6999998092651]","./assets/img/canyon/catch/0.jpg","[""spaceBar""]","value training","canyon","0","{""ArrowUp,ArrowLeft"":26,""ArrowUp,ArrowRight"":10,""ArrowDown,ArrowLeft"":5,""ArrowDown,ArrowRight"":17}","true","spaceBar","true","revaluation","1","90","","",""
"html-keyboard-response","210","973741","0.0-4.0-2.0-1.45","spark_pilot_norest","8191","8","15","Female","","","","","","","null","<div style=""font-size:60px;"">+</div>","null","fixation","","","","","","","","","91","","",""
"revaluation","211","979762","0.0-4.0-2.0-0.46","spark_pilot_norest","8191","8","15","Female","","false","","","","","[600.9000005722046,1251]","./assets/img/canyon/memory/9.jpg","[""ArrowUp"",""ArrowLeft""]","value training","canyon","26","{""ArrowUp,ArrowLeft"":26,""ArrowUp,ArrowRight"":10,""ArrowDown,ArrowLeft"":5,""ArrowDown,ArrowRight"":17}","true","ArrowUp,ArrowLeft","false","revaluation","1","92","","",""
"html-keyboard-response","212","980264","0.0-4.0-2.0-1.46","spark_pilot_norest","8191","8","15","Female","","","","","","","null","<div style=""font-size:60px;"">+</div>","null","fixation","","","","","","","","","93","","",""
"revaluation","213","984269","0.0-4.0-2.0-0.47","spark_pilot_norest","8191","8","15","Female","","false","","","","","[477.0999994277954]","./assets/img/canyon/catch/1.jpg","[""spaceBar""]","value training","canyon","0","{""ArrowUp,ArrowLeft"":26,""ArrowUp,ArrowRight"":10,""ArrowDown,ArrowLeft"":5,""ArrowDown,ArrowRight"":17}","true","spaceBar","true","revaluation","1","94","","",""
"html-keyboard-response","214","984781","0.0-4.0-2.0-1.47","spark_pilot_norest","8191","8","15","Female","","","","","","","null","<div style=""font-size:60px;"">+</div>","null","fixation","","","","","","","","","95","","",""
"revaluation","215","988786","0.0-4.0-2.0-0.48","spark_pilot_norest","8191","8","15","Female","","true","","","","","[]","./assets/img/canyon/memory/7.jpg","[]","value training","canyon","-5","{""ArrowUp,ArrowLeft"":26,""ArrowUp,ArrowRight"":10,""ArrowDown,ArrowLeft"":5,""ArrowDown,ArrowRight"":17}","false","","false","revaluation","1","96","","",""
"html-keyboard-response","216","989288","0.0-4.0-2.0-1.48","spark_pilot_norest","8191","8","15","Female","","","","","","","null","<div style=""font-size:60px;"">+</div>","null","fixation","","","","","","","","","97","","",""
"revaluation","217","995295","0.0-4.0-2.0-0.49","spark_pilot_norest","8191","8","15","Female","","false","","","","","[803,1132.6999998092651]","./assets/img/canyon/memory/31.jpg","[""ArrowUp"",""ArrowLeft""]","value training","canyon","26","{""ArrowUp,ArrowLeft"":26,""ArrowUp,ArrowRight"":10,""ArrowDown,ArrowLeft"":5,""ArrowDown,ArrowRight"":17}","true","ArrowUp,ArrowLeft","false","revaluation","1","98","","",""
"html-keyboard-response","218","995798","0.0-4.0-2.0-1.49","spark_pilot_norest","8191","8","15","Female","","","","","","","null","<div style=""font-size:60px;"">+</div>","null","fixation","","","","","","","","","99","","",""
"learning-instructions","219","1014024","0.0-4.0-3.0-0.0","spark_pilot_norest","8191","8","15","Female","","","","","","","5000.099999427795","<p> Now, you will travel with a friend who will choose whether you go up or down first. </p>
            <p> On these turns, you will just see the animal that they found. You will still get to choose which chest to search for treasure.</p>","","instructions","","","","","","","","","","","",""
"revaluation","220","1018038","0.0-4.0-4.0-0.0","spark_pilot_norest","8191","8","15","Female","","false","","","","","[790.8999996185303]","./assets/img/canyon/animals/lion.jpg","[""ArrowRight""]","revaluation","canyon","11","{""ArrowUp,ArrowLeft"":2,""ArrowUp,ArrowRight"":11,""ArrowDown,ArrowLeft"":8,""ArrowDown,ArrowRight"":27}","true","ArrowUp,ArrowRight","","revaluation","1","0","","",""
"html-keyboard-response","221","1018551","0.0-4.0-4.0-1.0","spark_pilot_norest","8191","8","15","Female","","","","","","","null","<div style=""font-size:60px;"">+</div>","null","fixation","","","","","","","","","1","","",""
"revaluation","222","1022568","0.0-4.0-4.0-0.1","spark_pilot_norest","8191","8","15","Female","","false","","","","","[985.4000005722046]","./assets/img/canyon/animals/lion.jpg","[""ArrowLeft""]","revaluation","canyon","2","{""ArrowUp,ArrowLeft"":2,""ArrowUp,ArrowRight"":11,""ArrowDown,ArrowLeft"":8,""ArrowDown,ArrowRight"":27}","false","ArrowUp,ArrowLeft","","revaluation","1","2","","",""
"html-keyboard-response","223","1023079","0.0-4.0-4.0-1.1","spark_pilot_norest","8191","8","15","Female","","","","","","","null","<div style=""font-size:60px;"">+</div>","null","fixation","","","","","","","","","3","","",""
"revaluation","224","1027104","0.0-4.0-4.0-0.2","spark_pilot_norest","8191","8","15","Female","","false","","","","","[787.8000001907349]","./assets/img/canyon/animals/lion.jpg","[""ArrowRight""]","revaluation","canyon","11","{""ArrowUp,ArrowLeft"":2,""ArrowUp,ArrowRight"":11,""ArrowDown,ArrowLeft"":8,""ArrowDown,ArrowRight"":27}","true","ArrowUp,ArrowRight","","revaluation","1","4","","",""
"html-keyboard-response","225","1027607","0.0-4.0-4.0-1.2","spark_pilot_norest","8191","8","15","Female","","","","","","","null","<div style=""font-size:60px;"">+</div>","null","fixation","","","","","","","","","5","","",""
"revaluation","226","1031622","0.0-4.0-4.0-0.3","spark_pilot_norest","8191","8","15","Female","","false","","","","","[666.7999992370605]","./assets/img/canyon/animals/giraffe.jpg","[""ArrowRight""]","revaluation","canyon","27","{""ArrowUp,ArrowLeft"":2,""ArrowUp,ArrowRight"":11,""ArrowDown,ArrowLeft"":8,""ArrowDown,ArrowRight"":27}","true","ArrowDown,ArrowRight","","revaluation","1","6","","",""
"html-keyboard-response","227","1032129","0.0-4.0-4.0-1.3","spark_pilot_norest","8191","8","15","Female","","","","","","","null","<div style=""font-size:60px;"">+</div>","null","fixation","","","","","","","","","7","","",""
"revaluation","228","1036144","0.0-4.0-4.0-0.4","spark_pilot_norest","8191","8","15","Female","","false","","","","","[739.9000005722046]","./assets/img/canyon/animals/giraffe.jpg","[""ArrowLeft""]","revaluation","canyon","8","{""ArrowUp,ArrowLeft"":2,""ArrowUp,ArrowRight"":11,""ArrowDown,ArrowLeft"":8,""ArrowDown,ArrowRight"":27}","false","ArrowDown,ArrowLeft","","revaluation","1","8","","",""
"html-keyboard-response","229","1036651","0.0-4.0-4.0-1.4","spark_pilot_norest","8191","8","15","Female","","","","","","","null","<div style=""font-size:60px;"">+</div>","null","fixation","","","","","","","","","9","","",""
"revaluation","230","1040660","0.0-4.0-4.0-0.5","spark_pilot_norest","8191","8","15","Female","","false","","","","","[407.69999980926514]","./assets/img/canyon/animals/giraffe.jpg","[""ArrowRight""]","revaluation","canyon","27","{""ArrowUp,ArrowLeft"":2,""ArrowUp,ArrowRight"":11,""ArrowDown,ArrowLeft"":8,""ArrowDown,ArrowRight"":27}","true","ArrowDown,ArrowRight","","revaluation","1","10","","",""
"html-keyboard-response","231","1041162","0.0-4.0-4.0-1.5","spark_pilot_norest","8191","8","15","Female","","","","","","","null","<div style=""font-size:60px;"">+</div>","null","fixation","","","","","","","","","11","","",""
"revaluation","232","1045176","0.0-4.0-4.0-0.6","spark_pilot_norest","8191","8","15","Female","","false","","","","","[918]","./assets/img/canyon/animals/giraffe.jpg","[""ArrowRight""]","revaluation","canyon","27","{""ArrowUp,ArrowLeft"":2,""ArrowUp,ArrowRight"":11,""ArrowDown,ArrowLeft"":8,""ArrowDown,ArrowRight"":27}","true","ArrowDown,ArrowRight","","revaluation","1","12","","",""
"html-keyboard-response","233","1045677","0.0-4.0-4.0-1.6","spark_pilot_norest","8191","8","15","Female","","","","","","","null","<div style=""font-size:60px;"">+</div>","null","fixation","","","","","","","","","13","","",""
"revaluation","234","1049681","0.0-4.0-4.0-0.7","spark_pilot_norest","8191","8","15","Female","","false","","","","","[749.1000003814697]","./assets/img/canyon/animals/giraffe.jpg","[""ArrowRight""]","revaluation","canyon","27","{""ArrowUp,ArrowLeft"":2,""ArrowUp,ArrowRight"":11,""ArrowDown,ArrowLeft"":8,""ArrowDown,ArrowRight"":27}","true","ArrowDown,ArrowRight","","revaluation","1","14","","",""
"html-keyboard-response","235","1050184","0.0-4.0-4.0-1.7","spark_pilot_norest","8191","8","15","Female","","","","","","","null","<div style=""font-size:60px;"">+</div>","null","fixation","","","","","","","","","15","","",""
"revaluation","236","1054188","0.0-4.0-4.0-0.8","spark_pilot_norest","8191","8","15","Female","","false","","","","","[362.80000019073486]","./assets/img/canyon/animals/giraffe.jpg","[""ArrowRight""]","revaluation","canyon","27","{""ArrowUp,ArrowLeft"":2,""ArrowUp,ArrowRight"":11,""ArrowDown,ArrowLeft"":8,""ArrowDown,ArrowRight"":27}","true","ArrowDown,ArrowRight","","revaluation","1","16","","",""
"html-keyboard-response","237","1054689","0.0-4.0-4.0-1.8","spark_pilot_norest","8191","8","15","Female","","","","","","","null","<div style=""font-size:60px;"">+</div>","null","fixation","","","","","","","","","17","","",""
"revaluation","238","1058695","0.0-4.0-4.0-0.9","spark_pilot_norest","8191","8","15","Female","","false","","","","","[533.9000005722046]","./assets/img/canyon/animals/lion.jpg","[""ArrowRight""]","revaluation","canyon","11","{""ArrowUp,ArrowLeft"":2,""ArrowUp,ArrowRight"":11,""ArrowDown,ArrowLeft"":8,""ArrowDown,ArrowRight"":27}","true","ArrowUp,ArrowRight","","revaluation","1","18","","",""
"html-keyboard-response","239","1059197","0.0-4.0-4.0-1.9","spark_pilot_norest","8191","8","15","Female","","","","","","","null","<div style=""font-size:60px;"">+</div>","null","fixation","","","","","","","","","19","","",""
"revaluation","240","1063203","0.0-4.0-4.0-0.10","spark_pilot_norest","8191","8","15","Female","","false","","","","","[674]","./assets/img/canyon/animals/giraffe.jpg","[""ArrowRight""]","revaluation","canyon","27","{""ArrowUp,ArrowLeft"":2,""ArrowUp,ArrowRight"":11,""ArrowDown,ArrowLeft"":8,""ArrowDown,ArrowRight"":27}","true","ArrowDown,ArrowRight","","revaluation","1","20","","",""
"html-keyboard-response","241","1063705","0.0-4.0-4.0-1.10","spark_pilot_norest","8191","8","15","Female","","","","","","","null","<div style=""font-size:60px;"">+</div>","null","fixation","","","","","","","","","21","","",""
"revaluation","242","1067709","0.0-4.0-4.0-0.11","spark_pilot_norest","8191","8","15","Female","","false","","","","","[657.8000001907349]","./assets/img/canyon/animals/giraffe.jpg","[""ArrowRight""]","revaluation","canyon","27","{""ArrowUp,ArrowLeft"":2,""ArrowUp,ArrowRight"":11,""ArrowDown,ArrowLeft"":8,""ArrowDown,ArrowRight"":27}","true","ArrowDown,ArrowRight","","revaluation","1","22","","",""
"html-keyboard-response","243","1068211","0.0-4.0-4.0-1.11","spark_pilot_norest","8191","8","15","Female","","","","","","","null","<div style=""font-size:60px;"">+</div>","null","fixation","","","","","","","","","23","","",""
"revaluation","244","1072217","0.0-4.0-4.0-0.12","spark_pilot_norest","8191","8","15","Female","","false","","","","","[1173.6999998092651]","./assets/img/canyon/animals/lion.jpg","[""ArrowRight""]","revaluation","canyon","11","{""ArrowUp,ArrowLeft"":2,""ArrowUp,ArrowRight"":11,""ArrowDown,ArrowLeft"":8,""ArrowDown,ArrowRight"":27}","true","ArrowUp,ArrowRight","","revaluation","1","24","","",""
"html-keyboard-response","245","1072718","0.0-4.0-4.0-1.12","spark_pilot_norest","8191","8","15","Female","","","","","","","null","<div style=""font-size:60px;"">+</div>","null","fixation","","","","","","","","","25","","",""
"revaluation","246","1076723","0.0-4.0-4.0-0.13","spark_pilot_norest","8191","8","15","Female","","false","","","","","[675]","./assets/img/canyon/animals/lion.jpg","[""ArrowRight""]","revaluation","canyon","11","{""ArrowUp,ArrowLeft"":2,""ArrowUp,ArrowRight"":11,""ArrowDown,ArrowLeft"":8,""ArrowDown,ArrowRight"":27}","true","ArrowUp,ArrowRight","","revaluation","1","26","","",""
"html-keyboard-response","247","1077230","0.0-4.0-4.0-1.13","spark_pilot_norest","8191","8","15","Female","","","","","","","null","<div style=""font-size:60px;"">+</div>","null","fixation","","","","","","","","","27","","",""
"revaluation","248","1081235","0.0-4.0-4.0-0.14","spark_pilot_norest","8191","8","15","Female","","false","","","","","[464.0999994277954]","./assets/img/canyon/animals/lion.jpg","[""ArrowRight""]","revaluation","canyon","11","{""ArrowUp,ArrowLeft"":2,""ArrowUp,ArrowRight"":11,""ArrowDown,ArrowLeft"":8,""ArrowDown,ArrowRight"":27}","true","ArrowUp,ArrowRight","","revaluation","1","28","","",""
"html-keyboard-response","249","1081737","0.0-4.0-4.0-1.14","spark_pilot_norest","8191","8","15","Female","","","","","","","null","<div style=""font-size:60px;"">+</div>","null","fixation","","","","","","","","","29","","",""
"revaluation","250","1085742","0.0-4.0-4.0-0.15","spark_pilot_norest","8191","8","15","Female","","false","","","","","[678.7999992370605]","./assets/img/canyon/animals/lion.jpg","[""ArrowRight""]","revaluation","canyon","11","{""ArrowUp,ArrowLeft"":2,""ArrowUp,ArrowRight"":11,""ArrowDown,ArrowLeft"":8,""ArrowDown,ArrowRight"":27}","true","ArrowUp,ArrowRight","","revaluation","1","30","","",""
"html-keyboard-response","251","1086244","0.0-4.0-4.0-1.15","spark_pilot_norest","8191","8","15","Female","","","","","","","null","<div style=""font-size:60px;"">+</div>","null","fixation","","","","","","","","","31","","",""
"revaluation","252","1090249","0.0-4.0-4.0-0.16","spark_pilot_norest","8191","8","15","Female","","false","","","","","[503.19999980926514]","./assets/img/canyon/animals/lion.jpg","[""ArrowRight""]","revaluation","canyon","11","{""ArrowUp,ArrowLeft"":2,""ArrowUp,ArrowRight"":11,""ArrowDown,ArrowLeft"":8,""ArrowDown,ArrowRight"":27}","true","ArrowUp,ArrowRight","","revaluation","1","32","","",""
"html-keyboard-response","253","1090751","0.0-4.0-4.0-1.16","spark_pilot_norest","8191","8","15","Female","","","","","","","null","<div style=""font-size:60px;"">+</div>","null","fixation","","","","","","","","","33","","",""
"revaluation","254","1094757","0.0-4.0-4.0-0.17","spark_pilot_norest","8191","8","15","Female","","false","","","","","[409.19999980926514]","./assets/img/canyon/animals/giraffe.jpg","[""ArrowRight""]","revaluation","canyon","27","{""ArrowUp,ArrowLeft"":2,""ArrowUp,ArrowRight"":11,""ArrowDown,ArrowLeft"":8,""ArrowDown,ArrowRight"":27}","true","ArrowDown,ArrowRight","","revaluation","1","34","","",""
"html-keyboard-response","255","1095259","0.0-4.0-4.0-1.17","spark_pilot_norest","8191","8","15","Female","","","","","","","null","<div style=""font-size:60px;"">+</div>","null","fixation","","","","","","","","","35","","",""
"learning-instructions","256","1103772","0.0-4.0-5.0-0.0","spark_pilot_norest","8191","8","15","Female","","","","","","","null","<p> You have almost finished this part of the game! </p>
            <p> We are going to ask you to make a few more choices. </p>","","instructions","","","","","","","","","","","",""
"learning-instructions","257","1119748","0.0-4.0-5.0-0.1","spark_pilot_norest","8191","8","15","Female","","","","","","","null","<p> First, you need to decide whether to go up or down. When you see each picture, use the arrow keys to make your choice. </p>
            <p><b>You will not see which animal you found, but try to get to the one that will give you the most treasure.</b></p>","","instructions","","","","","","","","","","","",""
"html-keyboard-response","258","1120756","0.0-4.0-6.0-0.0","spark_pilot_norest","8191","8","15","Female","","","","","","","null","<div style=""font-size:100px;color:red;"">Starting in...</div>","null","","","","","","","","","","","","",""
"html-keyboard-response","259","1121760","0.0-4.0-6.0-1.0","spark_pilot_norest","8191","8","15","Female","","","","","","","null","<div style=""font-size:200px;color:red;"">3</div>","null","","","","","","","","","","","","",""
"html-keyboard-response","260","1122770","0.0-4.0-6.0-2.0","spark_pilot_norest","8191","8","15","Female","","","","","","","null","<div style=""font-size:200px;color:red;"">2</div>","null","","","","","","","","","","","","",""
"html-keyboard-response","261","1123785","0.0-4.0-6.0-3.0","spark_pilot_norest","8191","8","15","Female","","","","","","","null","<div style=""font-size:200px;color:red;"">1</div>","null","","","","","","","","","","","","",""
"revaluation","262","1124515","0.0-4.0-7.0-0.0","spark_pilot_norest","8191","8","15","Female","","false","","","","","[725.4000005722046]","./assets/img/canyon/test/3.jpg","[""ArrowUp""]","first stage test","canyon","0","{""ArrowUp,ArrowLeft"":2,""ArrowUp,ArrowRight"":11,""ArrowDown,ArrowLeft"":8,""ArrowDown,ArrowRight"":27}","false","ArrowUp","false","revaluation","1","","","",""
"html-keyboard-response","263","1125024","0.0-4.0-7.0-1.0","spark_pilot_norest","8191","8","15","Female","","","","","","","null","<div style=""font-size:60px;"">+</div>","null","fixation","","","","","","","","","","","",""
"revaluation","264","1125967","0.0-4.0-7.0-0.1","spark_pilot_norest","8191","8","15","Female","","false","","","","","[939.4000005722046]","./assets/img/canyon/test/0.jpg","[""ArrowUp""]","first stage test","canyon","0","{""ArrowUp,ArrowLeft"":2,""ArrowUp,ArrowRight"":11,""ArrowDown,ArrowLeft"":8,""ArrowDown,ArrowRight"":27}","false","ArrowUp","false","revaluation","1","","","",""
"html-keyboard-response","265","1126473","0.0-4.0-7.0-1.1","spark_pilot_norest","8191","8","15","Female","","","","","","","null","<div style=""font-size:60px;"">+</div>","null","fixation","","","","","","","","","","","",""
"revaluation","266","1127973","0.0-4.0-7.0-0.2","spark_pilot_norest","8191","8","15","Female","","false","","","","","[1496.6999998092651]","./assets/img/canyon/test/1.jpg","[""ArrowUp""]","first stage test","canyon","0","{""ArrowUp,ArrowLeft"":2,""ArrowUp,ArrowRight"":11,""ArrowDown,ArrowLeft"":8,""ArrowDown,ArrowRight"":27}","false","ArrowUp","false","revaluation","1","","","",""
"html-keyboard-response","267","1128488","0.0-4.0-7.0-1.2","spark_pilot_norest","8191","8","15","Female","","","","","","","null","<div style=""font-size:60px;"">+</div>","null","fixation","","","","","","","","","","","",""
"revaluation","268","1129218","0.0-4.0-7.0-0.3","spark_pilot_norest","8191","8","15","Female","","false","","","","","[727.1000003814697]","./assets/img/canyon/test/2.jpg","[""ArrowUp""]","first stage test","canyon","0","{""ArrowUp,ArrowLeft"":2,""ArrowUp,ArrowRight"":11,""ArrowDown,ArrowLeft"":8,""ArrowDown,ArrowRight"":27}","false","ArrowUp","false","revaluation","1","","","",""
"html-keyboard-response","269","1129720","0.0-4.0-7.0-1.3","spark_pilot_norest","8191","8","15","Female","","","","","","","null","<div style=""font-size:60px;"">+</div>","null","fixation","","","","","","","","","","","",""
"learning-instructions","270","1143080","0.0-4.0-8.0-0.0","spark_pilot_norest","8191","8","15","Female","","","","","","","null","<p> Now you will see the animals again and can search their chests for treasure. </p>
            <p> This time, you will not see how much treasure you earned, but you will earn more bonus money for making better choices. </p>","","instructions","","","","","","","","","","","",""
"html-keyboard-response","271","1144087","0.0-4.0-9.0-0.0","spark_pilot_norest","8191","8","15","Female","","","","","","","null","<div style=""font-size:100px;color:red;"">Starting in...</div>","null","","","","","","","","","","","","",""
"html-keyboard-response","272","1145102","0.0-4.0-9.0-1.0","spark_pilot_norest","8191","8","15","Female","","","","","","","null","<div style=""font-size:200px;color:red;"">3</div>","null","","","","","","","","","","","","",""
"html-keyboard-response","273","1146118","0.0-4.0-9.0-2.0","spark_pilot_norest","8191","8","15","Female","","","","","","","null","<div style=""font-size:200px;color:red;"">2</div>","null","","","","","","","","","","","","",""
"html-keyboard-response","274","1147135","0.0-4.0-9.0-3.0","spark_pilot_norest","8191","8","15","Female","","","","","","","null","<div style=""font-size:200px;color:red;"">1</div>","null","","","","","","","","","","","","",""
"revaluation","275","1148084","0.0-4.0-10.0-0.0","spark_pilot_norest","8191","8","15","Female","","false","","","","","[946.3000001907349]","./assets/img/canyon/animals/lion.jpg","[""ArrowRight""]","second stage test","canyon","0","{""ArrowUp,ArrowLeft"":2,""ArrowUp,ArrowRight"":11,""ArrowDown,ArrowLeft"":8,""ArrowDown,ArrowRight"":27}","true","ArrowUp,ArrowRight","","revaluation","1","","","",""
"html-keyboard-response","276","1148586","0.0-4.0-10.0-1.0","spark_pilot_norest","8191","8","15","Female","","","","","","","null","<div style=""font-size:60px;"">+</div>","null","fixation","","","","","","","","","","","",""
"revaluation","277","1149350","0.0-4.0-10.0-0.1","spark_pilot_norest","8191","8","15","Female","","false","","","","","[760.3999996185303]","./assets/img/canyon/animals/lion.jpg","[""ArrowLeft""]","second stage test","canyon","0","{""ArrowUp,ArrowLeft"":2,""ArrowUp,ArrowRight"":11,""ArrowDown,ArrowLeft"":8,""ArrowDown,ArrowRight"":27}","false","ArrowUp,ArrowLeft","","revaluation","1","","","",""
"html-keyboard-response","278","1149852","0.0-4.0-10.0-1.1","spark_pilot_norest","8191","8","15","Female","","","","","","","null","<div style=""font-size:60px;"">+</div>","null","fixation","","","","","","","","","","","",""
"revaluation","279","1150386","0.0-4.0-10.0-0.2","spark_pilot_norest","8191","8","15","Female","","false","","","","","[529.1000003814697]","./assets/img/canyon/animals/lion.jpg","[""ArrowLeft""]","second stage test","canyon","0","{""ArrowUp,ArrowLeft"":2,""ArrowUp,ArrowRight"":11,""ArrowDown,ArrowLeft"":8,""ArrowDown,ArrowRight"":27}","false","ArrowUp,ArrowLeft","","revaluation","1","","","",""
"html-keyboard-response","280","1150888","0.0-4.0-10.0-1.2","spark_pilot_norest","8191","8","15","Female","","","","","","","null","<div style=""font-size:60px;"">+</div>","null","fixation","","","","","","","","","","","",""
"revaluation","281","1151453","0.0-4.0-10.0-0.3","spark_pilot_norest","8191","8","15","Female","","false","","","","","[561.9000005722046]","./assets/img/canyon/animals/lion.jpg","[""ArrowRight""]","second stage test","canyon","0","{""ArrowUp,ArrowLeft"":2,""ArrowUp,ArrowRight"":11,""ArrowDown,ArrowLeft"":8,""ArrowDown,ArrowRight"":27}","true","ArrowUp,ArrowRight","","revaluation","1","","","",""
"html-keyboard-response","282","1151968","0.0-4.0-10.0-1.3","spark_pilot_norest","8191","8","15","Female","","","","","","","null","<div style=""font-size:60px;"">+</div>","null","fixation","","","","","","","","","","","",""
"revaluation","283","1153140","0.0-4.0-10.0-0.4","spark_pilot_norest","8191","8","15","Female","","false","","","","","[1167.8999996185303]","./assets/img/canyon/animals/giraffe.jpg","[""ArrowRight""]","second stage test","canyon","0","{""ArrowUp,ArrowLeft"":2,""ArrowUp,ArrowRight"":11,""ArrowDown,ArrowLeft"":8,""ArrowDown,ArrowRight"":27}","true","ArrowDown,ArrowRight","","revaluation","1","","","",""
"html-keyboard-response","284","1153647","0.0-4.0-10.0-1.4","spark_pilot_norest","8191","8","15","Female","","","","","","","null","<div style=""font-size:60px;"">+</div>","null","fixation","","","","","","","","","","","",""
"revaluation","285","1154230","0.0-4.0-10.0-0.5","spark_pilot_norest","8191","8","15","Female","","false","","","","","[581.2999992370605]","./assets/img/canyon/animals/giraffe.jpg","[""ArrowRight""]","second stage test","canyon","0","{""ArrowUp,ArrowLeft"":2,""ArrowUp,ArrowRight"":11,""ArrowDown,ArrowLeft"":8,""ArrowDown,ArrowRight"":27}","true","ArrowDown,ArrowRight","","revaluation","1","","","",""
"html-keyboard-response","286","1154746","0.0-4.0-10.0-1.5","spark_pilot_norest","8191","8","15","Female","","","","","","","null","<div style=""font-size:60px;"">+</div>","null","fixation","","","","","","","","","","","",""
"revaluation","287","1155325","0.0-4.0-10.0-0.6","spark_pilot_norest","8191","8","15","Female","","false","","","","","[575.1000003814697]","./assets/img/canyon/animals/giraffe.jpg","[""ArrowLeft""]","second stage test","canyon","0","{""ArrowUp,ArrowLeft"":2,""ArrowUp,ArrowRight"":11,""ArrowDown,ArrowLeft"":8,""ArrowDown,ArrowRight"":27}","false","ArrowDown,ArrowLeft","","revaluation","1","","","",""
"html-keyboard-response","288","1155828","0.0-4.0-10.0-1.6","spark_pilot_norest","8191","8","15","Female","","","","","","","null","<div style=""font-size:60px;"">+</div>","null","fixation","","","","","","","","","","","",""
"revaluation","289","1156185","0.0-4.0-10.0-0.7","spark_pilot_norest","8191","8","15","Female","","false","","","","","[354.5]","./assets/img/canyon/animals/giraffe.jpg","[""ArrowLeft""]","second stage test","canyon","0","{""ArrowUp,ArrowLeft"":2,""ArrowUp,ArrowRight"":11,""ArrowDown,ArrowLeft"":8,""ArrowDown,ArrowRight"":27}","false","ArrowDown,ArrowLeft","","revaluation","1","","","",""
"html-keyboard-response","290","1156692","0.0-4.0-10.0-1.7","spark_pilot_norest","8191","8","15","Female","","","","","","","null","<div style=""font-size:60px;"">+</div>","null","fixation","","","","","","","","","","","",""
"learning-instructions","291","1172186","0.0-4.0-0.1-0.2","spark_pilot_norest","8191","8","15","Female","","","","","","","12777.199999809265","<p> This time you are searching for treasure in the <b>ocean</b>.</p>","","instructions","","","","","","","","","","","",""
"learning-instructions","292","1191859","0.0-4.0-0.1-0.3","spark_pilot_norest","8191","8","15","Female","","","","","","","2430.4000005722046","<p><b>New</b> animals with <b>new</b> treasure chests live here. You need to explore to discover where the animal with the best treasure chest is.</p>
                    <p> Like before, once you figure out which animal has the chest with the most treasure, you should try to get to that animal and select that chest! </p>","","instructions","","","","","","","","","","","",""
"learning-instructions","293","1208559","0.0-4.0-1.1-0.1","spark_pilot_norest","8191","8","15","Female","","","","","","","1969.8999996185303","<p> Remember, when you see a picture of the place, use the up and down keys to <b>find an animal</b>.</p>
            <p> When you encounter an animal, you should use the left and right keys to <b>select a treasure chest</b>.</p>
            <p> Don't forget to look out for the robber! </p>","","instructions","","","","","","","","","","","",""
"revaluation","294","1214583","0.0-4.0-2.1-0.50","spark_pilot_norest","8191","8","15","Female","","false","","","","","[777.5,676.8000001907349]","./assets/img/ocean/memory/32.jpg","[""ArrowUp"",""ArrowLeft""]","value training","ocean","23","{""ArrowUp,ArrowLeft"":23,""ArrowUp,ArrowRight"":10,""ArrowDown,ArrowLeft"":8,""ArrowDown,ArrowRight"":30}","false","ArrowUp,ArrowLeft","false","original","2","0","","",""
"html-keyboard-response","295","1215092","0.0-4.0-2.1-1.50","spark_pilot_norest","8191","8","15","Female","","","","","","","null","<div style=""font-size:60px;"">+</div>","null","fixation","","","","","","","","","1","","",""
"revaluation","296","1221112","0.0-4.0-2.1-0.51","spark_pilot_norest","8191","8","15","Female","","false","","","","","[489.5999994277954,428.5999994277954]","./assets/img/ocean/memory/39.jpg","[""ArrowDown"",""ArrowRight""]","value training","ocean","30","{""ArrowUp,ArrowLeft"":23,""ArrowUp,ArrowRight"":10,""ArrowDown,ArrowLeft"":8,""ArrowDown,ArrowRight"":30}","true","ArrowDown,ArrowRight","false","original","2","2","","",""
"html-keyboard-response","297","1221624","0.0-4.0-2.1-1.51","spark_pilot_norest","8191","8","15","Female","","","","","","","null","<div style=""font-size:60px;"">+</div>","null","fixation","","","","","","","","","3","","",""
"revaluation","298","1227658","0.0-4.0-2.1-0.52","spark_pilot_norest","8191","8","15","Female","","false","","","","","[483.79999923706055,515.1000003814697]","./assets/img/ocean/memory/1.jpg","[""ArrowDown"",""ArrowLeft""]","value training","ocean","8","{""ArrowUp,ArrowLeft"":23,""ArrowUp,ArrowRight"":10,""ArrowDown,ArrowLeft"":8,""ArrowDown,ArrowRight"":30}","false","ArrowDown,ArrowLeft","false","original","2","4","","",""
"html-keyboard-response","299","1228168","0.0-4.0-2.1-1.52","spark_pilot_norest","8191","8","15","Female","","","","","","","null","<div style=""font-size:60px;"">+</div>","null","fixation","","","","","","","","","5","","",""
"revaluation","300","1234185","0.0-4.0-2.1-0.53","spark_pilot_norest","8191","8","15","Female","","false","","","","","[502.8999996185303,384.8999996185303]","./assets/img/ocean/memory/35.jpg","[""ArrowUp"",""ArrowRight""]","value training","ocean","10","{""ArrowUp,ArrowLeft"":23,""ArrowUp,ArrowRight"":10,""ArrowDown,ArrowLeft"":8,""ArrowDown,ArrowRight"":30}","false","ArrowUp,ArrowRight","false","original","2","6","","",""
"html-keyboard-response","301","1234697","0.0-4.0-2.1-1.53","spark_pilot_norest","8191","8","15","Female","","","","","","","null","<div style=""font-size:60px;"">+</div>","null","fixation","","","","","","","","","7","","",""
"revaluation","302","1240721","0.0-4.0-2.1-0.54","spark_pilot_norest","8191","8","15","Female","","false","","","","","[302.8999996185303,377.0999994277954]","./assets/img/ocean/memory/1.jpg","[""ArrowDown"",""ArrowRight""]","value training","ocean","30","{""ArrowUp,ArrowLeft"":23,""ArrowUp,ArrowRight"":10,""ArrowDown,ArrowLeft"":8,""ArrowDown,ArrowRight"":30}","true","ArrowDown,ArrowRight","false","original","2","8","","",""
"html-keyboard-response","303","1241222","0.0-4.0-2.1-1.54","spark_pilot_norest","8191","8","15","Female","","","","","","","null","<div style=""font-size:60px;"">+</div>","null","fixation","","","","","","","","","9","","",""
"revaluation","304","1247227","0.0-4.0-2.1-0.55","spark_pilot_norest","8191","8","15","Female","","false","","","","","[814.1999998092651,793.3000001907349]","./assets/img/ocean/memory/38.jpg","[""ArrowDown"",""ArrowRight""]","value training","ocean","30","{""ArrowUp,ArrowLeft"":23,""ArrowUp,ArrowRight"":10,""ArrowDown,ArrowLeft"":8,""ArrowDown,ArrowRight"":30}","true","ArrowDown,ArrowRight","false","original","2","10","","",""
"html-keyboard-response","305","1247728","0.0-4.0-2.1-1.55","spark_pilot_norest","8191","8","15","Female","","","","","","","null","<div style=""font-size:60px;"">+</div>","null","fixation","","","","","","","","","11","","",""
"revaluation","306","1253735","0.0-4.0-2.1-0.56","spark_pilot_norest","8191","8","15","Female","","false","","","","","[1215,523.6000003814697]","./assets/img/ocean/memory/27.jpg","[""ArrowUp"",""ArrowRight""]","value training","ocean","10","{""ArrowUp,ArrowLeft"":23,""ArrowUp,ArrowRight"":10,""ArrowDown,ArrowLeft"":8,""ArrowDown,ArrowRight"":30}","false","ArrowUp,ArrowRight","false","original","2","12","","",""
"html-keyboard-response","307","1254237","0.0-4.0-2.1-1.56","spark_pilot_norest","8191","8","15","Female","","","","","","","null","<div style=""font-size:60px;"">+</div>","null","fixation","","","","","","","","","13","","",""
"revaluation","308","1258242","0.0-4.0-2.1-0.57","spark_pilot_norest","8191","8","15","Female","","false","","","","","[378.1000003814697]","./assets/img/ocean/catch/1.jpg","[""ArrowDown""]","value training","ocean","-10","{""ArrowUp,ArrowLeft"":23,""ArrowUp,ArrowRight"":10,""ArrowDown,ArrowLeft"":8,""ArrowDown,ArrowRight"":30}","false","ArrowDown","true","original","2","14","","",""
"html-keyboard-response","309","1258744","0.0-4.0-2.1-1.57","spark_pilot_norest","8191","8","15","Female","","","","","","","null","<div style=""font-size:60px;"">+</div>","null","fixation","","","","","","","","","15","","",""
"revaluation","310","1264751","0.0-4.0-2.1-0.58","spark_pilot_norest","8191","8","15","Female","","false","","","","","[975.3000001907349,1123.8999996185303]","./assets/img/ocean/memory/28.jpg","[""ArrowDown"",""ArrowRight""]","value training","ocean","30","{""ArrowUp,ArrowLeft"":23,""ArrowUp,ArrowRight"":10,""ArrowDown,ArrowLeft"":8,""ArrowDown,ArrowRight"":30}","true","ArrowDown,ArrowRight","false","original","2","16","","",""
"html-keyboard-response","311","1265253","0.0-4.0-2.1-1.58","spark_pilot_norest","8191","8","15","Female","","","","","","","null","<div style=""font-size:60px;"">+</div>","null","fixation","","","","","","","","","17","","",""
