"trial_type","trial_index","time_elapsed","internal_node_id","task_version","subject_id","assigned_condition","age","gender","success","timeout","failed_images","failed_audio","failed_video","browser_interaction","rt","stimulus","response","task_part","environment","score","rewardMap","correct","fullState","isCatch","condition","order","trial_num","key_press","ground_truth","bonus"
"pavlovia","0","1397","0.0-0.0","spark_pilot_norest","9759","6","15","Male","","","","","","","","","","","","","","","","","","","","","",""
"preload","1","29398","0.0-1.0","spark_pilot_norest","9759","6","15","Male","true","false","[]","[]","[]","[{""event"":""fullscreenenter"",""trial"":2,""time"":33365},{""event"":""blur"",""trial"":612,""time"":2103477},{""event"":""focus"",""trial"":616,""time"":2118538}]","","","","","","","","","","","","","","","",""
"fullscreen","2","34357","0.0-2.0","spark_pilot_norest","9759","6","15","Male","true","","","","","","","","","","","","","","","","","","","","",""
"audio-button-response","3","36699","0.0-3.0-0.0-0.0","spark_pilot_norest","9759","6","15","Male","","","","","","","2251","./assets/audio/audiotest/turtle.mp3","2","audio_test","","","","","","","","","","","",""
"learning-instructions","4","48812","0.0-3.0-1.0-0.0","spark_pilot_norest","9759","6","15","Male","","","","","","","5105.399999976158","<p> Welcome! Please remember to stay in fullscreen mode and don't click away from the experiment. </p>","","instructions","","","","","","","","","","","",""
"learning-instructions","5","66708","0.0-3.0-1.0-0.1","spark_pilot_norest","9759","6","15","Male","","","","","","","9490.700000047684","<p> Today you will be playing a game to earn treasure. </p>
            <p> At the end of the experiment, you will earn a bonus based on how much treasure you find. </p>
            <img src='./assets/img/instructions/treasure.jpg' class='instructions-image'>","","instructions","","","","","","","","","","","",""
"learning-instructions","6","75372","0.0-3.0-1.0-0.2","spark_pilot_norest","9759","6","15","Male","","","","","","","406.39999997615814","<p> Animals have hidden treasure in treasure chests. </p>
            <p> You need to first find an animal and then choose which of their treasure chests to search. </p>
            <img src='./assets/img/space/animals/cat.jpg' class='instructions-image'>","","instructions","","","","","","","","","","","",""
"learning-instructions","7","90235","0.0-3.0-1.0-0.3","spark_pilot_norest","9759","6","15","Male","","","","","","","1459.3999999761581","<p> In each round, you will search for treasure in a different place. In the real game, there will be two rounds. </p>
            <p> You will begin with a separate, practice round where you will search for treasure in outer space. </p>
            <img src='./assets/img/space/0.jpg' class='instructions-image'>","","instructions","","","","","","","","","","","",""
"learning-instructions","8","105740","0.0-3.0-1.0-0.4","spark_pilot_norest","9759","6","15","Male","","","","","","","3803.5","<p> On every turn, you will see a picture of the place that you are in, but the specific image may be different each time. </p>
            <p> For example, both of these images mean you are in outer space. </p>
            <img src='./assets/img/instructions/outerspace.jpg' class='instructions-image'>","","instructions","","","","","","","","","","","",""
"learning-instructions","9","114379","0.0-3.0-1.0-0.5","spark_pilot_norest","9759","6","15","Male","","","","","","","822.5","<p> You need to decide which direction to travel in. </p>
            <p> You can choose between going <b>up or down</b> by using the arrow keys. </p>
            <img src='./assets/img/instructions/updown.jpg' class='instructions-image'>","","instructions","","","","","","","","","","","",""
"learning-instructions","10","124524","0.0-3.0-1.0-0.6","spark_pilot_norest","9759","6","15","Male","","","","","","","1337.3999999761581","<p> You will have <b>2 seconds</b> to make your choice. </p>
            <p> If you do not make a choice within 2 seconds, you will not find an animal or earn treasure. </p>
            <img src='./assets/img/instructions/2seconds.jpg' class='instructions-image'>","","instructions","","","","","","","","","","","",""
"learning-instructions","11","132931","0.0-3.0-1.0-0.7","spark_pilot_norest","9759","6","15","Male","","","","","","","1245.2000000476837","<p> Let’s try practicing that now! </p>
            <p> When you see a picture of the place you are in, press the <b>up</b> key to travel up. </p>
            <img src='./assets/img/instructions/pressUp.jpg' class='instructions-image'>","","instructions","","","","","","","","","","","",""
"revaluation","12","137011","0.0-3.0-2.0-0.0","spark_pilot_norest","9759","6","15","Male","","false","","","","","[1102.7999999523163]","./assets/img/space/0.jpg","[""ArrowUp""]","first stage practice","space","0","null","null","ArrowUp","false","","","","","",""
"html-keyboard-response","13","137521","0.0-3.0-2.0-1.0","spark_pilot_norest","9759","6","15","Male","","","","","","","null","<div style=""font-size:60px;"">+</div>","null","fixation","","","","","","","","","","","",""
"revaluation","14","141530","0.0-3.0-2.0-0.1","spark_pilot_norest","9759","6","15","Male","","false","","","","","[523.8999999761581]","./assets/img/space/1.jpg","[""ArrowUp""]","first stage practice","space","0","null","null","ArrowUp","false","","","","","",""
"html-keyboard-response","15","142038","0.0-3.0-2.0-1.1","spark_pilot_norest","9759","6","15","Male","","","","","","","null","<div style=""font-size:60px;"">+</div>","null","fixation","","","","","","","","","","","",""
"revaluation","16","146054","0.0-3.0-2.0-0.2","spark_pilot_norest","9759","6","15","Male","","false","","","","","[784.5]","./assets/img/space/2.jpg","[""ArrowUp""]","first stage practice","space","0","null","null","ArrowUp","false","","","","","",""
"html-keyboard-response","17","146559","0.0-3.0-2.0-1.2","spark_pilot_norest","9759","6","15","Male","","","","","","","null","<div style=""font-size:60px;"">+</div>","null","fixation","","","","","","","","","","","",""
"learning-instructions","18","152307","0.0-3.0-3.0-0.0","spark_pilot_norest","9759","6","15","Male","","","","","","","881.2999999523163","<p> Great job! Now try pressing the <b>down</b> key to travel down. </p>
            <img src='./assets/img/instructions/pressDown.jpg' class='instructions-image'>","","instructions","","","","","","","","","","","",""
"revaluation","19","156322","0.0-3.0-4.0-0.0","spark_pilot_norest","9759","6","15","Male","","false","","","","","[551.5]","./assets/img/space/3.jpg","[""ArrowDown""]","first stage practice","space","0","null","null","ArrowDown","false","","","","","",""
"html-keyboard-response","20","156823","0.0-3.0-4.0-1.0","spark_pilot_norest","9759","6","15","Male","","","","","","","null","<div style=""font-size:60px;"">+</div>","null","fixation","","","","","","","","","","","",""
"revaluation","21","160829","0.0-3.0-4.0-0.1","spark_pilot_norest","9759","6","15","Male","","false","","","","","[369.60000002384186]","./assets/img/space/4.jpg","[""ArrowDown""]","first stage practice","space","0","null","null","ArrowDown","false","","","","","",""
"html-keyboard-response","22","161331","0.0-3.0-4.0-1.1","spark_pilot_norest","9759","6","15","Male","","","","","","","null","<div style=""font-size:60px;"">+</div>","null","fixation","","","","","","","","","","","",""
"revaluation","23","165336","0.0-3.0-4.0-0.2","spark_pilot_norest","9759","6","15","Male","","false","","","","","[150]","./assets/img/space/5.jpg","[""ArrowDown""]","first stage practice","space","0","null","null","ArrowDown","false","","","","","",""
"html-keyboard-response","24","165838","0.0-3.0-4.0-1.2","spark_pilot_norest","9759","6","15","Male","","","","","","","null","<div style=""font-size:60px;"">+</div>","null","fixation","","","","","","","","","","","",""
"learning-instructions","25","178131","0.0-3.0-5.0-0.0","spark_pilot_norest","9759","6","15","Male","","","","","","","2026","<p> The animals don’t move, so the animal in the upper part of a place will stay in the upper part of a place, and the animal in the lower part of a place will stay in the lower part of a place. </p>","","instructions","","","","","","","","","","","",""
"learning-instructions","26","197435","0.0-3.0-5.0-0.1","spark_pilot_norest","9759","6","15","Male","","","","","","","8779.5","<p> Each animal has two treasure chests for you to choose from. </p>
            <p> The amount of treasure in each chest can range from <b> 0 to 40 pieces.</b></p>","","instructions","","","","","","","","","","","",""
"learning-instructions","27","211083","0.0-3.0-5.0-0.2","spark_pilot_norest","9759","6","15","Male","","","","","","","2176.9000000953674","<p> You should decide which chest to search for treasure by using the <b>left</b> and <b>right</b> arrow keys. </p>
            <p><b> Pay attention to which animal is on the screen, as the animals have different treasure chests. </b></p>
            <img src='./assets/img/instructions/leftright.jpg' class='instructions-image'>","","instructions","","","","","","","","","","","",""
"learning-instructions","28","218083","0.0-3.0-5.0-0.3","spark_pilot_norest","9759","6","15","Male","","","","","","","627.0999999046326","<p> Let’s try practicing that now. </p>
            <p> When you see an animal, choose which chest to search for treasure. </p>
            <img src='./assets/img/instructions/chooseChest.jpg' class='instructions-image'>","","instructions","","","","","","","","","","","",""
"revaluation","29","222091","0.0-3.0-6.0-0.0","spark_pilot_norest","9759","6","15","Male","","false","","","","","[895.7999999523163]","./assets/img/space/animals/rabbit.jpg","[""ArrowRight""]","second stage practice","space","23","{""ArrowUp,ArrowLeft"":3,""ArrowUp,ArrowRight"":36,""ArrowDown,ArrowLeft"":15,""ArrowDown,ArrowRight"":23}","true","ArrowDown,ArrowRight","","","","","","",""
"html-keyboard-response","30","222600","0.0-3.0-6.0-1.0","spark_pilot_norest","9759","6","15","Male","","","","","","","null","<div style=""font-size:60px;"">+</div>","null","fixation","","","","","","","","","","","",""
"revaluation","31","226611","0.0-3.0-6.0-0.1","spark_pilot_norest","9759","6","15","Male","","false","","","","","[321.10000002384186]","./assets/img/space/animals/cat.jpg","[""ArrowLeft""]","second stage practice","space","3","{""ArrowUp,ArrowLeft"":3,""ArrowUp,ArrowRight"":36,""ArrowDown,ArrowLeft"":15,""ArrowDown,ArrowRight"":23}","false","ArrowUp,ArrowLeft","","","","","","",""
"html-keyboard-response","32","227122","0.0-3.0-6.0-1.1","spark_pilot_norest","9759","6","15","Male","","","","","","","null","<div style=""font-size:60px;"">+</div>","null","fixation","","","","","","","","","","","",""
"revaluation","33","231130","0.0-3.0-6.0-0.2","spark_pilot_norest","9759","6","15","Male","","false","","","","","[189.29999995231628]","./assets/img/space/animals/rabbit.jpg","[""ArrowRight""]","second stage practice","space","23","{""ArrowUp,ArrowLeft"":3,""ArrowUp,ArrowRight"":36,""ArrowDown,ArrowLeft"":15,""ArrowDown,ArrowRight"":23}","true","ArrowDown,ArrowRight","","","","","","",""
"html-keyboard-response","34","231632","0.0-3.0-6.0-1.2","spark_pilot_norest","9759","6","15","Male","","","","","","","null","<div style=""font-size:60px;"">+</div>","null","fixation","","","","","","","","","","","",""
"revaluation","35","235640","0.0-3.0-6.0-0.3","spark_pilot_norest","9759","6","15","Male","","false","","","","","[670.7999999523163]","./assets/img/space/animals/cat.jpg","[""ArrowLeft""]","second stage practice","space","3","{""ArrowUp,ArrowLeft"":3,""ArrowUp,ArrowRight"":36,""ArrowDown,ArrowLeft"":15,""ArrowDown,ArrowRight"":23}","false","ArrowUp,ArrowLeft","","","","","","",""
"html-keyboard-response","36","236149","0.0-3.0-6.0-1.3","spark_pilot_norest","9759","6","15","Male","","","","","","","null","<div style=""font-size:60px;"">+</div>","null","fixation","","","","","","","","","","","",""
"learning-instructions","37","254739","0.0-3.0-7.0-0.0","spark_pilot_norest","9759","6","15","Male","","","","","","","1604.5","<p> Great job. Now let’s try putting it together. </p>
            <p> On each turn, you will first see a picture to remind you of the place you are in, and you need to choose whether to go up or down. </p>
            <p> Then you will see an animal and choose which of its chests to search for treasure. </p>","","instructions","","","","","","","","","","","",""
"learning-instructions","38","263347","0.0-3.0-7.0-0.1","spark_pilot_norest","9759","6","15","Male","","","","","","","341.59999990463257","<p> When you choose whether to go up or down, try to go to the animal with the chest with the most treasure. </p>
            <p> Try practicing that now! </p>","","instructions","","","","","","","","","","","",""
"revaluation","39","269352","0.0-3.0-8.0-0.0","spark_pilot_norest","9759","6","15","Male","","false","","","","","[935.4000000953674,142.69999992847443]","./assets/img/space/6.jpg","[""ArrowUp"",""ArrowRight""]","full practice","space","36","{""ArrowUp,ArrowLeft"":3,""ArrowUp,ArrowRight"":36,""ArrowDown,ArrowLeft"":15,""ArrowDown,ArrowRight"":23}","true","ArrowUp,ArrowRight","false","","","","","",""
"html-keyboard-response","40","269863","0.0-3.0-8.0-1.0","spark_pilot_norest","9759","6","15","Male","","","","","","","null","<div style=""font-size:60px;"">+</div>","null","fixation","","","","","","","","","","","",""
"revaluation","41","275891","0.0-3.0-8.0-0.1","spark_pilot_norest","9759","6","15","Male","","false","","","","","[0.09999990463256836,344.89999997615814]","./assets/img/space/7.jpg","[""ArrowUp"",""ArrowRight""]","full practice","space","36","{""ArrowUp,ArrowLeft"":3,""ArrowUp,ArrowRight"":36,""ArrowDown,ArrowLeft"":15,""ArrowDown,ArrowRight"":23}","true","ArrowUp,ArrowRight","false","","","","","",""
"html-keyboard-response","42","276403","0.0-3.0-8.0-1.1","spark_pilot_norest","9759","6","15","Male","","","","","","","null","<div style=""font-size:60px;"">+</div>","null","fixation","","","","","","","","","","","",""
"revaluation","43","282416","0.0-3.0-8.0-0.2","spark_pilot_norest","9759","6","15","Male","","false","","","","","[108.60000002384186,128]","./assets/img/space/8.jpg","[""ArrowDown"",""ArrowRight""]","full practice","space","23","{""ArrowUp,ArrowLeft"":3,""ArrowUp,ArrowRight"":36,""ArrowDown,ArrowLeft"":15,""ArrowDown,ArrowRight"":23}","false","ArrowDown,ArrowRight","false","","","","","",""
"html-keyboard-response","44","282924","0.0-3.0-8.0-1.2","spark_pilot_norest","9759","6","15","Male","","","","","","","null","<div style=""font-size:60px;"">+</div>","null","fixation","","","","","","","","","","","",""
"revaluation","45","288940","0.0-3.0-8.0-0.3","spark_pilot_norest","9759","6","15","Male","","false","","","","","[444.39999997615814,355.39999997615814]","./assets/img/space/9.jpg","[""ArrowUp"",""ArrowRight""]","full practice","space","36","{""ArrowUp,ArrowLeft"":3,""ArrowUp,ArrowRight"":36,""ArrowDown,ArrowLeft"":15,""ArrowDown,ArrowRight"":23}","true","ArrowUp,ArrowRight","false","","","","","",""
"html-keyboard-response","46","289446","0.0-3.0-8.0-1.3","spark_pilot_norest","9759","6","15","Male","","","","","","","null","<div style=""font-size:60px;"">+</div>","null","fixation","","","","","","","","","","","",""
"revaluation","47","295455","0.0-3.0-8.0-0.4","spark_pilot_norest","9759","6","15","Male","","false","","","","","[242.70000004768372,166.79999995231628]","./assets/img/space/10.jpg","[""ArrowUp"",""ArrowRight""]","full practice","space","36","{""ArrowUp,ArrowLeft"":3,""ArrowUp,ArrowRight"":36,""ArrowDown,ArrowLeft"":15,""ArrowDown,ArrowRight"":23}","true","ArrowUp,ArrowRight","false","","","","","",""
"html-keyboard-response","48","295957","0.0-3.0-8.0-1.4","spark_pilot_norest","9759","6","15","Male","","","","","","","null","<div style=""font-size:60px;"">+</div>","null","fixation","","","","","","","","","","","",""
"learning-instructions","49","307107","0.0-3.0-9.0-0.0","spark_pilot_norest","9759","6","15","Male","","","","","","","821","<p> One last thing: sometimes, you will see a robber. The robber can be anywhere in the picture. </p>
            <p> If you do not stop them, you will lose treasure. </p>
            <img src='./assets/img/instructions/robber.jpg' class='instructions-image'>","","instructions","","","","","","","","","","","",""
"learning-instructions","50","314547","0.0-3.0-9.0-0.1","spark_pilot_norest","9759","6","15","Male","","","","","","","271.89999997615814","<p> If you see the robber, you should <b>press the space bar</b> rather than using the arrow keys. </p>
            <p> Try practicing that now! </p>","","instructions","","","","","","","","","","","",""
"revaluation","51","318574","0.0-3.0-10.0-0.0","spark_pilot_norest","9759","6","15","Male","","false","","","","","[1150.8999999761581]","./assets/img/space/catch/0.jpg","[""spaceBar""]","catch practice","space","0","{""ArrowUp,ArrowLeft"":3,""ArrowUp,ArrowRight"":36,""ArrowDown,ArrowLeft"":15,""ArrowDown,ArrowRight"":23}","true","spaceBar","true","","","","","",""
"html-keyboard-response","52","319079","0.0-3.0-10.0-1.0","spark_pilot_norest","9759","6","15","Male","","","","","","","null","<div style=""font-size:60px;"">+</div>","null","fixation","","","","","","","","","","","",""
"revaluation","53","323087","0.0-3.0-10.0-0.1","spark_pilot_norest","9759","6","15","Male","","false","","","","","[459.2999999523163]","./assets/img/space/catch/1.jpg","[""spaceBar""]","catch practice","space","0","{""ArrowUp,ArrowLeft"":3,""ArrowUp,ArrowRight"":36,""ArrowDown,ArrowLeft"":15,""ArrowDown,ArrowRight"":23}","true","spaceBar","true","","","","","",""
"html-keyboard-response","54","323588","0.0-3.0-10.0-1.1","spark_pilot_norest","9759","6","15","Male","","","","","","","null","<div style=""font-size:60px;"">+</div>","null","fixation","","","","","","","","","","","",""
"revaluation","55","327594","0.0-3.0-10.0-0.2","spark_pilot_norest","9759","6","15","Male","","false","","","","","[660.0999999046326]","./assets/img/space/catch/2.jpg","[""spaceBar""]","catch practice","space","0","{""ArrowUp,ArrowLeft"":3,""ArrowUp,ArrowRight"":36,""ArrowDown,ArrowLeft"":15,""ArrowDown,ArrowRight"":23}","true","spaceBar","true","","","","","",""
"html-keyboard-response","56","328104","0.0-3.0-10.0-1.2","spark_pilot_norest","9759","6","15","Male","","","","","","","null","<div style=""font-size:60px;"">+</div>","null","fixation","","","","","","","","","","","",""
"learning-instructions","57","335371","0.0-3.0-11.0-0.0-0.0","spark_pilot_norest","9759","6","15","Male","","","","","","","1335.5","<p> Now, you will practice a shortened version of the game to get a sense of how it all fits together. </p>","","instructions","","","","","","","","","","","",""
"learning-instructions","58","340259","0.0-3.0-11.0-0.0-0.1","spark_pilot_norest","9759","6","15","Male","","","","","","","1703.6000000238419","<p>This time you are searching for treasure in outer space.</p>","","instructions","","","","","","","","","","","",""
"learning-instructions","59","355883","0.0-3.0-11.0-1.0-0.0","spark_pilot_norest","9759","6","15","Male","","","","","","","767.6000000238419","<p> Remember, when you see a picture of the place, use the up and down keys to <b>find an animal</b>.</p>
            <p> When you encounter an animal, you should use the left and right keys to <b>select a treasure chest</b>.</p>
            <p> Don't forget to look out for the robber! </p>","","instructions","","","","","","","","","","","",""
"revaluation","60","361906","0.0-3.0-11.0-2.0-0.0","spark_pilot_norest","9759","6","15","Male","","false","","","","","[1480.1000000238419,315.2000000476837]","./assets/img/space/11.jpg","[""ArrowUp"",""ArrowRight""]","practice block","space","36","{""ArrowUp,ArrowLeft"":3,""ArrowUp,ArrowRight"":36,""ArrowDown,ArrowLeft"":15,""ArrowDown,ArrowRight"":23}","true","ArrowUp,ArrowRight","false","","","","","",""
"html-keyboard-response","61","362415","0.0-3.0-11.0-2.0-1.0","spark_pilot_norest","9759","6","15","Male","","","","","","","null","<div style=""font-size:60px;"">+</div>","null","fixation","","","","","","","","","","","",""
"revaluation","62","368433","0.0-3.0-11.0-2.0-0.1","spark_pilot_norest","9759","6","15","Male","","false","","","","","[697.3999999761581,705]","./assets/img/space/12.jpg","[""ArrowUp"",""ArrowLeft""]","practice block","space","3","{""ArrowUp,ArrowLeft"":3,""ArrowUp,ArrowRight"":36,""ArrowDown,ArrowLeft"":15,""ArrowDown,ArrowRight"":23}","false","ArrowUp,ArrowLeft","false","","","","","",""
"html-keyboard-response","63","368934","0.0-3.0-11.0-2.0-1.1","spark_pilot_norest","9759","6","15","Male","","","","","","","null","<div style=""font-size:60px;"">+</div>","null","fixation","","","","","","","","","","","",""
"revaluation","64","374953","0.0-3.0-11.0-2.0-0.2","spark_pilot_norest","9759","6","15","Male","","false","","","","","[617.8999999761581,255.5]","./assets/img/space/13.jpg","[""ArrowUp"",""ArrowRight""]","practice block","space","36","{""ArrowUp,ArrowLeft"":3,""ArrowUp,ArrowRight"":36,""ArrowDown,ArrowLeft"":15,""ArrowDown,ArrowRight"":23}","true","ArrowUp,ArrowRight","false","","","","","",""
"html-keyboard-response","65","375461","0.0-3.0-11.0-2.0-1.2","spark_pilot_norest","9759","6","15","Male","","","","","","","null","<div style=""font-size:60px;"">+</div>","null","fixation","","","","","","","","","","","",""
"revaluation","66","381479","0.0-3.0-11.0-2.0-0.3","spark_pilot_norest","9759","6","15","Male","","false","","","","","[745.2000000476837,656.5]","./assets/img/space/14.jpg","[""ArrowDown"",""ArrowRight""]","practice block","space","23","{""ArrowUp,ArrowLeft"":3,""ArrowUp,ArrowRight"":36,""ArrowDown,ArrowLeft"":15,""ArrowDown,ArrowRight"":23}","false","ArrowDown,ArrowRight","false","","","","","",""
"html-keyboard-response","67","381984","0.0-3.0-11.0-2.0-1.3","spark_pilot_norest","9759","6","15","Male","","","","","","","null","<div style=""font-size:60px;"">+</div>","null","fixation","","","","","","","","","","","",""
"revaluation","68","387994","0.0-3.0-11.0-2.0-0.4","spark_pilot_norest","9759","6","15","Male","","false","","","","","[846.3000000715256,363]","./assets/img/space/11.jpg","[""ArrowUp"",""ArrowRight""]","practice block","space","36","{""ArrowUp,ArrowLeft"":3,""ArrowUp,ArrowRight"":36,""ArrowDown,ArrowLeft"":15,""ArrowDown,ArrowRight"":23}","true","ArrowUp,ArrowRight","false","","","","","",""
"html-keyboard-response","69","388497","0.0-3.0-11.0-2.0-1.4","spark_pilot_norest","9759","6","15","Male","","","","","","","null","<div style=""font-size:60px;"">+</div>","null","fixation","","","","","","","","","","","",""
"revaluation","70","394518","0.0-3.0-11.0-2.0-0.5","spark_pilot_norest","9759","6","15","Male","","false","","","","","[525.7000000476837,1172.2999999523163]","./assets/img/space/12.jpg","[""ArrowUp"",""ArrowRight""]","practice block","space","36","{""ArrowUp,ArrowLeft"":3,""ArrowUp,ArrowRight"":36,""ArrowDown,ArrowLeft"":15,""ArrowDown,ArrowRight"":23}","true","ArrowUp,ArrowRight","false","","","","","",""
"html-keyboard-response","71","395019","0.0-3.0-11.0-2.0-1.5","spark_pilot_norest","9759","6","15","Male","","","","","","","null","<div style=""font-size:60px;"">+</div>","null","fixation","","","","","","","","","","","",""
"revaluation","72","401025","0.0-3.0-11.0-2.0-0.6","spark_pilot_norest","9759","6","15","Male","","false","","","","","[549.5,324]","./assets/img/space/13.jpg","[""ArrowUp"",""ArrowRight""]","practice block","space","36","{""ArrowUp,ArrowLeft"":3,""ArrowUp,ArrowRight"":36,""ArrowDown,ArrowLeft"":15,""ArrowDown,ArrowRight"":23}","true","ArrowUp,ArrowRight","false","","","","","",""
"html-keyboard-response","73","401527","0.0-3.0-11.0-2.0-1.6","spark_pilot_norest","9759","6","15","Male","","","","","","","null","<div style=""font-size:60px;"">+</div>","null","fixation","","","","","","","","","","","",""
"revaluation","74","407535","0.0-3.0-11.0-2.0-0.7","spark_pilot_norest","9759","6","15","Male","","false","","","","","[944.2000000476837,1086]","./assets/img/space/14.jpg","[""ArrowUp"",""ArrowRight""]","practice block","space","36","{""ArrowUp,ArrowLeft"":3,""ArrowUp,ArrowRight"":36,""ArrowDown,ArrowLeft"":15,""ArrowDown,ArrowRight"":23}","true","ArrowUp,ArrowRight","false","","","","","",""
"html-keyboard-response","75","408036","0.0-3.0-11.0-2.0-1.7","spark_pilot_norest","9759","6","15","Male","","","","","","","null","<div style=""font-size:60px;"">+</div>","null","fixation","","","","","","","","","","","",""
"revaluation","76","412042","0.0-3.0-11.0-2.0-0.8","spark_pilot_norest","9759","6","15","Male","","false","","","","","[588]","./assets/img/space/catch/3.jpg","[""spaceBar""]","practice block","space","0","{""ArrowUp,ArrowLeft"":3,""ArrowUp,ArrowRight"":36,""ArrowDown,ArrowLeft"":15,""ArrowDown,ArrowRight"":23}","true","spaceBar","true","","","","","",""
"html-keyboard-response","77","412544","0.0-3.0-11.0-2.0-1.8","spark_pilot_norest","9759","6","15","Male","","","","","","","null","<div style=""font-size:60px;"">+</div>","null","fixation","","","","","","","","","","","",""
"learning-instructions","78","427019","0.0-3.0-11.0-3.0-0.0","spark_pilot_norest","9759","6","15","Male","","","","","","","1383.8000000715256","<p> Now, you will travel with a friend who will choose whether you go up or down first. </p>
            <p> On these turns, you will just see the animal that they found. You will still get to choose which chest to search for treasure.</p>","","instructions","","","","","","","","","","","",""
"revaluation","79","431032","0.0-3.0-11.0-4.0-0.0","spark_pilot_norest","9759","6","15","Male","","false","","","","","[1079.7000000476837]","./assets/img/space/animals/cat.jpg","[""ArrowRight""]","practice block","space","36","{""ArrowUp,ArrowLeft"":3,""ArrowUp,ArrowRight"":36,""ArrowDown,ArrowLeft"":15,""ArrowDown,ArrowRight"":23}","true","ArrowUp,ArrowRight","","","","","","",""
"html-keyboard-response","80","431543","0.0-3.0-11.0-4.0-1.0","spark_pilot_norest","9759","6","15","Male","","","","","","","null","<div style=""font-size:60px;"">+</div>","null","fixation","","","","","","","","","","","",""
"revaluation","81","435553","0.0-3.0-11.0-4.0-0.1","spark_pilot_norest","9759","6","15","Male","","false","","","","","[335.89999997615814]","./assets/img/space/animals/rabbit.jpg","[""ArrowRight""]","practice block","space","23","{""ArrowUp,ArrowLeft"":3,""ArrowUp,ArrowRight"":36,""ArrowDown,ArrowLeft"":15,""ArrowDown,ArrowRight"":23}","true","ArrowDown,ArrowRight","","","","","","",""
"html-keyboard-response","82","436068","0.0-3.0-11.0-4.0-1.1","spark_pilot_norest","9759","6","15","Male","","","","","","","null","<div style=""font-size:60px;"">+</div>","null","fixation","","","","","","","","","","","",""
"revaluation","83","440093","0.0-3.0-11.0-4.0-0.2","spark_pilot_norest","9759","6","15","Male","","false","","","","","[52.700000047683716]","./assets/img/space/animals/cat.jpg","[""ArrowRight""]","practice block","space","36","{""ArrowUp,ArrowLeft"":3,""ArrowUp,ArrowRight"":36,""ArrowDown,ArrowLeft"":15,""ArrowDown,ArrowRight"":23}","true","ArrowUp,ArrowRight","","","","","","",""
"html-keyboard-response","84","440594","0.0-3.0-11.0-4.0-1.2","spark_pilot_norest","9759","6","15","Male","","","","","","","null","<div style=""font-size:60px;"">+</div>","null","fixation","","","","","","","","","","","",""
"revaluation","85","444628","0.0-3.0-11.0-4.0-0.3","spark_pilot_norest","9759","6","15","Male","","false","","","","","[108.70000004768372]","./assets/img/space/animals/rabbit.jpg","[""ArrowRight""]","practice block","space","23","{""ArrowUp,ArrowLeft"":3,""ArrowUp,ArrowRight"":36,""ArrowDown,ArrowLeft"":15,""ArrowDown,ArrowRight"":23}","true","ArrowDown,ArrowRight","","","","","","",""
"html-keyboard-response","86","445131","0.0-3.0-11.0-4.0-1.3","spark_pilot_norest","9759","6","15","Male","","","","","","","null","<div style=""font-size:60px;"">+</div>","null","fixation","","","","","","","","","","","",""
"learning-instructions","87","453260","0.0-3.0-11.0-5.0-0.0","spark_pilot_norest","9759","6","15","Male","","","","","","","null","<p> You have almost finished this part of the game! </p>
            <p> We are going to ask you to make a few more choices. </p>","","instructions","","","","","","","","","","","",""
"learning-instructions","88","469326","0.0-3.0-11.0-5.0-0.1","spark_pilot_norest","9759","6","15","Male","","","","","","","null","<p> First, you need to decide whether to go up or down. When you see each picture, use the arrow keys to make your choice. </p>
            <p><b>You will not see which animal you found, but try to get to the one that will give you the most treasure.</b></p>","","instructions","","","","","","","","","","","",""
"html-keyboard-response","89","470328","0.0-3.0-11.0-6.0-0.0","spark_pilot_norest","9759","6","15","Male","","","","","","","null","<div style=""font-size:100px;color:red;"">Starting in...</div>","null","","","","","","","","","","","","",""
"html-keyboard-response","90","471329","0.0-3.0-11.0-6.0-1.0","spark_pilot_norest","9759","6","15","Male","","","","","","","null","<div style=""font-size:200px;color:red;"">3</div>","null","","","","","","","","","","","","",""
"html-keyboard-response","91","472331","0.0-3.0-11.0-6.0-2.0","spark_pilot_norest","9759","6","15","Male","","","","","","","null","<div style=""font-size:200px;color:red;"">2</div>","null","","","","","","","","","","","","",""
"html-keyboard-response","92","473332","0.0-3.0-11.0-6.0-3.0","spark_pilot_norest","9759","6","15","Male","","","","","","","null","<div style=""font-size:200px;color:red;"">1</div>","null","","","","","","","","","","","","",""
"revaluation","93","473835","0.0-3.0-11.0-7.0","spark_pilot_norest","9759","6","15","Male","","false","","","","","[500.89999997615814]","./assets/img/space/15.jpg","[""ArrowUp""]","practice block","space","0","{""ArrowUp,ArrowLeft"":3,""ArrowUp,ArrowRight"":36,""ArrowDown,ArrowLeft"":15,""ArrowDown,ArrowRight"":23}","true","ArrowUp","false","","","","","",""
"html-keyboard-response","94","474350","0.0-3.0-11.0-8.0","spark_pilot_norest","9759","6","15","Male","","","","","","","null","<div style=""font-size:60px;"">+</div>","null","fixation","","","","","","","","","","","",""
"learning-instructions","95","487775","0.0-3.0-11.0-9.0-0.0","spark_pilot_norest","9759","6","15","Male","","","","","","","null","<p> Now you will see the animals again and can search their chests for treasure. </p>
            <p> This time, you will not see how much treasure you earned, but you will earn more bonus money for making better choices. </p>","","instructions","","","","","","","","","","","",""
"html-keyboard-response","96","488776","0.0-3.0-11.0-10.0-0.0","spark_pilot_norest","9759","6","15","Male","","","","","","","null","<div style=""font-size:100px;color:red;"">Starting in...</div>","null","","","","","","","","","","","","",""
"html-keyboard-response","97","489777","0.0-3.0-11.0-10.0-1.0","spark_pilot_norest","9759","6","15","Male","","","","","","","null","<div style=""font-size:200px;color:red;"">3</div>","null","","","","","","","","","","","","",""
"html-keyboard-response","98","490779","0.0-3.0-11.0-10.0-2.0","spark_pilot_norest","9759","6","15","Male","","","","","","","null","<div style=""font-size:200px;color:red;"">2</div>","null","","","","","","","","","","","","",""
"html-keyboard-response","99","491781","0.0-3.0-11.0-10.0-3.0","spark_pilot_norest","9759","6","15","Male","","","","","","","null","<div style=""font-size:200px;color:red;"">1</div>","null","","","","","","","","","","","","",""
"revaluation","100","492290","0.0-3.0-11.0-11.0-0.0","spark_pilot_norest","9759","6","15","Male","","false","","","","","[503.90000009536743]","./assets/img/space/animals/cat.jpg","[""ArrowRight""]","practice block","space","0","{""ArrowUp,ArrowLeft"":3,""ArrowUp,ArrowRight"":36,""ArrowDown,ArrowLeft"":15,""ArrowDown,ArrowRight"":23}","true","ArrowUp,ArrowRight","","","","","","",""
"html-keyboard-response","101","492805","0.0-3.0-11.0-11.0-1.0","spark_pilot_norest","9759","6","15","Male","","","","","","","null","<div style=""font-size:60px;"">+</div>","null","fixation","","","","","","","","","","","",""
"revaluation","102","493180","0.0-3.0-11.0-11.0-0.1","spark_pilot_norest","9759","6","15","Male","","false","","","","","[370.8000000715256]","./assets/img/space/animals/rabbit.jpg","[""ArrowRight""]","practice block","space","0","{""ArrowUp,ArrowLeft"":3,""ArrowUp,ArrowRight"":36,""ArrowDown,ArrowLeft"":15,""ArrowDown,ArrowRight"":23}","true","ArrowDown,ArrowRight","","","","","","",""
"html-keyboard-response","103","493688","0.0-3.0-11.0-11.0-1.1","spark_pilot_norest","9759","6","15","Male","","","","","","","null","<div style=""font-size:60px;"">+</div>","null","fixation","","","","","","","","","","","",""
"learning-instructions","104","500451","0.0-3.0-12.0-0.0","spark_pilot_norest","9759","6","15","Male","","","","","","","2145.399999976158","<p> Before you start, we're going to ask you a few questions about how the game works. </p>","","instructions","","","","","","","","","","","",""
"comp-q","105","508291","0.0-3.0-13.0-0.0-0.0","spark_pilot_norest","9759","6","15","Male","","","","","","","2258.2999999523163","<p> <b> True or False? </b> </p>
            <p> There can be 50 pieces of treasure in a given animal's chest. </p>","1","comp_question","","","","true","","","","","","","",""
"comp-q","106","516787","0.0-3.0-13.0-0.0-1.0","spark_pilot_norest","9759","6","15","Male","","","","","","","1852.3000000715256","<p> <b> That's right! </b> The amount of treasure in each chest can range from 0 to 40 pieces. </p>","0","comp_answer","","","","","","","","","","","",""
"comp-q","107","524715","0.0-3.0-13.0-0.1-0.1","spark_pilot_norest","9759","6","15","Male","","","","","","","820.6000000238419","<p> <b> True or False? </b> </p><p> In this game, all animals have the same amount of treasure in their left and right chests. </p>","1","comp_question","","","","true","","","","","","","",""
"comp-q","108","532826","0.0-3.0-13.0-0.1-1.1","spark_pilot_norest","9759","6","15","Male","","","","","","","2891.5","<p> <b> That's right! </b> Animals have different amounts of treasure in their treasure chests. </p>","0","comp_answer","","","","","","","","","","","",""
"comp-q","109","540338","0.0-3.0-13.0-0.2-0.2","spark_pilot_norest","9759","6","15","Male","","","","","","","1664.3999999761581","<p> <b> True or False? </b> </p><p> The same animal will always be there if you go up in the same place. </p>","1","comp_question","","","","false","","","","","","","",""
"comp-q","110","548403","0.0-3.0-13.0-0.2-1.2","spark_pilot_norest","9759","6","15","Male","","","","","","","1758.2999999523163","<p> <b>Incorrect.</b> One animal lives in the upper part and one lives in the lower part of every place. </p>","0","comp_answer","","","","","","","","","","","",""
"comp-q","111","554915","0.0-3.0-13.0-0.3-0.3","spark_pilot_norest","9759","6","15","Male","","","","","","","699.2000000476837","<p> <b> True or False? </b> </p><p> The same animal will always be there if you go up in the same place. </p>","0","comp_question","","","","true","","","","","","","",""
"comp-q","112","563379","0.0-3.0-13.0-0.3-1.3","spark_pilot_norest","9759","6","15","Male","","","","","","","2013.8999999761581","<p> <b> That's right! </b> One animal lives in the upper part and one lives in the lower part of every place. </p>","0","comp_answer","","","","","","","","","","","",""
"comp-q","113","569411","0.0-3.0-13.0-0.4-0.4","spark_pilot_norest","9759","6","15","Male","","","","","","","516.0999999046326","<p> <b> True or False? </b> </p><p> If you see a different picture, it means you are in a new place. </p>","0","comp_question","","","","false","","","","","","","",""
"comp-q","114","599611","0.0-3.0-13.0-0.4-1.4","spark_pilot_norest","9759","6","15","Male","","","","","","","19085.800000071526","<p> <b>Incorrect.</b> Lots of different images may show the same place. For example,  you may see three different images that all remind you that you are in outer space. </p>","0","comp_answer","","","","","","","","","","","",""
"comp-q","115","605667","0.0-3.0-13.0-0.5-0.5","spark_pilot_norest","9759","6","15","Male","","","","","","","551.7999999523163","<p> <b> True or False? </b> </p><p> If you see a different picture, it means you are in a new place. </p>","1","comp_question","","","","true","","","","","","","",""
"comp-q","116","619602","0.0-3.0-13.0-0.5-1.5","spark_pilot_norest","9759","6","15","Male","","","","","","","2668.3000000715256","<p> <b> That's right! </b> Lots of different images may show the same place. For example,  you may see three different images that all remind you that you are in outer space. </p>","0","comp_answer","","","","","","","","","","","",""
"learning-instructions","117","631810","0.0-3.0-14.0-0.0","spark_pilot_norest","9759","6","15","Male","","","","","","","2285.7000000476837","<p> Good job. Remember to do your best because the amount of treasure you earn will be converted into bonus money. </p>
            <p> It’s time to start the real game! </p>","","instructions","","","","","","","","","","","",""
"learning-instructions","118","636946","0.0-4.0-0.0-0.0","spark_pilot_norest","9759","6","15","Male","","","","","","","2372","<p> This time you are searching for treasure in the <b>canyon</b>.</p>","","instructions","","","","","","","","","","","",""
"learning-instructions","119","655491","0.0-4.0-0.0-0.1","spark_pilot_norest","9759","6","15","Male","","","","","","","1035.6000000238419","<p><b>New</b> animals with <b>new</b> treasure chests live here. You need to explore to discover where the animal with the best treasure chest is.</p>
                    <p> Like before, once you figure out which animal has the chest with the most treasure, you should try to get to that animal and select that chest! </p>","","instructions","","","","","","","","","","","",""
"learning-instructions","120","670738","0.0-4.0-1.0-0.0","spark_pilot_norest","9759","6","15","Male","","","","","","","523.2000000476837","<p> Remember, when you see a picture of the place, use the up and down keys to <b>find an animal</b>.</p>
            <p> When you encounter an animal, you should use the left and right keys to <b>select a treasure chest</b>.</p>
            <p> Don't forget to look out for the robber! </p>","","instructions","","","","","","","","","","","",""
"revaluation","121","676762","0.0-4.0-2.0-0.0","spark_pilot_norest","9759","6","15","Male","","false","","","","","[1175.1000000238419,247.79999995231628]","./assets/img/canyon/memory/28.jpg","[""ArrowUp"",""ArrowRight""]","value training","canyon","10","{""ArrowUp,ArrowLeft"":23,""ArrowUp,ArrowRight"":10,""ArrowDown,ArrowLeft"":8,""ArrowDown,ArrowRight"":30}","false","ArrowUp,ArrowRight","false","revaluation","1","0","","",""
"html-keyboard-response","122","677277","0.0-4.0-2.0-1.0","spark_pilot_norest","9759","6","15","Male","","","","","","","null","<div style=""font-size:60px;"">+</div>","null","fixation","","","","","","","","","1","","",""
"revaluation","123","683292","0.0-4.0-2.0-0.1","spark_pilot_norest","9759","6","15","Male","","false","","","","","[848.8000000715256,38.10000002384186]","./assets/img/canyon/memory/31.jpg","[""ArrowDown"",""ArrowLeft""]","value training","canyon","8","{""ArrowUp,ArrowLeft"":23,""ArrowUp,ArrowRight"":10,""ArrowDown,ArrowLeft"":8,""ArrowDown,ArrowRight"":30}","false","ArrowDown,ArrowLeft","false","revaluation","1","2","","",""
"html-keyboard-response","124","683805","0.0-4.0-2.0-1.1","spark_pilot_norest","9759","6","15","Male","","","","","","","null","<div style=""font-size:60px;"">+</div>","null","fixation","","","","","","","","","3","","",""
"revaluation","125","687822","0.0-4.0-2.0-0.2","spark_pilot_norest","9759","6","15","Male","","false","","","","","[737.1000000238419]","./assets/img/canyon/catch/0.jpg","[""spaceBar""]","value training","canyon","0","{""ArrowUp,ArrowLeft"":23,""ArrowUp,ArrowRight"":10,""ArrowDown,ArrowLeft"":8,""ArrowDown,ArrowRight"":30}","true","spaceBar","true","revaluation","1","4","","",""
"html-keyboard-response","126","688336","0.0-4.0-2.0-1.2","spark_pilot_norest","9759","6","15","Male","","","","","","","null","<div style=""font-size:60px;"">+</div>","null","fixation","","","","","","","","","5","","",""
"revaluation","127","694343","0.0-4.0-2.0-0.3","spark_pilot_norest","9759","6","15","Male","","false","","","","","[408,28.5]","./assets/img/canyon/memory/32.jpg","[""ArrowUp"",""ArrowRight""]","value training","canyon","10","{""ArrowUp,ArrowLeft"":23,""ArrowUp,ArrowRight"":10,""ArrowDown,ArrowLeft"":8,""ArrowDown,ArrowRight"":30}","false","ArrowUp,ArrowRight","false","revaluation","1","6","","",""
"html-keyboard-response","128","694853","0.0-4.0-2.0-1.3","spark_pilot_norest","9759","6","15","Male","","","","","","","null","<div style=""font-size:60px;"">+</div>","null","fixation","","","","","","","","","7","","",""
"revaluation","129","700862","0.0-4.0-2.0-0.4","spark_pilot_norest","9759","6","15","Male","","false","","","","","[567.7000000476837,78.20000004768372]","./assets/img/canyon/memory/18.jpg","[""ArrowUp"",""ArrowLeft""]","value training","canyon","23","{""ArrowUp,ArrowLeft"":23,""ArrowUp,ArrowRight"":10,""ArrowDown,ArrowLeft"":8,""ArrowDown,ArrowRight"":30}","false","ArrowUp,ArrowLeft","false","revaluation","1","8","","",""
"html-keyboard-response","130","701363","0.0-4.0-2.0-1.4","spark_pilot_norest","9759","6","15","Male","","","","","","","null","<div style=""font-size:60px;"">+</div>","null","fixation","","","","","","","","","9","","",""
"revaluation","131","707370","0.0-4.0-2.0-0.5","spark_pilot_norest","9759","6","15","Male","","false","","","","","[513.7999999523163,304.1999999284744]","./assets/img/canyon/memory/30.jpg","[""ArrowUp"",""ArrowRight""]","value training","canyon","10","{""ArrowUp,ArrowLeft"":23,""ArrowUp,ArrowRight"":10,""ArrowDown,ArrowLeft"":8,""ArrowDown,ArrowRight"":30}","false","ArrowUp,ArrowRight","false","revaluation","1","10","","",""
"html-keyboard-response","132","707871","0.0-4.0-2.0-1.5","spark_pilot_norest","9759","6","15","Male","","","","","","","null","<div style=""font-size:60px;"">+</div>","null","fixation","","","","","","","","","11","","",""
"revaluation","133","713879","0.0-4.0-2.0-0.6","spark_pilot_norest","9759","6","15","Male","","false","","","","","[479.89999997615814,206.70000004768372]","./assets/img/canyon/memory/17.jpg","[""ArrowUp"",""ArrowLeft""]","value training","canyon","23","{""ArrowUp,ArrowLeft"":23,""ArrowUp,ArrowRight"":10,""ArrowDown,ArrowLeft"":8,""ArrowDown,ArrowRight"":30}","false","ArrowUp,ArrowLeft","false","revaluation","1","12","","",""
"html-keyboard-response","134","714380","0.0-4.0-2.0-1.6","spark_pilot_norest","9759","6","15","Male","","","","","","","null","<div style=""font-size:60px;"">+</div>","null","fixation","","","","","","","","","13","","",""
"revaluation","135","720387","0.0-4.0-2.0-0.7","spark_pilot_norest","9759","6","15","Male","","false","","","","","[915.6999999284744,682]","./assets/img/canyon/memory/23.jpg","[""ArrowDown"",""ArrowLeft""]","value training","canyon","8","{""ArrowUp,ArrowLeft"":23,""ArrowUp,ArrowRight"":10,""ArrowDown,ArrowLeft"":8,""ArrowDown,ArrowRight"":30}","false","ArrowDown,ArrowLeft","false","revaluation","1","14","","",""
"html-keyboard-response","136","720888","0.0-4.0-2.0-1.7","spark_pilot_norest","9759","6","15","Male","","","","","","","null","<div style=""font-size:60px;"">+</div>","null","fixation","","","","","","","","","15","","",""
"revaluation","137","726894","0.0-4.0-2.0-0.8","spark_pilot_norest","9759","6","15","Male","","false","","","","","[272.7999999523163,270.40000009536743]","./assets/img/canyon/memory/34.jpg","[""ArrowUp"",""ArrowRight""]","value training","canyon","10","{""ArrowUp,ArrowLeft"":23,""ArrowUp,ArrowRight"":10,""ArrowDown,ArrowLeft"":8,""ArrowDown,ArrowRight"":30}","false","ArrowUp,ArrowRight","false","revaluation","1","16","","",""
"html-keyboard-response","138","727395","0.0-4.0-2.0-1.8","spark_pilot_norest","9759","6","15","Male","","","","","","","null","<div style=""font-size:60px;"">+</div>","null","fixation","","","","","","","","","17","","",""
"revaluation","139","733403","0.0-4.0-2.0-0.9","spark_pilot_norest","9759","6","15","Male","","false","","","","","[457.7000000476837,464]","./assets/img/canyon/memory/17.jpg","[""ArrowUp"",""ArrowRight""]","value training","canyon","10","{""ArrowUp,ArrowLeft"":23,""ArrowUp,ArrowRight"":10,""ArrowDown,ArrowLeft"":8,""ArrowDown,ArrowRight"":30}","false","ArrowUp,ArrowRight","false","revaluation","1","18","","",""
"html-keyboard-response","140","733905","0.0-4.0-2.0-1.9","spark_pilot_norest","9759","6","15","Male","","","","","","","null","<div style=""font-size:60px;"">+</div>","null","fixation","","","","","","","","","19","","",""
"revaluation","141","739911","0.0-4.0-2.0-0.10","spark_pilot_norest","9759","6","15","Male","","false","","","","","[406.5,342.10000002384186]","./assets/img/canyon/memory/7.jpg","[""ArrowUp"",""ArrowRight""]","value training","canyon","10","{""ArrowUp,ArrowLeft"":23,""ArrowUp,ArrowRight"":10,""ArrowDown,ArrowLeft"":8,""ArrowDown,ArrowRight"":30}","false","ArrowUp,ArrowRight","false","revaluation","1","20","","",""
"html-keyboard-response","142","740424","0.0-4.0-2.0-1.10","spark_pilot_norest","9759","6","15","Male","","","","","","","null","<div style=""font-size:60px;"">+</div>","null","fixation","","","","","","","","","21","","",""
"revaluation","143","746432","0.0-4.0-2.0-0.11","spark_pilot_norest","9759","6","15","Male","","false","","","","","[678.2999999523163,109.5]","./assets/img/canyon/memory/20.jpg","[""ArrowDown"",""ArrowRight""]","value training","canyon","30","{""ArrowUp,ArrowLeft"":23,""ArrowUp,ArrowRight"":10,""ArrowDown,ArrowLeft"":8,""ArrowDown,ArrowRight"":30}","true","ArrowDown,ArrowRight","false","revaluation","1","22","","",""
"html-keyboard-response","144","746935","0.0-4.0-2.0-1.11","spark_pilot_norest","9759","6","15","Male","","","","","","","null","<div style=""font-size:60px;"">+</div>","null","fixation","","","","","","","","","23","","",""
"revaluation","145","752944","0.0-4.0-2.0-0.12","spark_pilot_norest","9759","6","15","Male","","false","","","","","[582.8000000715256,30.100000023841858]","./assets/img/canyon/memory/27.jpg","[""ArrowDown"",""ArrowRight""]","value training","canyon","30","{""ArrowUp,ArrowLeft"":23,""ArrowUp,ArrowRight"":10,""ArrowDown,ArrowLeft"":8,""ArrowDown,ArrowRight"":30}","true","ArrowDown,ArrowRight","false","revaluation","1","24","","",""
"html-keyboard-response","146","753446","0.0-4.0-2.0-1.12","spark_pilot_norest","9759","6","15","Male","","","","","","","null","<div style=""font-size:60px;"">+</div>","null","fixation","","","","","","","","","25","","",""
"revaluation","147","759455","0.0-4.0-2.0-0.13","spark_pilot_norest","9759","6","15","Male","","false","","","","","[991.8000000715256,182.69999992847443]","./assets/img/canyon/memory/34.jpg","[""ArrowDown"",""ArrowRight""]","value training","canyon","30","{""ArrowUp,ArrowLeft"":23,""ArrowUp,ArrowRight"":10,""ArrowDown,ArrowLeft"":8,""ArrowDown,ArrowRight"":30}","true","ArrowDown,ArrowRight","false","revaluation","1","26","","",""
"html-keyboard-response","148","759956","0.0-4.0-2.0-1.13","spark_pilot_norest","9759","6","15","Male","","","","","","","null","<div style=""font-size:60px;"">+</div>","null","fixation","","","","","","","","","27","","",""
"revaluation","149","765966","0.0-4.0-2.0-0.14","spark_pilot_norest","9759","6","15","Male","","false","","","","","[345.60000002384186,256.39999997615814]","./assets/img/canyon/memory/4.jpg","[""ArrowDown"",""ArrowRight""]","value training","canyon","30","{""ArrowUp,ArrowLeft"":23,""ArrowUp,ArrowRight"":10,""ArrowDown,ArrowLeft"":8,""ArrowDown,ArrowRight"":30}","true","ArrowDown,ArrowRight","false","revaluation","1","28","","",""
"html-keyboard-response","150","766469","0.0-4.0-2.0-1.14","spark_pilot_norest","9759","6","15","Male","","","","","","","null","<div style=""font-size:60px;"">+</div>","null","fixation","","","","","","","","","29","","",""
"revaluation","151","770475","0.0-4.0-2.0-0.15","spark_pilot_norest","9759","6","15","Male","","false","","","","","[482.2000000476837]","./assets/img/canyon/catch/7.jpg","[""spaceBar""]","value training","canyon","0","{""ArrowUp,ArrowLeft"":23,""ArrowUp,ArrowRight"":10,""ArrowDown,ArrowLeft"":8,""ArrowDown,ArrowRight"":30}","true","spaceBar","true","revaluation","1","30","","",""
"html-keyboard-response","152","770978","0.0-4.0-2.0-1.15","spark_pilot_norest","9759","6","15","Male","","","","","","","null","<div style=""font-size:60px;"">+</div>","null","fixation","","","","","","","","","31","","",""
"revaluation","153","776986","0.0-4.0-2.0-0.16","spark_pilot_norest","9759","6","15","Male","","false","","","","","[587.8999999761581,331.3000000715256]","./assets/img/canyon/memory/11.jpg","[""ArrowDown"",""ArrowRight""]","value training","canyon","30","{""ArrowUp,ArrowLeft"":23,""ArrowUp,ArrowRight"":10,""ArrowDown,ArrowLeft"":8,""ArrowDown,ArrowRight"":30}","true","ArrowDown,ArrowRight","false","revaluation","1","32","","",""
"html-keyboard-response","154","777489","0.0-4.0-2.0-1.16","spark_pilot_norest","9759","6","15","Male","","","","","","","null","<div style=""font-size:60px;"">+</div>","null","fixation","","","","","","","","","33","","",""
"revaluation","155","783497","0.0-4.0-2.0-0.17","spark_pilot_norest","9759","6","15","Male","","false","","","","","[357.2000000476837,340.59999990463257]","./assets/img/canyon/memory/15.jpg","[""ArrowDown"",""ArrowRight""]","value training","canyon","30","{""ArrowUp,ArrowLeft"":23,""ArrowUp,ArrowRight"":10,""ArrowDown,ArrowLeft"":8,""ArrowDown,ArrowRight"":30}","true","ArrowDown,ArrowRight","false","revaluation","1","34","","",""
"html-keyboard-response","156","784000","0.0-4.0-2.0-1.17","spark_pilot_norest","9759","6","15","Male","","","","","","","null","<div style=""font-size:60px;"">+</div>","null","fixation","","","","","","","","","35","","",""
"revaluation","157","790009","0.0-4.0-2.0-0.18","spark_pilot_norest","9759","6","15","Male","","false","","","","","[757.3999999761581,308.10000002384186]","./assets/img/canyon/memory/8.jpg","[""ArrowDown"",""ArrowRight""]","value training","canyon","30","{""ArrowUp,ArrowLeft"":23,""ArrowUp,ArrowRight"":10,""ArrowDown,ArrowLeft"":8,""ArrowDown,ArrowRight"":30}","true","ArrowDown,ArrowRight","false","revaluation","1","36","","",""
"html-keyboard-response","158","790512","0.0-4.0-2.0-1.18","spark_pilot_norest","9759","6","15","Male","","","","","","","null","<div style=""font-size:60px;"">+</div>","null","fixation","","","","","","","","","37","","",""
"revaluation","159","796521","0.0-4.0-2.0-0.19","spark_pilot_norest","9759","6","15","Male","","false","","","","","[262.7000000476837,189.5]","./assets/img/canyon/memory/11.jpg","[""ArrowDown"",""ArrowRight""]","value training","canyon","30","{""ArrowUp,ArrowLeft"":23,""ArrowUp,ArrowRight"":10,""ArrowDown,ArrowLeft"":8,""ArrowDown,ArrowRight"":30}","true","ArrowDown,ArrowRight","false","revaluation","1","38","","",""
"html-keyboard-response","160","797022","0.0-4.0-2.0-1.19","spark_pilot_norest","9759","6","15","Male","","","","","","","null","<div style=""font-size:60px;"">+</div>","null","fixation","","","","","","","","","39","","",""
"revaluation","161","803029","0.0-4.0-2.0-0.20","spark_pilot_norest","9759","6","15","Male","","false","","","","","[800.1999999284744,303.8000000715256]","./assets/img/canyon/memory/18.jpg","[""ArrowDown"",""ArrowRight""]","value training","canyon","30","{""ArrowUp,ArrowLeft"":23,""ArrowUp,ArrowRight"":10,""ArrowDown,ArrowLeft"":8,""ArrowDown,ArrowRight"":30}","true","ArrowDown,ArrowRight","false","revaluation","1","40","","",""
"html-keyboard-response","162","803531","0.0-4.0-2.0-1.20","spark_pilot_norest","9759","6","15","Male","","","","","","","null","<div style=""font-size:60px;"">+</div>","null","fixation","","","","","","","","","41","","",""
"revaluation","163","809540","0.0-4.0-2.0-0.21","spark_pilot_norest","9759","6","15","Male","","false","","","","","[915.3999999761581,81.39999997615814]","./assets/img/canyon/memory/36.jpg","[""ArrowDown"",""ArrowRight""]","value training","canyon","30","{""ArrowUp,ArrowLeft"":23,""ArrowUp,ArrowRight"":10,""ArrowDown,ArrowLeft"":8,""ArrowDown,ArrowRight"":30}","true","ArrowDown,ArrowRight","false","revaluation","1","42","","",""
"html-keyboard-response","164","810042","0.0-4.0-2.0-1.21","spark_pilot_norest","9759","6","15","Male","","","","","","","null","<div style=""font-size:60px;"">+</div>","null","fixation","","","","","","","","","43","","",""
"revaluation","165","816050","0.0-4.0-2.0-0.22","spark_pilot_norest","9759","6","15","Male","","false","","","","","[516,282.89999997615814]","./assets/img/canyon/memory/7.jpg","[""ArrowDown"",""ArrowRight""]","value training","canyon","30","{""ArrowUp,ArrowLeft"":23,""ArrowUp,ArrowRight"":10,""ArrowDown,ArrowLeft"":8,""ArrowDown,ArrowRight"":30}","true","ArrowDown,ArrowRight","false","revaluation","1","44","","",""
"html-keyboard-response","166","816552","0.0-4.0-2.0-1.22","spark_pilot_norest","9759","6","15","Male","","","","","","","null","<div style=""font-size:60px;"">+</div>","null","fixation","","","","","","","","","45","","",""
"revaluation","167","820559","0.0-4.0-2.0-0.23","spark_pilot_norest","9759","6","15","Male","","false","","","","","[1190.2999999523163]","./assets/img/canyon/catch/1.jpg","[""spaceBar""]","value training","canyon","0","{""ArrowUp,ArrowLeft"":23,""ArrowUp,ArrowRight"":10,""ArrowDown,ArrowLeft"":8,""ArrowDown,ArrowRight"":30}","true","spaceBar","true","revaluation","1","46","","",""
"html-keyboard-response","168","821061","0.0-4.0-2.0-1.23","spark_pilot_norest","9759","6","15","Male","","","","","","","null","<div style=""font-size:60px;"">+</div>","null","fixation","","","","","","","","","47","","",""
"revaluation","169","827070","0.0-4.0-2.0-0.24","spark_pilot_norest","9759","6","15","Male","","false","","","","","[584.8999999761581,304]","./assets/img/canyon/memory/38.jpg","[""ArrowDown"",""ArrowRight""]","value training","canyon","30","{""ArrowUp,ArrowLeft"":23,""ArrowUp,ArrowRight"":10,""ArrowDown,ArrowLeft"":8,""ArrowDown,ArrowRight"":30}","true","ArrowDown,ArrowRight","false","revaluation","1","48","","",""
"html-keyboard-response","170","827573","0.0-4.0-2.0-1.24","spark_pilot_norest","9759","6","15","Male","","","","","","","null","<div style=""font-size:60px;"">+</div>","null","fixation","","","","","","","","","49","","",""
"revaluation","171","833582","0.0-4.0-2.0-0.25","spark_pilot_norest","9759","6","15","Male","","false","","","","","[377.6999999284744,208.10000002384186]","./assets/img/canyon/memory/26.jpg","[""ArrowDown"",""ArrowRight""]","value training","canyon","30","{""ArrowUp,ArrowLeft"":23,""ArrowUp,ArrowRight"":10,""ArrowDown,ArrowLeft"":8,""ArrowDown,ArrowRight"":30}","true","ArrowDown,ArrowRight","false","revaluation","1","50","","",""
"html-keyboard-response","172","834084","0.0-4.0-2.0-1.25","spark_pilot_norest","9759","6","15","Male","","","","","","","null","<div style=""font-size:60px;"">+</div>","null","fixation","","","","","","","","","51","","",""
"revaluation","173","838091","0.0-4.0-2.0-0.26","spark_pilot_norest","9759","6","15","Male","","false","","","","","[218.69999992847443]","./assets/img/canyon/catch/5.jpg","[""ArrowDown""]","value training","canyon","-10","{""ArrowUp,ArrowLeft"":23,""ArrowUp,ArrowRight"":10,""ArrowDown,ArrowLeft"":8,""ArrowDown,ArrowRight"":30}","false","ArrowDown","true","revaluation","1","52","","",""
"html-keyboard-response","174","838592","0.0-4.0-2.0-1.26","spark_pilot_norest","9759","6","15","Male","","","","","","","null","<div style=""font-size:60px;"">+</div>","null","fixation","","","","","","","","","53","","",""
"revaluation","175","844598","0.0-4.0-2.0-0.27","spark_pilot_norest","9759","6","15","Male","","false","","","","","[632.2999999523163,287.3000000715256]","./assets/img/canyon/memory/15.jpg","[""ArrowDown"",""ArrowRight""]","value training","canyon","30","{""ArrowUp,ArrowLeft"":23,""ArrowUp,ArrowRight"":10,""ArrowDown,ArrowLeft"":8,""ArrowDown,ArrowRight"":30}","true","ArrowDown,ArrowRight","false","revaluation","1","54","","",""
"html-keyboard-response","176","845099","0.0-4.0-2.0-1.27","spark_pilot_norest","9759","6","15","Male","","","","","","","null","<div style=""font-size:60px;"">+</div>","null","fixation","","","","","","","","","55","","",""
"revaluation","177","851104","0.0-4.0-2.0-0.28","spark_pilot_norest","9759","6","15","Male","","false","","","","","[532.8999999761581,403.89999997615814]","./assets/img/canyon/memory/26.jpg","[""ArrowDown"",""ArrowRight""]","value training","canyon","30","{""ArrowUp,ArrowLeft"":23,""ArrowUp,ArrowRight"":10,""ArrowDown,ArrowLeft"":8,""ArrowDown,ArrowRight"":30}","true","ArrowDown,ArrowRight","false","revaluation","1","56","","",""
"html-keyboard-response","178","851606","0.0-4.0-2.0-1.28","spark_pilot_norest","9759","6","15","Male","","","","","","","null","<div style=""font-size:60px;"">+</div>","null","fixation","","","","","","","","","57","","",""
"revaluation","179","857613","0.0-4.0-2.0-0.29","spark_pilot_norest","9759","6","15","Male","","false","","","","","[544,94.59999990463257]","./assets/img/canyon/memory/27.jpg","[""ArrowDown"",""ArrowRight""]","value training","canyon","30","{""ArrowUp,ArrowLeft"":23,""ArrowUp,ArrowRight"":10,""ArrowDown,ArrowLeft"":8,""ArrowDown,ArrowRight"":30}","true","ArrowDown,ArrowRight","false","revaluation","1","58","","",""
"html-keyboard-response","180","858115","0.0-4.0-2.0-1.29","spark_pilot_norest","9759","6","15","Male","","","","","","","null","<div style=""font-size:60px;"">+</div>","null","fixation","","","","","","","","","59","","",""
"revaluation","181","864124","0.0-4.0-2.0-0.30","spark_pilot_norest","9759","6","15","Male","","false","","","","","[841.5,272.7000000476837]","./assets/img/canyon/memory/32.jpg","[""ArrowDown"",""ArrowRight""]","value training","canyon","30","{""ArrowUp,ArrowLeft"":23,""ArrowUp,ArrowRight"":10,""ArrowDown,ArrowLeft"":8,""ArrowDown,ArrowRight"":30}","true","ArrowDown,ArrowRight","false","revaluation","1","60","","",""
"html-keyboard-response","182","864625","0.0-4.0-2.0-1.30","spark_pilot_norest","9759","6","15","Male","","","","","","","null","<div style=""font-size:60px;"">+</div>","null","fixation","","","","","","","","","61","","",""
"revaluation","183","870633","0.0-4.0-2.0-0.31","spark_pilot_norest","9759","6","15","Male","","false","","","","","[532.7000000476837,341.1999999284744]","./assets/img/canyon/memory/31.jpg","[""ArrowDown"",""ArrowRight""]","value training","canyon","30","{""ArrowUp,ArrowLeft"":23,""ArrowUp,ArrowRight"":10,""ArrowDown,ArrowLeft"":8,""ArrowDown,ArrowRight"":30}","true","ArrowDown,ArrowRight","false","revaluation","1","62","","",""
"html-keyboard-response","184","871135","0.0-4.0-2.0-1.31","spark_pilot_norest","9759","6","15","Male","","","","","","","null","<div style=""font-size:60px;"">+</div>","null","fixation","","","","","","","","","63","","",""
"revaluation","185","877145","0.0-4.0-2.0-0.32","spark_pilot_norest","9759","6","15","Male","","false","","","","","[510.2000000476837,157.09999990463257]","./assets/img/canyon/memory/29.jpg","[""ArrowDown"",""ArrowRight""]","value training","canyon","30","{""ArrowUp,ArrowLeft"":23,""ArrowUp,ArrowRight"":10,""ArrowDown,ArrowLeft"":8,""ArrowDown,ArrowRight"":30}","true","ArrowDown,ArrowRight","false","revaluation","1","64","","",""
"html-keyboard-response","186","877647","0.0-4.0-2.0-1.32","spark_pilot_norest","9759","6","15","Male","","","","","","","null","<div style=""font-size:60px;"">+</div>","null","fixation","","","","","","","","","65","","",""
"revaluation","187","883655","0.0-4.0-2.0-0.33","spark_pilot_norest","9759","6","15","Male","","false","","","","","[343.39999997615814,213.79999995231628]","./assets/img/canyon/memory/0.jpg","[""ArrowDown"",""ArrowRight""]","value training","canyon","30","{""ArrowUp,ArrowLeft"":23,""ArrowUp,ArrowRight"":10,""ArrowDown,ArrowLeft"":8,""ArrowDown,ArrowRight"":30}","true","ArrowDown,ArrowRight","false","revaluation","1","66","","",""
"html-keyboard-response","188","884157","0.0-4.0-2.0-1.33","spark_pilot_norest","9759","6","15","Male","","","","","","","null","<div style=""font-size:60px;"">+</div>","null","fixation","","","","","","","","","67","","",""
"revaluation","189","890167","0.0-4.0-2.0-0.34","spark_pilot_norest","9759","6","15","Male","","false","","","","","[455.2999999523163,29.90000009536743]","./assets/img/canyon/memory/0.jpg","[""ArrowDown"",""ArrowRight""]","value training","canyon","30","{""ArrowUp,ArrowLeft"":23,""ArrowUp,ArrowRight"":10,""ArrowDown,ArrowLeft"":8,""ArrowDown,ArrowRight"":30}","true","ArrowDown,ArrowRight","false","revaluation","1","68","","",""
"html-keyboard-response","190","890669","0.0-4.0-2.0-1.34","spark_pilot_norest","9759","6","15","Male","","","","","","","null","<div style=""font-size:60px;"">+</div>","null","fixation","","","","","","","","","69","","",""
"revaluation","191","894676","0.0-4.0-2.0-0.35","spark_pilot_norest","9759","6","15","Male","","false","","","","","[304.39999997615814]","./assets/img/canyon/catch/2.jpg","[""ArrowDown""]","value training","canyon","-10","{""ArrowUp,ArrowLeft"":23,""ArrowUp,ArrowRight"":10,""ArrowDown,ArrowLeft"":8,""ArrowDown,ArrowRight"":30}","false","ArrowDown","true","revaluation","1","70","","",""
"html-keyboard-response","192","895179","0.0-4.0-2.0-1.35","spark_pilot_norest","9759","6","15","Male","","","","","","","null","<div style=""font-size:60px;"">+</div>","null","fixation","","","","","","","","","71","","",""
"revaluation","193","901186","0.0-4.0-2.0-0.36","spark_pilot_norest","9759","6","15","Male","","false","","","","","[1242.7999999523163,386.10000002384186]","./assets/img/canyon/memory/3.jpg","[""ArrowDown"",""ArrowRight""]","value training","canyon","30","{""ArrowUp,ArrowLeft"":23,""ArrowUp,ArrowRight"":10,""ArrowDown,ArrowLeft"":8,""ArrowDown,ArrowRight"":30}","true","ArrowDown,ArrowRight","false","revaluation","1","72","","",""
"html-keyboard-response","194","901686","0.0-4.0-2.0-1.36","spark_pilot_norest","9759","6","15","Male","","","","","","","null","<div style=""font-size:60px;"">+</div>","null","fixation","","","","","","","","","73","","",""
"revaluation","195","907696","0.0-4.0-2.0-0.37","spark_pilot_norest","9759","6","15","Male","","false","","","","","[949.7999999523163,675.7000000476837]","./assets/img/canyon/memory/23.jpg","[""ArrowDown"",""ArrowRight""]","value training","canyon","30","{""ArrowUp,ArrowLeft"":23,""ArrowUp,ArrowRight"":10,""ArrowDown,ArrowLeft"":8,""ArrowDown,ArrowRight"":30}","true","ArrowDown,ArrowRight","false","revaluation","1","74","","",""
"html-keyboard-response","196","908198","0.0-4.0-2.0-1.37","spark_pilot_norest","9759","6","15","Male","","","","","","","null","<div style=""font-size:60px;"">+</div>","null","fixation","","","","","","","","","75","","",""
"revaluation","197","914207","0.0-4.0-2.0-0.38","spark_pilot_norest","9759","6","15","Male","","false","","","","","[726.8000000715256,1006.3999999761581]","./assets/img/canyon/memory/3.jpg","[""ArrowDown"",""ArrowRight""]","value training","canyon","30","{""ArrowUp,ArrowLeft"":23,""ArrowUp,ArrowRight"":10,""ArrowDown,ArrowLeft"":8,""ArrowDown,ArrowRight"":30}","true","ArrowDown,ArrowRight","false","revaluation","1","76","","",""
"html-keyboard-response","198","914711","0.0-4.0-2.0-1.38","spark_pilot_norest","9759","6","15","Male","","","","","","","null","<div style=""font-size:60px;"">+</div>","null","fixation","","","","","","","","","77","","",""
"revaluation","199","920723","0.0-4.0-2.0-0.39","spark_pilot_norest","9759","6","15","Male","","false","","","","","[612.8000000715256,683.3999999761581]","./assets/img/canyon/memory/38.jpg","[""ArrowDown"",""ArrowRight""]","value training","canyon","30","{""ArrowUp,ArrowLeft"":23,""ArrowUp,ArrowRight"":10,""ArrowDown,ArrowLeft"":8,""ArrowDown,ArrowRight"":30}","true","ArrowDown,ArrowRight","false","revaluation","1","78","","",""
"html-keyboard-response","200","921225","0.0-4.0-2.0-1.39","spark_pilot_norest","9759","6","15","Male","","","","","","","null","<div style=""font-size:60px;"">+</div>","null","fixation","","","","","","","","","79","","",""
"revaluation","201","927233","0.0-4.0-2.0-0.40","spark_pilot_norest","9759","6","15","Male","","false","","","","","[324.60000002384186,171.60000002384186]","./assets/img/canyon/memory/20.jpg","[""ArrowDown"",""ArrowRight""]","value training","canyon","30","{""ArrowUp,ArrowLeft"":23,""ArrowUp,ArrowRight"":10,""ArrowDown,ArrowLeft"":8,""ArrowDown,ArrowRight"":30}","true","ArrowDown,ArrowRight","false","revaluation","1","80","","",""
"html-keyboard-response","202","927736","0.0-4.0-2.0-1.40","spark_pilot_norest","9759","6","15","Male","","","","","","","null","<div style=""font-size:60px;"">+</div>","null","fixation","","","","","","","","","81","","",""
"revaluation","203","931744","0.0-4.0-2.0-0.41","spark_pilot_norest","9759","6","15","Male","","false","","","","","[902.8999999761581]","./assets/img/canyon/catch/6.jpg","[""spaceBar""]","value training","canyon","0","{""ArrowUp,ArrowLeft"":23,""ArrowUp,ArrowRight"":10,""ArrowDown,ArrowLeft"":8,""ArrowDown,ArrowRight"":30}","true","spaceBar","true","revaluation","1","82","","",""
"html-keyboard-response","204","932246","0.0-4.0-2.0-1.41","spark_pilot_norest","9759","6","15","Male","","","","","","","null","<div style=""font-size:60px;"">+</div>","null","fixation","","","","","","","","","83","","",""
"revaluation","205","936254","0.0-4.0-2.0-0.42","spark_pilot_norest","9759","6","15","Male","","false","","","","","[815.2999999523163]","./assets/img/canyon/catch/4.jpg","[""spaceBar""]","value training","canyon","0","{""ArrowUp,ArrowLeft"":23,""ArrowUp,ArrowRight"":10,""ArrowDown,ArrowLeft"":8,""ArrowDown,ArrowRight"":30}","true","spaceBar","true","revaluation","1","84","","",""
"html-keyboard-response","206","936756","0.0-4.0-2.0-1.42","spark_pilot_norest","9759","6","15","Male","","","","","","","null","<div style=""font-size:60px;"">+</div>","null","fixation","","","","","","","","","85","","",""
"revaluation","207","942765","0.0-4.0-2.0-0.43","spark_pilot_norest","9759","6","15","Male","","false","","","","","[729.6000000238419,888.3999999761581]","./assets/img/canyon/memory/4.jpg","[""ArrowDown"",""ArrowRight""]","value training","canyon","30","{""ArrowUp,ArrowLeft"":23,""ArrowUp,ArrowRight"":10,""ArrowDown,ArrowLeft"":8,""ArrowDown,ArrowRight"":30}","true","ArrowDown,ArrowRight","false","revaluation","1","86","","",""
"html-keyboard-response","208","943267","0.0-4.0-2.0-1.43","spark_pilot_norest","9759","6","15","Male","","","","","","","null","<div style=""font-size:60px;"">+</div>","null","fixation","","","","","","","","","87","","",""
"revaluation","209","947273","0.0-4.0-2.0-0.44","spark_pilot_norest","9759","6","15","Male","","false","","","","","[692.6000000238419]","./assets/img/canyon/catch/3.jpg","[""spaceBar""]","value training","canyon","0","{""ArrowUp,ArrowLeft"":23,""ArrowUp,ArrowRight"":10,""ArrowDown,ArrowLeft"":8,""ArrowDown,ArrowRight"":30}","true","spaceBar","true","revaluation","1","88","","",""
"html-keyboard-response","210","947775","0.0-4.0-2.0-1.44","spark_pilot_norest","9759","6","15","Male","","","","","","","null","<div style=""font-size:60px;"">+</div>","null","fixation","","","","","","","","","89","","",""
"revaluation","211","953782","0.0-4.0-2.0-0.45","spark_pilot_norest","9759","6","15","Male","","false","","","","","[983.1999999284744,351.40000009536743]","./assets/img/canyon/memory/30.jpg","[""ArrowDown"",""ArrowRight""]","value training","canyon","30","{""ArrowUp,ArrowLeft"":23,""ArrowUp,ArrowRight"":10,""ArrowDown,ArrowLeft"":8,""ArrowDown,ArrowRight"":30}","true","ArrowDown,ArrowRight","false","revaluation","1","90","","",""
"html-keyboard-response","212","954284","0.0-4.0-2.0-1.45","spark_pilot_norest","9759","6","15","Male","","","","","","","null","<div style=""font-size:60px;"">+</div>","null","fixation","","","","","","","","","91","","",""
"revaluation","213","960292","0.0-4.0-2.0-0.46","spark_pilot_norest","9759","6","15","Male","","false","","","","","[450.89999997615814,73.59999990463257]","./assets/img/canyon/memory/28.jpg","[""ArrowDown"",""ArrowRight""]","value training","canyon","30","{""ArrowUp,ArrowLeft"":23,""ArrowUp,ArrowRight"":10,""ArrowDown,ArrowLeft"":8,""ArrowDown,ArrowRight"":30}","true","ArrowDown,ArrowRight","false","revaluation","1","92","","",""
"html-keyboard-response","214","960794","0.0-4.0-2.0-1.46","spark_pilot_norest","9759","6","15","Male","","","","","","","null","<div style=""font-size:60px;"">+</div>","null","fixation","","","","","","","","","93","","",""
"revaluation","215","966803","0.0-4.0-2.0-0.47","spark_pilot_norest","9759","6","15","Male","","false","","","","","[804,442.39999997615814]","./assets/img/canyon/memory/29.jpg","[""ArrowDown"",""ArrowRight""]","value training","canyon","30","{""ArrowUp,ArrowLeft"":23,""ArrowUp,ArrowRight"":10,""ArrowDown,ArrowLeft"":8,""ArrowDown,ArrowRight"":30}","true","ArrowDown,ArrowRight","false","revaluation","1","94","","",""
"html-keyboard-response","216","967303","0.0-4.0-2.0-1.47","spark_pilot_norest","9759","6","15","Male","","","","","","","null","<div style=""font-size:60px;"">+</div>","null","fixation","","","","","","","","","95","","",""
"revaluation","217","973311","0.0-4.0-2.0-0.48","spark_pilot_norest","9759","6","15","Male","","false","","","","","[365.2000000476837,13.5]","./assets/img/canyon/memory/36.jpg","[""ArrowDown"",""ArrowRight""]","value training","canyon","30","{""ArrowUp,ArrowLeft"":23,""ArrowUp,ArrowRight"":10,""ArrowDown,ArrowLeft"":8,""ArrowDown,ArrowRight"":30}","true","ArrowDown,ArrowRight","false","revaluation","1","96","","",""
"html-keyboard-response","218","973814","0.0-4.0-2.0-1.48","spark_pilot_norest","9759","6","15","Male","","","","","","","null","<div style=""font-size:60px;"">+</div>","null","fixation","","","","","","","","","97","","",""
"revaluation","219","979822","0.0-4.0-2.0-0.49","spark_pilot_norest","9759","6","15","Male","","false","","","","","[552.8999999761581,320]","./assets/img/canyon/memory/8.jpg","[""ArrowDown"",""ArrowRight""]","value training","canyon","30","{""ArrowUp,ArrowLeft"":23,""ArrowUp,ArrowRight"":10,""ArrowDown,ArrowLeft"":8,""ArrowDown,ArrowRight"":30}","true","ArrowDown,ArrowRight","false","revaluation","1","98","","",""
"html-keyboard-response","220","980325","0.0-4.0-2.0-1.49","spark_pilot_norest","9759","6","15","Male","","","","","","","null","<div style=""font-size:60px;"">+</div>","null","fixation","","","","","","","","","99","","",""
"learning-instructions","221","998138","0.0-4.0-3.0-0.0","spark_pilot_norest","9759","6","15","Male","","","","","","","4700.300000071526","<p> Now, you will travel with a friend who will choose whether you go up or down first. </p>
            <p> On these turns, you will just see the animal that they found. You will still get to choose which chest to search for treasure.</p>","","instructions","","","","","","","","","","","",""
"revaluation","222","1002156","0.0-4.0-4.0-0.0","spark_pilot_norest","9759","6","15","Male","","false","","","","","[1576]","./assets/img/canyon/animals/giraffe.jpg","[""ArrowRight""]","revaluation","canyon","7","{""ArrowUp,ArrowLeft"":27,""ArrowUp,ArrowRight"":15,""ArrowDown,ArrowLeft"":21,""ArrowDown,ArrowRight"":7}","false","ArrowDown,ArrowRight","","revaluation","1","0","","",""
"html-keyboard-response","223","1002668","0.0-4.0-4.0-1.0","spark_pilot_norest","9759","6","15","Male","","","","","","","null","<div style=""font-size:60px;"">+</div>","null","fixation","","","","","","","","","1","","",""
"revaluation","224","1006677","0.0-4.0-4.0-0.1","spark_pilot_norest","9759","6","15","Male","","false","","","","","[283.7999999523163]","./assets/img/canyon/animals/lion.jpg","[""ArrowRight""]","revaluation","canyon","15","{""ArrowUp,ArrowLeft"":27,""ArrowUp,ArrowRight"":15,""ArrowDown,ArrowLeft"":21,""ArrowDown,ArrowRight"":7}","false","ArrowUp,ArrowRight","","revaluation","1","2","","",""
"html-keyboard-response","225","1007188","0.0-4.0-4.0-1.1","spark_pilot_norest","9759","6","15","Male","","","","","","","null","<div style=""font-size:60px;"">+</div>","null","fixation","","","","","","","","","3","","",""
"revaluation","226","1011193","0.0-4.0-4.0-0.2","spark_pilot_norest","9759","6","15","Male","","false","","","","","[675.5999999046326]","./assets/img/canyon/animals/lion.jpg","[""ArrowLeft""]","revaluation","canyon","27","{""ArrowUp,ArrowLeft"":27,""ArrowUp,ArrowRight"":15,""ArrowDown,ArrowLeft"":21,""ArrowDown,ArrowRight"":7}","true","ArrowUp,ArrowLeft","","revaluation","1","4","","",""
"html-keyboard-response","227","1011695","0.0-4.0-4.0-1.2","spark_pilot_norest","9759","6","15","Male","","","","","","","null","<div style=""font-size:60px;"">+</div>","null","fixation","","","","","","","","","5","","",""
"revaluation","228","1015717","0.0-4.0-4.0-0.3","spark_pilot_norest","9759","6","15","Male","","false","","","","","[982.3999999761581]","./assets/img/canyon/animals/lion.jpg","[""ArrowRight""]","revaluation","canyon","15","{""ArrowUp,ArrowLeft"":27,""ArrowUp,ArrowRight"":15,""ArrowDown,ArrowLeft"":21,""ArrowDown,ArrowRight"":7}","false","ArrowUp,ArrowRight","","revaluation","1","6","","",""
"html-keyboard-response","229","1016222","0.0-4.0-4.0-1.3","spark_pilot_norest","9759","6","15","Male","","","","","","","null","<div style=""font-size:60px;"">+</div>","null","fixation","","","","","","","","","7","","",""
"revaluation","230","1020235","0.0-4.0-4.0-0.4","spark_pilot_norest","9759","6","15","Male","","true","","","","","[]","./assets/img/canyon/animals/giraffe.jpg","[]","revaluation","canyon","-5","{""ArrowUp,ArrowLeft"":27,""ArrowUp,ArrowRight"":15,""ArrowDown,ArrowLeft"":21,""ArrowDown,ArrowRight"":7}","false","ArrowDown","","revaluation","1","8","","",""
"html-keyboard-response","231","1020739","0.0-4.0-4.0-1.4","spark_pilot_norest","9759","6","15","Male","","","","","","","null","<div style=""font-size:60px;"">+</div>","null","fixation","","","","","","","","","9","","",""
"revaluation","232","1024748","0.0-4.0-4.0-0.5","spark_pilot_norest","9759","6","15","Male","","false","","","","","[194.10000002384186]","./assets/img/canyon/animals/lion.jpg","[""ArrowRight""]","revaluation","canyon","15","{""ArrowUp,ArrowLeft"":27,""ArrowUp,ArrowRight"":15,""ArrowDown,ArrowLeft"":21,""ArrowDown,ArrowRight"":7}","false","ArrowUp,ArrowRight","","revaluation","1","10","","",""
"html-keyboard-response","233","1025250","0.0-4.0-4.0-1.5","spark_pilot_norest","9759","6","15","Male","","","","","","","null","<div style=""font-size:60px;"">+</div>","null","fixation","","","","","","","","","11","","",""
"revaluation","234","1029254","0.0-4.0-4.0-0.6","spark_pilot_norest","9759","6","15","Male","","false","","","","","[237.89999997615814]","./assets/img/canyon/animals/lion.jpg","[""ArrowRight""]","revaluation","canyon","15","{""ArrowUp,ArrowLeft"":27,""ArrowUp,ArrowRight"":15,""ArrowDown,ArrowLeft"":21,""ArrowDown,ArrowRight"":7}","false","ArrowUp,ArrowRight","","revaluation","1","12","","",""
"html-keyboard-response","235","1029756","0.0-4.0-4.0-1.6","spark_pilot_norest","9759","6","15","Male","","","","","","","null","<div style=""font-size:60px;"">+</div>","null","fixation","","","","","","","","","13","","",""
"revaluation","236","1033761","0.0-4.0-4.0-0.7","spark_pilot_norest","9759","6","15","Male","","false","","","","","[147.19999992847443]","./assets/img/canyon/animals/lion.jpg","[""ArrowRight""]","revaluation","canyon","15","{""ArrowUp,ArrowLeft"":27,""ArrowUp,ArrowRight"":15,""ArrowDown,ArrowLeft"":21,""ArrowDown,ArrowRight"":7}","false","ArrowUp,ArrowRight","","revaluation","1","14","","",""
"html-keyboard-response","237","1034262","0.0-4.0-4.0-1.7","spark_pilot_norest","9759","6","15","Male","","","","","","","null","<div style=""font-size:60px;"">+</div>","null","fixation","","","","","","","","","15","","",""
"revaluation","238","1038267","0.0-4.0-4.0-0.8","spark_pilot_norest","9759","6","15","Male","","false","","","","","[210]","./assets/img/canyon/animals/giraffe.jpg","[""ArrowRight""]","revaluation","canyon","7","{""ArrowUp,ArrowLeft"":27,""ArrowUp,ArrowRight"":15,""ArrowDown,ArrowLeft"":21,""ArrowDown,ArrowRight"":7}","false","ArrowDown,ArrowRight","","revaluation","1","16","","",""
"html-keyboard-response","239","1038767","0.0-4.0-4.0-1.8","spark_pilot_norest","9759","6","15","Male","","","","","","","null","<div style=""font-size:60px;"">+</div>","null","fixation","","","","","","","","","17","","",""
"revaluation","240","1042774","0.0-4.0-4.0-0.9","spark_pilot_norest","9759","6","15","Male","","false","","","","","[142.09999990463257]","./assets/img/canyon/animals/giraffe.jpg","[""ArrowRight""]","revaluation","canyon","7","{""ArrowUp,ArrowLeft"":27,""ArrowUp,ArrowRight"":15,""ArrowDown,ArrowLeft"":21,""ArrowDown,ArrowRight"":7}","false","ArrowDown,ArrowRight","","revaluation","1","18","","",""
"html-keyboard-response","241","1043275","0.0-4.0-4.0-1.9","spark_pilot_norest","9759","6","15","Male","","","","","","","null","<div style=""font-size:60px;"">+</div>","null","fixation","","","","","","","","","19","","",""
"revaluation","242","1047280","0.0-4.0-4.0-0.10","spark_pilot_norest","9759","6","15","Male","","false","","","","","[20.800000071525574]","./assets/img/canyon/animals/giraffe.jpg","[""ArrowRight""]","revaluation","canyon","7","{""ArrowUp,ArrowLeft"":27,""ArrowUp,ArrowRight"":15,""ArrowDown,ArrowLeft"":21,""ArrowDown,ArrowRight"":7}","false","ArrowDown,ArrowRight","","revaluation","1","20","","",""
"html-keyboard-response","243","1047781","0.0-4.0-4.0-1.10","spark_pilot_norest","9759","6","15","Male","","","","","","","null","<div style=""font-size:60px;"">+</div>","null","fixation","","","","","","","","","21","","",""
"revaluation","244","1051784","0.0-4.0-4.0-0.11","spark_pilot_norest","9759","6","15","Male","","false","","","","","[299]","./assets/img/canyon/animals/giraffe.jpg","[""ArrowRight""]","revaluation","canyon","7","{""ArrowUp,ArrowLeft"":27,""ArrowUp,ArrowRight"":15,""ArrowDown,ArrowLeft"":21,""ArrowDown,ArrowRight"":7}","false","ArrowDown,ArrowRight","","revaluation","1","22","","",""
"html-keyboard-response","245","1052285","0.0-4.0-4.0-1.11","spark_pilot_norest","9759","6","15","Male","","","","","","","null","<div style=""font-size:60px;"">+</div>","null","fixation","","","","","","","","","23","","",""
"revaluation","246","1056293","0.0-4.0-4.0-0.12","spark_pilot_norest","9759","6","15","Male","","false","","","","","[0.20000004768371582]","./assets/img/canyon/animals/giraffe.jpg","[""ArrowRight""]","revaluation","canyon","7","{""ArrowUp,ArrowLeft"":27,""ArrowUp,ArrowRight"":15,""ArrowDown,ArrowLeft"":21,""ArrowDown,ArrowRight"":7}","false","ArrowDown,ArrowRight","","revaluation","1","24","","",""
"html-keyboard-response","247","1056794","0.0-4.0-4.0-1.12","spark_pilot_norest","9759","6","15","Male","","","","","","","null","<div style=""font-size:60px;"">+</div>","null","fixation","","","","","","","","","25","","",""
"revaluation","248","1060797","0.0-4.0-4.0-0.13","spark_pilot_norest","9759","6","15","Male","","false","","","","","[286.10000002384186]","./assets/img/canyon/animals/lion.jpg","[""ArrowRight""]","revaluation","canyon","15","{""ArrowUp,ArrowLeft"":27,""ArrowUp,ArrowRight"":15,""ArrowDown,ArrowLeft"":21,""ArrowDown,ArrowRight"":7}","false","ArrowUp,ArrowRight","","revaluation","1","26","","",""
"html-keyboard-response","249","1061299","0.0-4.0-4.0-1.13","spark_pilot_norest","9759","6","15","Male","","","","","","","null","<div style=""font-size:60px;"">+</div>","null","fixation","","","","","","","","","27","","",""
"revaluation","250","1065302","0.0-4.0-4.0-0.14","spark_pilot_norest","9759","6","15","Male","","false","","","","","[204.69999992847443]","./assets/img/canyon/animals/lion.jpg","[""ArrowRight""]","revaluation","canyon","15","{""ArrowUp,ArrowLeft"":27,""ArrowUp,ArrowRight"":15,""ArrowDown,ArrowLeft"":21,""ArrowDown,ArrowRight"":7}","false","ArrowUp,ArrowRight","","revaluation","1","28","","",""
"html-keyboard-response","251","1065803","0.0-4.0-4.0-1.14","spark_pilot_norest","9759","6","15","Male","","","","","","","null","<div style=""font-size:60px;"">+</div>","null","fixation","","","","","","","","","29","","",""
"revaluation","252","1069810","0.0-4.0-4.0-0.15","spark_pilot_norest","9759","6","15","Male","","false","","","","","[12.199999928474426]","./assets/img/canyon/animals/giraffe.jpg","[""ArrowRight""]","revaluation","canyon","7","{""ArrowUp,ArrowLeft"":27,""ArrowUp,ArrowRight"":15,""ArrowDown,ArrowLeft"":21,""ArrowDown,ArrowRight"":7}","false","ArrowDown,ArrowRight","","revaluation","1","30","","",""
"html-keyboard-response","253","1070313","0.0-4.0-4.0-1.15","spark_pilot_norest","9759","6","15","Male","","","","","","","null","<div style=""font-size:60px;"">+</div>","null","fixation","","","","","","","","","31","","",""
"revaluation","254","1074316","0.0-4.0-4.0-0.16","spark_pilot_norest","9759","6","15","Male","","false","","","","","[262.40000009536743]","./assets/img/canyon/animals/lion.jpg","[""ArrowRight""]","revaluation","canyon","15","{""ArrowUp,ArrowLeft"":27,""ArrowUp,ArrowRight"":15,""ArrowDown,ArrowLeft"":21,""ArrowDown,ArrowRight"":7}","false","ArrowUp,ArrowRight","","revaluation","1","32","","",""
"html-keyboard-response","255","1074818","0.0-4.0-4.0-1.16","spark_pilot_norest","9759","6","15","Male","","","","","","","null","<div style=""font-size:60px;"">+</div>","null","fixation","","","","","","","","","33","","",""
"revaluation","256","1078822","0.0-4.0-4.0-0.17","spark_pilot_norest","9759","6","15","Male","","false","","","","","[12.799999952316284]","./assets/img/canyon/animals/giraffe.jpg","[""ArrowRight""]","revaluation","canyon","7","{""ArrowUp,ArrowLeft"":27,""ArrowUp,ArrowRight"":15,""ArrowDown,ArrowLeft"":21,""ArrowDown,ArrowRight"":7}","false","ArrowDown,ArrowRight","","revaluation","1","34","","",""
"html-keyboard-response","257","1079324","0.0-4.0-4.0-1.17","spark_pilot_norest","9759","6","15","Male","","","","","","","null","<div style=""font-size:60px;"">+</div>","null","fixation","","","","","","","","","35","","",""
"learning-instructions","258","1087460","0.0-4.0-5.0-0.0","spark_pilot_norest","9759","6","15","Male","","","","","","","null","<p> You have almost finished this part of the game! </p>
            <p> We are going to ask you to make a few more choices. </p>","","instructions","","","","","","","","","","","",""
"learning-instructions","259","1103441","0.0-4.0-5.0-0.1","spark_pilot_norest","9759","6","15","Male","","","","","","","null","<p> First, you need to decide whether to go up or down. When you see each picture, use the arrow keys to make your choice. </p>
            <p><b>You will not see which animal you found, but try to get to the one that will give you the most treasure.</b></p>","","instructions","","","","","","","","","","","",""
"html-keyboard-response","260","1104443","0.0-4.0-6.0-0.0","spark_pilot_norest","9759","6","15","Male","","","","","","","null","<div style=""font-size:100px;color:red;"">Starting in...</div>","null","","","","","","","","","","","","",""
"html-keyboard-response","261","1105456","0.0-4.0-6.0-1.0","spark_pilot_norest","9759","6","15","Male","","","","","","","null","<div style=""font-size:200px;color:red;"">3</div>","null","","","","","","","","","","","","",""
"html-keyboard-response","262","1106465","0.0-4.0-6.0-2.0","spark_pilot_norest","9759","6","15","Male","","","","","","","null","<div style=""font-size:200px;color:red;"">2</div>","null","","","","","","","","","","","","",""
"html-keyboard-response","263","1107466","0.0-4.0-6.0-3.0","spark_pilot_norest","9759","6","15","Male","","","","","","","null","<div style=""font-size:200px;color:red;"">1</div>","null","","","","","","","","","","","","",""
"revaluation","264","1108516","0.0-4.0-7.0-0.0","spark_pilot_norest","9759","6","15","Male","","false","","","","","[1046.6000000238419]","./assets/img/canyon/test/0.jpg","[""ArrowUp""]","first stage test","canyon","0","{""ArrowUp,ArrowLeft"":27,""ArrowUp,ArrowRight"":15,""ArrowDown,ArrowLeft"":21,""ArrowDown,ArrowRight"":7}","true","ArrowUp","false","revaluation","1","","","",""
"html-keyboard-response","265","1109017","0.0-4.0-7.0-1.0","spark_pilot_norest","9759","6","15","Male","","","","","","","null","<div style=""font-size:60px;"">+</div>","null","fixation","","","","","","","","","","","",""
"revaluation","266","1110171","0.0-4.0-7.0-0.1","spark_pilot_norest","9759","6","15","Male","","false","","","","","[1148.0999999046326]","./assets/img/canyon/test/2.jpg","[""ArrowUp""]","first stage test","canyon","0","{""ArrowUp,ArrowLeft"":27,""ArrowUp,ArrowRight"":15,""ArrowDown,ArrowLeft"":21,""ArrowDown,ArrowRight"":7}","true","ArrowUp","false","revaluation","1","","","",""
"html-keyboard-response","267","1110678","0.0-4.0-7.0-1.1","spark_pilot_norest","9759","6","15","Male","","","","","","","null","<div style=""font-size:60px;"">+</div>","null","fixation","","","","","","","","","","","",""
"revaluation","268","1110971","0.0-4.0-7.0-0.2","spark_pilot_norest","9759","6","15","Male","","false","","","","","[289.10000002384186]","./assets/img/canyon/test/1.jpg","[""ArrowUp""]","first stage test","canyon","0","{""ArrowUp,ArrowLeft"":27,""ArrowUp,ArrowRight"":15,""ArrowDown,ArrowLeft"":21,""ArrowDown,ArrowRight"":7}","true","ArrowUp","false","revaluation","1","","","",""
"html-keyboard-response","269","1111472","0.0-4.0-7.0-1.2","spark_pilot_norest","9759","6","15","Male","","","","","","","null","<div style=""font-size:60px;"">+</div>","null","fixation","","","","","","","","","","","",""
"revaluation","270","1111723","0.0-4.0-7.0-0.3","spark_pilot_norest","9759","6","15","Male","","false","","","","","[245.69999992847443]","./assets/img/canyon/test/3.jpg","[""ArrowUp""]","first stage test","canyon","0","{""ArrowUp,ArrowLeft"":27,""ArrowUp,ArrowRight"":15,""ArrowDown,ArrowLeft"":21,""ArrowDown,ArrowRight"":7}","true","ArrowUp","false","revaluation","1","","","",""
"html-keyboard-response","271","1112234","0.0-4.0-7.0-1.3","spark_pilot_norest","9759","6","15","Male","","","","","","","null","<div style=""font-size:60px;"">+</div>","null","fixation","","","","","","","","","","","",""
"learning-instructions","272","1125570","0.0-4.0-8.0-0.0","spark_pilot_norest","9759","6","15","Male","","","","","","","null","<p> Now you will see the animals again and can search their chests for treasure. </p>
            <p> This time, you will not see how much treasure you earned, but you will earn more bonus money for making better choices. </p>","","instructions","","","","","","","","","","","",""
"html-keyboard-response","273","1126586","0.0-4.0-9.0-0.0","spark_pilot_norest","9759","6","15","Male","","","","","","","null","<div style=""font-size:100px;color:red;"">Starting in...</div>","null","","","","","","","","","","","","",""
"html-keyboard-response","274","1127587","0.0-4.0-9.0-1.0","spark_pilot_norest","9759","6","15","Male","","","","","","","null","<div style=""font-size:200px;color:red;"">3</div>","null","","","","","","","","","","","","",""
"html-keyboard-response","275","1128589","0.0-4.0-9.0-2.0","spark_pilot_norest","9759","6","15","Male","","","","","","","null","<div style=""font-size:200px;color:red;"">2</div>","null","","","","","","","","","","","","",""
"html-keyboard-response","276","1129591","0.0-4.0-9.0-3.0","spark_pilot_norest","9759","6","15","Male","","","","","","","null","<div style=""font-size:200px;color:red;"">1</div>","null","","","","","","","","","","","","",""
"revaluation","277","1129939","0.0-4.0-10.0-0.0","spark_pilot_norest","9759","6","15","Male","","false","","","","","[346]","./assets/img/canyon/animals/lion.jpg","[""ArrowRight""]","second stage test","canyon","0","{""ArrowUp,ArrowLeft"":27,""ArrowUp,ArrowRight"":15,""ArrowDown,ArrowLeft"":21,""ArrowDown,ArrowRight"":7}","false","ArrowUp,ArrowRight","","revaluation","1","","","",""
"html-keyboard-response","278","1130454","0.0-4.0-10.0-1.0","spark_pilot_norest","9759","6","15","Male","","","","","","","null","<div style=""font-size:60px;"">+</div>","null","fixation","","","","","","","","","","","",""
"revaluation","279","1130889","0.0-4.0-10.0-0.1","spark_pilot_norest","9759","6","15","Male","","false","","","","","[430.2000000476837]","./assets/img/canyon/animals/lion.jpg","[""ArrowRight""]","second stage test","canyon","0","{""ArrowUp,ArrowLeft"":27,""ArrowUp,ArrowRight"":15,""ArrowDown,ArrowLeft"":21,""ArrowDown,ArrowRight"":7}","false","ArrowUp,ArrowRight","","revaluation","1","","","",""
"html-keyboard-response","280","1131405","0.0-4.0-10.0-1.1","spark_pilot_norest","9759","6","15","Male","","","","","","","null","<div style=""font-size:60px;"">+</div>","null","fixation","","","","","","","","","","","",""
"revaluation","281","1131769","0.0-4.0-10.0-0.2","spark_pilot_norest","9759","6","15","Male","","false","","","","","[358.89999997615814]","./assets/img/canyon/animals/lion.jpg","[""ArrowRight""]","second stage test","canyon","0","{""ArrowUp,ArrowLeft"":27,""ArrowUp,ArrowRight"":15,""ArrowDown,ArrowLeft"":21,""ArrowDown,ArrowRight"":7}","false","ArrowUp,ArrowRight","","revaluation","1","","","",""
"html-keyboard-response","282","1132276","0.0-4.0-10.0-1.2","spark_pilot_norest","9759","6","15","Male","","","","","","","null","<div style=""font-size:60px;"">+</div>","null","fixation","","","","","","","","","","","",""
"revaluation","283","1132555","0.0-4.0-10.0-0.3","spark_pilot_norest","9759","6","15","Male","","false","","","","","[270.89999997615814]","./assets/img/canyon/animals/lion.jpg","[""ArrowRight""]","second stage test","canyon","0","{""ArrowUp,ArrowLeft"":27,""ArrowUp,ArrowRight"":15,""ArrowDown,ArrowLeft"":21,""ArrowDown,ArrowRight"":7}","false","ArrowUp,ArrowRight","","revaluation","1","","","",""
"html-keyboard-response","284","1133071","0.0-4.0-10.0-1.3","spark_pilot_norest","9759","6","15","Male","","","","","","","null","<div style=""font-size:60px;"">+</div>","null","fixation","","","","","","","","","","","",""
"revaluation","285","1133300","0.0-4.0-10.0-0.4","spark_pilot_norest","9759","6","15","Male","","false","","","","","[222.69999992847443]","./assets/img/canyon/animals/giraffe.jpg","[""ArrowRight""]","second stage test","canyon","0","{""ArrowUp,ArrowLeft"":27,""ArrowUp,ArrowRight"":15,""ArrowDown,ArrowLeft"":21,""ArrowDown,ArrowRight"":7}","false","ArrowDown,ArrowRight","","revaluation","1","","","",""
"html-keyboard-response","286","1133815","0.0-4.0-10.0-1.4","spark_pilot_norest","9759","6","15","Male","","","","","","","null","<div style=""font-size:60px;"">+</div>","null","fixation","","","","","","","","","","","",""
"revaluation","287","1133891","0.0-4.0-10.0-0.5","spark_pilot_norest","9759","6","15","Male","","false","","","","","[70]","./assets/img/canyon/animals/giraffe.jpg","[""ArrowRight""]","second stage test","canyon","0","{""ArrowUp,ArrowLeft"":27,""ArrowUp,ArrowRight"":15,""ArrowDown,ArrowLeft"":21,""ArrowDown,ArrowRight"":7}","false","ArrowDown,ArrowRight","","revaluation","1","","","",""
"html-keyboard-response","288","1134407","0.0-4.0-10.0-1.5","spark_pilot_norest","9759","6","15","Male","","","","","","","null","<div style=""font-size:60px;"">+</div>","null","fixation","","","","","","","","","","","",""
"revaluation","289","1134627","0.0-4.0-10.0-0.6","spark_pilot_norest","9759","6","15","Male","","false","","","","","[213.89999997615814]","./assets/img/canyon/animals/giraffe.jpg","[""ArrowRight""]","second stage test","canyon","0","{""ArrowUp,ArrowLeft"":27,""ArrowUp,ArrowRight"":15,""ArrowDown,ArrowLeft"":21,""ArrowDown,ArrowRight"":7}","false","ArrowDown,ArrowRight","","revaluation","1","","","",""
"html-keyboard-response","290","1135139","0.0-4.0-10.0-1.6","spark_pilot_norest","9759","6","15","Male","","","","","","","null","<div style=""font-size:60px;"">+</div>","null","fixation","","","","","","","","","","","",""
"revaluation","291","1135211","0.0-4.0-10.0-0.7","spark_pilot_norest","9759","6","15","Male","","false","","","","","[66.59999990463257]","./assets/img/canyon/animals/giraffe.jpg","[""ArrowRight""]","second stage test","canyon","0","{""ArrowUp,ArrowLeft"":27,""ArrowUp,ArrowRight"":15,""ArrowDown,ArrowLeft"":21,""ArrowDown,ArrowRight"":7}","false","ArrowDown,ArrowRight","","revaluation","1","","","",""
"html-keyboard-response","292","1135727","0.0-4.0-10.0-1.7","spark_pilot_norest","9759","6","15","Male","","","","","","","null","<div style=""font-size:60px;"">+</div>","null","fixation","","","","","","","","","","","",""
"learning-instructions","293","1211202","0.0-4.0-0.1-0.2","spark_pilot_norest","9759","6","15","Male","","","","","","","72641.69999992847","<p> This time you are searching for treasure in the <b>ocean</b>.</p>","","instructions","","","","","","","","","","","",""
"learning-instructions","294","1229586","0.0-4.0-0.1-0.3","spark_pilot_norest","9759","6","15","Male","","","","","","","1067","<p><b>New</b> animals with <b>new</b> treasure chests live here. You need to explore to discover where the animal with the best treasure chest is.</p>
                    <p> Like before, once you figure out which animal has the chest with the most treasure, you should try to get to that animal and select that chest! </p>","","instructions","","","","","","","","","","","",""
"learning-instructions","295","1247322","0.0-4.0-1.1-0.1","spark_pilot_norest","9759","6","15","Male","","","","","","","3012.6999999284744","<p> Remember, when you see a picture of the place, use the up and down keys to <b>find an animal</b>.</p>
            <p> When you encounter an animal, you should use the left and right keys to <b>select a treasure chest</b>.</p>
            <p> Don't forget to look out for the robber! </p>","","instructions","","","","","","","","","","","",""
"revaluation","296","1253343","0.0-4.0-2.1-0.50","spark_pilot_norest","9759","6","15","Male","","false","","","","","[1207.8999999761581,1110.5]","./assets/img/ocean/memory/11.jpg","[""ArrowDown"",""ArrowRight""]","value training","ocean","17","{""ArrowUp,ArrowLeft"":26,""ArrowUp,ArrowRight"":10,""ArrowDown,ArrowLeft"":5,""ArrowDown,ArrowRight"":17}","false","ArrowDown,ArrowRight","false","original","2","0","","",""
"html-keyboard-response","297","1253854","0.0-4.0-2.1-1.50","spark_pilot_norest","9759","6","15","Male","","","","","","","null","<div style=""font-size:60px;"">+</div>","null","fixation","","","","","","","","","1","","",""
"revaluation","298","1259870","0.0-4.0-2.1-0.51","spark_pilot_norest","9759","6","15","Male","","false","","","","","[231.60000002384186,191.79999995231628]","./assets/img/ocean/memory/3.jpg","[""ArrowUp"",""ArrowRight""]","value training","ocean","10","{""ArrowUp,ArrowLeft"":26,""ArrowUp,ArrowRight"":10,""ArrowDown,ArrowLeft"":5,""ArrowDown,ArrowRight"":17}","false","ArrowUp,ArrowRight","false","original","2","2","","",""
"html-keyboard-response","299","1260384","0.0-4.0-2.1-1.51","spark_pilot_norest","9759","6","15","Male","","","","","","","null","<div style=""font-size:60px;"">+</div>","null","fixation","","","","","","","","","3","","",""
"revaluation","300","1264391","0.0-4.0-2.1-0.52","spark_pilot_norest","9759","6","15","Male","","false","","","","","[237.5]","./assets/img/ocean/catch/4.jpg","[""ArrowDown""]","value training","ocean","-10","{""ArrowUp,ArrowLeft"":26,""ArrowUp,ArrowRight"":10,""ArrowDown,ArrowLeft"":5,""ArrowDown,ArrowRight"":17}","false","ArrowDown","true","original","2","4","","",""
"html-keyboard-response","301","1264899","0.0-4.0-2.1-1.52","spark_pilot_norest","9759","6","15","Male","","","","","","","null","<div style=""font-size:60px;"">+</div>","null","fixation","","","","","","","","","5","","",""
"revaluation","302","1270923","0.0-4.0-2.1-0.53","spark_pilot_norest","9759","6","15","Male","","false","","","","","[699.2000000476837,274]","./assets/img/ocean/memory/15.jpg","[""ArrowDown"",""ArrowLeft""]","value training","ocean","5","{""ArrowUp,ArrowLeft"":26,""ArrowUp,ArrowRight"":10,""ArrowDown,ArrowLeft"":5,""ArrowDown,ArrowRight"":17}","false","ArrowDown,ArrowLeft","false","original","2","6","","",""
"html-keyboard-response","303","1271432","0.0-4.0-2.1-1.53","spark_pilot_norest","9759","6","15","Male","","","","","","","null","<div style=""font-size:60px;"">+</div>","null","fixation","","","","","","","","","7","","",""
"revaluation","304","1277441","0.0-4.0-2.1-0.54","spark_pilot_norest","9759","6","15","Male","","false","","","","","[509.7999999523163,91.19999992847443]","./assets/img/ocean/memory/29.jpg","[""ArrowUp"",""ArrowLeft""]","value training","ocean","26","{""ArrowUp,ArrowLeft"":26,""ArrowUp,ArrowRight"":10,""ArrowDown,ArrowLeft"":5,""ArrowDown,ArrowRight"":17}","true","ArrowUp,ArrowLeft","false","original","2","8","","",""
"html-keyboard-response","305","1277943","0.0-4.0-2.1-1.54","spark_pilot_norest","9759","6","15","Male","","","","","","","null","<div style=""font-size:60px;"">+</div>","null","fixation","","","","","","","","","9","","",""
"revaluation","306","1283951","0.0-4.0-2.1-0.55","spark_pilot_norest","9759","6","15","Male","","false","","","","","[422.6999999284744,357.8000000715256]","./assets/img/ocean/memory/18.jpg","[""ArrowUp"",""ArrowLeft""]","value training","ocean","26","{""ArrowUp,ArrowLeft"":26,""ArrowUp,ArrowRight"":10,""ArrowDown,ArrowLeft"":5,""ArrowDown,ArrowRight"":17}","true","ArrowUp,ArrowLeft","false","original","2","10","","",""
"html-keyboard-response","307","1284453","0.0-4.0-2.1-1.55","spark_pilot_norest","9759","6","15","Male","","","","","","","null","<div style=""font-size:60px;"">+</div>","null","fixation","","","","","","","","","11","","",""
"revaluation","308","1290461","0.0-4.0-2.1-0.56","spark_pilot_norest","9759","6","15","Male","","false","","","","","[352.8000000715256,336.3000000715256]","./assets/img/ocean/memory/32.jpg","[""ArrowUp"",""ArrowLeft""]","value training","ocean","26","{""ArrowUp,ArrowLeft"":26,""ArrowUp,ArrowRight"":10,""ArrowDown,ArrowLeft"":5,""ArrowDown,ArrowRight"":17}","true","ArrowUp,ArrowLeft","false","original","2","12","","",""
"html-keyboard-response","309","1290963","0.0-4.0-2.1-1.56","spark_pilot_norest","9759","6","15","Male","","","","","","","null","<div style=""font-size:60px;"">+</div>","null","fixation","","","","","","","","","13","","",""
"revaluation","310","1296970","0.0-4.0-2.1-0.57","spark_pilot_norest","9759","6","15","Male","","false","","","","","[404.10000002384186,378.2999999523163]","./assets/img/ocean/memory/3.jpg","[""ArrowUp"",""ArrowLeft""]","value training","ocean","26","{""ArrowUp,ArrowLeft"":26,""ArrowUp,ArrowRight"":10,""ArrowDown,ArrowLeft"":5,""ArrowDown,ArrowRight"":17}","true","ArrowUp,ArrowLeft","false","original","2","14","","",""
"html-keyboard-response","311","1297472","0.0-4.0-2.1-1.57","spark_pilot_norest","9759","6","15","Male","","","","","","","null","<div style=""font-size:60px;"">+</div>","null","fixation","","","","","","","","","15","","",""
