"trial_type","trial_index","time_elapsed","internal_node_id","task_version","subject_id","assigned_condition","age","gender","success","timeout","failed_images","failed_audio","failed_video","browser_interaction","rt","stimulus","response","task_part","environment","score","rewardMap","correct","fullState","isCatch","condition","order","trial_num","key_press","ground_truth","bonus"
"pavlovia","0","1998","0.0-0.0","spark_pilot_norest","8609","7","13","Male","","","","","","","","","","","","","","","","","","","","","",""
"preload","1","52206","0.0-1.0","spark_pilot_norest","8609","7","13","Male","true","false","[]","[]","[]","[{""event"":""fullscreenenter"",""trial"":2,""time"":55803},{""event"":""blur"",""trial"":549,""time"":1806085},{""event"":""focus"",""trial"":551,""time"":1807653}]","","","","","","","","","","","","","","","",""
"fullscreen","2","56498","0.0-2.0","spark_pilot_norest","8609","7","13","Male","true","","","","","","","","","","","","","","","","","","","","",""
"audio-button-response","3","60700","0.0-3.0-0.0-0.0","spark_pilot_norest","8609","7","13","Male","","","","","","","4061","./assets/audio/audiotest/turtle.mp3","4","audio_test","","","","","","","","","","","",""
"audio-button-response","4","63020","0.0-3.0-0.1-0.1","spark_pilot_norest","8609","7","13","Male","","","","","","","1309","./assets/audio/audiotest/turtle.mp3","2","audio_test","","","","","","","","","","","",""
"learning-instructions","5","71908","0.0-3.0-1.0-0.0","spark_pilot_norest","8609","7","13","Male","","","","","","","1768","<p> Welcome! Please remember to stay in fullscreen mode and don't click away from the experiment. </p>","","instructions","","","","","","","","","","","",""
"learning-instructions","6","81789","0.0-3.0-1.0-0.1","spark_pilot_norest","8609","7","13","Male","","","","","","","1288","<p> Today you will be playing a game to earn treasure. </p>
            <p> At the end of the experiment, you will earn a bonus based on how much treasure you find. </p>
            <img src='./assets/img/instructions/treasure.jpg' class='instructions-image'>","","instructions","","","","","","","","","","","",""
"learning-instructions","7","90771","0.0-3.0-1.0-0.2","spark_pilot_norest","8609","7","13","Male","","","","","","","542","<p> Animals have hidden treasure in treasure chests. </p>
            <p> You need to first find an animal and then choose which of their treasure chests to search. </p>
            <img src='./assets/img/space/animals/cat.jpg' class='instructions-image'>","","instructions","","","","","","","","","","","",""
"learning-instructions","8","104724","0.0-3.0-1.0-0.3","spark_pilot_norest","8609","7","13","Male","","","","","","","553","<p> In each round, you will search for treasure in a different place. In the real game, there will be two rounds. </p>
            <p> You will begin with a separate, practice round where you will search for treasure in outer space. </p>
            <img src='./assets/img/space/0.jpg' class='instructions-image'>","","instructions","","","","","","","","","","","",""
"learning-instructions","9","116940","0.0-3.0-1.0-0.4","spark_pilot_norest","8609","7","13","Male","","","","","","","600","<p> On every turn, you will see a picture of the place that you are in, but the specific image may be different each time. </p>
            <p> For example, both of these images mean you are in outer space. </p>
            <img src='./assets/img/instructions/outerspace.jpg' class='instructions-image'>","","instructions","","","","","","","","","","","",""
"learning-instructions","10","125163","0.0-3.0-1.0-0.5","spark_pilot_norest","8609","7","13","Male","","","","","","","253","<p> You need to decide which direction to travel in. </p>
            <p> You can choose between going <b>up or down</b> by using the arrow keys. </p>
            <img src='./assets/img/instructions/updown.jpg' class='instructions-image'>","","instructions","","","","","","","","","","","",""
"learning-instructions","11","134692","0.0-3.0-1.0-0.6","spark_pilot_norest","8609","7","13","Male","","","","","","","521","<p> You will have <b>2 seconds</b> to make your choice. </p>
            <p> If you do not make a choice within 2 seconds, you will not find an animal or earn treasure. </p>
            <img src='./assets/img/instructions/2seconds.jpg' class='instructions-image'>","","instructions","","","","","","","","","","","",""
"learning-instructions","12","142267","0.0-3.0-1.0-0.7","spark_pilot_norest","8609","7","13","Male","","","","","","","418","<p> Let’s try practicing that now! </p>
            <p> When you see a picture of the place you are in, press the <b>up</b> key to travel up. </p>
            <img src='./assets/img/instructions/pressUp.jpg' class='instructions-image'>","","instructions","","","","","","","","","","","",""
"revaluation","13","146289","0.0-3.0-2.0-0.0","spark_pilot_norest","8609","7","13","Male","","false","","","","","[687]","./assets/img/space/0.jpg","[""ArrowUp""]","first stage practice","space","0","null","null","ArrowUp","false","","","","","",""
"html-keyboard-response","14","146803","0.0-3.0-2.0-1.0","spark_pilot_norest","8609","7","13","Male","","","","","","","null","<div style=""font-size:60px;"">+</div>","null","fixation","","","","","","","","","","","",""
"revaluation","15","150820","0.0-3.0-2.0-0.1","spark_pilot_norest","8609","7","13","Male","","false","","","","","[1603]","./assets/img/space/1.jpg","[""ArrowUp""]","first stage practice","space","0","null","null","ArrowUp","false","","","","","",""
"html-keyboard-response","16","151333","0.0-3.0-2.0-1.1","spark_pilot_norest","8609","7","13","Male","","","","","","","null","<div style=""font-size:60px;"">+</div>","null","fixation","","","","","","","","","","","",""
"revaluation","17","155389","0.0-3.0-2.0-0.2","spark_pilot_norest","8609","7","13","Male","","false","","","","","[270]","./assets/img/space/2.jpg","[""ArrowUp""]","first stage practice","space","0","null","null","ArrowUp","false","","","","","",""
"html-keyboard-response","18","155897","0.0-3.0-2.0-1.2","spark_pilot_norest","8609","7","13","Male","","","","","","","null","<div style=""font-size:60px;"">+</div>","null","fixation","","","","","","","","","","","",""
"learning-instructions","19","160844","0.0-3.0-3.0-0.0","spark_pilot_norest","8609","7","13","Male","","","","","","","154","<p> Great job! Now try pressing the <b>down</b> key to travel down. </p>
            <img src='./assets/img/instructions/pressDown.jpg' class='instructions-image'>","","instructions","","","","","","","","","","","",""
"revaluation","20","164869","0.0-3.0-4.0-0.0","spark_pilot_norest","8609","7","13","Male","","false","","","","","[534]","./assets/img/space/3.jpg","[""ArrowDown""]","first stage practice","space","0","null","null","ArrowDown","false","","","","","",""
"html-keyboard-response","21","165388","0.0-3.0-4.0-1.0","spark_pilot_norest","8609","7","13","Male","","","","","","","null","<div style=""font-size:60px;"">+</div>","null","fixation","","","","","","","","","","","",""
"revaluation","22","169413","0.0-3.0-4.0-0.1","spark_pilot_norest","8609","7","13","Male","","false","","","","","[838]","./assets/img/space/4.jpg","[""ArrowDown""]","first stage practice","space","0","null","null","ArrowDown","false","","","","","",""
"html-keyboard-response","23","169927","0.0-3.0-4.0-1.1","spark_pilot_norest","8609","7","13","Male","","","","","","","null","<div style=""font-size:60px;"">+</div>","null","fixation","","","","","","","","","","","",""
"revaluation","24","173944","0.0-3.0-4.0-0.2","spark_pilot_norest","8609","7","13","Male","","true","","","","","[]","./assets/img/space/5.jpg","[]","first stage practice","space","-5","null","null","","false","","","","","",""
"html-keyboard-response","25","174467","0.0-3.0-4.0-1.2","spark_pilot_norest","8609","7","13","Male","","","","","","","null","<div style=""font-size:60px;"">+</div>","null","fixation","","","","","","","","","","","",""
"learning-instructions","26","185612","0.0-3.0-5.0-0.0","spark_pilot_norest","8609","7","13","Male","","","","","","","1112","<p> The animals don’t move, so the animal in the upper part of a place will stay in the upper part of a place, and the animal in the lower part of a place will stay in the lower part of a place. </p>","","instructions","","","","","","","","","","","",""
"learning-instructions","27","195380","0.0-3.0-5.0-0.1","spark_pilot_norest","8609","7","13","Male","","","","","","","481","<p> Each animal has two treasure chests for you to choose from. </p>
            <p> The amount of treasure in each chest can range from <b> 0 to 40 pieces.</b></p>","","instructions","","","","","","","","","","","",""
"learning-instructions","28","207227","0.0-3.0-5.0-0.2","spark_pilot_norest","8609","7","13","Male","","","","","","","478","<p> You should decide which chest to search for treasure by using the <b>left</b> and <b>right</b> arrow keys. </p>
            <p><b> Pay attention to which animal is on the screen, as the animals have different treasure chests. </b></p>
            <img src='./assets/img/instructions/leftright.jpg' class='instructions-image'>","","instructions","","","","","","","","","","","",""
"learning-instructions","29","214276","0.0-3.0-5.0-0.3","spark_pilot_norest","8609","7","13","Male","","","","","","","565","<p> Let’s try practicing that now. </p>
            <p> When you see an animal, choose which chest to search for treasure. </p>
            <img src='./assets/img/instructions/chooseChest.jpg' class='instructions-image'>","","instructions","","","","","","","","","","","",""
"revaluation","30","218309","0.0-3.0-6.0-0.0","spark_pilot_norest","8609","7","13","Male","","false","","","","","[687]","./assets/img/space/animals/cat.jpg","[""ArrowLeft""]","second stage practice","space","3","{""ArrowUp,ArrowLeft"":3,""ArrowUp,ArrowRight"":36,""ArrowDown,ArrowLeft"":15,""ArrowDown,ArrowRight"":23}","false","ArrowUp,ArrowLeft","","","","","","",""
"html-keyboard-response","31","218818","0.0-3.0-6.0-1.0","spark_pilot_norest","8609","7","13","Male","","","","","","","null","<div style=""font-size:60px;"">+</div>","null","fixation","","","","","","","","","","","",""
"revaluation","32","222860","0.0-3.0-6.0-0.1","spark_pilot_norest","8609","7","13","Male","","false","","","","","[774]","./assets/img/space/animals/rabbit.jpg","[""ArrowLeft""]","second stage practice","space","15","{""ArrowUp,ArrowLeft"":3,""ArrowUp,ArrowRight"":36,""ArrowDown,ArrowLeft"":15,""ArrowDown,ArrowRight"":23}","false","ArrowDown,ArrowLeft","","","","","","",""
"html-keyboard-response","33","223363","0.0-3.0-6.0-1.1","spark_pilot_norest","8609","7","13","Male","","","","","","","null","<div style=""font-size:60px;"">+</div>","null","fixation","","","","","","","","","","","",""
"revaluation","34","227389","0.0-3.0-6.0-0.2","spark_pilot_norest","8609","7","13","Male","","false","","","","","[404]","./assets/img/space/animals/cat.jpg","[""ArrowRight""]","second stage practice","space","36","{""ArrowUp,ArrowLeft"":3,""ArrowUp,ArrowRight"":36,""ArrowDown,ArrowLeft"":15,""ArrowDown,ArrowRight"":23}","true","ArrowUp,ArrowRight","","","","","","",""
"html-keyboard-response","35","227903","0.0-3.0-6.0-1.2","spark_pilot_norest","8609","7","13","Male","","","","","","","null","<div style=""font-size:60px;"">+</div>","null","fixation","","","","","","","","","","","",""
"revaluation","36","231934","0.0-3.0-6.0-0.3","spark_pilot_norest","8609","7","13","Male","","false","","","","","[772]","./assets/img/space/animals/rabbit.jpg","[""ArrowRight""]","second stage practice","space","23","{""ArrowUp,ArrowLeft"":3,""ArrowUp,ArrowRight"":36,""ArrowDown,ArrowLeft"":15,""ArrowDown,ArrowRight"":23}","true","ArrowDown,ArrowRight","","","","","","",""
"html-keyboard-response","37","232448","0.0-3.0-6.0-1.3","spark_pilot_norest","8609","7","13","Male","","","","","","","null","<div style=""font-size:60px;"">+</div>","null","fixation","","","","","","","","","","","",""
"learning-instructions","38","250084","0.0-3.0-7.0-0.0","spark_pilot_norest","8609","7","13","Male","","","","","","","583","<p> Great job. Now let’s try putting it together. </p>
            <p> On each turn, you will first see a picture to remind you of the place you are in, and you need to choose whether to go up or down. </p>
            <p> Then you will see an animal and choose which of its chests to search for treasure. </p>","","instructions","","","","","","","","","","","",""
"learning-instructions","39","259020","0.0-3.0-7.0-0.1","spark_pilot_norest","8609","7","13","Male","","","","","","","511","<p> When you choose whether to go up or down, try to go to the animal with the chest with the most treasure. </p>
            <p> Try practicing that now! </p>","","instructions","","","","","","","","","","","",""
"revaluation","40","265059","0.0-3.0-8.0-0.0","spark_pilot_norest","8609","7","13","Male","","false","","","","","[798,570]","./assets/img/space/6.jpg","[""ArrowUp"",""ArrowRight""]","full practice","space","36","{""ArrowUp,ArrowLeft"":3,""ArrowUp,ArrowRight"":36,""ArrowDown,ArrowLeft"":15,""ArrowDown,ArrowRight"":23}","true","ArrowUp,ArrowRight","false","","","","","",""
"html-keyboard-response","41","265562","0.0-3.0-8.0-1.0","spark_pilot_norest","8609","7","13","Male","","","","","","","null","<div style=""font-size:60px;"">+</div>","null","fixation","","","","","","","","","","","",""
"revaluation","42","271589","0.0-3.0-8.0-0.1","spark_pilot_norest","8609","7","13","Male","","false","","","","","[672,467]","./assets/img/space/7.jpg","[""ArrowUp"",""ArrowRight""]","full practice","space","36","{""ArrowUp,ArrowLeft"":3,""ArrowUp,ArrowRight"":36,""ArrowDown,ArrowLeft"":15,""ArrowDown,ArrowRight"":23}","true","ArrowUp,ArrowRight","false","","","","","",""
"html-keyboard-response","43","272108","0.0-3.0-8.0-1.1","spark_pilot_norest","8609","7","13","Male","","","","","","","null","<div style=""font-size:60px;"">+</div>","null","fixation","","","","","","","","","","","",""
"revaluation","44","278149","0.0-3.0-8.0-0.2","spark_pilot_norest","8609","7","13","Male","","false","","","","","[438,393]","./assets/img/space/8.jpg","[""ArrowUp"",""ArrowRight""]","full practice","space","36","{""ArrowUp,ArrowLeft"":3,""ArrowUp,ArrowRight"":36,""ArrowDown,ArrowLeft"":15,""ArrowDown,ArrowRight"":23}","true","ArrowUp,ArrowRight","false","","","","","",""
"html-keyboard-response","45","278663","0.0-3.0-8.0-1.2","spark_pilot_norest","8609","7","13","Male","","","","","","","null","<div style=""font-size:60px;"">+</div>","null","fixation","","","","","","","","","","","",""
"revaluation","46","284689","0.0-3.0-8.0-0.3","spark_pilot_norest","8609","7","13","Male","","false","","","","","[369,506]","./assets/img/space/9.jpg","[""ArrowDown"",""ArrowRight""]","full practice","space","23","{""ArrowUp,ArrowLeft"":3,""ArrowUp,ArrowRight"":36,""ArrowDown,ArrowLeft"":15,""ArrowDown,ArrowRight"":23}","false","ArrowDown,ArrowRight","false","","","","","",""
"html-keyboard-response","47","285198","0.0-3.0-8.0-1.3","spark_pilot_norest","8609","7","13","Male","","","","","","","null","<div style=""font-size:60px;"">+</div>","null","fixation","","","","","","","","","","","",""
"revaluation","48","291239","0.0-3.0-8.0-0.4","spark_pilot_norest","8609","7","13","Male","","false","","","","","[365,789]","./assets/img/space/10.jpg","[""ArrowDown"",""ArrowLeft""]","full practice","space","15","{""ArrowUp,ArrowLeft"":3,""ArrowUp,ArrowRight"":36,""ArrowDown,ArrowLeft"":15,""ArrowDown,ArrowRight"":23}","false","ArrowDown,ArrowLeft","false","","","","","",""
"html-keyboard-response","49","291752","0.0-3.0-8.0-1.4","spark_pilot_norest","8609","7","13","Male","","","","","","","null","<div style=""font-size:60px;"">+</div>","null","fixation","","","","","","","","","","","",""
"learning-instructions","50","303475","0.0-3.0-9.0-0.0","spark_pilot_norest","8609","7","13","Male","","","","","","","1256","<p> One last thing: sometimes, you will see a robber. The robber can be anywhere in the picture. </p>
            <p> If you do not stop them, you will lose treasure. </p>
            <img src='./assets/img/instructions/robber.jpg' class='instructions-image'>","","instructions","","","","","","","","","","","",""
"learning-instructions","51","311181","0.0-3.0-9.0-0.1","spark_pilot_norest","8609","7","13","Male","","","","","","","400","<p> If you see the robber, you should <b>press the space bar</b> rather than using the arrow keys. </p>
            <p> Try practicing that now! </p>","","instructions","","","","","","","","","","","",""
"revaluation","52","315219","0.0-3.0-10.0-0.0","spark_pilot_norest","8609","7","13","Male","","false","","","","","[367]","./assets/img/space/catch/0.jpg","[""spaceBar""]","catch practice","space","0","{""ArrowUp,ArrowLeft"":3,""ArrowUp,ArrowRight"":36,""ArrowDown,ArrowLeft"":15,""ArrowDown,ArrowRight"":23}","true","spaceBar","true","","","","","",""
"html-keyboard-response","53","315728","0.0-3.0-10.0-1.0","spark_pilot_norest","8609","7","13","Male","","","","","","","null","<div style=""font-size:60px;"">+</div>","null","fixation","","","","","","","","","","","",""
"revaluation","54","319769","0.0-3.0-10.0-0.1","spark_pilot_norest","8609","7","13","Male","","false","","","","","[481]","./assets/img/space/catch/1.jpg","[""spaceBar""]","catch practice","space","0","{""ArrowUp,ArrowLeft"":3,""ArrowUp,ArrowRight"":36,""ArrowDown,ArrowLeft"":15,""ArrowDown,ArrowRight"":23}","true","spaceBar","true","","","","","",""
"html-keyboard-response","55","320288","0.0-3.0-10.0-1.1","spark_pilot_norest","8609","7","13","Male","","","","","","","null","<div style=""font-size:60px;"">+</div>","null","fixation","","","","","","","","","","","",""
"revaluation","56","324319","0.0-3.0-10.0-0.2","spark_pilot_norest","8609","7","13","Male","","false","","","","","[658]","./assets/img/space/catch/2.jpg","[""spaceBar""]","catch practice","space","0","{""ArrowUp,ArrowLeft"":3,""ArrowUp,ArrowRight"":36,""ArrowDown,ArrowLeft"":15,""ArrowDown,ArrowRight"":23}","true","spaceBar","true","","","","","",""
"html-keyboard-response","57","324837","0.0-3.0-10.0-1.2","spark_pilot_norest","8609","7","13","Male","","","","","","","null","<div style=""font-size:60px;"">+</div>","null","fixation","","","","","","","","","","","",""
"learning-instructions","58","331301","0.0-3.0-11.0-0.0-0.0","spark_pilot_norest","8609","7","13","Male","","","","","","","1121","<p> Now, you will practice a shortened version of the game to get a sense of how it all fits together. </p>","","instructions","","","","","","","","","","","",""
"learning-instructions","59","334860","0.0-3.0-11.0-0.0-0.1","spark_pilot_norest","8609","7","13","Male","","","","","","","291","<p>This time you are searching for treasure in outer space.</p>","","instructions","","","","","","","","","","","",""
"learning-instructions","60","350340","0.0-3.0-11.0-1.0-0.0","spark_pilot_norest","8609","7","13","Male","","","","","","","491","<p> Remember, when you see a picture of the place, use the up and down keys to <b>find an animal</b>.</p>
            <p> When you encounter an animal, you should use the left and right keys to <b>select a treasure chest</b>.</p>
            <p> Don't forget to look out for the robber! </p>","","instructions","","","","","","","","","","","",""
"revaluation","61","354363","0.0-3.0-11.0-2.0-0.0","spark_pilot_norest","8609","7","13","Male","","true","","","","","[]","./assets/img/space/11.jpg","[]","practice block","space","-5","{""ArrowUp,ArrowLeft"":3,""ArrowUp,ArrowRight"":36,""ArrowDown,ArrowLeft"":15,""ArrowDown,ArrowRight"":23}","false","","false","","","","","",""
"html-keyboard-response","62","354873","0.0-3.0-11.0-2.0-1.0","spark_pilot_norest","8609","7","13","Male","","","","","","","null","<div style=""font-size:60px;"">+</div>","null","fixation","","","","","","","","","","","",""
"revaluation","63","360913","0.0-3.0-11.0-2.0-0.1","spark_pilot_norest","8609","7","13","Male","","false","","","","","[857,624]","./assets/img/space/12.jpg","[""ArrowUp"",""ArrowRight""]","practice block","space","36","{""ArrowUp,ArrowLeft"":3,""ArrowUp,ArrowRight"":36,""ArrowDown,ArrowLeft"":15,""ArrowDown,ArrowRight"":23}","true","ArrowUp,ArrowRight","false","","","","","",""
"html-keyboard-response","64","361427","0.0-3.0-11.0-2.0-1.1","spark_pilot_norest","8609","7","13","Male","","","","","","","null","<div style=""font-size:60px;"">+</div>","null","fixation","","","","","","","","","","","",""
"revaluation","65","367470","0.0-3.0-11.0-2.0-0.2","spark_pilot_norest","8609","7","13","Male","","false","","","","","[721,306]","./assets/img/space/13.jpg","[""ArrowUp"",""ArrowLeft""]","practice block","space","3","{""ArrowUp,ArrowLeft"":3,""ArrowUp,ArrowRight"":36,""ArrowDown,ArrowLeft"":15,""ArrowDown,ArrowRight"":23}","false","ArrowUp,ArrowLeft","false","","","","","",""
"html-keyboard-response","66","367988","0.0-3.0-11.0-2.0-1.2","spark_pilot_norest","8609","7","13","Male","","","","","","","null","<div style=""font-size:60px;"">+</div>","null","fixation","","","","","","","","","","","",""
"revaluation","67","374019","0.0-3.0-11.0-2.0-0.3","spark_pilot_norest","8609","7","13","Male","","false","","","","","[381,380]","./assets/img/space/14.jpg","[""ArrowUp"",""ArrowRight""]","practice block","space","36","{""ArrowUp,ArrowLeft"":3,""ArrowUp,ArrowRight"":36,""ArrowDown,ArrowLeft"":15,""ArrowDown,ArrowRight"":23}","true","ArrowUp,ArrowRight","false","","","","","",""
"html-keyboard-response","68","374538","0.0-3.0-11.0-2.0-1.3","spark_pilot_norest","8609","7","13","Male","","","","","","","null","<div style=""font-size:60px;"">+</div>","null","fixation","","","","","","","","","","","",""
"revaluation","69","380579","0.0-3.0-11.0-2.0-0.4","spark_pilot_norest","8609","7","13","Male","","false","","","","","[816,347]","./assets/img/space/11.jpg","[""ArrowUp"",""ArrowRight""]","practice block","space","36","{""ArrowUp,ArrowLeft"":3,""ArrowUp,ArrowRight"":36,""ArrowDown,ArrowLeft"":15,""ArrowDown,ArrowRight"":23}","true","ArrowUp,ArrowRight","false","","","","","",""
"html-keyboard-response","70","381097","0.0-3.0-11.0-2.0-1.4","spark_pilot_norest","8609","7","13","Male","","","","","","","null","<div style=""font-size:60px;"">+</div>","null","fixation","","","","","","","","","","","",""
"revaluation","71","387133","0.0-3.0-11.0-2.0-0.5","spark_pilot_norest","8609","7","13","Male","","false","","","","","[600,363]","./assets/img/space/12.jpg","[""ArrowUp"",""ArrowRight""]","practice block","space","36","{""ArrowUp,ArrowLeft"":3,""ArrowUp,ArrowRight"":36,""ArrowDown,ArrowLeft"":15,""ArrowDown,ArrowRight"":23}","true","ArrowUp,ArrowRight","false","","","","","",""
"html-keyboard-response","72","387647","0.0-3.0-11.0-2.0-1.5","spark_pilot_norest","8609","7","13","Male","","","","","","","null","<div style=""font-size:60px;"">+</div>","null","fixation","","","","","","","","","","","",""
"revaluation","73","393699","0.0-3.0-11.0-2.0-0.6","spark_pilot_norest","8609","7","13","Male","","false","","","","","[802,158]","./assets/img/space/13.jpg","[""ArrowUp"",""ArrowRight""]","practice block","space","36","{""ArrowUp,ArrowLeft"":3,""ArrowUp,ArrowRight"":36,""ArrowDown,ArrowLeft"":15,""ArrowDown,ArrowRight"":23}","true","ArrowUp,ArrowRight","false","","","","","",""
"html-keyboard-response","74","394218","0.0-3.0-11.0-2.0-1.6","spark_pilot_norest","8609","7","13","Male","","","","","","","null","<div style=""font-size:60px;"">+</div>","null","fixation","","","","","","","","","","","",""
"revaluation","75","400269","0.0-3.0-11.0-2.0-0.7","spark_pilot_norest","8609","7","13","Male","","false","","","","","[480,605]","./assets/img/space/14.jpg","[""ArrowUp"",""ArrowRight""]","practice block","space","36","{""ArrowUp,ArrowLeft"":3,""ArrowUp,ArrowRight"":36,""ArrowDown,ArrowLeft"":15,""ArrowDown,ArrowRight"":23}","true","ArrowUp,ArrowRight","false","","","","","",""
"html-keyboard-response","76","400778","0.0-3.0-11.0-2.0-1.7","spark_pilot_norest","8609","7","13","Male","","","","","","","null","<div style=""font-size:60px;"">+</div>","null","fixation","","","","","","","","","","","",""
"revaluation","77","404789","0.0-3.0-11.0-2.0-0.8","spark_pilot_norest","8609","7","13","Male","","false","","","","","[143]","./assets/img/space/catch/3.jpg","[""spaceBar""]","practice block","space","0","{""ArrowUp,ArrowLeft"":3,""ArrowUp,ArrowRight"":36,""ArrowDown,ArrowLeft"":15,""ArrowDown,ArrowRight"":23}","true","spaceBar","true","","","","","",""
"html-keyboard-response","78","405308","0.0-3.0-11.0-2.0-1.8","spark_pilot_norest","8609","7","13","Male","","","","","","","null","<div style=""font-size:60px;"">+</div>","null","fixation","","","","","","","","","","","",""
"learning-instructions","79","420300","0.0-3.0-11.0-3.0-0.0","spark_pilot_norest","8609","7","13","Male","","","","","","","1870","<p> Now, you will travel with a friend who will choose whether you go up or down first. </p>
            <p> On these turns, you will just see the animal that they found. You will still get to choose which chest to search for treasure.</p>","","instructions","","","","","","","","","","","",""
"revaluation","80","424329","0.0-3.0-11.0-4.0-0.0","spark_pilot_norest","8609","7","13","Male","","false","","","","","[1488]","./assets/img/space/animals/cat.jpg","[""ArrowRight""]","practice block","space","36","{""ArrowUp,ArrowLeft"":3,""ArrowUp,ArrowRight"":36,""ArrowDown,ArrowLeft"":15,""ArrowDown,ArrowRight"":23}","true","ArrowUp,ArrowRight","","","","","","",""
"html-keyboard-response","81","424848","0.0-3.0-11.0-4.0-1.0","spark_pilot_norest","8609","7","13","Male","","","","","","","null","<div style=""font-size:60px;"">+</div>","null","fixation","","","","","","","","","","","",""
"revaluation","82","428863","0.0-3.0-11.0-4.0-0.1","spark_pilot_norest","8609","7","13","Male","","false","","","","","[577]","./assets/img/space/animals/rabbit.jpg","[""ArrowLeft""]","practice block","space","15","{""ArrowUp,ArrowLeft"":3,""ArrowUp,ArrowRight"":36,""ArrowDown,ArrowLeft"":15,""ArrowDown,ArrowRight"":23}","false","ArrowDown,ArrowLeft","","","","","","",""
"html-keyboard-response","83","429378","0.0-3.0-11.0-4.0-1.1","spark_pilot_norest","8609","7","13","Male","","","","","","","null","<div style=""font-size:60px;"">+</div>","null","fixation","","","","","","","","","","","",""
"revaluation","84","433404","0.0-3.0-11.0-4.0-0.2","spark_pilot_norest","8609","7","13","Male","","false","","","","","[506]","./assets/img/space/animals/cat.jpg","[""ArrowRight""]","practice block","space","36","{""ArrowUp,ArrowLeft"":3,""ArrowUp,ArrowRight"":36,""ArrowDown,ArrowLeft"":15,""ArrowDown,ArrowRight"":23}","true","ArrowUp,ArrowRight","","","","","","",""
"html-keyboard-response","85","433918","0.0-3.0-11.0-4.0-1.2","spark_pilot_norest","8609","7","13","Male","","","","","","","null","<div style=""font-size:60px;"">+</div>","null","fixation","","","","","","","","","","","",""
"revaluation","86","437949","0.0-3.0-11.0-4.0-0.3","spark_pilot_norest","8609","7","13","Male","","false","","","","","[333]","./assets/img/space/animals/rabbit.jpg","[""ArrowRight""]","practice block","space","23","{""ArrowUp,ArrowLeft"":3,""ArrowUp,ArrowRight"":36,""ArrowDown,ArrowLeft"":15,""ArrowDown,ArrowRight"":23}","true","ArrowDown,ArrowRight","","","","","","",""
"html-keyboard-response","87","438458","0.0-3.0-11.0-4.0-1.3","spark_pilot_norest","8609","7","13","Male","","","","","","","null","<div style=""font-size:60px;"">+</div>","null","fixation","","","","","","","","","","","",""
"learning-instructions","88","446693","0.0-3.0-11.0-5.0-0.0","spark_pilot_norest","8609","7","13","Male","","","","","","","null","<p> You have almost finished this part of the game! </p>
            <p> We are going to ask you to make a few more choices. </p>","","instructions","","","","","","","","","","","",""
"learning-instructions","89","462923","0.0-3.0-11.0-5.0-0.1","spark_pilot_norest","8609","7","13","Male","","","","","","","null","<p> First, you need to decide whether to go up or down. When you see each picture, use the arrow keys to make your choice. </p>
            <p><b>You will not see which animal you found, but try to get to the one that will give you the most treasure.</b></p>","","instructions","","","","","","","","","","","",""
"html-keyboard-response","90","463937","0.0-3.0-11.0-6.0-0.0","spark_pilot_norest","8609","7","13","Male","","","","","","","null","<div style=""font-size:100px;color:red;"">Starting in...</div>","null","","","","","","","","","","","","",""
"html-keyboard-response","91","464953","0.0-3.0-11.0-6.0-1.0","spark_pilot_norest","8609","7","13","Male","","","","","","","null","<div style=""font-size:200px;color:red;"">3</div>","null","","","","","","","","","","","","",""
"html-keyboard-response","92","465968","0.0-3.0-11.0-6.0-2.0","spark_pilot_norest","8609","7","13","Male","","","","","","","null","<div style=""font-size:200px;color:red;"">2</div>","null","","","","","","","","","","","","",""
"html-keyboard-response","93","466978","0.0-3.0-11.0-6.0-3.0","spark_pilot_norest","8609","7","13","Male","","","","","","","null","<div style=""font-size:200px;color:red;"">1</div>","null","","","","","","","","","","","","",""
"revaluation","94","467913","0.0-3.0-11.0-7.0","spark_pilot_norest","8609","7","13","Male","","false","","","","","[927]","./assets/img/space/15.jpg","[""ArrowDown""]","practice block","space","0","{""ArrowUp,ArrowLeft"":3,""ArrowUp,ArrowRight"":36,""ArrowDown,ArrowLeft"":15,""ArrowDown,ArrowRight"":23}","false","ArrowDown","false","","","","","",""
"html-keyboard-response","95","468417","0.0-3.0-11.0-8.0","spark_pilot_norest","8609","7","13","Male","","","","","","","null","<div style=""font-size:60px;"">+</div>","null","fixation","","","","","","","","","","","",""
"learning-instructions","96","481998","0.0-3.0-11.0-9.0-0.0","spark_pilot_norest","8609","7","13","Male","","","","","","","null","<p> Now you will see the animals again and can search their chests for treasure. </p>
            <p> This time, you will not see how much treasure you earned, but you will earn more bonus money for making better choices. </p>","","instructions","","","","","","","","","","","",""
"html-keyboard-response","97","483017","0.0-3.0-11.0-10.0-0.0","spark_pilot_norest","8609","7","13","Male","","","","","","","null","<div style=""font-size:100px;color:red;"">Starting in...</div>","null","","","","","","","","","","","","",""
"html-keyboard-response","98","484029","0.0-3.0-11.0-10.0-1.0","spark_pilot_norest","8609","7","13","Male","","","","","","","null","<div style=""font-size:200px;color:red;"">3</div>","null","","","","","","","","","","","","",""
"html-keyboard-response","99","485049","0.0-3.0-11.0-10.0-2.0","spark_pilot_norest","8609","7","13","Male","","","","","","","null","<div style=""font-size:200px;color:red;"">2</div>","null","","","","","","","","","","","","",""
"html-keyboard-response","100","486068","0.0-3.0-11.0-10.0-3.0","spark_pilot_norest","8609","7","13","Male","","","","","","","null","<div style=""font-size:200px;color:red;"">1</div>","null","","","","","","","","","","","","",""
"revaluation","101","486681","0.0-3.0-11.0-11.0-0.0","spark_pilot_norest","8609","7","13","Male","","false","","","","","[606]","./assets/img/space/animals/cat.jpg","[""ArrowRight""]","practice block","space","0","{""ArrowUp,ArrowLeft"":3,""ArrowUp,ArrowRight"":36,""ArrowDown,ArrowLeft"":15,""ArrowDown,ArrowRight"":23}","true","ArrowUp,ArrowRight","","","","","","",""
"html-keyboard-response","102","487183","0.0-3.0-11.0-11.0-1.0","spark_pilot_norest","8609","7","13","Male","","","","","","","null","<div style=""font-size:60px;"">+</div>","null","fixation","","","","","","","","","","","",""
"revaluation","103","487770","0.0-3.0-11.0-11.0-0.1","spark_pilot_norest","8609","7","13","Male","","false","","","","","[579]","./assets/img/space/animals/rabbit.jpg","[""ArrowRight""]","practice block","space","0","{""ArrowUp,ArrowLeft"":3,""ArrowUp,ArrowRight"":36,""ArrowDown,ArrowLeft"":15,""ArrowDown,ArrowRight"":23}","true","ArrowDown,ArrowRight","","","","","","",""
"html-keyboard-response","104","488287","0.0-3.0-11.0-11.0-1.1","spark_pilot_norest","8609","7","13","Male","","","","","","","null","<div style=""font-size:60px;"">+</div>","null","fixation","","","","","","","","","","","",""
"learning-instructions","105","494460","0.0-3.0-12.0-0.0","spark_pilot_norest","8609","7","13","Male","","","","","","","1500","<p> Before you start, we're going to ask you a few questions about how the game works. </p>","","instructions","","","","","","","","","","","",""
"comp-q","106","501244","0.0-3.0-13.0-0.0-0.0","spark_pilot_norest","8609","7","13","Male","","","","","","","1093","<p> <b> True or False? </b> </p>
            <p> There can be 50 pieces of treasure in a given animal's chest. </p>","1","comp_question","","","","true","","","","","","","",""
"comp-q","107","509296","0.0-3.0-13.0-0.0-1.0","spark_pilot_norest","8609","7","13","Male","","","","","","","1266","<p> <b> That's right! </b> The amount of treasure in each chest can range from 0 to 40 pieces. </p>","0","comp_answer","","","","","","","","","","","",""
"comp-q","108","517040","0.0-3.0-13.0-0.1-0.1","spark_pilot_norest","8609","7","13","Male","","","","","","","501","<p> <b> True or False? </b> </p><p> In this game, all animals have the same amount of treasure in their left and right chests. </p>","1","comp_question","","","","true","","","","","","","",""
"comp-q","109","523632","0.0-3.0-13.0-0.1-1.1","spark_pilot_norest","8609","7","13","Male","","","","","","","1262","<p> <b> That's right! </b> Animals have different amounts of treasure in their treasure chests. </p>","0","comp_answer","","","","","","","","","","","",""
"comp-q","110","530281","0.0-3.0-13.0-0.2-0.2","spark_pilot_norest","8609","7","13","Male","","","","","","","702","<p> <b> True or False? </b> </p><p> The same animal will always be there if you go up in the same place. </p>","0","comp_question","","","","true","","","","","","","",""
"comp-q","111","538517","0.0-3.0-13.0-0.2-1.2","spark_pilot_norest","8609","7","13","Male","","","","","","","1668","<p> <b> That's right! </b> One animal lives in the upper part and one lives in the lower part of every place. </p>","0","comp_answer","","","","","","","","","","","",""
"comp-q","112","544812","0.0-3.0-13.0-0.3-0.3","spark_pilot_norest","8609","7","13","Male","","","","","","","671","<p> <b> True or False? </b> </p><p> If you see a different picture, it means you are in a new place. </p>","0","comp_question","","","","false","","","","","","","",""
"comp-q","113","558127","0.0-3.0-13.0-0.3-1.3","spark_pilot_norest","8609","7","13","Male","","","","","","","2028","<p> <b>Incorrect.</b> Lots of different images may show the same place. For example,  you may see three different images that all remind you that you are in outer space. </p>","0","comp_answer","","","","","","","","","","","",""
"comp-q","114","564091","0.0-3.0-13.0-0.4-0.4","spark_pilot_norest","8609","7","13","Male","","","","","","","442","<p> <b> True or False? </b> </p><p> If you see a different picture, it means you are in a new place. </p>","1","comp_question","","","","true","","","","","","","",""
"comp-q","115","576372","0.0-3.0-13.0-0.4-1.4","spark_pilot_norest","8609","7","13","Male","","","","","","","862","<p> <b> That's right! </b> Lots of different images may show the same place. For example,  you may see three different images that all remind you that you are in outer space. </p>","0","comp_answer","","","","","","","","","","","",""
"learning-instructions","116","588069","0.0-3.0-14.0-0.0","spark_pilot_norest","8609","7","13","Male","","","","","","","1660","<p> Good job. Remember to do your best because the amount of treasure you earn will be converted into bonus money. </p>
            <p> It’s time to start the real game! </p>","","instructions","","","","","","","","","","","",""
"learning-instructions","117","591547","0.0-4.0-0.0-0.0","spark_pilot_norest","8609","7","13","Male","","","","","","","618","<p> This time you are searching for treasure in the <b>canyon</b>.</p>","","instructions","","","","","","","","","","","",""
"learning-instructions","118","609676","0.0-4.0-0.0-0.1","spark_pilot_norest","8609","7","13","Male","","","","","","","545","<p><b>New</b> animals with <b>new</b> treasure chests live here. You need to explore to discover where the animal with the best treasure chest is.</p>
                    <p> Like before, once you figure out which animal has the chest with the most treasure, you should try to get to that animal and select that chest! </p>","","instructions","","","","","","","","","","","",""
"learning-instructions","119","624596","0.0-4.0-1.0-0.0","spark_pilot_norest","8609","7","13","Male","","","","","","","175","<p> Remember, when you see a picture of the place, use the up and down keys to <b>find an animal</b>.</p>
            <p> When you encounter an animal, you should use the left and right keys to <b>select a treasure chest</b>.</p>
            <p> Don't forget to look out for the robber! </p>","","instructions","","","","","","","","","","","",""
"revaluation","120","630638","0.0-4.0-2.0-0.0","spark_pilot_norest","8609","7","13","Male","","false","","","","","[1447,474]","./assets/img/canyon/memory/14.jpg","[""ArrowDown"",""ArrowRight""]","value training","canyon","30","{""ArrowUp,ArrowLeft"":23,""ArrowUp,ArrowRight"":10,""ArrowDown,ArrowLeft"":8,""ArrowDown,ArrowRight"":30}","true","ArrowDown,ArrowRight","false","original","1","0","","",""
"html-keyboard-response","121","631152","0.0-4.0-2.0-1.0","spark_pilot_norest","8609","7","13","Male","","","","","","","null","<div style=""font-size:60px;"">+</div>","null","fixation","","","","","","","","","1","","",""
"revaluation","122","637200","0.0-4.0-2.0-0.1","spark_pilot_norest","8609","7","13","Male","","false","","","","","[276,327]","./assets/img/canyon/memory/16.jpg","[""ArrowDown"",""ArrowLeft""]","value training","canyon","8","{""ArrowUp,ArrowLeft"":23,""ArrowUp,ArrowRight"":10,""ArrowDown,ArrowLeft"":8,""ArrowDown,ArrowRight"":30}","false","ArrowDown,ArrowLeft","false","original","1","2","","",""
"html-keyboard-response","123","637708","0.0-4.0-2.0-1.1","spark_pilot_norest","8609","7","13","Male","","","","","","","null","<div style=""font-size:60px;"">+</div>","null","fixation","","","","","","","","","3","","",""
"revaluation","124","641729","0.0-4.0-2.0-0.2","spark_pilot_norest","8609","7","13","Male","","false","","","","","[58]","./assets/img/canyon/catch/0.jpg","[""spaceBar""]","value training","canyon","0","{""ArrowUp,ArrowLeft"":23,""ArrowUp,ArrowRight"":10,""ArrowDown,ArrowLeft"":8,""ArrowDown,ArrowRight"":30}","true","spaceBar","true","original","1","4","","",""
"html-keyboard-response","125","642248","0.0-4.0-2.0-1.2","spark_pilot_norest","8609","7","13","Male","","","","","","","null","<div style=""font-size:60px;"">+</div>","null","fixation","","","","","","","","","5","","",""
"revaluation","126","648289","0.0-4.0-2.0-0.3","spark_pilot_norest","8609","7","13","Male","","false","","","","","[283,372]","./assets/img/canyon/memory/4.jpg","[""ArrowUp"",""ArrowLeft""]","value training","canyon","23","{""ArrowUp,ArrowLeft"":23,""ArrowUp,ArrowRight"":10,""ArrowDown,ArrowLeft"":8,""ArrowDown,ArrowRight"":30}","false","ArrowUp,ArrowLeft","false","original","1","6","","",""
"html-keyboard-response","127","648803","0.0-4.0-2.0-1.3","spark_pilot_norest","8609","7","13","Male","","","","","","","null","<div style=""font-size:60px;"">+</div>","null","fixation","","","","","","","","","7","","",""
"revaluation","128","654849","0.0-4.0-2.0-0.4","spark_pilot_norest","8609","7","13","Male","","false","","","","","[319,303]","./assets/img/canyon/memory/19.jpg","[""ArrowUp"",""ArrowRight""]","value training","canyon","10","{""ArrowUp,ArrowLeft"":23,""ArrowUp,ArrowRight"":10,""ArrowDown,ArrowLeft"":8,""ArrowDown,ArrowRight"":30}","false","ArrowUp,ArrowRight","false","original","1","8","","",""
"html-keyboard-response","129","655362","0.0-4.0-2.0-1.4","spark_pilot_norest","8609","7","13","Male","","","","","","","null","<div style=""font-size:60px;"">+</div>","null","fixation","","","","","","","","","9","","",""
"revaluation","130","659389","0.0-4.0-2.0-0.5","spark_pilot_norest","8609","7","13","Male","","false","","","","","[135]","./assets/img/canyon/catch/4.jpg","[""spaceBar""]","value training","canyon","0","{""ArrowUp,ArrowLeft"":23,""ArrowUp,ArrowRight"":10,""ArrowDown,ArrowLeft"":8,""ArrowDown,ArrowRight"":30}","true","spaceBar","true","original","1","10","","",""
"html-keyboard-response","131","659898","0.0-4.0-2.0-1.5","spark_pilot_norest","8609","7","13","Male","","","","","","","null","<div style=""font-size:60px;"">+</div>","null","fixation","","","","","","","","","11","","",""
"revaluation","132","665939","0.0-4.0-2.0-0.6","spark_pilot_norest","8609","7","13","Male","","false","","","","","[560,356]","./assets/img/canyon/memory/17.jpg","[""ArrowDown"",""ArrowRight""]","value training","canyon","30","{""ArrowUp,ArrowLeft"":23,""ArrowUp,ArrowRight"":10,""ArrowDown,ArrowLeft"":8,""ArrowDown,ArrowRight"":30}","true","ArrowDown,ArrowRight","false","original","1","12","","",""
"html-keyboard-response","133","666449","0.0-4.0-2.0-1.6","spark_pilot_norest","8609","7","13","Male","","","","","","","null","<div style=""font-size:60px;"">+</div>","null","fixation","","","","","","","","","13","","",""
"revaluation","134","672483","0.0-4.0-2.0-0.7","spark_pilot_norest","8609","7","13","Male","","false","","","","","[305,56]","./assets/img/canyon/memory/8.jpg","[""ArrowDown"",""ArrowRight""]","value training","canyon","30","{""ArrowUp,ArrowLeft"":23,""ArrowUp,ArrowRight"":10,""ArrowDown,ArrowLeft"":8,""ArrowDown,ArrowRight"":30}","true","ArrowDown,ArrowRight","false","original","1","14","","",""
"html-keyboard-response","135","672988","0.0-4.0-2.0-1.7","spark_pilot_norest","8609","7","13","Male","","","","","","","null","<div style=""font-size:60px;"">+</div>","null","fixation","","","","","","","","","15","","",""
"revaluation","136","679019","0.0-4.0-2.0-0.8","spark_pilot_norest","8609","7","13","Male","","false","","","","","[406,458]","./assets/img/canyon/memory/11.jpg","[""ArrowDown"",""ArrowRight""]","value training","canyon","30","{""ArrowUp,ArrowLeft"":23,""ArrowUp,ArrowRight"":10,""ArrowDown,ArrowLeft"":8,""ArrowDown,ArrowRight"":30}","true","ArrowDown,ArrowRight","false","original","1","16","","",""
"html-keyboard-response","137","679538","0.0-4.0-2.0-1.8","spark_pilot_norest","8609","7","13","Male","","","","","","","null","<div style=""font-size:60px;"">+</div>","null","fixation","","","","","","","","","17","","",""
"revaluation","138","685579","0.0-4.0-2.0-0.9","spark_pilot_norest","8609","7","13","Male","","false","","","","","[360,631]","./assets/img/canyon/memory/31.jpg","[""ArrowDown"",""ArrowRight""]","value training","canyon","30","{""ArrowUp,ArrowLeft"":23,""ArrowUp,ArrowRight"":10,""ArrowDown,ArrowLeft"":8,""ArrowDown,ArrowRight"":30}","true","ArrowDown,ArrowRight","false","original","1","18","","",""
"html-keyboard-response","139","686097","0.0-4.0-2.0-1.9","spark_pilot_norest","8609","7","13","Male","","","","","","","null","<div style=""font-size:60px;"">+</div>","null","fixation","","","","","","","","","19","","",""
"revaluation","140","690149","0.0-4.0-2.0-0.10","spark_pilot_norest","8609","7","13","Male","","false","","","","","[133]","./assets/img/canyon/catch/1.jpg","[""spaceBar""]","value training","canyon","0","{""ArrowUp,ArrowLeft"":23,""ArrowUp,ArrowRight"":10,""ArrowDown,ArrowLeft"":8,""ArrowDown,ArrowRight"":30}","true","spaceBar","true","original","1","20","","",""
"html-keyboard-response","141","690668","0.0-4.0-2.0-1.10","spark_pilot_norest","8609","7","13","Male","","","","","","","null","<div style=""font-size:60px;"">+</div>","null","fixation","","","","","","","","","21","","",""
"revaluation","142","696719","0.0-4.0-2.0-0.11","spark_pilot_norest","8609","7","13","Male","","false","","","","","[61,433]","./assets/img/canyon/memory/26.jpg","[""ArrowDown"",""ArrowRight""]","value training","canyon","30","{""ArrowUp,ArrowLeft"":23,""ArrowUp,ArrowRight"":10,""ArrowDown,ArrowLeft"":8,""ArrowDown,ArrowRight"":30}","true","ArrowDown,ArrowRight","false","original","1","22","","",""
"html-keyboard-response","143","697237","0.0-4.0-2.0-1.11","spark_pilot_norest","8609","7","13","Male","","","","","","","null","<div style=""font-size:60px;"">+</div>","null","fixation","","","","","","","","","23","","",""
"revaluation","144","703279","0.0-4.0-2.0-0.12","spark_pilot_norest","8609","7","13","Male","","false","","","","","[301,525]","./assets/img/canyon/memory/28.jpg","[""ArrowDown"",""ArrowRight""]","value training","canyon","30","{""ArrowUp,ArrowLeft"":23,""ArrowUp,ArrowRight"":10,""ArrowDown,ArrowLeft"":8,""ArrowDown,ArrowRight"":30}","true","ArrowDown,ArrowRight","false","original","1","24","","",""
"html-keyboard-response","145","703798","0.0-4.0-2.0-1.12","spark_pilot_norest","8609","7","13","Male","","","","","","","null","<div style=""font-size:60px;"">+</div>","null","fixation","","","","","","","","","25","","",""
"revaluation","146","709854","0.0-4.0-2.0-0.13","spark_pilot_norest","8609","7","13","Male","","false","","","","","[413,808]","./assets/img/canyon/memory/28.jpg","[""ArrowDown"",""ArrowRight""]","value training","canyon","30","{""ArrowUp,ArrowLeft"":23,""ArrowUp,ArrowRight"":10,""ArrowDown,ArrowLeft"":8,""ArrowDown,ArrowRight"":30}","true","ArrowDown,ArrowRight","false","original","1","26","","",""
"html-keyboard-response","147","710357","0.0-4.0-2.0-1.13","spark_pilot_norest","8609","7","13","Male","","","","","","","null","<div style=""font-size:60px;"">+</div>","null","fixation","","","","","","","","","27","","",""
"revaluation","148","716389","0.0-4.0-2.0-0.14","spark_pilot_norest","8609","7","13","Male","","false","","","","","[411,990]","./assets/img/canyon/memory/21.jpg","[""ArrowDown"",""ArrowRight""]","value training","canyon","30","{""ArrowUp,ArrowLeft"":23,""ArrowUp,ArrowRight"":10,""ArrowDown,ArrowLeft"":8,""ArrowDown,ArrowRight"":30}","true","ArrowDown,ArrowRight","false","original","1","28","","",""
"html-keyboard-response","149","716903","0.0-4.0-2.0-1.14","spark_pilot_norest","8609","7","13","Male","","","","","","","null","<div style=""font-size:60px;"">+</div>","null","fixation","","","","","","","","","29","","",""
"revaluation","150","722970","0.0-4.0-2.0-0.15","spark_pilot_norest","8609","7","13","Male","","false","","","","","[27,343]","./assets/img/canyon/memory/0.jpg","[""ArrowDown"",""ArrowRight""]","value training","canyon","30","{""ArrowUp,ArrowLeft"":23,""ArrowUp,ArrowRight"":10,""ArrowDown,ArrowLeft"":8,""ArrowDown,ArrowRight"":30}","true","ArrowDown,ArrowRight","false","original","1","30","","",""
"html-keyboard-response","151","723477","0.0-4.0-2.0-1.15","spark_pilot_norest","8609","7","13","Male","","","","","","","null","<div style=""font-size:60px;"">+</div>","null","fixation","","","","","","","","","31","","",""
"revaluation","152","727509","0.0-4.0-2.0-0.16","spark_pilot_norest","8609","7","13","Male","","false","","","","","[28]","./assets/img/canyon/catch/2.jpg","[""spaceBar""]","value training","canyon","0","{""ArrowUp,ArrowLeft"":23,""ArrowUp,ArrowRight"":10,""ArrowDown,ArrowLeft"":8,""ArrowDown,ArrowRight"":30}","true","spaceBar","true","original","1","32","","",""
"html-keyboard-response","153","728028","0.0-4.0-2.0-1.16","spark_pilot_norest","8609","7","13","Male","","","","","","","null","<div style=""font-size:60px;"">+</div>","null","fixation","","","","","","","","","33","","",""
"revaluation","154","734069","0.0-4.0-2.0-0.17","spark_pilot_norest","8609","7","13","Male","","false","","","","","[486,226]","./assets/img/canyon/memory/16.jpg","[""ArrowDown"",""ArrowRight""]","value training","canyon","30","{""ArrowUp,ArrowLeft"":23,""ArrowUp,ArrowRight"":10,""ArrowDown,ArrowLeft"":8,""ArrowDown,ArrowRight"":30}","true","ArrowDown,ArrowRight","false","original","1","34","","",""
"html-keyboard-response","155","734589","0.0-4.0-2.0-1.17","spark_pilot_norest","8609","7","13","Male","","","","","","","null","<div style=""font-size:60px;"">+</div>","null","fixation","","","","","","","","","35","","",""
"revaluation","156","740644","0.0-4.0-2.0-0.18","spark_pilot_norest","8609","7","13","Male","","false","","","","","[30,201]","./assets/img/canyon/memory/0.jpg","[""ArrowDown"",""ArrowRight""]","value training","canyon","30","{""ArrowUp,ArrowLeft"":23,""ArrowUp,ArrowRight"":10,""ArrowDown,ArrowLeft"":8,""ArrowDown,ArrowRight"":30}","true","ArrowDown,ArrowRight","false","original","1","36","","",""
"html-keyboard-response","157","741158","0.0-4.0-2.0-1.18","spark_pilot_norest","8609","7","13","Male","","","","","","","null","<div style=""font-size:60px;"">+</div>","null","fixation","","","","","","","","","37","","",""
"revaluation","158","747210","0.0-4.0-2.0-0.19","spark_pilot_norest","8609","7","13","Male","","false","","","","","[371,389]","./assets/img/canyon/memory/18.jpg","[""ArrowDown"",""ArrowRight""]","value training","canyon","30","{""ArrowUp,ArrowLeft"":23,""ArrowUp,ArrowRight"":10,""ArrowDown,ArrowLeft"":8,""ArrowDown,ArrowRight"":30}","true","ArrowDown,ArrowRight","false","original","1","38","","",""
"html-keyboard-response","159","747717","0.0-4.0-2.0-1.19","spark_pilot_norest","8609","7","13","Male","","","","","","","null","<div style=""font-size:60px;"">+</div>","null","fixation","","","","","","","","","39","","",""
"revaluation","160","753750","0.0-4.0-2.0-0.20","spark_pilot_norest","8609","7","13","Male","","false","","","","","[420,600]","./assets/img/canyon/memory/10.jpg","[""ArrowDown"",""ArrowRight""]","value training","canyon","30","{""ArrowUp,ArrowLeft"":23,""ArrowUp,ArrowRight"":10,""ArrowDown,ArrowLeft"":8,""ArrowDown,ArrowRight"":30}","true","ArrowDown,ArrowRight","false","original","1","40","","",""
"html-keyboard-response","161","754268","0.0-4.0-2.0-1.20","spark_pilot_norest","8609","7","13","Male","","","","","","","null","<div style=""font-size:60px;"">+</div>","null","fixation","","","","","","","","","41","","",""
"revaluation","162","760288","0.0-4.0-2.0-0.21","spark_pilot_norest","8609","7","13","Male","","false","","","","","[607,348]","./assets/img/canyon/memory/7.jpg","[""ArrowDown"",""ArrowRight""]","value training","canyon","30","{""ArrowUp,ArrowLeft"":23,""ArrowUp,ArrowRight"":10,""ArrowDown,ArrowLeft"":8,""ArrowDown,ArrowRight"":30}","true","ArrowDown,ArrowRight","false","original","1","42","","",""
"html-keyboard-response","163","760798","0.0-4.0-2.0-1.21","spark_pilot_norest","8609","7","13","Male","","","","","","","null","<div style=""font-size:60px;"">+</div>","null","fixation","","","","","","","","","43","","",""
"revaluation","164","764839","0.0-4.0-2.0-0.22","spark_pilot_norest","8609","7","13","Male","","false","","","","","[156]","./assets/img/canyon/catch/6.jpg","[""spaceBar""]","value training","canyon","0","{""ArrowUp,ArrowLeft"":23,""ArrowUp,ArrowRight"":10,""ArrowDown,ArrowLeft"":8,""ArrowDown,ArrowRight"":30}","true","spaceBar","true","original","1","44","","",""
"html-keyboard-response","165","765358","0.0-4.0-2.0-1.22","spark_pilot_norest","8609","7","13","Male","","","","","","","null","<div style=""font-size:60px;"">+</div>","null","fixation","","","","","","","","","45","","",""
"revaluation","166","771409","0.0-4.0-2.0-0.23","spark_pilot_norest","8609","7","13","Male","","false","","","","","[527,382]","./assets/img/canyon/memory/5.jpg","[""ArrowDown"",""ArrowRight""]","value training","canyon","30","{""ArrowUp,ArrowLeft"":23,""ArrowUp,ArrowRight"":10,""ArrowDown,ArrowLeft"":8,""ArrowDown,ArrowRight"":30}","true","ArrowDown,ArrowRight","false","original","1","46","","",""
"html-keyboard-response","167","771918","0.0-4.0-2.0-1.23","spark_pilot_norest","8609","7","13","Male","","","","","","","null","<div style=""font-size:60px;"">+</div>","null","fixation","","","","","","","","","47","","",""
"revaluation","168","777948","0.0-4.0-2.0-0.24","spark_pilot_norest","8609","7","13","Male","","false","","","","","[562,472]","./assets/img/canyon/memory/5.jpg","[""ArrowDown"",""ArrowRight""]","value training","canyon","30","{""ArrowUp,ArrowLeft"":23,""ArrowUp,ArrowRight"":10,""ArrowDown,ArrowLeft"":8,""ArrowDown,ArrowRight"":30}","true","ArrowDown,ArrowRight","false","original","1","48","","",""
"html-keyboard-response","169","778467","0.0-4.0-2.0-1.24","spark_pilot_norest","8609","7","13","Male","","","","","","","null","<div style=""font-size:60px;"">+</div>","null","fixation","","","","","","","","","49","","",""
"revaluation","170","784503","0.0-4.0-2.0-0.25","spark_pilot_norest","8609","7","13","Male","","false","","","","","[406,315]","./assets/img/canyon/memory/10.jpg","[""ArrowDown"",""ArrowRight""]","value training","canyon","30","{""ArrowUp,ArrowLeft"":23,""ArrowUp,ArrowRight"":10,""ArrowDown,ArrowLeft"":8,""ArrowDown,ArrowRight"":30}","true","ArrowDown,ArrowRight","false","original","1","50","","",""
"html-keyboard-response","171","785017","0.0-4.0-2.0-1.25","spark_pilot_norest","8609","7","13","Male","","","","","","","null","<div style=""font-size:60px;"">+</div>","null","fixation","","","","","","","","","51","","",""
"revaluation","172","791060","0.0-4.0-2.0-0.26","spark_pilot_norest","8609","7","13","Male","","false","","","","","[352,266]","./assets/img/canyon/memory/7.jpg","[""ArrowDown"",""ArrowRight""]","value training","canyon","30","{""ArrowUp,ArrowLeft"":23,""ArrowUp,ArrowRight"":10,""ArrowDown,ArrowLeft"":8,""ArrowDown,ArrowRight"":30}","true","ArrowDown,ArrowRight","false","original","1","52","","",""
"html-keyboard-response","173","791577","0.0-4.0-2.0-1.26","spark_pilot_norest","8609","7","13","Male","","","","","","","null","<div style=""font-size:60px;"">+</div>","null","fixation","","","","","","","","","53","","",""
"revaluation","174","797609","0.0-4.0-2.0-0.27","spark_pilot_norest","8609","7","13","Male","","false","","","","","[385,359]","./assets/img/canyon/memory/29.jpg","[""ArrowDown"",""ArrowRight""]","value training","canyon","30","{""ArrowUp,ArrowLeft"":23,""ArrowUp,ArrowRight"":10,""ArrowDown,ArrowLeft"":8,""ArrowDown,ArrowRight"":30}","true","ArrowDown,ArrowRight","false","original","1","54","","",""
"html-keyboard-response","175","798128","0.0-4.0-2.0-1.27","spark_pilot_norest","8609","7","13","Male","","","","","","","null","<div style=""font-size:60px;"">+</div>","null","fixation","","","","","","","","","55","","",""
"revaluation","176","804179","0.0-4.0-2.0-0.28","spark_pilot_norest","8609","7","13","Male","","false","","","","","[331,456]","./assets/img/canyon/memory/26.jpg","[""ArrowDown"",""ArrowRight""]","value training","canyon","30","{""ArrowUp,ArrowLeft"":23,""ArrowUp,ArrowRight"":10,""ArrowDown,ArrowLeft"":8,""ArrowDown,ArrowRight"":30}","true","ArrowDown,ArrowRight","false","original","1","56","","",""
"html-keyboard-response","177","804698","0.0-4.0-2.0-1.28","spark_pilot_norest","8609","7","13","Male","","","","","","","null","<div style=""font-size:60px;"">+</div>","null","fixation","","","","","","","","","57","","",""
"revaluation","178","810734","0.0-4.0-2.0-0.29","spark_pilot_norest","8609","7","13","Male","","false","","","","","[750,471]","./assets/img/canyon/memory/30.jpg","[""ArrowDown"",""ArrowRight""]","value training","canyon","30","{""ArrowUp,ArrowLeft"":23,""ArrowUp,ArrowRight"":10,""ArrowDown,ArrowLeft"":8,""ArrowDown,ArrowRight"":30}","true","ArrowDown,ArrowRight","false","original","1","58","","",""
"html-keyboard-response","179","811258","0.0-4.0-2.0-1.29","spark_pilot_norest","8609","7","13","Male","","","","","","","null","<div style=""font-size:60px;"">+</div>","null","fixation","","","","","","","","","59","","",""
"revaluation","180","817288","0.0-4.0-2.0-0.30","spark_pilot_norest","8609","7","13","Male","","false","","","","","[856,915]","./assets/img/canyon/memory/19.jpg","[""ArrowDown"",""ArrowRight""]","value training","canyon","30","{""ArrowUp,ArrowLeft"":23,""ArrowUp,ArrowRight"":10,""ArrowDown,ArrowLeft"":8,""ArrowDown,ArrowRight"":30}","true","ArrowDown,ArrowRight","false","original","1","60","","",""
"html-keyboard-response","181","817797","0.0-4.0-2.0-1.30","spark_pilot_norest","8609","7","13","Male","","","","","","","null","<div style=""font-size:60px;"">+</div>","null","fixation","","","","","","","","","61","","",""
"revaluation","182","823849","0.0-4.0-2.0-0.31","spark_pilot_norest","8609","7","13","Male","","false","","","","","[1052,469]","./assets/img/canyon/memory/21.jpg","[""ArrowDown"",""ArrowRight""]","value training","canyon","30","{""ArrowUp,ArrowLeft"":23,""ArrowUp,ArrowRight"":10,""ArrowDown,ArrowLeft"":8,""ArrowDown,ArrowRight"":30}","true","ArrowDown,ArrowRight","false","original","1","62","","",""
"html-keyboard-response","183","824357","0.0-4.0-2.0-1.31","spark_pilot_norest","8609","7","13","Male","","","","","","","null","<div style=""font-size:60px;"">+</div>","null","fixation","","","","","","","","","63","","",""
"revaluation","184","830399","0.0-4.0-2.0-0.32","spark_pilot_norest","8609","7","13","Male","","false","","","","","[203,658]","./assets/img/canyon/memory/30.jpg","[""ArrowDown"",""ArrowRight""]","value training","canyon","30","{""ArrowUp,ArrowLeft"":23,""ArrowUp,ArrowRight"":10,""ArrowDown,ArrowLeft"":8,""ArrowDown,ArrowRight"":30}","true","ArrowDown,ArrowRight","false","original","1","64","","",""
"html-keyboard-response","185","830913","0.0-4.0-2.0-1.32","spark_pilot_norest","8609","7","13","Male","","","","","","","null","<div style=""font-size:60px;"">+</div>","null","fixation","","","","","","","","","65","","",""
"revaluation","186","834939","0.0-4.0-2.0-0.33","spark_pilot_norest","8609","7","13","Male","","true","","","","","[]","./assets/img/canyon/memory/6.jpg","[]","value training","canyon","-5","{""ArrowUp,ArrowLeft"":23,""ArrowUp,ArrowRight"":10,""ArrowDown,ArrowLeft"":8,""ArrowDown,ArrowRight"":30}","false","","false","original","1","66","","",""
"html-keyboard-response","187","835458","0.0-4.0-2.0-1.33","spark_pilot_norest","8609","7","13","Male","","","","","","","null","<div style=""font-size:60px;"">+</div>","null","fixation","","","","","","","","","67","","",""
"revaluation","188","841499","0.0-4.0-2.0-0.34","spark_pilot_norest","8609","7","13","Male","","false","","","","","[784,511]","./assets/img/canyon/memory/8.jpg","[""ArrowDown"",""ArrowRight""]","value training","canyon","30","{""ArrowUp,ArrowLeft"":23,""ArrowUp,ArrowRight"":10,""ArrowDown,ArrowLeft"":8,""ArrowDown,ArrowRight"":30}","true","ArrowDown,ArrowRight","false","original","1","68","","",""
"html-keyboard-response","189","842007","0.0-4.0-2.0-1.34","spark_pilot_norest","8609","7","13","Male","","","","","","","null","<div style=""font-size:60px;"">+</div>","null","fixation","","","","","","","","","69","","",""
"revaluation","190","848049","0.0-4.0-2.0-0.35","spark_pilot_norest","8609","7","13","Male","","false","","","","","[388,196]","./assets/img/canyon/memory/18.jpg","[""ArrowDown"",""ArrowRight""]","value training","canyon","30","{""ArrowUp,ArrowLeft"":23,""ArrowUp,ArrowRight"":10,""ArrowDown,ArrowLeft"":8,""ArrowDown,ArrowRight"":30}","true","ArrowDown,ArrowRight","false","original","1","70","","",""
"html-keyboard-response","191","848558","0.0-4.0-2.0-1.35","spark_pilot_norest","8609","7","13","Male","","","","","","","null","<div style=""font-size:60px;"">+</div>","null","fixation","","","","","","","","","71","","",""
"revaluation","192","854609","0.0-4.0-2.0-0.36","spark_pilot_norest","8609","7","13","Male","","false","","","","","[396,766]","./assets/img/canyon/memory/17.jpg","[""ArrowDown"",""ArrowRight""]","value training","canyon","30","{""ArrowUp,ArrowLeft"":23,""ArrowUp,ArrowRight"":10,""ArrowDown,ArrowLeft"":8,""ArrowDown,ArrowRight"":30}","true","ArrowDown,ArrowRight","false","original","1","72","","",""
"html-keyboard-response","193","855128","0.0-4.0-2.0-1.36","spark_pilot_norest","8609","7","13","Male","","","","","","","null","<div style=""font-size:60px;"">+</div>","null","fixation","","","","","","","","","73","","",""
"revaluation","194","859159","0.0-4.0-2.0-0.37","spark_pilot_norest","8609","7","13","Male","","false","","","","","[43]","./assets/img/canyon/catch/7.jpg","[""spaceBar""]","value training","canyon","0","{""ArrowUp,ArrowLeft"":23,""ArrowUp,ArrowRight"":10,""ArrowDown,ArrowLeft"":8,""ArrowDown,ArrowRight"":30}","true","spaceBar","true","original","1","74","","",""
"html-keyboard-response","195","859678","0.0-4.0-2.0-1.37","spark_pilot_norest","8609","7","13","Male","","","","","","","null","<div style=""font-size:60px;"">+</div>","null","fixation","","","","","","","","","75","","",""
"revaluation","196","865739","0.0-4.0-2.0-0.38","spark_pilot_norest","8609","7","13","Male","","false","","","","","[484,1246]","./assets/img/canyon/memory/9.jpg","[""ArrowDown"",""ArrowRight""]","value training","canyon","30","{""ArrowUp,ArrowLeft"":23,""ArrowUp,ArrowRight"":10,""ArrowDown,ArrowLeft"":8,""ArrowDown,ArrowRight"":30}","true","ArrowDown,ArrowRight","false","original","1","76","","",""
"html-keyboard-response","197","866253","0.0-4.0-2.0-1.38","spark_pilot_norest","8609","7","13","Male","","","","","","","null","<div style=""font-size:60px;"">+</div>","null","fixation","","","","","","","","","77","","",""
"revaluation","198","872288","0.0-4.0-2.0-0.39","spark_pilot_norest","8609","7","13","Male","","false","","","","","[444,511]","./assets/img/canyon/memory/9.jpg","[""ArrowDown"",""ArrowRight""]","value training","canyon","30","{""ArrowUp,ArrowLeft"":23,""ArrowUp,ArrowRight"":10,""ArrowDown,ArrowLeft"":8,""ArrowDown,ArrowRight"":30}","true","ArrowDown,ArrowRight","false","original","1","78","","",""
"html-keyboard-response","199","872798","0.0-4.0-2.0-1.39","spark_pilot_norest","8609","7","13","Male","","","","","","","null","<div style=""font-size:60px;"">+</div>","null","fixation","","","","","","","","","79","","",""
"revaluation","200","878849","0.0-4.0-2.0-0.40","spark_pilot_norest","8609","7","13","Male","","false","","","","","[516,569]","./assets/img/canyon/memory/24.jpg","[""ArrowDown"",""ArrowRight""]","value training","canyon","30","{""ArrowUp,ArrowLeft"":23,""ArrowUp,ArrowRight"":10,""ArrowDown,ArrowLeft"":8,""ArrowDown,ArrowRight"":30}","true","ArrowDown,ArrowRight","false","original","1","80","","",""
"html-keyboard-response","201","879357","0.0-4.0-2.0-1.40","spark_pilot_norest","8609","7","13","Male","","","","","","","null","<div style=""font-size:60px;"">+</div>","null","fixation","","","","","","","","","81","","",""
"revaluation","202","885419","0.0-4.0-2.0-0.41","spark_pilot_norest","8609","7","13","Male","","false","","","","","[621,326]","./assets/img/canyon/memory/31.jpg","[""ArrowDown"",""ArrowRight""]","value training","canyon","30","{""ArrowUp,ArrowLeft"":23,""ArrowUp,ArrowRight"":10,""ArrowDown,ArrowLeft"":8,""ArrowDown,ArrowRight"":30}","true","ArrowDown,ArrowRight","false","original","1","82","","",""
"html-keyboard-response","203","885938","0.0-4.0-2.0-1.41","spark_pilot_norest","8609","7","13","Male","","","","","","","null","<div style=""font-size:60px;"">+</div>","null","fixation","","","","","","","","","83","","",""
"revaluation","204","891990","0.0-4.0-2.0-0.42","spark_pilot_norest","8609","7","13","Male","","false","","","","","[321,134]","./assets/img/canyon/memory/6.jpg","[""ArrowDown"",""ArrowRight""]","value training","canyon","30","{""ArrowUp,ArrowLeft"":23,""ArrowUp,ArrowRight"":10,""ArrowDown,ArrowLeft"":8,""ArrowDown,ArrowRight"":30}","true","ArrowDown,ArrowRight","false","original","1","84","","",""
"html-keyboard-response","205","892508","0.0-4.0-2.0-1.42","spark_pilot_norest","8609","7","13","Male","","","","","","","null","<div style=""font-size:60px;"">+</div>","null","fixation","","","","","","","","","85","","",""
"revaluation","206","898538","0.0-4.0-2.0-0.43","spark_pilot_norest","8609","7","13","Male","","false","","","","","[46,195]","./assets/img/canyon/memory/11.jpg","[""ArrowDown"",""ArrowRight""]","value training","canyon","30","{""ArrowUp,ArrowLeft"":23,""ArrowUp,ArrowRight"":10,""ArrowDown,ArrowLeft"":8,""ArrowDown,ArrowRight"":30}","true","ArrowDown,ArrowRight","false","original","1","86","","",""
"html-keyboard-response","207","899059","0.0-4.0-2.0-1.43","spark_pilot_norest","8609","7","13","Male","","","","","","","null","<div style=""font-size:60px;"">+</div>","null","fixation","","","","","","","","","87","","",""
"revaluation","208","905079","0.0-4.0-2.0-0.44","spark_pilot_norest","8609","7","13","Male","","false","","","","","[117,143]","./assets/img/canyon/memory/24.jpg","[""ArrowDown"",""ArrowRight""]","value training","canyon","30","{""ArrowUp,ArrowLeft"":23,""ArrowUp,ArrowRight"":10,""ArrowDown,ArrowLeft"":8,""ArrowDown,ArrowRight"":30}","true","ArrowDown,ArrowRight","false","original","1","88","","",""
"html-keyboard-response","209","905598","0.0-4.0-2.0-1.44","spark_pilot_norest","8609","7","13","Male","","","","","","","null","<div style=""font-size:60px;"">+</div>","null","fixation","","","","","","","","","89","","",""
"revaluation","210","911639","0.0-4.0-2.0-0.45","spark_pilot_norest","8609","7","13","Male","","false","","","","","[204,175]","./assets/img/canyon/memory/4.jpg","[""ArrowDown"",""ArrowRight""]","value training","canyon","30","{""ArrowUp,ArrowLeft"":23,""ArrowUp,ArrowRight"":10,""ArrowDown,ArrowLeft"":8,""ArrowDown,ArrowRight"":30}","true","ArrowDown,ArrowRight","false","original","1","90","","",""
"html-keyboard-response","211","912157","0.0-4.0-2.0-1.45","spark_pilot_norest","8609","7","13","Male","","","","","","","null","<div style=""font-size:60px;"">+</div>","null","fixation","","","","","","","","","91","","",""
"revaluation","212","918204","0.0-4.0-2.0-0.46","spark_pilot_norest","8609","7","13","Male","","false","","","","","[399,38]","./assets/img/canyon/memory/29.jpg","[""ArrowDown"",""ArrowRight""]","value training","canyon","30","{""ArrowUp,ArrowLeft"":23,""ArrowUp,ArrowRight"":10,""ArrowDown,ArrowLeft"":8,""ArrowDown,ArrowRight"":30}","true","ArrowDown,ArrowRight","false","original","1","92","","",""
"html-keyboard-response","213","918726","0.0-4.0-2.0-1.46","spark_pilot_norest","8609","7","13","Male","","","","","","","null","<div style=""font-size:60px;"">+</div>","null","fixation","","","","","","","","","93","","",""
"revaluation","214","924754","0.0-4.0-2.0-0.47","spark_pilot_norest","8609","7","13","Male","","false","","","","","[948,254]","./assets/img/canyon/memory/14.jpg","[""ArrowDown"",""ArrowRight""]","value training","canyon","30","{""ArrowUp,ArrowLeft"":23,""ArrowUp,ArrowRight"":10,""ArrowDown,ArrowLeft"":8,""ArrowDown,ArrowRight"":30}","true","ArrowDown,ArrowRight","false","original","1","94","","",""
"html-keyboard-response","215","925267","0.0-4.0-2.0-1.47","spark_pilot_norest","8609","7","13","Male","","","","","","","null","<div style=""font-size:60px;"">+</div>","null","fixation","","","","","","","","","95","","",""
"revaluation","216","929301","0.0-4.0-2.0-0.48","spark_pilot_norest","8609","7","13","Male","","false","","","","","[116]","./assets/img/canyon/catch/5.jpg","[""spaceBar""]","value training","canyon","0","{""ArrowUp,ArrowLeft"":23,""ArrowUp,ArrowRight"":10,""ArrowDown,ArrowLeft"":8,""ArrowDown,ArrowRight"":30}","true","spaceBar","true","original","1","96","","",""
"html-keyboard-response","217","929818","0.0-4.0-2.0-1.48","spark_pilot_norest","8609","7","13","Male","","","","","","","null","<div style=""font-size:60px;"">+</div>","null","fixation","","","","","","","","","97","","",""
"revaluation","218","933849","0.0-4.0-2.0-0.49","spark_pilot_norest","8609","7","13","Male","","false","","","","","[18]","./assets/img/canyon/catch/3.jpg","[""spaceBar""]","value training","canyon","0","{""ArrowUp,ArrowLeft"":23,""ArrowUp,ArrowRight"":10,""ArrowDown,ArrowLeft"":8,""ArrowDown,ArrowRight"":30}","true","spaceBar","true","original","1","98","","",""
"html-keyboard-response","219","934359","0.0-4.0-2.0-1.49","spark_pilot_norest","8609","7","13","Male","","","","","","","null","<div style=""font-size:60px;"">+</div>","null","fixation","","","","","","","","","99","","",""
"learning-instructions","220","948076","0.0-4.0-3.0-0.0","spark_pilot_norest","8609","7","13","Male","","","","","","","827","<p> Now, you will travel with a friend who will choose whether you go up or down first. </p>
            <p> On these turns, you will just see the animal that they found. You will still get to choose which chest to search for treasure.</p>","","instructions","","","","","","","","","","","",""
"revaluation","221","952119","0.0-4.0-4.0-0.0","spark_pilot_norest","8609","7","13","Male","","false","","","","","[1335]","./assets/img/canyon/animals/giraffe.jpg","[""ArrowRight""]","revaluation","canyon","10","{""ArrowUp,ArrowLeft"":23,""ArrowUp,ArrowRight"":10,""ArrowDown,ArrowLeft"":8,""ArrowDown,ArrowRight"":30}","false","ArrowUp,ArrowRight","","original","1","0","","",""
"html-keyboard-response","222","952637","0.0-4.0-4.0-1.0","spark_pilot_norest","8609","7","13","Male","","","","","","","null","<div style=""font-size:60px;"">+</div>","null","fixation","","","","","","","","","1","","",""
"revaluation","223","956659","0.0-4.0-4.0-0.1","spark_pilot_norest","8609","7","13","Male","","false","","","","","[299]","./assets/img/canyon/animals/lion.jpg","[""ArrowRight""]","revaluation","canyon","30","{""ArrowUp,ArrowLeft"":23,""ArrowUp,ArrowRight"":10,""ArrowDown,ArrowLeft"":8,""ArrowDown,ArrowRight"":30}","true","ArrowDown,ArrowRight","","original","1","2","","",""
"html-keyboard-response","224","957178","0.0-4.0-4.0-1.1","spark_pilot_norest","8609","7","13","Male","","","","","","","null","<div style=""font-size:60px;"">+</div>","null","fixation","","","","","","","","","3","","",""
"revaluation","225","961209","0.0-4.0-4.0-0.2","spark_pilot_norest","8609","7","13","Male","","false","","","","","[417]","./assets/img/canyon/animals/giraffe.jpg","[""ArrowLeft""]","revaluation","canyon","23","{""ArrowUp,ArrowLeft"":23,""ArrowUp,ArrowRight"":10,""ArrowDown,ArrowLeft"":8,""ArrowDown,ArrowRight"":30}","true","ArrowUp,ArrowLeft","","original","1","4","","",""
"html-keyboard-response","226","961728","0.0-4.0-4.0-1.2","spark_pilot_norest","8609","7","13","Male","","","","","","","null","<div style=""font-size:60px;"">+</div>","null","fixation","","","","","","","","","5","","",""
"revaluation","227","965749","0.0-4.0-4.0-0.3","spark_pilot_norest","8609","7","13","Male","","false","","","","","[506]","./assets/img/canyon/animals/lion.jpg","[""ArrowRight""]","revaluation","canyon","30","{""ArrowUp,ArrowLeft"":23,""ArrowUp,ArrowRight"":10,""ArrowDown,ArrowLeft"":8,""ArrowDown,ArrowRight"":30}","true","ArrowDown,ArrowRight","","original","1","6","","",""
"html-keyboard-response","228","966253","0.0-4.0-4.0-1.3","spark_pilot_norest","8609","7","13","Male","","","","","","","null","<div style=""font-size:60px;"">+</div>","null","fixation","","","","","","","","","7","","",""
"revaluation","229","970269","0.0-4.0-4.0-0.4","spark_pilot_norest","8609","7","13","Male","","false","","","","","[339]","./assets/img/canyon/animals/giraffe.jpg","[""ArrowLeft""]","revaluation","canyon","23","{""ArrowUp,ArrowLeft"":23,""ArrowUp,ArrowRight"":10,""ArrowDown,ArrowLeft"":8,""ArrowDown,ArrowRight"":30}","true","ArrowUp,ArrowLeft","","original","1","8","","",""
"html-keyboard-response","230","970782","0.0-4.0-4.0-1.4","spark_pilot_norest","8609","7","13","Male","","","","","","","null","<div style=""font-size:60px;"">+</div>","null","fixation","","","","","","","","","9","","",""
"revaluation","231","974814","0.0-4.0-4.0-0.5","spark_pilot_norest","8609","7","13","Male","","false","","","","","[337]","./assets/img/canyon/animals/lion.jpg","[""ArrowRight""]","revaluation","canyon","30","{""ArrowUp,ArrowLeft"":23,""ArrowUp,ArrowRight"":10,""ArrowDown,ArrowLeft"":8,""ArrowDown,ArrowRight"":30}","true","ArrowDown,ArrowRight","","original","1","10","","",""
"html-keyboard-response","232","975322","0.0-4.0-4.0-1.5","spark_pilot_norest","8609","7","13","Male","","","","","","","null","<div style=""font-size:60px;"">+</div>","null","fixation","","","","","","","","","11","","",""
"revaluation","233","979359","0.0-4.0-4.0-0.6","spark_pilot_norest","8609","7","13","Male","","false","","","","","[415]","./assets/img/canyon/animals/giraffe.jpg","[""ArrowLeft""]","revaluation","canyon","23","{""ArrowUp,ArrowLeft"":23,""ArrowUp,ArrowRight"":10,""ArrowDown,ArrowLeft"":8,""ArrowDown,ArrowRight"":30}","true","ArrowUp,ArrowLeft","","original","1","12","","",""
"html-keyboard-response","234","979878","0.0-4.0-4.0-1.6","spark_pilot_norest","8609","7","13","Male","","","","","","","null","<div style=""font-size:60px;"">+</div>","null","fixation","","","","","","","","","13","","",""
"revaluation","235","983914","0.0-4.0-4.0-0.7","spark_pilot_norest","8609","7","13","Male","","false","","","","","[356]","./assets/img/canyon/animals/lion.jpg","[""ArrowRight""]","revaluation","canyon","30","{""ArrowUp,ArrowLeft"":23,""ArrowUp,ArrowRight"":10,""ArrowDown,ArrowLeft"":8,""ArrowDown,ArrowRight"":30}","true","ArrowDown,ArrowRight","","original","1","14","","",""
"html-keyboard-response","236","984437","0.0-4.0-4.0-1.7","spark_pilot_norest","8609","7","13","Male","","","","","","","null","<div style=""font-size:60px;"">+</div>","null","fixation","","","","","","","","","15","","",""
"revaluation","237","988469","0.0-4.0-4.0-0.8","spark_pilot_norest","8609","7","13","Male","","false","","","","","[419]","./assets/img/canyon/animals/giraffe.jpg","[""ArrowLeft""]","revaluation","canyon","23","{""ArrowUp,ArrowLeft"":23,""ArrowUp,ArrowRight"":10,""ArrowDown,ArrowLeft"":8,""ArrowDown,ArrowRight"":30}","true","ArrowUp,ArrowLeft","","original","1","16","","",""
"html-keyboard-response","238","988988","0.0-4.0-4.0-1.8","spark_pilot_norest","8609","7","13","Male","","","","","","","null","<div style=""font-size:60px;"">+</div>","null","fixation","","","","","","","","","17","","",""
"revaluation","239","993029","0.0-4.0-4.0-0.9","spark_pilot_norest","8609","7","13","Male","","false","","","","","[541]","./assets/img/canyon/animals/giraffe.jpg","[""ArrowLeft""]","revaluation","canyon","23","{""ArrowUp,ArrowLeft"":23,""ArrowUp,ArrowRight"":10,""ArrowDown,ArrowLeft"":8,""ArrowDown,ArrowRight"":30}","true","ArrowUp,ArrowLeft","","original","1","18","","",""
"html-keyboard-response","240","993547","0.0-4.0-4.0-1.9","spark_pilot_norest","8609","7","13","Male","","","","","","","null","<div style=""font-size:60px;"">+</div>","null","fixation","","","","","","","","","19","","",""
"revaluation","241","997579","0.0-4.0-4.0-0.10","spark_pilot_norest","8609","7","13","Male","","false","","","","","[486]","./assets/img/canyon/animals/giraffe.jpg","[""ArrowLeft""]","revaluation","canyon","23","{""ArrowUp,ArrowLeft"":23,""ArrowUp,ArrowRight"":10,""ArrowDown,ArrowLeft"":8,""ArrowDown,ArrowRight"":30}","true","ArrowUp,ArrowLeft","","original","1","20","","",""
"html-keyboard-response","242","998082","0.0-4.0-4.0-1.10","spark_pilot_norest","8609","7","13","Male","","","","","","","null","<div style=""font-size:60px;"">+</div>","null","fixation","","","","","","","","","21","","",""
"revaluation","243","1002114","0.0-4.0-4.0-0.11","spark_pilot_norest","8609","7","13","Male","","false","","","","","[454]","./assets/img/canyon/animals/lion.jpg","[""ArrowRight""]","revaluation","canyon","30","{""ArrowUp,ArrowLeft"":23,""ArrowUp,ArrowRight"":10,""ArrowDown,ArrowLeft"":8,""ArrowDown,ArrowRight"":30}","true","ArrowDown,ArrowRight","","original","1","22","","",""
"html-keyboard-response","244","1002618","0.0-4.0-4.0-1.11","spark_pilot_norest","8609","7","13","Male","","","","","","","null","<div style=""font-size:60px;"">+</div>","null","fixation","","","","","","","","","23","","",""
"revaluation","245","1006649","0.0-4.0-4.0-0.12","spark_pilot_norest","8609","7","13","Male","","false","","","","","[407]","./assets/img/canyon/animals/lion.jpg","[""ArrowRight""]","revaluation","canyon","30","{""ArrowUp,ArrowLeft"":23,""ArrowUp,ArrowRight"":10,""ArrowDown,ArrowLeft"":8,""ArrowDown,ArrowRight"":30}","true","ArrowDown,ArrowRight","","original","1","24","","",""
"html-keyboard-response","246","1007162","0.0-4.0-4.0-1.12","spark_pilot_norest","8609","7","13","Male","","","","","","","null","<div style=""font-size:60px;"">+</div>","null","fixation","","","","","","","","","25","","",""
"revaluation","247","1011200","0.0-4.0-4.0-0.13","spark_pilot_norest","8609","7","13","Male","","false","","","","","[391]","./assets/img/canyon/animals/lion.jpg","[""ArrowRight""]","revaluation","canyon","30","{""ArrowUp,ArrowLeft"":23,""ArrowUp,ArrowRight"":10,""ArrowDown,ArrowLeft"":8,""ArrowDown,ArrowRight"":30}","true","ArrowDown,ArrowRight","","original","1","26","","",""
"html-keyboard-response","248","1011718","0.0-4.0-4.0-1.13","spark_pilot_norest","8609","7","13","Male","","","","","","","null","<div style=""font-size:60px;"">+</div>","null","fixation","","","","","","","","","27","","",""
"revaluation","249","1015749","0.0-4.0-4.0-0.14","spark_pilot_norest","8609","7","13","Male","","false","","","","","[541]","./assets/img/canyon/animals/giraffe.jpg","[""ArrowLeft""]","revaluation","canyon","23","{""ArrowUp,ArrowLeft"":23,""ArrowUp,ArrowRight"":10,""ArrowDown,ArrowLeft"":8,""ArrowDown,ArrowRight"":30}","true","ArrowUp,ArrowLeft","","original","1","28","","",""
"html-keyboard-response","250","1016259","0.0-4.0-4.0-1.14","spark_pilot_norest","8609","7","13","Male","","","","","","","null","<div style=""font-size:60px;"">+</div>","null","fixation","","","","","","","","","29","","",""
"revaluation","251","1020309","0.0-4.0-4.0-0.15","spark_pilot_norest","8609","7","13","Male","","false","","","","","[775]","./assets/img/canyon/animals/lion.jpg","[""ArrowRight""]","revaluation","canyon","30","{""ArrowUp,ArrowLeft"":23,""ArrowUp,ArrowRight"":10,""ArrowDown,ArrowLeft"":8,""ArrowDown,ArrowRight"":30}","true","ArrowDown,ArrowRight","","original","1","30","","",""
"html-keyboard-response","252","1020827","0.0-4.0-4.0-1.15","spark_pilot_norest","8609","7","13","Male","","","","","","","null","<div style=""font-size:60px;"">+</div>","null","fixation","","","","","","","","","31","","",""
"revaluation","253","1024869","0.0-4.0-4.0-0.16","spark_pilot_norest","8609","7","13","Male","","false","","","","","[597]","./assets/img/canyon/animals/lion.jpg","[""ArrowRight""]","revaluation","canyon","30","{""ArrowUp,ArrowLeft"":23,""ArrowUp,ArrowRight"":10,""ArrowDown,ArrowLeft"":8,""ArrowDown,ArrowRight"":30}","true","ArrowDown,ArrowRight","","original","1","32","","",""
"html-keyboard-response","254","1025388","0.0-4.0-4.0-1.16","spark_pilot_norest","8609","7","13","Male","","","","","","","null","<div style=""font-size:60px;"">+</div>","null","fixation","","","","","","","","","33","","",""
"revaluation","255","1029397","0.0-4.0-4.0-0.17","spark_pilot_norest","8609","7","13","Male","","false","","","","","[613]","./assets/img/canyon/animals/giraffe.jpg","[""ArrowLeft""]","revaluation","canyon","23","{""ArrowUp,ArrowLeft"":23,""ArrowUp,ArrowRight"":10,""ArrowDown,ArrowLeft"":8,""ArrowDown,ArrowRight"":30}","true","ArrowUp,ArrowLeft","","original","1","34","","",""
"html-keyboard-response","256","1029917","0.0-4.0-4.0-1.17","spark_pilot_norest","8609","7","13","Male","","","","","","","null","<div style=""font-size:60px;"">+</div>","null","fixation","","","","","","","","","35","","",""
"learning-instructions","257","1038042","0.0-4.0-5.0-0.0","spark_pilot_norest","8609","7","13","Male","","","","","","","null","<p> You have almost finished this part of the game! </p>
            <p> We are going to ask you to make a few more choices. </p>","","instructions","","","","","","","","","","","",""
"learning-instructions","258","1054027","0.0-4.0-5.0-0.1","spark_pilot_norest","8609","7","13","Male","","","","","","","null","<p> First, you need to decide whether to go up or down. When you see each picture, use the arrow keys to make your choice. </p>
            <p><b>You will not see which animal you found, but try to get to the one that will give you the most treasure.</b></p>","","instructions","","","","","","","","","","","",""
"html-keyboard-response","259","1055038","0.0-4.0-6.0-0.0","spark_pilot_norest","8609","7","13","Male","","","","","","","null","<div style=""font-size:100px;color:red;"">Starting in...</div>","null","","","","","","","","","","","","",""
"html-keyboard-response","260","1056040","0.0-4.0-6.0-1.0","spark_pilot_norest","8609","7","13","Male","","","","","","","null","<div style=""font-size:200px;color:red;"">3</div>","null","","","","","","","","","","","","",""
"html-keyboard-response","261","1057058","0.0-4.0-6.0-2.0","spark_pilot_norest","8609","7","13","Male","","","","","","","null","<div style=""font-size:200px;color:red;"">2</div>","null","","","","","","","","","","","","",""
"html-keyboard-response","262","1058059","0.0-4.0-6.0-3.0","spark_pilot_norest","8609","7","13","Male","","","","","","","null","<div style=""font-size:200px;color:red;"">1</div>","null","","","","","","","","","","","","",""
"revaluation","263","1058456","0.0-4.0-7.0-0.0","spark_pilot_norest","8609","7","13","Male","","false","","","","","[390]","./assets/img/canyon/test/3.jpg","[""ArrowDown""]","first stage test","canyon","0","{""ArrowUp,ArrowLeft"":23,""ArrowUp,ArrowRight"":10,""ArrowDown,ArrowLeft"":8,""ArrowDown,ArrowRight"":30}","true","ArrowDown","false","original","1","","","",""
"html-keyboard-response","264","1058958","0.0-4.0-7.0-1.0","spark_pilot_norest","8609","7","13","Male","","","","","","","null","<div style=""font-size:60px;"">+</div>","null","fixation","","","","","","","","","","","",""
"revaluation","265","1059480","0.0-4.0-7.0-0.1","spark_pilot_norest","8609","7","13","Male","","false","","","","","[516]","./assets/img/canyon/test/1.jpg","[""ArrowDown""]","first stage test","canyon","0","{""ArrowUp,ArrowLeft"":23,""ArrowUp,ArrowRight"":10,""ArrowDown,ArrowLeft"":8,""ArrowDown,ArrowRight"":30}","true","ArrowDown","false","original","1","","","",""
"html-keyboard-response","266","1059998","0.0-4.0-7.0-1.1","spark_pilot_norest","8609","7","13","Male","","","","","","","null","<div style=""font-size:60px;"">+</div>","null","fixation","","","","","","","","","","","",""
"revaluation","267","1060433","0.0-4.0-7.0-0.2","spark_pilot_norest","8609","7","13","Male","","false","","","","","[427]","./assets/img/canyon/test/0.jpg","[""ArrowDown""]","first stage test","canyon","0","{""ArrowUp,ArrowLeft"":23,""ArrowUp,ArrowRight"":10,""ArrowDown,ArrowLeft"":8,""ArrowDown,ArrowRight"":30}","true","ArrowDown","false","original","1","","","",""
"html-keyboard-response","268","1060938","0.0-4.0-7.0-1.2","spark_pilot_norest","8609","7","13","Male","","","","","","","null","<div style=""font-size:60px;"">+</div>","null","fixation","","","","","","","","","","","",""
"revaluation","269","1061361","0.0-4.0-7.0-0.3","spark_pilot_norest","8609","7","13","Male","","false","","","","","[416]","./assets/img/canyon/test/2.jpg","[""ArrowDown""]","first stage test","canyon","0","{""ArrowUp,ArrowLeft"":23,""ArrowUp,ArrowRight"":10,""ArrowDown,ArrowLeft"":8,""ArrowDown,ArrowRight"":30}","true","ArrowDown","false","original","1","","","",""
"html-keyboard-response","270","1061879","0.0-4.0-7.0-1.3","spark_pilot_norest","8609","7","13","Male","","","","","","","null","<div style=""font-size:60px;"">+</div>","null","fixation","","","","","","","","","","","",""
"learning-instructions","271","1075238","0.0-4.0-8.0-0.0","spark_pilot_norest","8609","7","13","Male","","","","","","","null","<p> Now you will see the animals again and can search their chests for treasure. </p>
            <p> This time, you will not see how much treasure you earned, but you will earn more bonus money for making better choices. </p>","","instructions","","","","","","","","","","","",""
"html-keyboard-response","272","1076257","0.0-4.0-9.0-0.0","spark_pilot_norest","8609","7","13","Male","","","","","","","null","<div style=""font-size:100px;color:red;"">Starting in...</div>","null","","","","","","","","","","","","",""
"html-keyboard-response","273","1077278","0.0-4.0-9.0-1.0","spark_pilot_norest","8609","7","13","Male","","","","","","","null","<div style=""font-size:200px;color:red;"">3</div>","null","","","","","","","","","","","","",""
"html-keyboard-response","274","1078298","0.0-4.0-9.0-2.0","spark_pilot_norest","8609","7","13","Male","","","","","","","null","<div style=""font-size:200px;color:red;"">2</div>","null","","","","","","","","","","","","",""
"html-keyboard-response","275","1079318","0.0-4.0-9.0-3.0","spark_pilot_norest","8609","7","13","Male","","","","","","","null","<div style=""font-size:200px;color:red;"">1</div>","null","","","","","","","","","","","","",""
"revaluation","276","1080641","0.0-4.0-10.0-0.0","spark_pilot_norest","8609","7","13","Male","","false","","","","","[1314]","./assets/img/canyon/animals/giraffe.jpg","[""ArrowLeft""]","second stage test","canyon","0","{""ArrowUp,ArrowLeft"":23,""ArrowUp,ArrowRight"":10,""ArrowDown,ArrowLeft"":8,""ArrowDown,ArrowRight"":30}","true","ArrowUp,ArrowLeft","","original","1","","","",""
"html-keyboard-response","277","1081157","0.0-4.0-10.0-1.0","spark_pilot_norest","8609","7","13","Male","","","","","","","null","<div style=""font-size:60px;"">+</div>","null","fixation","","","","","","","","","","","",""
"revaluation","278","1081673","0.0-4.0-10.0-0.1","spark_pilot_norest","8609","7","13","Male","","false","","","","","[507]","./assets/img/canyon/animals/giraffe.jpg","[""ArrowLeft""]","second stage test","canyon","0","{""ArrowUp,ArrowLeft"":23,""ArrowUp,ArrowRight"":10,""ArrowDown,ArrowLeft"":8,""ArrowDown,ArrowRight"":30}","true","ArrowUp,ArrowLeft","","original","1","","","",""
"html-keyboard-response","279","1082178","0.0-4.0-10.0-1.1","spark_pilot_norest","8609","7","13","Male","","","","","","","null","<div style=""font-size:60px;"">+</div>","null","fixation","","","","","","","","","","","",""
"revaluation","280","1082601","0.0-4.0-10.0-0.2","spark_pilot_norest","8609","7","13","Male","","false","","","","","[417]","./assets/img/canyon/animals/giraffe.jpg","[""ArrowLeft""]","second stage test","canyon","0","{""ArrowUp,ArrowLeft"":23,""ArrowUp,ArrowRight"":10,""ArrowDown,ArrowLeft"":8,""ArrowDown,ArrowRight"":30}","true","ArrowUp,ArrowLeft","","original","1","","","",""
"html-keyboard-response","281","1083107","0.0-4.0-10.0-1.2","spark_pilot_norest","8609","7","13","Male","","","","","","","null","<div style=""font-size:60px;"">+</div>","null","fixation","","","","","","","","","","","",""
"revaluation","282","1083601","0.0-4.0-10.0-0.3","spark_pilot_norest","8609","7","13","Male","","false","","","","","[486]","./assets/img/canyon/animals/giraffe.jpg","[""ArrowLeft""]","second stage test","canyon","0","{""ArrowUp,ArrowLeft"":23,""ArrowUp,ArrowRight"":10,""ArrowDown,ArrowLeft"":8,""ArrowDown,ArrowRight"":30}","true","ArrowUp,ArrowLeft","","original","1","","","",""
"html-keyboard-response","283","1084103","0.0-4.0-10.0-1.3","spark_pilot_norest","8609","7","13","Male","","","","","","","null","<div style=""font-size:60px;"">+</div>","null","fixation","","","","","","","","","","","",""
"revaluation","284","1084664","0.0-4.0-10.0-0.4","spark_pilot_norest","8609","7","13","Male","","false","","","","","[554]","./assets/img/canyon/animals/lion.jpg","[""ArrowRight""]","second stage test","canyon","0","{""ArrowUp,ArrowLeft"":23,""ArrowUp,ArrowRight"":10,""ArrowDown,ArrowLeft"":8,""ArrowDown,ArrowRight"":30}","true","ArrowDown,ArrowRight","","original","1","","","",""
"html-keyboard-response","285","1085177","0.0-4.0-10.0-1.4","spark_pilot_norest","8609","7","13","Male","","","","","","","null","<div style=""font-size:60px;"">+</div>","null","fixation","","","","","","","","","","","",""
"revaluation","286","1085512","0.0-4.0-10.0-0.5","spark_pilot_norest","8609","7","13","Male","","false","","","","","[328]","./assets/img/canyon/animals/lion.jpg","[""ArrowRight""]","second stage test","canyon","0","{""ArrowUp,ArrowLeft"":23,""ArrowUp,ArrowRight"":10,""ArrowDown,ArrowLeft"":8,""ArrowDown,ArrowRight"":30}","true","ArrowDown,ArrowRight","","original","1","","","",""
"html-keyboard-response","287","1086017","0.0-4.0-10.0-1.5","spark_pilot_norest","8609","7","13","Male","","","","","","","null","<div style=""font-size:60px;"">+</div>","null","fixation","","","","","","","","","","","",""
"revaluation","288","1086416","0.0-4.0-10.0-0.6","spark_pilot_norest","8609","7","13","Male","","false","","","","","[391]","./assets/img/canyon/animals/lion.jpg","[""ArrowRight""]","second stage test","canyon","0","{""ArrowUp,ArrowLeft"":23,""ArrowUp,ArrowRight"":10,""ArrowDown,ArrowLeft"":8,""ArrowDown,ArrowRight"":30}","true","ArrowDown,ArrowRight","","original","1","","","",""
"html-keyboard-response","289","1086917","0.0-4.0-10.0-1.6","spark_pilot_norest","8609","7","13","Male","","","","","","","null","<div style=""font-size:60px;"">+</div>","null","fixation","","","","","","","","","","","",""
"revaluation","290","1087321","0.0-4.0-10.0-0.7","spark_pilot_norest","8609","7","13","Male","","false","","","","","[396]","./assets/img/canyon/animals/lion.jpg","[""ArrowRight""]","second stage test","canyon","0","{""ArrowUp,ArrowLeft"":23,""ArrowUp,ArrowRight"":10,""ArrowDown,ArrowLeft"":8,""ArrowDown,ArrowRight"":30}","true","ArrowDown,ArrowRight","","original","1","","","",""
"html-keyboard-response","291","1087833","0.0-4.0-10.0-1.7","spark_pilot_norest","8609","7","13","Male","","","","","","","null","<div style=""font-size:60px;"">+</div>","null","fixation","","","","","","","","","","","",""
"learning-instructions","292","1092357","0.0-4.0-0.1-0.2","spark_pilot_norest","8609","7","13","Male","","","","","","","1738","<p> This time you are searching for treasure in the <b>ocean</b>.</p>","","instructions","","","","","","","","","","","",""
"learning-instructions","293","1110355","0.0-4.0-0.1-0.3","spark_pilot_norest","8609","7","13","Male","","","","","","","737","<p><b>New</b> animals with <b>new</b> treasure chests live here. You need to explore to discover where the animal with the best treasure chest is.</p>
                    <p> Like before, once you figure out which animal has the chest with the most treasure, you should try to get to that animal and select that chest! </p>","","instructions","","","","","","","","","","","",""
"learning-instructions","294","1126123","0.0-4.0-1.1-0.1","spark_pilot_norest","8609","7","13","Male","","","","","","","1024","<p> Remember, when you see a picture of the place, use the up and down keys to <b>find an animal</b>.</p>
            <p> When you encounter an animal, you should use the left and right keys to <b>select a treasure chest</b>.</p>
            <p> Don't forget to look out for the robber! </p>","","instructions","","","","","","","","","","","",""
"revaluation","295","1132168","0.0-4.0-2.1-0.50","spark_pilot_norest","8609","7","13","Male","","false","","","","","[1095,332]","./assets/img/ocean/memory/30.jpg","[""ArrowDown"",""ArrowLeft""]","value training","ocean","5","{""ArrowUp,ArrowLeft"":26,""ArrowUp,ArrowRight"":10,""ArrowDown,ArrowLeft"":5,""ArrowDown,ArrowRight"":17}","false","ArrowDown,ArrowLeft","false","revaluation","2","0","","",""
"html-keyboard-response","296","1132686","0.0-4.0-2.1-1.50","spark_pilot_norest","8609","7","13","Male","","","","","","","null","<div style=""font-size:60px;"">+</div>","null","fixation","","","","","","","","","1","","",""
"revaluation","297","1138728","0.0-4.0-2.1-0.51","spark_pilot_norest","8609","7","13","Male","","false","","","","","[91,349]","./assets/img/ocean/memory/29.jpg","[""ArrowDown"",""ArrowRight""]","value training","ocean","17","{""ArrowUp,ArrowLeft"":26,""ArrowUp,ArrowRight"":10,""ArrowDown,ArrowLeft"":5,""ArrowDown,ArrowRight"":17}","false","ArrowDown,ArrowRight","false","revaluation","2","2","","",""
"html-keyboard-response","298","1139243","0.0-4.0-2.1-1.51","spark_pilot_norest","8609","7","13","Male","","","","","","","null","<div style=""font-size:60px;"">+</div>","null","fixation","","","","","","","","","3","","",""
"revaluation","299","1145293","0.0-4.0-2.1-0.52","spark_pilot_norest","8609","7","13","Male","","false","","","","","[367,340]","./assets/img/ocean/memory/31.jpg","[""ArrowUp"",""ArrowRight""]","value training","ocean","10","{""ArrowUp,ArrowLeft"":26,""ArrowUp,ArrowRight"":10,""ArrowDown,ArrowLeft"":5,""ArrowDown,ArrowRight"":17}","false","ArrowUp,ArrowRight","false","revaluation","2","4","","",""
"html-keyboard-response","300","1145796","0.0-4.0-2.1-1.52","spark_pilot_norest","8609","7","13","Male","","","","","","","null","<div style=""font-size:60px;"">+</div>","null","fixation","","","","","","","","","5","","",""
"revaluation","301","1151823","0.0-4.0-2.1-0.53","spark_pilot_norest","8609","7","13","Male","","false","","","","","[68,273]","./assets/img/ocean/memory/14.jpg","[""ArrowUp"",""ArrowLeft""]","value training","ocean","26","{""ArrowUp,ArrowLeft"":26,""ArrowUp,ArrowRight"":10,""ArrowDown,ArrowLeft"":5,""ArrowDown,ArrowRight"":17}","true","ArrowUp,ArrowLeft","false","revaluation","2","6","","",""
"html-keyboard-response","302","1152348","0.0-4.0-2.1-1.53","spark_pilot_norest","8609","7","13","Male","","","","","","","null","<div style=""font-size:60px;"">+</div>","null","fixation","","","","","","","","","7","","",""
"revaluation","303","1156358","0.0-4.0-2.1-0.54","spark_pilot_norest","8609","7","13","Male","","false","","","","","[15]","./assets/img/ocean/catch/3.jpg","[""spaceBar""]","value training","ocean","0","{""ArrowUp,ArrowLeft"":26,""ArrowUp,ArrowRight"":10,""ArrowDown,ArrowLeft"":5,""ArrowDown,ArrowRight"":17}","true","spaceBar","true","revaluation","2","8","","",""
"html-keyboard-response","304","1156877","0.0-4.0-2.1-1.54","spark_pilot_norest","8609","7","13","Male","","","","","","","null","<div style=""font-size:60px;"">+</div>","null","fixation","","","","","","","","","9","","",""
"revaluation","305","1162930","0.0-4.0-2.1-0.55","spark_pilot_norest","8609","7","13","Male","","false","","","","","[987,329]","./assets/img/ocean/memory/14.jpg","[""ArrowUp"",""ArrowLeft""]","value training","ocean","26","{""ArrowUp,ArrowLeft"":26,""ArrowUp,ArrowRight"":10,""ArrowDown,ArrowLeft"":5,""ArrowDown,ArrowRight"":17}","true","ArrowUp,ArrowLeft","false","revaluation","2","10","","",""
"html-keyboard-response","306","1163441","0.0-4.0-2.1-1.55","spark_pilot_norest","8609","7","13","Male","","","","","","","null","<div style=""font-size:60px;"">+</div>","null","fixation","","","","","","","","","11","","",""
"revaluation","307","1169484","0.0-4.0-2.1-0.56","spark_pilot_norest","8609","7","13","Male","","false","","","","","[543,174]","./assets/img/ocean/memory/10.jpg","[""ArrowUp"",""ArrowLeft""]","value training","ocean","26","{""ArrowUp,ArrowLeft"":26,""ArrowUp,ArrowRight"":10,""ArrowDown,ArrowLeft"":5,""ArrowDown,ArrowRight"":17}","true","ArrowUp,ArrowLeft","false","revaluation","2","12","","",""
"html-keyboard-response","308","1169988","0.0-4.0-2.1-1.56","spark_pilot_norest","8609","7","13","Male","","","","","","","null","<div style=""font-size:60px;"">+</div>","null","fixation","","","","","","","","","13","","",""
"revaluation","309","1176039","0.0-4.0-2.1-0.57","spark_pilot_norest","8609","7","13","Male","","false","","","","","[501,451]","./assets/img/ocean/memory/6.jpg","[""ArrowUp"",""ArrowLeft""]","value training","ocean","26","{""ArrowUp,ArrowLeft"":26,""ArrowUp,ArrowRight"":10,""ArrowDown,ArrowLeft"":5,""ArrowDown,ArrowRight"":17}","true","ArrowUp,ArrowLeft","false","revaluation","2","14","","",""
"html-keyboard-response","310","1176557","0.0-4.0-2.1-1.57","spark_pilot_norest","8609","7","13","Male","","","","","","","null","<div style=""font-size:60px;"">+</div>","null","fixation","","","","","","","","","15","","",""
"revaluation","311","1182589","0.0-4.0-2.1-0.58","spark_pilot_norest","8609","7","13","Male","","false","","","","","[307,441]","./assets/img/ocean/memory/0.jpg","[""ArrowUp"",""ArrowLeft""]","value training","ocean","26","{""ArrowUp,ArrowLeft"":26,""ArrowUp,ArrowRight"":10,""ArrowDown,ArrowLeft"":5,""ArrowDown,ArrowRight"":17}","true","ArrowUp,ArrowLeft","false","revaluation","2","16","","",""
"html-keyboard-response","312","1183108","0.0-4.0-2.1-1.58","spark_pilot_norest","8609","7","13","Male","","","","","","","null","<div style=""font-size:60px;"">+</div>","null","fixation","","","","","","","","","17","","",""
"revaluation","313","1189138","0.0-4.0-2.1-0.59","spark_pilot_norest","8609","7","13","Male","","false","","","","","[247,409]","./assets/img/ocean/memory/19.jpg","[""ArrowUp"",""ArrowLeft""]","value training","ocean","26","{""ArrowUp,ArrowLeft"":26,""ArrowUp,ArrowRight"":10,""ArrowDown,ArrowLeft"":5,""ArrowDown,ArrowRight"":17}","true","ArrowUp,ArrowLeft","false","revaluation","2","18","","",""
"html-keyboard-response","314","1189658","0.0-4.0-2.1-1.59","spark_pilot_norest","8609","7","13","Male","","","","","","","null","<div style=""font-size:60px;"">+</div>","null","fixation","","","","","","","","","19","","",""
"revaluation","315","1195693","0.0-4.0-2.1-0.60","spark_pilot_norest","8609","7","13","Male","","false","","","","","[22,613]","./assets/img/ocean/memory/10.jpg","[""ArrowUp"",""ArrowLeft""]","value training","ocean","26","{""ArrowUp,ArrowLeft"":26,""ArrowUp,ArrowRight"":10,""ArrowDown,ArrowLeft"":5,""ArrowDown,ArrowRight"":17}","true","ArrowUp,ArrowLeft","false","revaluation","2","20","","",""
"html-keyboard-response","316","1196203","0.0-4.0-2.1-1.60","spark_pilot_norest","8609","7","13","Male","","","","","","","null","<div style=""font-size:60px;"">+</div>","null","fixation","","","","","","","","","21","","",""
"revaluation","317","1202248","0.0-4.0-2.1-0.61","spark_pilot_norest","8609","7","13","Male","","true","","","","","[124]","./assets/img/ocean/memory/17.jpg","[""ArrowUp""]","value training","ocean","-5","{""ArrowUp,ArrowLeft"":26,""ArrowUp,ArrowRight"":10,""ArrowDown,ArrowLeft"":5,""ArrowDown,ArrowRight"":17}","false","ArrowUp","false","revaluation","2","22","","",""
"html-keyboard-response","318","1202767","0.0-4.0-2.1-1.61","spark_pilot_norest","8609","7","13","Male","","","","","","","null","<div style=""font-size:60px;"">+</div>","null","fixation","","","","","","","","","23","","",""
"revaluation","319","1208798","0.0-4.0-2.1-0.62","spark_pilot_norest","8609","7","13","Male","","false","","","","","[131,158]","./assets/img/ocean/memory/5.jpg","[""ArrowUp"",""ArrowLeft""]","value training","ocean","26","{""ArrowUp,ArrowLeft"":26,""ArrowUp,ArrowRight"":10,""ArrowDown,ArrowLeft"":5,""ArrowDown,ArrowRight"":17}","true","ArrowUp,ArrowLeft","false","revaluation","2","24","","",""
"html-keyboard-response","320","1209308","0.0-4.0-2.1-1.62","spark_pilot_norest","8609","7","13","Male","","","","","","","null","<div style=""font-size:60px;"">+</div>","null","fixation","","","","","","","","","25","","",""
"revaluation","321","1215349","0.0-4.0-2.1-0.63","spark_pilot_norest","8609","7","13","Male","","false","","","","","[80,18]","./assets/img/ocean/memory/18.jpg","[""ArrowUp"",""ArrowLeft""]","value training","ocean","26","{""ArrowUp,ArrowLeft"":26,""ArrowUp,ArrowRight"":10,""ArrowDown,ArrowLeft"":5,""ArrowDown,ArrowRight"":17}","true","ArrowUp,ArrowLeft","false","revaluation","2","26","","",""
