"trial_type","trial_index","time_elapsed","internal_node_id","task_version","subject_id","assigned_condition","age","gender","browser_interaction","success","timeout","failed_images","failed_audio","failed_video","rt","stimulus","response","task_part","environment","score","rewardMap","correct","fullState","isCatch","condition","order","trial_num","key_press","ground_truth","bonus"
"pavlovia","0","1157","0.0-0.0","spark_pilot_norest","10685","4","7","Female","[{""event"":""focus"",""trial"":1,""time"":10834},{""event"":""blur"",""trial"":1,""time"":16839},{""event"":""focus"",""trial"":1,""time"":24633},{""event"":""blur"",""trial"":1,""time"":27961},{""event"":""focus"",""trial"":2,""time"":31669},{""event"":""fullscreenenter"",""trial"":2,""time"":35645}]","","","","","","","","","","","","","","","","","","","","",""
"preload","1","30567","0.0-1.0","spark_pilot_norest","10685","4","7","Female","[{""event"":""focus"",""trial"":1,""time"":10834},{""event"":""blur"",""trial"":1,""time"":16839},{""event"":""focus"",""trial"":1,""time"":24633},{""event"":""blur"",""trial"":1,""time"":27961},{""event"":""focus"",""trial"":2,""time"":31669},{""event"":""fullscreenenter"",""trial"":2,""time"":35645}]","true","false","[]","[]","[]","","","","","","","","","","","","","","","",""
"fullscreen","2","36524","0.0-2.0","spark_pilot_norest","10685","4","7","Female","","true","","","","","","","","","","","","","","","","","","","",""
"audio-button-response","3","46004","0.0-3.0-0.0-0.0","spark_pilot_norest","10685","4","7","Female","","","","","","","8501","./assets/audio/audiotest/turtle.mp3","4","audio_test","","","","","","","","","","","",""
"audio-button-response","4","49307","0.0-3.0-0.1-0.1","spark_pilot_norest","10685","4","7","Female","","","","","","","2301","./assets/audio/audiotest/turtle.mp3","2","audio_test","","","","","","","","","","","",""
"learning-instructions","5","60048","0.0-3.0-1.0-0.0","spark_pilot_norest","10685","4","7","Female","","","","","","","3738.599999964237","<p> Welcome! Please remember to stay in fullscreen mode and don't click away from the experiment. </p>","","instructions","","","","","","","","","","","",""
"learning-instructions","6","70813","0.0-3.0-1.0-0.1","spark_pilot_norest","10685","4","7","Female","","","","","","","2355.699999988079","<p> Today you will be playing a game to earn treasure. </p>
            <p> At the end of the experiment, you will earn a bonus based on how much treasure you find. </p>
            <img src='./assets/img/instructions/treasure.jpg' class='instructions-image'>","","instructions","","","","","","","","","","","",""
"learning-instructions","7","81073","0.0-3.0-1.0-0.2","spark_pilot_norest","10685","4","7","Female","","","","","","","2004.0999999642372","<p> Animals have hidden treasure in treasure chests. </p>
            <p> You need to first find an animal and then choose which of their treasure chests to search. </p>
            <img src='./assets/img/space/animals/cat.jpg' class='instructions-image'>","","instructions","","","","","","","","","","","",""
"learning-instructions","8","97368","0.0-3.0-1.0-0.3","spark_pilot_norest","10685","4","7","Female","","","","","","","3128.800000011921","<p> In each round, you will search for treasure in a different place. In the real game, there will be two rounds. </p>
            <p> You will begin with a separate, practice round where you will search for treasure in outer space. </p>
            <img src='./assets/img/space/0.jpg' class='instructions-image'>","","instructions","","","","","","","","","","","",""
"learning-instructions","9","111495","0.0-3.0-1.0-0.4","spark_pilot_norest","10685","4","7","Female","","","","","","","2718","<p> On every turn, you will see a picture of the place that you are in, but the specific image may be different each time. </p>
            <p> For example, both of these images mean you are in outer space. </p>
            <img src='./assets/img/instructions/outerspace.jpg' class='instructions-image'>","","instructions","","","","","","","","","","","",""
"learning-instructions","10","121299","0.0-3.0-1.0-0.5","spark_pilot_norest","10685","4","7","Female","","","","","","","1990.800000011921","<p> You need to decide which direction to travel in. </p>
            <p> You can choose between going <b>up or down</b> by using the arrow keys. </p>
            <img src='./assets/img/instructions/updown.jpg' class='instructions-image'>","","instructions","","","","","","","","","","","",""
"learning-instructions","11","132098","0.0-3.0-1.0-0.6","spark_pilot_norest","10685","4","7","Female","","","","","","","1990.800000011921","<p> You will have <b>2 seconds</b> to make your choice. </p>
            <p> If you do not make a choice within 2 seconds, you will not find an animal or earn treasure. </p>
            <img src='./assets/img/instructions/2seconds.jpg' class='instructions-image'>","","instructions","","","","","","","","","","","",""
"learning-instructions","12","141330","0.0-3.0-1.0-0.7","spark_pilot_norest","10685","4","7","Female","","","","","","","2191.699999988079","<p> Let’s try practicing that now! </p>
            <p> When you see a picture of the place you are in, press the <b>up</b> key to travel up. </p>
            <img src='./assets/img/instructions/pressUp.jpg' class='instructions-image'>","","instructions","","","","","","","","","","","",""
"revaluation","13","145348","0.0-3.0-2.0-0.0","spark_pilot_norest","10685","4","7","Female","","","false","","","","[1078.6000000238419]","./assets/img/space/0.jpg","[""ArrowUp""]","first stage practice","space","0","null","null","ArrowUp","false","","","","","",""
"html-keyboard-response","14","145854","0.0-3.0-2.0-1.0","spark_pilot_norest","10685","4","7","Female","","","","","","","null","<div style=""font-size:60px;"">+</div>","null","fixation","","","","","","","","","","","",""
"revaluation","15","149873","0.0-3.0-2.0-0.1","spark_pilot_norest","10685","4","7","Female","","","false","","","","[621.3000000119209]","./assets/img/space/1.jpg","[""ArrowUp""]","first stage practice","space","0","null","null","ArrowUp","false","","","","","",""
"html-keyboard-response","16","150381","0.0-3.0-2.0-1.1","spark_pilot_norest","10685","4","7","Female","","","","","","","null","<div style=""font-size:60px;"">+</div>","null","fixation","","","","","","","","","","","",""
"revaluation","17","154400","0.0-3.0-2.0-0.2","spark_pilot_norest","10685","4","7","Female","","","false","","","","[1298.699999988079]","./assets/img/space/2.jpg","[""ArrowUp""]","first stage practice","space","0","null","null","ArrowUp","false","","","","","",""
"html-keyboard-response","18","154917","0.0-3.0-2.0-1.2","spark_pilot_norest","10685","4","7","Female","","","","","","","null","<div style=""font-size:60px;"">+</div>","null","fixation","","","","","","","","","","","",""
"learning-instructions","19","161833","0.0-3.0-3.0-0.0","spark_pilot_norest","10685","4","7","Female","","","","","","","2155.399999976158","<p> Great job! Now try pressing the <b>down</b> key to travel down. </p>
            <img src='./assets/img/instructions/pressDown.jpg' class='instructions-image'>","","instructions","","","","","","","","","","","",""
"revaluation","20","165850","0.0-3.0-4.0-0.0","spark_pilot_norest","10685","4","7","Female","","","false","","","","[908.5]","./assets/img/space/3.jpg","[""ArrowDown""]","first stage practice","space","0","null","null","ArrowDown","false","","","","","",""
"html-keyboard-response","21","166351","0.0-3.0-4.0-1.0","spark_pilot_norest","10685","4","7","Female","","","","","","","null","<div style=""font-size:60px;"">+</div>","null","fixation","","","","","","","","","","","",""
"revaluation","22","170372","0.0-3.0-4.0-0.1","spark_pilot_norest","10685","4","7","Female","","","false","","","","[382]","./assets/img/space/4.jpg","[""ArrowDown""]","first stage practice","space","0","null","null","ArrowDown","false","","","","","",""
"html-keyboard-response","23","170886","0.0-3.0-4.0-1.1","spark_pilot_norest","10685","4","7","Female","","","","","","","null","<div style=""font-size:60px;"">+</div>","null","fixation","","","","","","","","","","","",""
"revaluation","24","174904","0.0-3.0-4.0-0.2","spark_pilot_norest","10685","4","7","Female","","","false","","","","[420]","./assets/img/space/5.jpg","[""ArrowDown""]","first stage practice","space","0","null","null","ArrowDown","false","","","","","",""
"html-keyboard-response","25","175418","0.0-3.0-4.0-1.2","spark_pilot_norest","10685","4","7","Female","","","","","","","null","<div style=""font-size:60px;"">+</div>","null","fixation","","","","","","","","","","","",""
"learning-instructions","26","187848","0.0-3.0-5.0-0.0","spark_pilot_norest","10685","4","7","Female","","","","","","","2581.5","<p> The animals don’t move, so the animal in the upper part of a place will stay in the upper part of a place, and the animal in the lower part of a place will stay in the lower part of a place. </p>","","instructions","","","","","","","","","","","",""
"learning-instructions","27","200064","0.0-3.0-5.0-0.1","spark_pilot_norest","10685","4","7","Female","","","","","","","3107.100000023842","<p> Each animal has two treasure chests for you to choose from. </p>
            <p> The amount of treasure in each chest can range from <b> 0 to 40 pieces.</b></p>","","instructions","","","","","","","","","","","",""
"learning-instructions","28","214927","0.0-3.0-5.0-0.2","spark_pilot_norest","10685","4","7","Female","","","","","","","3689","<p> You should decide which chest to search for treasure by using the <b>left</b> and <b>right</b> arrow keys. </p>
            <p><b> Pay attention to which animal is on the screen, as the animals have different treasure chests. </b></p>
            <img src='./assets/img/instructions/leftright.jpg' class='instructions-image'>","","instructions","","","","","","","","","","","",""
"learning-instructions","29","224205","0.0-3.0-5.0-0.3","spark_pilot_norest","10685","4","7","Female","","","","","","","2928.600000023842","<p> Let’s try practicing that now. </p>
            <p> When you see an animal, choose which chest to search for treasure. </p>
            <img src='./assets/img/instructions/chooseChest.jpg' class='instructions-image'>","","instructions","","","","","","","","","","","",""
"revaluation","30","228218","0.0-3.0-6.0-0.0","spark_pilot_norest","10685","4","7","Female","","","false","","","","[1470.7999999523163]","./assets/img/space/animals/rabbit.jpg","[""ArrowLeft""]","second stage practice","space","15","{""ArrowUp,ArrowLeft"":3,""ArrowUp,ArrowRight"":36,""ArrowDown,ArrowLeft"":15,""ArrowDown,ArrowRight"":23}","false","ArrowDown,ArrowLeft","","","","","","",""
"html-keyboard-response","31","228733","0.0-3.0-6.0-1.0","spark_pilot_norest","10685","4","7","Female","","","","","","","null","<div style=""font-size:60px;"">+</div>","null","fixation","","","","","","","","","","","",""
"revaluation","32","232762","0.0-3.0-6.0-0.1","spark_pilot_norest","10685","4","7","Female","","","false","","","","[532.2999999523163]","./assets/img/space/animals/rabbit.jpg","[""ArrowRight""]","second stage practice","space","23","{""ArrowUp,ArrowLeft"":3,""ArrowUp,ArrowRight"":36,""ArrowDown,ArrowLeft"":15,""ArrowDown,ArrowRight"":23}","true","ArrowDown,ArrowRight","","","","","","",""
"html-keyboard-response","33","233278","0.0-3.0-6.0-1.1","spark_pilot_norest","10685","4","7","Female","","","","","","","null","<div style=""font-size:60px;"">+</div>","null","fixation","","","","","","","","","","","",""
"revaluation","34","237306","0.0-3.0-6.0-0.2","spark_pilot_norest","10685","4","7","Female","","","false","","","","[420.39999997615814]","./assets/img/space/animals/cat.jpg","[""ArrowRight""]","second stage practice","space","36","{""ArrowUp,ArrowLeft"":3,""ArrowUp,ArrowRight"":36,""ArrowDown,ArrowLeft"":15,""ArrowDown,ArrowRight"":23}","true","ArrowUp,ArrowRight","","","","","","",""
"html-keyboard-response","35","237818","0.0-3.0-6.0-1.2","spark_pilot_norest","10685","4","7","Female","","","","","","","null","<div style=""font-size:60px;"">+</div>","null","fixation","","","","","","","","","","","",""
"revaluation","36","241828","0.0-3.0-6.0-0.3","spark_pilot_norest","10685","4","7","Female","","","false","","","","[463.80000001192093]","./assets/img/space/animals/cat.jpg","[""ArrowRight""]","second stage practice","space","36","{""ArrowUp,ArrowLeft"":3,""ArrowUp,ArrowRight"":36,""ArrowDown,ArrowLeft"":15,""ArrowDown,ArrowRight"":23}","true","ArrowUp,ArrowRight","","","","","","",""
"html-keyboard-response","37","242341","0.0-3.0-6.0-1.3","spark_pilot_norest","10685","4","7","Female","","","","","","","null","<div style=""font-size:60px;"">+</div>","null","fixation","","","","","","","","","","","",""
"learning-instructions","38","261624","0.0-3.0-7.0-0.0","spark_pilot_norest","10685","4","7","Female","","","","","","","2476.800000011921","<p> Great job. Now let’s try putting it together. </p>
            <p> On each turn, you will first see a picture to remind you of the place you are in, and you need to choose whether to go up or down. </p>
            <p> Then you will see an animal and choose which of its chests to search for treasure. </p>","","instructions","","","","","","","","","","","",""
"learning-instructions","39","271737","0.0-3.0-7.0-0.1","spark_pilot_norest","10685","4","7","Female","","","","","","","1830","<p> When you choose whether to go up or down, try to go to the animal with the chest with the most treasure. </p>
            <p> Try practicing that now! </p>","","instructions","","","","","","","","","","","",""
"revaluation","40","275754","0.0-3.0-8.0-0.0","spark_pilot_norest","10685","4","7","Female","","","true","","","","[]","./assets/img/space/6.jpg","[]","full practice","space","-5","{""ArrowUp,ArrowLeft"":3,""ArrowUp,ArrowRight"":36,""ArrowDown,ArrowLeft"":15,""ArrowDown,ArrowRight"":23}","false","","false","","","","","",""
"html-keyboard-response","41","276267","0.0-3.0-8.0-1.0","spark_pilot_norest","10685","4","7","Female","","","","","","","null","<div style=""font-size:60px;"">+</div>","null","fixation","","","","","","","","","","","",""
"revaluation","42","282302","0.0-3.0-8.0-0.1","spark_pilot_norest","10685","4","7","Female","","","true","","","","[1357.199999988079]","./assets/img/space/7.jpg","[""ArrowDown""]","full practice","space","-5","{""ArrowUp,ArrowLeft"":3,""ArrowUp,ArrowRight"":36,""ArrowDown,ArrowLeft"":15,""ArrowDown,ArrowRight"":23}","false","ArrowDown","false","","","","","",""
"html-keyboard-response","43","282804","0.0-3.0-8.0-1.1","spark_pilot_norest","10685","4","7","Female","","","","","","","null","<div style=""font-size:60px;"">+</div>","null","fixation","","","","","","","","","","","",""
"revaluation","44","288834","0.0-3.0-8.0-0.2","spark_pilot_norest","10685","4","7","Female","","","true","","","","[1098.4000000357628]","./assets/img/space/8.jpg","[""ArrowDown""]","full practice","space","-5","{""ArrowUp,ArrowLeft"":3,""ArrowUp,ArrowRight"":36,""ArrowDown,ArrowLeft"":15,""ArrowDown,ArrowRight"":23}","false","ArrowDown","false","","","","","",""
"html-keyboard-response","45","289336","0.0-3.0-8.0-1.2","spark_pilot_norest","10685","4","7","Female","","","","","","","null","<div style=""font-size:60px;"">+</div>","null","fixation","","","","","","","","","","","",""
"revaluation","46","295365","0.0-3.0-8.0-0.3","spark_pilot_norest","10685","4","7","Female","","","true","","","","[610.3000000119209]","./assets/img/space/9.jpg","[""ArrowUp""]","full practice","space","-5","{""ArrowUp,ArrowLeft"":3,""ArrowUp,ArrowRight"":36,""ArrowDown,ArrowLeft"":15,""ArrowDown,ArrowRight"":23}","false","ArrowUp","false","","","","","",""
"html-keyboard-response","47","295868","0.0-3.0-8.0-1.3","spark_pilot_norest","10685","4","7","Female","","","","","","","null","<div style=""font-size:60px;"">+</div>","null","fixation","","","","","","","","","","","",""
"revaluation","48","301890","0.0-3.0-8.0-0.4","spark_pilot_norest","10685","4","7","Female","","","true","","","","[560.6999999880791]","./assets/img/space/10.jpg","[""ArrowDown""]","full practice","space","-5","{""ArrowUp,ArrowLeft"":3,""ArrowUp,ArrowRight"":36,""ArrowDown,ArrowLeft"":15,""ArrowDown,ArrowRight"":23}","false","ArrowDown","false","","","","","",""
"html-keyboard-response","49","302391","0.0-3.0-8.0-1.4","spark_pilot_norest","10685","4","7","Female","","","","","","","null","<div style=""font-size:60px;"">+</div>","null","fixation","","","","","","","","","","","",""
"learning-instructions","50","314711","0.0-3.0-9.0-0.0","spark_pilot_norest","10685","4","7","Female","","","","","","","2019.6000000238419","<p> One last thing: sometimes, you will see a robber. The robber can be anywhere in the picture. </p>
            <p> If you do not stop them, you will lose treasure. </p>
            <img src='./assets/img/instructions/robber.jpg' class='instructions-image'>","","instructions","","","","","","","","","","","",""
"learning-instructions","51","323627","0.0-3.0-9.0-0.1","spark_pilot_norest","10685","4","7","Female","","","","","","","1766.0999999642372","<p> If you see the robber, you should <b>press the space bar</b> rather than using the arrow keys. </p>
            <p> Try practicing that now! </p>","","instructions","","","","","","","","","","","",""
"revaluation","52","327642","0.0-3.0-10.0-0.0","spark_pilot_norest","10685","4","7","Female","","","false","","","","[925.6999999880791]","./assets/img/space/catch/0.jpg","[""spaceBar""]","catch practice","space","0","{""ArrowUp,ArrowLeft"":3,""ArrowUp,ArrowRight"":36,""ArrowDown,ArrowLeft"":15,""ArrowDown,ArrowRight"":23}","true","spaceBar","true","","","","","",""
"html-keyboard-response","53","328147","0.0-3.0-10.0-1.0","spark_pilot_norest","10685","4","7","Female","","","","","","","null","<div style=""font-size:60px;"">+</div>","null","fixation","","","","","","","","","","","",""
"revaluation","54","332167","0.0-3.0-10.0-0.1","spark_pilot_norest","10685","4","7","Female","","","false","","","","[466.60000002384186]","./assets/img/space/catch/1.jpg","[""spaceBar""]","catch practice","space","0","{""ArrowUp,ArrowLeft"":3,""ArrowUp,ArrowRight"":36,""ArrowDown,ArrowLeft"":15,""ArrowDown,ArrowRight"":23}","true","spaceBar","true","","","","","",""
"html-keyboard-response","55","332669","0.0-3.0-10.0-1.1","spark_pilot_norest","10685","4","7","Female","","","","","","","null","<div style=""font-size:60px;"">+</div>","null","fixation","","","","","","","","","","","",""
"revaluation","56","336683","0.0-3.0-10.0-0.2","spark_pilot_norest","10685","4","7","Female","","","false","","","","[675.3000000119209]","./assets/img/space/catch/2.jpg","[""spaceBar""]","catch practice","space","0","{""ArrowUp,ArrowLeft"":3,""ArrowUp,ArrowRight"":36,""ArrowDown,ArrowLeft"":15,""ArrowDown,ArrowRight"":23}","true","spaceBar","true","","","","","",""
"html-keyboard-response","57","337192","0.0-3.0-10.0-1.2","spark_pilot_norest","10685","4","7","Female","","","","","","","null","<div style=""font-size:60px;"">+</div>","null","fixation","","","","","","","","","","","",""
"learning-instructions","58","344601","0.0-3.0-11.0-0.0-0.0","spark_pilot_norest","10685","4","7","Female","","","","","","","2150","<p> Now, you will practice a shortened version of the game to get a sense of how it all fits together. </p>","","instructions","","","","","","","","","","","",""
"learning-instructions","59","350168","0.0-3.0-11.0-0.0-0.1","spark_pilot_norest","10685","4","7","Female","","","","","","","2387.400000035763","<p>This time you are searching for treasure in outer space.</p>","","instructions","","","","","","","","","","","",""
"learning-instructions","60","368751","0.0-3.0-11.0-1.0-0.0","spark_pilot_norest","10685","4","7","Female","","","","","","","3829.899999976158","<p> Remember, when you see a picture of the place, use the up and down keys to <b>find an animal</b>.</p>
            <p> When you encounter an animal, you should use the left and right keys to <b>select a treasure chest</b>.</p>
            <p> Don't forget to look out for the robber! </p>","","instructions","","","","","","","","","","","",""
"revaluation","61","374781","0.0-3.0-11.0-2.0-0.0","spark_pilot_norest","10685","4","7","Female","","","true","","","","[1491.699999988079]","./assets/img/space/11.jpg","[""ArrowDown""]","practice block","space","-5","{""ArrowUp,ArrowLeft"":3,""ArrowUp,ArrowRight"":36,""ArrowDown,ArrowLeft"":15,""ArrowDown,ArrowRight"":23}","false","ArrowDown","false","","","","","",""
"html-keyboard-response","62","375283","0.0-3.0-11.0-2.0-1.0","spark_pilot_norest","10685","4","7","Female","","","","","","","null","<div style=""font-size:60px;"">+</div>","null","fixation","","","","","","","","","","","",""
"revaluation","63","381313","0.0-3.0-11.0-2.0-0.1","spark_pilot_norest","10685","4","7","Female","","","true","","","","[579.8000000119209]","./assets/img/space/12.jpg","[""ArrowDown""]","practice block","space","-5","{""ArrowUp,ArrowLeft"":3,""ArrowUp,ArrowRight"":36,""ArrowDown,ArrowLeft"":15,""ArrowDown,ArrowRight"":23}","false","ArrowDown","false","","","","","",""
"html-keyboard-response","64","381817","0.0-3.0-11.0-2.0-1.1","spark_pilot_norest","10685","4","7","Female","","","","","","","null","<div style=""font-size:60px;"">+</div>","null","fixation","","","","","","","","","","","",""
"revaluation","65","385831","0.0-3.0-11.0-2.0-0.2","spark_pilot_norest","10685","4","7","Female","","","true","","","","[]","./assets/img/space/13.jpg","[]","practice block","space","-5","{""ArrowUp,ArrowLeft"":3,""ArrowUp,ArrowRight"":36,""ArrowDown,ArrowLeft"":15,""ArrowDown,ArrowRight"":23}","false","","false","","","","","",""
"html-keyboard-response","66","386343","0.0-3.0-11.0-2.0-1.2","spark_pilot_norest","10685","4","7","Female","","","","","","","null","<div style=""font-size:60px;"">+</div>","null","fixation","","","","","","","","","","","",""
"revaluation","67","392363","0.0-3.0-11.0-2.0-0.3","spark_pilot_norest","10685","4","7","Female","","","false","","","","[757.3000000119209,1801.5]","./assets/img/space/14.jpg","[""ArrowDown"",""ArrowRight""]","practice block","space","23","{""ArrowUp,ArrowLeft"":3,""ArrowUp,ArrowRight"":36,""ArrowDown,ArrowLeft"":15,""ArrowDown,ArrowRight"":23}","false","ArrowDown,ArrowRight","false","","","","","",""
"html-keyboard-response","68","392867","0.0-3.0-11.0-2.0-1.3","spark_pilot_norest","10685","4","7","Female","","","","","","","null","<div style=""font-size:60px;"">+</div>","null","fixation","","","","","","","","","","","",""
"revaluation","69","398885","0.0-3.0-11.0-2.0-0.4","spark_pilot_norest","10685","4","7","Female","","","false","","","","[814.6999999880791,529.4000000357628]","./assets/img/space/11.jpg","[""ArrowDown"",""ArrowRight""]","practice block","space","23","{""ArrowUp,ArrowLeft"":3,""ArrowUp,ArrowRight"":36,""ArrowDown,ArrowLeft"":15,""ArrowDown,ArrowRight"":23}","false","ArrowDown,ArrowRight","false","","","","","",""
"html-keyboard-response","70","399387","0.0-3.0-11.0-2.0-1.4","spark_pilot_norest","10685","4","7","Female","","","","","","","null","<div style=""font-size:60px;"">+</div>","null","fixation","","","","","","","","","","","",""
"revaluation","71","405394","0.0-3.0-11.0-2.0-0.5","spark_pilot_norest","10685","4","7","Female","","","false","","","","[429,220]","./assets/img/space/12.jpg","[""ArrowDown"",""ArrowRight""]","practice block","space","23","{""ArrowUp,ArrowLeft"":3,""ArrowUp,ArrowRight"":36,""ArrowDown,ArrowLeft"":15,""ArrowDown,ArrowRight"":23}","false","ArrowDown,ArrowRight","false","","","","","",""
"html-keyboard-response","72","405895","0.0-3.0-11.0-2.0-1.5","spark_pilot_norest","10685","4","7","Female","","","","","","","null","<div style=""font-size:60px;"">+</div>","null","fixation","","","","","","","","","","","",""
"revaluation","73","411910","0.0-3.0-11.0-2.0-0.6","spark_pilot_norest","10685","4","7","Female","","","false","","","","[1249.1000000238419,751.5]","./assets/img/space/13.jpg","[""ArrowDown"",""ArrowLeft""]","practice block","space","15","{""ArrowUp,ArrowLeft"":3,""ArrowUp,ArrowRight"":36,""ArrowDown,ArrowLeft"":15,""ArrowDown,ArrowRight"":23}","false","ArrowDown,ArrowLeft","false","","","","","",""
"html-keyboard-response","74","412412","0.0-3.0-11.0-2.0-1.6","spark_pilot_norest","10685","4","7","Female","","","","","","","null","<div style=""font-size:60px;"">+</div>","null","fixation","","","","","","","","","","","",""
"revaluation","75","418423","0.0-3.0-11.0-2.0-0.7","spark_pilot_norest","10685","4","7","Female","","","false","","","","[1640.199999988079,847.3999999761581]","./assets/img/space/14.jpg","[""ArrowDown"",""ArrowRight""]","practice block","space","23","{""ArrowUp,ArrowLeft"":3,""ArrowUp,ArrowRight"":36,""ArrowDown,ArrowLeft"":15,""ArrowDown,ArrowRight"":23}","false","ArrowDown,ArrowRight","false","","","","","",""
"html-keyboard-response","76","418924","0.0-3.0-11.0-2.0-1.7","spark_pilot_norest","10685","4","7","Female","","","","","","","null","<div style=""font-size:60px;"">+</div>","null","fixation","","","","","","","","","","","",""
"revaluation","77","422931","0.0-3.0-11.0-2.0-0.8","spark_pilot_norest","10685","4","7","Female","","","false","","","","[578.1999999880791]","./assets/img/space/catch/3.jpg","[""ArrowDown""]","practice block","space","-10","{""ArrowUp,ArrowLeft"":3,""ArrowUp,ArrowRight"":36,""ArrowDown,ArrowLeft"":15,""ArrowDown,ArrowRight"":23}","false","ArrowDown","true","","","","","",""
"html-keyboard-response","78","423434","0.0-3.0-11.0-2.0-1.8","spark_pilot_norest","10685","4","7","Female","","","","","","","null","<div style=""font-size:60px;"">+</div>","null","fixation","","","","","","","","","","","",""
"learning-instructions","79","440072","0.0-3.0-11.0-3.0-0.0","spark_pilot_norest","10685","4","7","Female","","","","","","","3422.5","<p> Now, you will travel with a friend who will choose whether you go up or down first. </p>
            <p> On these turns, you will just see the animal that they found. You will still get to choose which chest to search for treasure.</p>","","instructions","","","","","","","","","","","",""
"revaluation","80","444081","0.0-3.0-11.0-4.0-0.0","spark_pilot_norest","10685","4","7","Female","","","false","","","","[1391.9000000357628]","./assets/img/space/animals/rabbit.jpg","[""ArrowRight""]","practice block","space","23","{""ArrowUp,ArrowLeft"":3,""ArrowUp,ArrowRight"":36,""ArrowDown,ArrowLeft"":15,""ArrowDown,ArrowRight"":23}","true","ArrowDown,ArrowRight","","","","","","",""
"html-keyboard-response","81","444584","0.0-3.0-11.0-4.0-1.0","spark_pilot_norest","10685","4","7","Female","","","","","","","null","<div style=""font-size:60px;"">+</div>","null","fixation","","","","","","","","","","","",""
"revaluation","82","448600","0.0-3.0-11.0-4.0-0.1","spark_pilot_norest","10685","4","7","Female","","","false","","","","[464.0999999642372]","./assets/img/space/animals/cat.jpg","[""ArrowLeft""]","practice block","space","3","{""ArrowUp,ArrowLeft"":3,""ArrowUp,ArrowRight"":36,""ArrowDown,ArrowLeft"":15,""ArrowDown,ArrowRight"":23}","false","ArrowUp,ArrowLeft","","","","","","",""
"html-keyboard-response","83","449102","0.0-3.0-11.0-4.0-1.1","spark_pilot_norest","10685","4","7","Female","","","","","","","null","<div style=""font-size:60px;"">+</div>","null","fixation","","","","","","","","","","","",""
"revaluation","84","453115","0.0-3.0-11.0-4.0-0.2","spark_pilot_norest","10685","4","7","Female","","","false","","","","[499.80000001192093]","./assets/img/space/animals/cat.jpg","[""ArrowRight""]","practice block","space","36","{""ArrowUp,ArrowLeft"":3,""ArrowUp,ArrowRight"":36,""ArrowDown,ArrowLeft"":15,""ArrowDown,ArrowRight"":23}","true","ArrowUp,ArrowRight","","","","","","",""
"html-keyboard-response","85","453618","0.0-3.0-11.0-4.0-1.2","spark_pilot_norest","10685","4","7","Female","","","","","","","null","<div style=""font-size:60px;"">+</div>","null","fixation","","","","","","","","","","","",""
"revaluation","86","457645","0.0-3.0-11.0-4.0-0.3","spark_pilot_norest","10685","4","7","Female","","","false","","","","[176]","./assets/img/space/animals/rabbit.jpg","[""ArrowRight""]","practice block","space","23","{""ArrowUp,ArrowLeft"":3,""ArrowUp,ArrowRight"":36,""ArrowDown,ArrowLeft"":15,""ArrowDown,ArrowRight"":23}","true","ArrowDown,ArrowRight","","","","","","",""
"html-keyboard-response","87","458148","0.0-3.0-11.0-4.0-1.3","spark_pilot_norest","10685","4","7","Female","","","","","","","null","<div style=""font-size:60px;"">+</div>","null","fixation","","","","","","","","","","","",""
"learning-instructions","88","466286","0.0-3.0-11.0-5.0-0.0","spark_pilot_norest","10685","4","7","Female","","","","","","","null","<p> You have almost finished this part of the game! </p>
            <p> We are going to ask you to make a few more choices. </p>","","instructions","","","","","","","","","","","",""
"learning-instructions","89","482314","0.0-3.0-11.0-5.0-0.1","spark_pilot_norest","10685","4","7","Female","","","","","","","null","<p> First, you need to decide whether to go up or down. When you see each picture, use the arrow keys to make your choice. </p>
            <p><b>You will not see which animal you found, but try to get to the one that will give you the most treasure.</b></p>","","instructions","","","","","","","","","","","",""
"html-keyboard-response","90","483327","0.0-3.0-11.0-6.0-0.0","spark_pilot_norest","10685","4","7","Female","","","","","","","null","<div style=""font-size:100px;color:red;"">Starting in...</div>","null","","","","","","","","","","","","",""
"html-keyboard-response","91","484344","0.0-3.0-11.0-6.0-1.0","spark_pilot_norest","10685","4","7","Female","","","","","","","null","<div style=""font-size:200px;color:red;"">3</div>","null","","","","","","","","","","","","",""
"html-keyboard-response","92","485358","0.0-3.0-11.0-6.0-2.0","spark_pilot_norest","10685","4","7","Female","","","","","","","null","<div style=""font-size:200px;color:red;"">2</div>","null","","","","","","","","","","","","",""
"html-keyboard-response","93","486362","0.0-3.0-11.0-6.0-3.0","spark_pilot_norest","10685","4","7","Female","","","","","","","null","<div style=""font-size:200px;color:red;"">1</div>","null","","","","","","","","","","","","",""
"revaluation","94","487212","0.0-3.0-11.0-7.0","spark_pilot_norest","10685","4","7","Female","","","false","","","","[847.8999999761581]","./assets/img/space/15.jpg","[""ArrowDown""]","practice block","space","0","{""ArrowUp,ArrowLeft"":3,""ArrowUp,ArrowRight"":36,""ArrowDown,ArrowLeft"":15,""ArrowDown,ArrowRight"":23}","false","ArrowDown","false","","","","","",""
"html-keyboard-response","95","487714","0.0-3.0-11.0-8.0","spark_pilot_norest","10685","4","7","Female","","","","","","","null","<div style=""font-size:60px;"">+</div>","null","fixation","","","","","","","","","","","",""
"learning-instructions","96","501084","0.0-3.0-11.0-9.0-0.0","spark_pilot_norest","10685","4","7","Female","","","","","","","null","<p> Now you will see the animals again and can search their chests for treasure. </p>
            <p> This time, you will not see how much treasure you earned, but you will earn more bonus money for making better choices. </p>","","instructions","","","","","","","","","","","",""
"html-keyboard-response","97","502096","0.0-3.0-11.0-10.0-0.0","spark_pilot_norest","10685","4","7","Female","","","","","","","null","<div style=""font-size:100px;color:red;"">Starting in...</div>","null","","","","","","","","","","","","",""
"html-keyboard-response","98","503113","0.0-3.0-11.0-10.0-1.0","spark_pilot_norest","10685","4","7","Female","","","","","","","null","<div style=""font-size:200px;color:red;"">3</div>","null","","","","","","","","","","","","",""
"html-keyboard-response","99","504130","0.0-3.0-11.0-10.0-2.0","spark_pilot_norest","10685","4","7","Female","","","","","","","null","<div style=""font-size:200px;color:red;"">2</div>","null","","","","","","","","","","","","",""
"html-keyboard-response","100","505142","0.0-3.0-11.0-10.0-3.0","spark_pilot_norest","10685","4","7","Female","","","","","","","null","<div style=""font-size:200px;color:red;"">1</div>","null","","","","","","","","","","","","",""
"revaluation","101","506160","0.0-3.0-11.0-11.0-0.0","spark_pilot_norest","10685","4","7","Female","","","false","","","","[1016.1000000238419]","./assets/img/space/animals/cat.jpg","[""ArrowRight""]","practice block","space","0","{""ArrowUp,ArrowLeft"":3,""ArrowUp,ArrowRight"":36,""ArrowDown,ArrowLeft"":15,""ArrowDown,ArrowRight"":23}","true","ArrowUp,ArrowRight","","","","","","",""
"html-keyboard-response","102","506666","0.0-3.0-11.0-11.0-1.0","spark_pilot_norest","10685","4","7","Female","","","","","","","null","<div style=""font-size:60px;"">+</div>","null","fixation","","","","","","","","","","","",""
"revaluation","103","507357","0.0-3.0-11.0-11.0-0.1","spark_pilot_norest","10685","4","7","Female","","","false","","","","[689]","./assets/img/space/animals/rabbit.jpg","[""ArrowRight""]","practice block","space","0","{""ArrowUp,ArrowLeft"":3,""ArrowUp,ArrowRight"":36,""ArrowDown,ArrowLeft"":15,""ArrowDown,ArrowRight"":23}","true","ArrowDown,ArrowRight","","","","","","",""
"html-keyboard-response","104","507866","0.0-3.0-11.0-11.0-1.1","spark_pilot_norest","10685","4","7","Female","","","","","","","null","<div style=""font-size:60px;"">+</div>","null","fixation","","","","","","","","","","","",""
"learning-instructions","105","515016","0.0-3.0-12.0-0.0","spark_pilot_norest","10685","4","7","Female","","","","","","","2575.7000000476837","<p> Before you start, we're going to ask you a few questions about how the game works. </p>","","instructions","","","","","","","","","","","",""
"comp-q","106","522759","0.0-3.0-13.0-0.0-0.0","spark_pilot_norest","10685","4","7","Female","","","","","","","2164.2999999523163","<p> <b> True or False? </b> </p>
            <p> There can be 50 pieces of treasure in a given animal's chest. </p>","1","comp_question","","","","true","","","","","","","",""
"comp-q","107","532910","0.0-3.0-13.0-0.0-1.0","spark_pilot_norest","10685","4","7","Female","","","","","","","3510","<p> <b> That's right! </b> The amount of treasure in each chest can range from 0 to 40 pieces. </p>","0","comp_answer","","","","","","","","","","","",""
"comp-q","108","542070","0.0-3.0-13.0-0.1-0.1","spark_pilot_norest","10685","4","7","Female","","","","","","","2049.900000035763","<p> <b> True or False? </b> </p><p> In this game, all animals have the same amount of treasure in their left and right chests. </p>","1","comp_question","","","","true","","","","","","","",""
"comp-q","109","549190","0.0-3.0-13.0-0.1-1.1","spark_pilot_norest","10685","4","7","Female","","","","","","","1889.8999999761581","<p> <b> That's right! </b> Animals have different amounts of treasure in their treasure chests. </p>","0","comp_answer","","","","","","","","","","","",""
"comp-q","110","562421","0.0-3.0-13.0-0.2-0.2","spark_pilot_norest","10685","4","7","Female","","","","","","","7390.200000047684","<p> <b> True or False? </b> </p><p> The same animal will always be there if you go up in the same place. </p>","1","comp_question","","","","false","","","","","","","",""
"comp-q","111","572090","0.0-3.0-13.0-0.2-1.2","spark_pilot_norest","10685","4","7","Female","","","","","","","3379.199999988079","<p> <b>Incorrect.</b> One animal lives in the upper part and one lives in the lower part of every place. </p>","0","comp_answer","","","","","","","","","","","",""
"comp-q","112","579460","0.0-3.0-13.0-0.3-0.3","spark_pilot_norest","10685","4","7","Female","","","","","","","1549.7000000476837","<p> <b> True or False? </b> </p><p> The same animal will always be there if you go up in the same place. </p>","1","comp_question","","","","false","","","","","","","",""
"comp-q","113","587724","0.0-3.0-13.0-0.3-1.3","spark_pilot_norest","10685","4","7","Female","","","","","","","1983.2999999523163","<p> <b>Incorrect.</b> One animal lives in the upper part and one lives in the lower part of every place. </p>","0","comp_answer","","","","","","","","","","","",""
"comp-q","114","595170","0.0-3.0-13.0-0.4-0.4","spark_pilot_norest","10685","4","7","Female","","","","","","","1619.0999999642372","<p> <b> True or False? </b> </p><p> The same animal will always be there if you go up in the same place. </p>","0","comp_question","","","","true","","","","","","","",""
"comp-q","115","604119","0.0-3.0-13.0-0.4-1.4","spark_pilot_norest","10685","4","7","Female","","","","","","","2518.300000011921","<p> <b> That's right! </b> One animal lives in the upper part and one lives in the lower part of every place. </p>","0","comp_answer","","","","","","","","","","","",""
"comp-q","116","614296","0.0-3.0-13.0-0.5-0.5","spark_pilot_norest","10685","4","7","Female","","","","","","","4665.099999964237","<p> <b> True or False? </b> </p><p> If you see a different picture, it means you are in a new place. </p>","0","comp_question","","","","false","","","","","","","",""
"comp-q","117","627536","0.0-3.0-13.0-0.5-1.5","spark_pilot_norest","10685","4","7","Female","","","","","","","2155.2000000476837","<p> <b>Incorrect.</b> Lots of different images may show the same place. For example,  you may see three different images that all remind you that you are in outer space. </p>","0","comp_answer","","","","","","","","","","","",""
"comp-q","118","634170","0.0-3.0-13.0-0.6-0.6","spark_pilot_norest","10685","4","7","Female","","","","","","","1139.5","<p> <b> True or False? </b> </p><p> If you see a different picture, it means you are in a new place. </p>","1","comp_question","","","","true","","","","","","","",""
"comp-q","119","647076","0.0-3.0-13.0-0.6-1.6","spark_pilot_norest","10685","4","7","Female","","","","","","","1685.1000000238419","<p> <b> That's right! </b> Lots of different images may show the same place. For example,  you may see three different images that all remind you that you are in outer space. </p>","0","comp_answer","","","","","","","","","","","",""
"learning-instructions","120","660874","0.0-3.0-14.0-0.0","spark_pilot_norest","10685","4","7","Female","","","","","","","3963.199999988079","<p> Good job. Remember to do your best because the amount of treasure you earn will be converted into bonus money. </p>
            <p> It’s time to start the real game! </p>","","instructions","","","","","","","","","","","",""
"learning-instructions","121","665459","0.0-4.0-0.0-0.0","spark_pilot_norest","10685","4","7","Female","","","","","","","1877.5999999642372","<p> This time you are searching for treasure in the <b>ocean</b>.</p>","","instructions","","","","","","","","","","","",""
"learning-instructions","122","685954","0.0-4.0-0.0-0.1","spark_pilot_norest","10685","4","7","Female","","","","","","","3213.199999988079","<p><b>New</b> animals with <b>new</b> treasure chests live here. You need to explore to discover where the animal with the best treasure chest is.</p>
                    <p> Like before, once you figure out which animal has the chest with the most treasure, you should try to get to that animal and select that chest! </p>","","instructions","","","","","","","","","","","",""
"learning-instructions","123","704428","0.0-4.0-1.0-0.0","spark_pilot_norest","10685","4","7","Female","","","","","","","3746.900000035763","<p> Remember, when you see a picture of the place, use the up and down keys to <b>find an animal</b>.</p>
            <p> When you encounter an animal, you should use the left and right keys to <b>select a treasure chest</b>.</p>
            <p> Don't forget to look out for the robber! </p>","","instructions","","","","","","","","","","","",""
"revaluation","124","710442","0.0-4.0-2.0-0.0","spark_pilot_norest","10685","4","7","Female","","","true","","","","[1636.0999999642372]","./assets/img/ocean/memory/20.jpg","[""ArrowDown""]","value training","ocean","-5","{""ArrowUp,ArrowLeft"":26,""ArrowUp,ArrowRight"":10,""ArrowDown,ArrowLeft"":5,""ArrowDown,ArrowRight"":17}","false","ArrowDown","false","revaluation","1","0","","",""
"html-keyboard-response","125","710952","0.0-4.0-2.0-1.0","spark_pilot_norest","10685","4","7","Female","","","","","","","null","<div style=""font-size:60px;"">+</div>","null","fixation","","","","","","","","","1","","",""
"revaluation","126","716992","0.0-4.0-2.0-0.1","spark_pilot_norest","10685","4","7","Female","","","false","","","","[542.5,918.0999999642372]","./assets/img/ocean/memory/12.jpg","[""ArrowDown"",""ArrowRight""]","value training","ocean","17","{""ArrowUp,ArrowLeft"":26,""ArrowUp,ArrowRight"":10,""ArrowDown,ArrowLeft"":5,""ArrowDown,ArrowRight"":17}","false","ArrowDown,ArrowRight","false","revaluation","1","2","","",""
"html-keyboard-response","127","717509","0.0-4.0-2.0-1.1","spark_pilot_norest","10685","4","7","Female","","","","","","","null","<div style=""font-size:60px;"">+</div>","null","fixation","","","","","","","","","3","","",""
"revaluation","128","723544","0.0-4.0-2.0-0.2","spark_pilot_norest","10685","4","7","Female","","","false","","","","[1705.800000011921,753.8999999761581]","./assets/img/ocean/memory/3.jpg","[""ArrowDown"",""ArrowRight""]","value training","ocean","17","{""ArrowUp,ArrowLeft"":26,""ArrowUp,ArrowRight"":10,""ArrowDown,ArrowLeft"":5,""ArrowDown,ArrowRight"":17}","false","ArrowDown,ArrowRight","false","revaluation","1","4","","",""
"html-keyboard-response","129","724055","0.0-4.0-2.0-1.2","spark_pilot_norest","10685","4","7","Female","","","","","","","null","<div style=""font-size:60px;"">+</div>","null","fixation","","","","","","","","","5","","",""
"revaluation","130","728079","0.0-4.0-2.0-0.3","spark_pilot_norest","10685","4","7","Female","","","false","","","","[1266.5]","./assets/img/ocean/catch/1.jpg","[""spaceBar""]","value training","ocean","0","{""ArrowUp,ArrowLeft"":26,""ArrowUp,ArrowRight"":10,""ArrowDown,ArrowLeft"":5,""ArrowDown,ArrowRight"":17}","true","spaceBar","true","revaluation","1","6","","",""
"html-keyboard-response","131","728585","0.0-4.0-2.0-1.3","spark_pilot_norest","10685","4","7","Female","","","","","","","null","<div style=""font-size:60px;"">+</div>","null","fixation","","","","","","","","","7","","",""
"revaluation","132","734594","0.0-4.0-2.0-0.4","spark_pilot_norest","10685","4","7","Female","","","false","","","","[1323,1171.5]","./assets/img/ocean/memory/19.jpg","[""ArrowDown"",""ArrowRight""]","value training","ocean","17","{""ArrowUp,ArrowLeft"":26,""ArrowUp,ArrowRight"":10,""ArrowDown,ArrowLeft"":5,""ArrowDown,ArrowRight"":17}","false","ArrowDown,ArrowRight","false","revaluation","1","8","","",""
"html-keyboard-response","133","735096","0.0-4.0-2.0-1.4","spark_pilot_norest","10685","4","7","Female","","","","","","","null","<div style=""font-size:60px;"">+</div>","null","fixation","","","","","","","","","9","","",""
"revaluation","134","739098","0.0-4.0-2.0-0.5","spark_pilot_norest","10685","4","7","Female","","","false","","","","[1054.2999999523163]","./assets/img/ocean/catch/0.jpg","[""spaceBar""]","value training","ocean","0","{""ArrowUp,ArrowLeft"":26,""ArrowUp,ArrowRight"":10,""ArrowDown,ArrowLeft"":5,""ArrowDown,ArrowRight"":17}","true","spaceBar","true","revaluation","1","10","","",""
"html-keyboard-response","135","739600","0.0-4.0-2.0-1.5","spark_pilot_norest","10685","4","7","Female","","","","","","","null","<div style=""font-size:60px;"">+</div>","null","fixation","","","","","","","","","11","","",""
"revaluation","136","745605","0.0-4.0-2.0-0.6","spark_pilot_norest","10685","4","7","Female","","","false","","","","[1160.0999999642372,925.6999999880791]","./assets/img/ocean/memory/16.jpg","[""ArrowDown"",""ArrowRight""]","value training","ocean","17","{""ArrowUp,ArrowLeft"":26,""ArrowUp,ArrowRight"":10,""ArrowDown,ArrowLeft"":5,""ArrowDown,ArrowRight"":17}","false","ArrowDown,ArrowRight","false","revaluation","1","12","","",""
"html-keyboard-response","137","746107","0.0-4.0-2.0-1.6","spark_pilot_norest","10685","4","7","Female","","","","","","","null","<div style=""font-size:60px;"">+</div>","null","fixation","","","","","","","","","13","","",""
"revaluation","138","752110","0.0-4.0-2.0-0.7","spark_pilot_norest","10685","4","7","Female","","","true","","","","[1280.800000011921]","./assets/img/ocean/memory/0.jpg","[""ArrowUp""]","value training","ocean","-5","{""ArrowUp,ArrowLeft"":26,""ArrowUp,ArrowRight"":10,""ArrowDown,ArrowLeft"":5,""ArrowDown,ArrowRight"":17}","false","ArrowUp","false","revaluation","1","14","","",""
"html-keyboard-response","139","752612","0.0-4.0-2.0-1.7","spark_pilot_norest","10685","4","7","Female","","","","","","","null","<div style=""font-size:60px;"">+</div>","null","fixation","","","","","","","","","15","","",""
"revaluation","140","758624","0.0-4.0-2.0-0.8","spark_pilot_norest","10685","4","7","Female","","","false","","","","[1282.5,800.1000000238419]","./assets/img/ocean/memory/6.jpg","[""ArrowDown"",""ArrowRight""]","value training","ocean","17","{""ArrowUp,ArrowLeft"":26,""ArrowUp,ArrowRight"":10,""ArrowDown,ArrowLeft"":5,""ArrowDown,ArrowRight"":17}","false","ArrowDown,ArrowRight","false","revaluation","1","16","","",""
"html-keyboard-response","141","759125","0.0-4.0-2.0-1.8","spark_pilot_norest","10685","4","7","Female","","","","","","","null","<div style=""font-size:60px;"">+</div>","null","fixation","","","","","","","","","17","","",""
"revaluation","142","765131","0.0-4.0-2.0-0.9","spark_pilot_norest","10685","4","7","Female","","","false","","","","[648,607]","./assets/img/ocean/memory/4.jpg","[""ArrowDown"",""ArrowLeft""]","value training","ocean","5","{""ArrowUp,ArrowLeft"":26,""ArrowUp,ArrowRight"":10,""ArrowDown,ArrowLeft"":5,""ArrowDown,ArrowRight"":17}","false","ArrowDown,ArrowLeft","false","revaluation","1","18","","",""
"html-keyboard-response","143","765633","0.0-4.0-2.0-1.9","spark_pilot_norest","10685","4","7","Female","","","","","","","null","<div style=""font-size:60px;"">+</div>","null","fixation","","","","","","","","","19","","",""
"revaluation","144","771638","0.0-4.0-2.0-0.10","spark_pilot_norest","10685","4","7","Female","","","false","","","","[1076.800000011921,726.1000000238419]","./assets/img/ocean/memory/14.jpg","[""ArrowDown"",""ArrowRight""]","value training","ocean","17","{""ArrowUp,ArrowLeft"":26,""ArrowUp,ArrowRight"":10,""ArrowDown,ArrowLeft"":5,""ArrowDown,ArrowRight"":17}","false","ArrowDown,ArrowRight","false","revaluation","1","20","","",""
"html-keyboard-response","145","772140","0.0-4.0-2.0-1.10","spark_pilot_norest","10685","4","7","Female","","","","","","","null","<div style=""font-size:60px;"">+</div>","null","fixation","","","","","","","","","21","","",""
"revaluation","146","778147","0.0-4.0-2.0-0.11","spark_pilot_norest","10685","4","7","Female","","","false","","","","[1014,1214.199999988079]","./assets/img/ocean/memory/29.jpg","[""ArrowDown"",""ArrowRight""]","value training","ocean","17","{""ArrowUp,ArrowLeft"":26,""ArrowUp,ArrowRight"":10,""ArrowDown,ArrowLeft"":5,""ArrowDown,ArrowRight"":17}","false","ArrowDown,ArrowRight","false","revaluation","1","22","","",""
"html-keyboard-response","147","778653","0.0-4.0-2.0-1.11","spark_pilot_norest","10685","4","7","Female","","","","","","","null","<div style=""font-size:60px;"">+</div>","null","fixation","","","","","","","","","23","","",""
"revaluation","148","784660","0.0-4.0-2.0-0.12","spark_pilot_norest","10685","4","7","Female","","","false","","","","[1286.5,660.8000000119209]","./assets/img/ocean/memory/3.jpg","[""ArrowDown"",""ArrowRight""]","value training","ocean","17","{""ArrowUp,ArrowLeft"":26,""ArrowUp,ArrowRight"":10,""ArrowDown,ArrowLeft"":5,""ArrowDown,ArrowRight"":17}","false","ArrowDown,ArrowRight","false","revaluation","1","24","","",""
"html-keyboard-response","149","785162","0.0-4.0-2.0-1.12","spark_pilot_norest","10685","4","7","Female","","","","","","","null","<div style=""font-size:60px;"">+</div>","null","fixation","","","","","","","","","25","","",""
"revaluation","150","789167","0.0-4.0-2.0-0.13","spark_pilot_norest","10685","4","7","Female","","","false","","","","[1060.7000000476837]","./assets/img/ocean/catch/5.jpg","[""ArrowDown""]","value training","ocean","-10","{""ArrowUp,ArrowLeft"":26,""ArrowUp,ArrowRight"":10,""ArrowDown,ArrowLeft"":5,""ArrowDown,ArrowRight"":17}","false","ArrowDown","true","revaluation","1","26","","",""
"html-keyboard-response","151","789668","0.0-4.0-2.0-1.13","spark_pilot_norest","10685","4","7","Female","","","","","","","null","<div style=""font-size:60px;"">+</div>","null","fixation","","","","","","","","","27","","",""
"revaluation","152","795675","0.0-4.0-2.0-0.14","spark_pilot_norest","10685","4","7","Female","","","false","","","","[1088,1040.1000000238419]","./assets/img/ocean/memory/7.jpg","[""ArrowUp"",""ArrowRight""]","value training","ocean","10","{""ArrowUp,ArrowLeft"":26,""ArrowUp,ArrowRight"":10,""ArrowDown,ArrowLeft"":5,""ArrowDown,ArrowRight"":17}","false","ArrowUp,ArrowRight","false","revaluation","1","28","","",""
"html-keyboard-response","153","796189","0.0-4.0-2.0-1.14","spark_pilot_norest","10685","4","7","Female","","","","","","","null","<div style=""font-size:60px;"">+</div>","null","fixation","","","","","","","","","29","","",""
"revaluation","154","802196","0.0-4.0-2.0-0.15","spark_pilot_norest","10685","4","7","Female","","","false","","","","[1165.699999988079,581]","./assets/img/ocean/memory/10.jpg","[""ArrowUp"",""ArrowLeft""]","value training","ocean","26","{""ArrowUp,ArrowLeft"":26,""ArrowUp,ArrowRight"":10,""ArrowDown,ArrowLeft"":5,""ArrowDown,ArrowRight"":17}","true","ArrowUp,ArrowLeft","false","revaluation","1","30","","",""
"html-keyboard-response","155","802698","0.0-4.0-2.0-1.15","spark_pilot_norest","10685","4","7","Female","","","","","","","null","<div style=""font-size:60px;"">+</div>","null","fixation","","","","","","","","","31","","",""
"revaluation","156","808703","0.0-4.0-2.0-0.16","spark_pilot_norest","10685","4","7","Female","","","false","","","","[938.1999999880791,1476.0999999642372]","./assets/img/ocean/memory/29.jpg","[""ArrowUp"",""ArrowLeft""]","value training","ocean","26","{""ArrowUp,ArrowLeft"":26,""ArrowUp,ArrowRight"":10,""ArrowDown,ArrowLeft"":5,""ArrowDown,ArrowRight"":17}","true","ArrowUp,ArrowLeft","false","revaluation","1","32","","",""
"html-keyboard-response","157","809205","0.0-4.0-2.0-1.16","spark_pilot_norest","10685","4","7","Female","","","","","","","null","<div style=""font-size:60px;"">+</div>","null","fixation","","","","","","","","","33","","",""
"revaluation","158","813209","0.0-4.0-2.0-0.17","spark_pilot_norest","10685","4","7","Female","","","false","","","","[641.6999999880791]","./assets/img/ocean/catch/3.jpg","[""ArrowDown""]","value training","ocean","-10","{""ArrowUp,ArrowLeft"":26,""ArrowUp,ArrowRight"":10,""ArrowDown,ArrowLeft"":5,""ArrowDown,ArrowRight"":17}","false","ArrowDown","true","revaluation","1","34","","",""
"html-keyboard-response","159","813712","0.0-4.0-2.0-1.17","spark_pilot_norest","10685","4","7","Female","","","","","","","null","<div style=""font-size:60px;"">+</div>","null","fixation","","","","","","","","","35","","",""
"revaluation","160","819716","0.0-4.0-2.0-0.18","spark_pilot_norest","10685","4","7","Female","","","false","","","","[1346.199999988079,1465.699999988079]","./assets/img/ocean/memory/11.jpg","[""ArrowDown"",""ArrowLeft""]","value training","ocean","5","{""ArrowUp,ArrowLeft"":26,""ArrowUp,ArrowRight"":10,""ArrowDown,ArrowLeft"":5,""ArrowDown,ArrowRight"":17}","false","ArrowDown,ArrowLeft","false","revaluation","1","36","","",""
"html-keyboard-response","161","820231","0.0-4.0-2.0-1.18","spark_pilot_norest","10685","4","7","Female","","","","","","","null","<div style=""font-size:60px;"">+</div>","null","fixation","","","","","","","","","37","","",""
"revaluation","162","826240","0.0-4.0-2.0-0.19","spark_pilot_norest","10685","4","7","Female","","","false","","","","[802.8000000119209,291.30000001192093]","./assets/img/ocean/memory/8.jpg","[""ArrowDown"",""ArrowRight""]","value training","ocean","17","{""ArrowUp,ArrowLeft"":26,""ArrowUp,ArrowRight"":10,""ArrowDown,ArrowLeft"":5,""ArrowDown,ArrowRight"":17}","false","ArrowDown,ArrowRight","false","revaluation","1","38","","",""
"html-keyboard-response","163","826742","0.0-4.0-2.0-1.19","spark_pilot_norest","10685","4","7","Female","","","","","","","null","<div style=""font-size:60px;"">+</div>","null","fixation","","","","","","","","","39","","",""
"revaluation","164","832748","0.0-4.0-2.0-0.20","spark_pilot_norest","10685","4","7","Female","","","false","","","","[860.5,512]","./assets/img/ocean/memory/15.jpg","[""ArrowDown"",""ArrowRight""]","value training","ocean","17","{""ArrowUp,ArrowLeft"":26,""ArrowUp,ArrowRight"":10,""ArrowDown,ArrowLeft"":5,""ArrowDown,ArrowRight"":17}","false","ArrowDown,ArrowRight","false","revaluation","1","40","","",""
"html-keyboard-response","165","833250","0.0-4.0-2.0-1.20","spark_pilot_norest","10685","4","7","Female","","","","","","","null","<div style=""font-size:60px;"">+</div>","null","fixation","","","","","","","","","41","","",""
"revaluation","166","839256","0.0-4.0-2.0-0.21","spark_pilot_norest","10685","4","7","Female","","","false","","","","[916.8000000119209,690.1999999880791]","./assets/img/ocean/memory/4.jpg","[""ArrowDown"",""ArrowRight""]","value training","ocean","17","{""ArrowUp,ArrowLeft"":26,""ArrowUp,ArrowRight"":10,""ArrowDown,ArrowLeft"":5,""ArrowDown,ArrowRight"":17}","false","ArrowDown,ArrowRight","false","revaluation","1","42","","",""
"html-keyboard-response","167","839758","0.0-4.0-2.0-1.21","spark_pilot_norest","10685","4","7","Female","","","","","","","null","<div style=""font-size:60px;"">+</div>","null","fixation","","","","","","","","","43","","",""
"revaluation","168","845765","0.0-4.0-2.0-0.22","spark_pilot_norest","10685","4","7","Female","","","false","","","","[629.5,883.5999999642372]","./assets/img/ocean/memory/0.jpg","[""ArrowDown"",""ArrowLeft""]","value training","ocean","5","{""ArrowUp,ArrowLeft"":26,""ArrowUp,ArrowRight"":10,""ArrowDown,ArrowLeft"":5,""ArrowDown,ArrowRight"":17}","false","ArrowDown,ArrowLeft","false","revaluation","1","44","","",""
"html-keyboard-response","169","846267","0.0-4.0-2.0-1.22","spark_pilot_norest","10685","4","7","Female","","","","","","","null","<div style=""font-size:60px;"">+</div>","null","fixation","","","","","","","","","45","","",""
"revaluation","170","850273","0.0-4.0-2.0-0.23","spark_pilot_norest","10685","4","7","Female","","","false","","","","[1135.300000011921]","./assets/img/ocean/catch/4.jpg","[""spaceBar""]","value training","ocean","0","{""ArrowUp,ArrowLeft"":26,""ArrowUp,ArrowRight"":10,""ArrowDown,ArrowLeft"":5,""ArrowDown,ArrowRight"":17}","true","spaceBar","true","revaluation","1","46","","",""
"html-keyboard-response","171","850774","0.0-4.0-2.0-1.23","spark_pilot_norest","10685","4","7","Female","","","","","","","null","<div style=""font-size:60px;"">+</div>","null","fixation","","","","","","","","","47","","",""
"revaluation","172","854781","0.0-4.0-2.0-0.24","spark_pilot_norest","10685","4","7","Female","","","false","","","","[1012.1000000238419]","./assets/img/ocean/catch/6.jpg","[""spaceBar""]","value training","ocean","0","{""ArrowUp,ArrowLeft"":26,""ArrowUp,ArrowRight"":10,""ArrowDown,ArrowLeft"":5,""ArrowDown,ArrowRight"":17}","true","spaceBar","true","revaluation","1","48","","",""
"html-keyboard-response","173","855283","0.0-4.0-2.0-1.24","spark_pilot_norest","10685","4","7","Female","","","","","","","null","<div style=""font-size:60px;"">+</div>","null","fixation","","","","","","","","","49","","",""
"revaluation","174","859287","0.0-4.0-2.0-0.25","spark_pilot_norest","10685","4","7","Female","","","false","","","","[805]","./assets/img/ocean/catch/7.jpg","[""spaceBar""]","value training","ocean","0","{""ArrowUp,ArrowLeft"":26,""ArrowUp,ArrowRight"":10,""ArrowDown,ArrowLeft"":5,""ArrowDown,ArrowRight"":17}","true","spaceBar","true","revaluation","1","50","","",""
"html-keyboard-response","175","859789","0.0-4.0-2.0-1.25","spark_pilot_norest","10685","4","7","Female","","","","","","","null","<div style=""font-size:60px;"">+</div>","null","fixation","","","","","","","","","51","","",""
"revaluation","176","865794","0.0-4.0-2.0-0.26","spark_pilot_norest","10685","4","7","Female","","","false","","","","[818.1999999880791,642.5]","./assets/img/ocean/memory/10.jpg","[""ArrowDown"",""ArrowRight""]","value training","ocean","17","{""ArrowUp,ArrowLeft"":26,""ArrowUp,ArrowRight"":10,""ArrowDown,ArrowLeft"":5,""ArrowDown,ArrowRight"":17}","false","ArrowDown,ArrowRight","false","revaluation","1","52","","",""
"html-keyboard-response","177","866296","0.0-4.0-2.0-1.26","spark_pilot_norest","10685","4","7","Female","","","","","","","null","<div style=""font-size:60px;"">+</div>","null","fixation","","","","","","","","","53","","",""
"revaluation","178","872305","0.0-4.0-2.0-0.27","spark_pilot_norest","10685","4","7","Female","","","false","","","","[841.1000000238419,320.5999999642372]","./assets/img/ocean/memory/41.jpg","[""ArrowDown"",""ArrowLeft""]","value training","ocean","5","{""ArrowUp,ArrowLeft"":26,""ArrowUp,ArrowRight"":10,""ArrowDown,ArrowLeft"":5,""ArrowDown,ArrowRight"":17}","false","ArrowDown,ArrowLeft","false","revaluation","1","54","","",""
"html-keyboard-response","179","872807","0.0-4.0-2.0-1.27","spark_pilot_norest","10685","4","7","Female","","","","","","","null","<div style=""font-size:60px;"">+</div>","null","fixation","","","","","","","","","55","","",""
"revaluation","180","878812","0.0-4.0-2.0-0.28","spark_pilot_norest","10685","4","7","Female","","","false","","","","[860.6999999880791,412.80000001192093]","./assets/img/ocean/memory/11.jpg","[""ArrowDown"",""ArrowRight""]","value training","ocean","17","{""ArrowUp,ArrowLeft"":26,""ArrowUp,ArrowRight"":10,""ArrowDown,ArrowLeft"":5,""ArrowDown,ArrowRight"":17}","false","ArrowDown,ArrowRight","false","revaluation","1","56","","",""
"html-keyboard-response","181","879326","0.0-4.0-2.0-1.28","spark_pilot_norest","10685","4","7","Female","","","","","","","null","<div style=""font-size:60px;"">+</div>","null","fixation","","","","","","","","","57","","",""
"revaluation","182","885499","0.0-4.0-2.0-0.29","spark_pilot_norest","10685","4","7","Female","","","false","","","","[1035.699999988079,1352.2000000476837]","./assets/img/ocean/memory/25.jpg","[""ArrowDown"",""ArrowRight""]","value training","ocean","17","{""ArrowUp,ArrowLeft"":26,""ArrowUp,ArrowRight"":10,""ArrowDown,ArrowLeft"":5,""ArrowDown,ArrowRight"":17}","false","ArrowDown,ArrowRight","false","revaluation","1","58","","",""
"html-keyboard-response","183","886001","0.0-4.0-2.0-1.29","spark_pilot_norest","10685","4","7","Female","","","","","","","null","<div style=""font-size:60px;"">+</div>","null","fixation","","","","","","","","","59","","",""
"revaluation","184","892005","0.0-4.0-2.0-0.30","spark_pilot_norest","10685","4","7","Female","","","false","","","","[1720.2000000476837,1003.1999999880791]","./assets/img/ocean/memory/25.jpg","[""ArrowDown"",""ArrowRight""]","value training","ocean","17","{""ArrowUp,ArrowLeft"":26,""ArrowUp,ArrowRight"":10,""ArrowDown,ArrowLeft"":5,""ArrowDown,ArrowRight"":17}","false","ArrowDown,ArrowRight","false","revaluation","1","60","","",""
"html-keyboard-response","185","892507","0.0-4.0-2.0-1.30","spark_pilot_norest","10685","4","7","Female","","","","","","","null","<div style=""font-size:60px;"">+</div>","null","fixation","","","","","","","","","61","","",""
"revaluation","186","898515","0.0-4.0-2.0-0.31","spark_pilot_norest","10685","4","7","Female","","","false","","","","[558.6000000238419,747.8999999761581]","./assets/img/ocean/memory/1.jpg","[""ArrowUp"",""ArrowRight""]","value training","ocean","10","{""ArrowUp,ArrowLeft"":26,""ArrowUp,ArrowRight"":10,""ArrowDown,ArrowLeft"":5,""ArrowDown,ArrowRight"":17}","false","ArrowUp,ArrowRight","false","revaluation","1","62","","",""
"html-keyboard-response","187","899016","0.0-4.0-2.0-1.31","spark_pilot_norest","10685","4","7","Female","","","","","","","null","<div style=""font-size:60px;"">+</div>","null","fixation","","","","","","","","","63","","",""
"revaluation","188","903019","0.0-4.0-2.0-0.32","spark_pilot_norest","10685","4","7","Female","","","false","","","","[969.5]","./assets/img/ocean/catch/2.jpg","[""spaceBar""]","value training","ocean","0","{""ArrowUp,ArrowLeft"":26,""ArrowUp,ArrowRight"":10,""ArrowDown,ArrowLeft"":5,""ArrowDown,ArrowRight"":17}","true","spaceBar","true","revaluation","1","64","","",""
"html-keyboard-response","189","903520","0.0-4.0-2.0-1.32","spark_pilot_norest","10685","4","7","Female","","","","","","","null","<div style=""font-size:60px;"">+</div>","null","fixation","","","","","","","","","65","","",""
"revaluation","190","909525","0.0-4.0-2.0-0.33","spark_pilot_norest","10685","4","7","Female","","","false","","","","[1113.9000000357628,651.8000000119209]","./assets/img/ocean/memory/9.jpg","[""ArrowDown"",""ArrowRight""]","value training","ocean","17","{""ArrowUp,ArrowLeft"":26,""ArrowUp,ArrowRight"":10,""ArrowDown,ArrowLeft"":5,""ArrowDown,ArrowRight"":17}","false","ArrowDown,ArrowRight","false","revaluation","1","66","","",""
"html-keyboard-response","191","910026","0.0-4.0-2.0-1.33","spark_pilot_norest","10685","4","7","Female","","","","","","","null","<div style=""font-size:60px;"">+</div>","null","fixation","","","","","","","","","67","","",""
"revaluation","192","916031","0.0-4.0-2.0-0.34","spark_pilot_norest","10685","4","7","Female","","","false","","","","[793.1000000238419,379.39999997615814]","./assets/img/ocean/memory/41.jpg","[""ArrowDown"",""ArrowRight""]","value training","ocean","17","{""ArrowUp,ArrowLeft"":26,""ArrowUp,ArrowRight"":10,""ArrowDown,ArrowLeft"":5,""ArrowDown,ArrowRight"":17}","false","ArrowDown,ArrowRight","false","revaluation","1","68","","",""
"html-keyboard-response","193","916532","0.0-4.0-2.0-1.34","spark_pilot_norest","10685","4","7","Female","","","","","","","null","<div style=""font-size:60px;"">+</div>","null","fixation","","","","","","","","","69","","",""
"revaluation","194","922550","0.0-4.0-2.0-0.35","spark_pilot_norest","10685","4","7","Female","","","false","","","","[1650.199999988079,564.6999999880791]","./assets/img/ocean/memory/7.jpg","[""ArrowDown"",""ArrowRight""]","value training","ocean","17","{""ArrowUp,ArrowLeft"":26,""ArrowUp,ArrowRight"":10,""ArrowDown,ArrowLeft"":5,""ArrowDown,ArrowRight"":17}","false","ArrowDown,ArrowRight","false","revaluation","1","70","","",""
"html-keyboard-response","195","923053","0.0-4.0-2.0-1.35","spark_pilot_norest","10685","4","7","Female","","","","","","","null","<div style=""font-size:60px;"">+</div>","null","fixation","","","","","","","","","71","","",""
"revaluation","196","929059","0.0-4.0-2.0-0.36","spark_pilot_norest","10685","4","7","Female","","","false","","","","[899.6000000238419,366.9000000357628]","./assets/img/ocean/memory/2.jpg","[""ArrowDown"",""ArrowLeft""]","value training","ocean","5","{""ArrowUp,ArrowLeft"":26,""ArrowUp,ArrowRight"":10,""ArrowDown,ArrowLeft"":5,""ArrowDown,ArrowRight"":17}","false","ArrowDown,ArrowLeft","false","revaluation","1","72","","",""
"html-keyboard-response","197","929561","0.0-4.0-2.0-1.36","spark_pilot_norest","10685","4","7","Female","","","","","","","null","<div style=""font-size:60px;"">+</div>","null","fixation","","","","","","","","","73","","",""
"revaluation","198","935568","0.0-4.0-2.0-0.37","spark_pilot_norest","10685","4","7","Female","","","false","","","","[982.5999999642372,694.8000000119209]","./assets/img/ocean/memory/6.jpg","[""ArrowDown"",""ArrowLeft""]","value training","ocean","5","{""ArrowUp,ArrowLeft"":26,""ArrowUp,ArrowRight"":10,""ArrowDown,ArrowLeft"":5,""ArrowDown,ArrowRight"":17}","false","ArrowDown,ArrowLeft","false","revaluation","1","74","","",""
"html-keyboard-response","199","936069","0.0-4.0-2.0-1.37","spark_pilot_norest","10685","4","7","Female","","","","","","","null","<div style=""font-size:60px;"">+</div>","null","fixation","","","","","","","","","75","","",""
"revaluation","200","942073","0.0-4.0-2.0-0.38","spark_pilot_norest","10685","4","7","Female","","","false","","","","[510.5,339.0999999642372]","./assets/img/ocean/memory/8.jpg","[""ArrowDown"",""ArrowRight""]","value training","ocean","17","{""ArrowUp,ArrowLeft"":26,""ArrowUp,ArrowRight"":10,""ArrowDown,ArrowLeft"":5,""ArrowDown,ArrowRight"":17}","false","ArrowDown,ArrowRight","false","revaluation","1","76","","",""
"html-keyboard-response","201","942575","0.0-4.0-2.0-1.38","spark_pilot_norest","10685","4","7","Female","","","","","","","null","<div style=""font-size:60px;"">+</div>","null","fixation","","","","","","","","","77","","",""
"revaluation","202","948585","0.0-4.0-2.0-0.39","spark_pilot_norest","10685","4","7","Female","","","false","","","","[779.2999999523163,618.6000000238419]","./assets/img/ocean/memory/1.jpg","[""ArrowUp"",""ArrowRight""]","value training","ocean","10","{""ArrowUp,ArrowLeft"":26,""ArrowUp,ArrowRight"":10,""ArrowDown,ArrowLeft"":5,""ArrowDown,ArrowRight"":17}","false","ArrowUp,ArrowRight","false","revaluation","1","78","","",""
"html-keyboard-response","203","949087","0.0-4.0-2.0-1.39","spark_pilot_norest","10685","4","7","Female","","","","","","","null","<div style=""font-size:60px;"">+</div>","null","fixation","","","","","","","","","79","","",""
"revaluation","204","953092","0.0-4.0-2.0-0.40","spark_pilot_norest","10685","4","7","Female","","","true","","","","[]","./assets/img/ocean/memory/14.jpg","[]","value training","ocean","-5","{""ArrowUp,ArrowLeft"":26,""ArrowUp,ArrowRight"":10,""ArrowDown,ArrowLeft"":5,""ArrowDown,ArrowRight"":17}","false","","false","revaluation","1","80","","",""
"html-keyboard-response","205","953595","0.0-4.0-2.0-1.40","spark_pilot_norest","10685","4","7","Female","","","","","","","null","<div style=""font-size:60px;"">+</div>","null","fixation","","","","","","","","","81","","",""
"revaluation","206","959603","0.0-4.0-2.0-0.41","spark_pilot_norest","10685","4","7","Female","","","false","","","","[1050.8999999761581,519.3999999761581]","./assets/img/ocean/memory/2.jpg","[""ArrowUp"",""ArrowRight""]","value training","ocean","10","{""ArrowUp,ArrowLeft"":26,""ArrowUp,ArrowRight"":10,""ArrowDown,ArrowLeft"":5,""ArrowDown,ArrowRight"":17}","false","ArrowUp,ArrowRight","false","revaluation","1","82","","",""
"html-keyboard-response","207","960105","0.0-4.0-2.0-1.41","spark_pilot_norest","10685","4","7","Female","","","","","","","null","<div style=""font-size:60px;"">+</div>","null","fixation","","","","","","","","","83","","",""
"revaluation","208","966112","0.0-4.0-2.0-0.42","spark_pilot_norest","10685","4","7","Female","","","false","","","","[667.8000000119209,784.6000000238419]","./assets/img/ocean/memory/15.jpg","[""ArrowDown"",""ArrowRight""]","value training","ocean","17","{""ArrowUp,ArrowLeft"":26,""ArrowUp,ArrowRight"":10,""ArrowDown,ArrowLeft"":5,""ArrowDown,ArrowRight"":17}","false","ArrowDown,ArrowRight","false","revaluation","1","84","","",""
"html-keyboard-response","209","966614","0.0-4.0-2.0-1.42","spark_pilot_norest","10685","4","7","Female","","","","","","","null","<div style=""font-size:60px;"">+</div>","null","fixation","","","","","","","","","85","","",""
"revaluation","210","972619","0.0-4.0-2.0-0.43","spark_pilot_norest","10685","4","7","Female","","","false","","","","[650.3999999761581,605.0999999642372]","./assets/img/ocean/memory/16.jpg","[""ArrowDown"",""ArrowRight""]","value training","ocean","17","{""ArrowUp,ArrowLeft"":26,""ArrowUp,ArrowRight"":10,""ArrowDown,ArrowLeft"":5,""ArrowDown,ArrowRight"":17}","false","ArrowDown,ArrowRight","false","revaluation","1","86","","",""
"html-keyboard-response","211","973125","0.0-4.0-2.0-1.43","spark_pilot_norest","10685","4","7","Female","","","","","","","null","<div style=""font-size:60px;"">+</div>","null","fixation","","","","","","","","","87","","",""
"revaluation","212","979140","0.0-4.0-2.0-0.44","spark_pilot_norest","10685","4","7","Female","","","false","","","","[1929.1000000238419,1368.3999999761581]","./assets/img/ocean/memory/19.jpg","[""ArrowDown"",""ArrowRight""]","value training","ocean","17","{""ArrowUp,ArrowLeft"":26,""ArrowUp,ArrowRight"":10,""ArrowDown,ArrowLeft"":5,""ArrowDown,ArrowRight"":17}","false","ArrowDown,ArrowRight","false","revaluation","1","88","","",""
"html-keyboard-response","213","979641","0.0-4.0-2.0-1.44","spark_pilot_norest","10685","4","7","Female","","","","","","","null","<div style=""font-size:60px;"">+</div>","null","fixation","","","","","","","","","89","","",""
"revaluation","214","985646","0.0-4.0-2.0-0.45","spark_pilot_norest","10685","4","7","Female","","","false","","","","[561.5,447.9000000357628]","./assets/img/ocean/memory/12.jpg","[""ArrowDown"",""ArrowLeft""]","value training","ocean","5","{""ArrowUp,ArrowLeft"":26,""ArrowUp,ArrowRight"":10,""ArrowDown,ArrowLeft"":5,""ArrowDown,ArrowRight"":17}","false","ArrowDown,ArrowLeft","false","revaluation","1","90","","",""
"html-keyboard-response","215","986154","0.0-4.0-2.0-1.45","spark_pilot_norest","10685","4","7","Female","","","","","","","null","<div style=""font-size:60px;"">+</div>","null","fixation","","","","","","","","","91","","",""
"revaluation","216","992161","0.0-4.0-2.0-0.46","spark_pilot_norest","10685","4","7","Female","","","false","","","","[773,509]","./assets/img/ocean/memory/27.jpg","[""ArrowDown"",""ArrowRight""]","value training","ocean","17","{""ArrowUp,ArrowLeft"":26,""ArrowUp,ArrowRight"":10,""ArrowDown,ArrowLeft"":5,""ArrowDown,ArrowRight"":17}","false","ArrowDown,ArrowRight","false","revaluation","1","92","","",""
"html-keyboard-response","217","992663","0.0-4.0-2.0-1.46","spark_pilot_norest","10685","4","7","Female","","","","","","","null","<div style=""font-size:60px;"">+</div>","null","fixation","","","","","","","","","93","","",""
"revaluation","218","998668","0.0-4.0-2.0-0.47","spark_pilot_norest","10685","4","7","Female","","","false","","","","[1510.6000000238419,927.5999999642372]","./assets/img/ocean/memory/9.jpg","[""ArrowDown"",""ArrowRight""]","value training","ocean","17","{""ArrowUp,ArrowLeft"":26,""ArrowUp,ArrowRight"":10,""ArrowDown,ArrowLeft"":5,""ArrowDown,ArrowRight"":17}","false","ArrowDown,ArrowRight","false","revaluation","1","94","","",""
"html-keyboard-response","219","999170","0.0-4.0-2.0-1.47","spark_pilot_norest","10685","4","7","Female","","","","","","","null","<div style=""font-size:60px;"">+</div>","null","fixation","","","","","","","","","95","","",""
"revaluation","220","1005176","0.0-4.0-2.0-0.48","spark_pilot_norest","10685","4","7","Female","","","false","","","","[729,536.1000000238419]","./assets/img/ocean/memory/27.jpg","[""ArrowDown"",""ArrowRight""]","value training","ocean","17","{""ArrowUp,ArrowLeft"":26,""ArrowUp,ArrowRight"":10,""ArrowDown,ArrowLeft"":5,""ArrowDown,ArrowRight"":17}","false","ArrowDown,ArrowRight","false","revaluation","1","96","","",""
"html-keyboard-response","221","1005677","0.0-4.0-2.0-1.48","spark_pilot_norest","10685","4","7","Female","","","","","","","null","<div style=""font-size:60px;"">+</div>","null","fixation","","","","","","","","","97","","",""
"revaluation","222","1011698","0.0-4.0-2.0-0.49","spark_pilot_norest","10685","4","7","Female","","","false","","","","[769.0999999642372,521]","./assets/img/ocean/memory/20.jpg","[""ArrowDown"",""ArrowRight""]","value training","ocean","17","{""ArrowUp,ArrowLeft"":26,""ArrowUp,ArrowRight"":10,""ArrowDown,ArrowLeft"":5,""ArrowDown,ArrowRight"":17}","false","ArrowDown,ArrowRight","false","revaluation","1","98","","",""
"html-keyboard-response","223","1012201","0.0-4.0-2.0-1.49","spark_pilot_norest","10685","4","7","Female","","","","","","","null","<div style=""font-size:60px;"">+</div>","null","fixation","","","","","","","","","99","","",""
"learning-instructions","224","1034711","0.0-4.0-3.0-0.0","spark_pilot_norest","10685","4","7","Female","","","","","","","9316.699999988079","<p> Now, you will travel with a friend who will choose whether you go up or down first. </p>
            <p> On these turns, you will just see the animal that they found. You will still get to choose which chest to search for treasure.</p>","","instructions","","","","","","","","","","","",""
"revaluation","225","1038730","0.0-4.0-4.0-0.0","spark_pilot_norest","10685","4","7","Female","","","false","","","","[858.7000000476837]","./assets/img/ocean/animals/octopus.jpg","[""ArrowRight""]","revaluation","ocean","27","{""ArrowUp,ArrowLeft"":2,""ArrowUp,ArrowRight"":11,""ArrowDown,ArrowLeft"":8,""ArrowDown,ArrowRight"":27}","true","ArrowDown,ArrowRight","","revaluation","1","0","","",""
"html-keyboard-response","226","1039244","0.0-4.0-4.0-1.0","spark_pilot_norest","10685","4","7","Female","","","","","","","null","<div style=""font-size:60px;"">+</div>","null","fixation","","","","","","","","","1","","",""
"revaluation","227","1043266","0.0-4.0-4.0-0.1","spark_pilot_norest","10685","4","7","Female","","","false","","","","[555]","./assets/img/ocean/animals/octopus.jpg","[""ArrowRight""]","revaluation","ocean","27","{""ArrowUp,ArrowLeft"":2,""ArrowUp,ArrowRight"":11,""ArrowDown,ArrowLeft"":8,""ArrowDown,ArrowRight"":27}","true","ArrowDown,ArrowRight","","revaluation","1","2","","",""
"html-keyboard-response","228","1043769","0.0-4.0-4.0-1.1","spark_pilot_norest","10685","4","7","Female","","","","","","","null","<div style=""font-size:60px;"">+</div>","null","fixation","","","","","","","","","3","","",""
"revaluation","229","1047780","0.0-4.0-4.0-0.2","spark_pilot_norest","10685","4","7","Female","","","false","","","","[999.2000000476837]","./assets/img/ocean/animals/seahorse.jpg","[""ArrowLeft""]","revaluation","ocean","2","{""ArrowUp,ArrowLeft"":2,""ArrowUp,ArrowRight"":11,""ArrowDown,ArrowLeft"":8,""ArrowDown,ArrowRight"":27}","false","ArrowUp,ArrowLeft","","revaluation","1","4","","",""
"html-keyboard-response","230","1048295","0.0-4.0-4.0-1.2","spark_pilot_norest","10685","4","7","Female","","","","","","","null","<div style=""font-size:60px;"">+</div>","null","fixation","","","","","","","","","5","","",""
"revaluation","231","1052312","0.0-4.0-4.0-0.3","spark_pilot_norest","10685","4","7","Female","","","false","","","","[980.4000000357628]","./assets/img/ocean/animals/octopus.jpg","[""ArrowRight""]","revaluation","ocean","27","{""ArrowUp,ArrowLeft"":2,""ArrowUp,ArrowRight"":11,""ArrowDown,ArrowLeft"":8,""ArrowDown,ArrowRight"":27}","true","ArrowDown,ArrowRight","","revaluation","1","6","","",""
"html-keyboard-response","232","1052818","0.0-4.0-4.0-1.3","spark_pilot_norest","10685","4","7","Female","","","","","","","null","<div style=""font-size:60px;"">+</div>","null","fixation","","","","","","","","","7","","",""
"revaluation","233","1056835","0.0-4.0-4.0-0.4","spark_pilot_norest","10685","4","7","Female","","","false","","","","[1073]","./assets/img/ocean/animals/seahorse.jpg","[""ArrowLeft""]","revaluation","ocean","2","{""ArrowUp,ArrowLeft"":2,""ArrowUp,ArrowRight"":11,""ArrowDown,ArrowLeft"":8,""ArrowDown,ArrowRight"":27}","false","ArrowUp,ArrowLeft","","revaluation","1","8","","",""
"html-keyboard-response","234","1057337","0.0-4.0-4.0-1.4","spark_pilot_norest","10685","4","7","Female","","","","","","","null","<div style=""font-size:60px;"">+</div>","null","fixation","","","","","","","","","9","","",""
"revaluation","235","1061343","0.0-4.0-4.0-0.5","spark_pilot_norest","10685","4","7","Female","","","false","","","","[632]","./assets/img/ocean/animals/octopus.jpg","[""ArrowRight""]","revaluation","ocean","27","{""ArrowUp,ArrowLeft"":2,""ArrowUp,ArrowRight"":11,""ArrowDown,ArrowLeft"":8,""ArrowDown,ArrowRight"":27}","true","ArrowDown,ArrowRight","","revaluation","1","10","","",""
"html-keyboard-response","236","1061845","0.0-4.0-4.0-1.5","spark_pilot_norest","10685","4","7","Female","","","","","","","null","<div style=""font-size:60px;"">+</div>","null","fixation","","","","","","","","","11","","",""
"revaluation","237","1065852","0.0-4.0-4.0-0.6","spark_pilot_norest","10685","4","7","Female","","","false","","","","[1184.0999999642372]","./assets/img/ocean/animals/octopus.jpg","[""ArrowRight""]","revaluation","ocean","27","{""ArrowUp,ArrowLeft"":2,""ArrowUp,ArrowRight"":11,""ArrowDown,ArrowLeft"":8,""ArrowDown,ArrowRight"":27}","true","ArrowDown,ArrowRight","","revaluation","1","12","","",""
"html-keyboard-response","238","1066353","0.0-4.0-4.0-1.6","spark_pilot_norest","10685","4","7","Female","","","","","","","null","<div style=""font-size:60px;"">+</div>","null","fixation","","","","","","","","","13","","",""
"revaluation","239","1070357","0.0-4.0-4.0-0.7","spark_pilot_norest","10685","4","7","Female","","","false","","","","[948.5]","./assets/img/ocean/animals/octopus.jpg","[""ArrowRight""]","revaluation","ocean","27","{""ArrowUp,ArrowLeft"":2,""ArrowUp,ArrowRight"":11,""ArrowDown,ArrowLeft"":8,""ArrowDown,ArrowRight"":27}","true","ArrowDown,ArrowRight","","revaluation","1","14","","",""
"html-keyboard-response","240","1070859","0.0-4.0-4.0-1.7","spark_pilot_norest","10685","4","7","Female","","","","","","","null","<div style=""font-size:60px;"">+</div>","null","fixation","","","","","","","","","15","","",""
"revaluation","241","1074865","0.0-4.0-4.0-0.8","spark_pilot_norest","10685","4","7","Female","","","false","","","","[766.1000000238419]","./assets/img/ocean/animals/octopus.jpg","[""ArrowRight""]","revaluation","ocean","27","{""ArrowUp,ArrowLeft"":2,""ArrowUp,ArrowRight"":11,""ArrowDown,ArrowLeft"":8,""ArrowDown,ArrowRight"":27}","true","ArrowDown,ArrowRight","","revaluation","1","16","","",""
"html-keyboard-response","242","1075366","0.0-4.0-4.0-1.8","spark_pilot_norest","10685","4","7","Female","","","","","","","null","<div style=""font-size:60px;"">+</div>","null","fixation","","","","","","","","","17","","",""
"revaluation","243","1079371","0.0-4.0-4.0-0.9","spark_pilot_norest","10685","4","7","Female","","","false","","","","[776.6999999880791]","./assets/img/ocean/animals/octopus.jpg","[""ArrowRight""]","revaluation","ocean","27","{""ArrowUp,ArrowLeft"":2,""ArrowUp,ArrowRight"":11,""ArrowDown,ArrowLeft"":8,""ArrowDown,ArrowRight"":27}","true","ArrowDown,ArrowRight","","revaluation","1","18","","",""
"html-keyboard-response","244","1079873","0.0-4.0-4.0-1.9","spark_pilot_norest","10685","4","7","Female","","","","","","","null","<div style=""font-size:60px;"">+</div>","null","fixation","","","","","","","","","19","","",""
"revaluation","245","1083878","0.0-4.0-4.0-0.10","spark_pilot_norest","10685","4","7","Female","","","false","","","","[827.7000000476837]","./assets/img/ocean/animals/seahorse.jpg","[""ArrowLeft""]","revaluation","ocean","2","{""ArrowUp,ArrowLeft"":2,""ArrowUp,ArrowRight"":11,""ArrowDown,ArrowLeft"":8,""ArrowDown,ArrowRight"":27}","false","ArrowUp,ArrowLeft","","revaluation","1","20","","",""
"html-keyboard-response","246","1084380","0.0-4.0-4.0-1.10","spark_pilot_norest","10685","4","7","Female","","","","","","","null","<div style=""font-size:60px;"">+</div>","null","fixation","","","","","","","","","21","","",""
"revaluation","247","1088392","0.0-4.0-4.0-0.11","spark_pilot_norest","10685","4","7","Female","","","false","","","","[644.8999999761581]","./assets/img/ocean/animals/seahorse.jpg","[""ArrowRight""]","revaluation","ocean","11","{""ArrowUp,ArrowLeft"":2,""ArrowUp,ArrowRight"":11,""ArrowDown,ArrowLeft"":8,""ArrowDown,ArrowRight"":27}","true","ArrowUp,ArrowRight","","revaluation","1","22","","",""
"html-keyboard-response","248","1088895","0.0-4.0-4.0-1.11","spark_pilot_norest","10685","4","7","Female","","","","","","","null","<div style=""font-size:60px;"">+</div>","null","fixation","","","","","","","","","23","","",""
"revaluation","249","1092900","0.0-4.0-4.0-0.12","spark_pilot_norest","10685","4","7","Female","","","false","","","","[961.1000000238419]","./assets/img/ocean/animals/seahorse.jpg","[""ArrowRight""]","revaluation","ocean","11","{""ArrowUp,ArrowLeft"":2,""ArrowUp,ArrowRight"":11,""ArrowDown,ArrowLeft"":8,""ArrowDown,ArrowRight"":27}","true","ArrowUp,ArrowRight","","revaluation","1","24","","",""
"html-keyboard-response","250","1093402","0.0-4.0-4.0-1.12","spark_pilot_norest","10685","4","7","Female","","","","","","","null","<div style=""font-size:60px;"">+</div>","null","fixation","","","","","","","","","25","","",""
"revaluation","251","1097407","0.0-4.0-4.0-0.13","spark_pilot_norest","10685","4","7","Female","","","false","","","","[814.8000000119209]","./assets/img/ocean/animals/seahorse.jpg","[""ArrowRight""]","revaluation","ocean","11","{""ArrowUp,ArrowLeft"":2,""ArrowUp,ArrowRight"":11,""ArrowDown,ArrowLeft"":8,""ArrowDown,ArrowRight"":27}","true","ArrowUp,ArrowRight","","revaluation","1","26","","",""
"html-keyboard-response","252","1097909","0.0-4.0-4.0-1.13","spark_pilot_norest","10685","4","7","Female","","","","","","","null","<div style=""font-size:60px;"">+</div>","null","fixation","","","","","","","","","27","","",""
"revaluation","253","1101932","0.0-4.0-4.0-0.14","spark_pilot_norest","10685","4","7","Female","","","false","","","","[1154.1000000238419]","./assets/img/ocean/animals/octopus.jpg","[""ArrowLeft""]","revaluation","ocean","8","{""ArrowUp,ArrowLeft"":2,""ArrowUp,ArrowRight"":11,""ArrowDown,ArrowLeft"":8,""ArrowDown,ArrowRight"":27}","false","ArrowDown,ArrowLeft","","revaluation","1","28","","",""
"html-keyboard-response","254","1102434","0.0-4.0-4.0-1.14","spark_pilot_norest","10685","4","7","Female","","","","","","","null","<div style=""font-size:60px;"">+</div>","null","fixation","","","","","","","","","29","","",""
"revaluation","255","1106440","0.0-4.0-4.0-0.15","spark_pilot_norest","10685","4","7","Female","","","false","","","","[1244.0999999642372]","./assets/img/ocean/animals/seahorse.jpg","[""ArrowRight""]","revaluation","ocean","11","{""ArrowUp,ArrowLeft"":2,""ArrowUp,ArrowRight"":11,""ArrowDown,ArrowLeft"":8,""ArrowDown,ArrowRight"":27}","true","ArrowUp,ArrowRight","","revaluation","1","30","","",""
"html-keyboard-response","256","1106942","0.0-4.0-4.0-1.15","spark_pilot_norest","10685","4","7","Female","","","","","","","null","<div style=""font-size:60px;"">+</div>","null","fixation","","","","","","","","","31","","",""
"revaluation","257","1110946","0.0-4.0-4.0-0.16","spark_pilot_norest","10685","4","7","Female","","","false","","","","[587.3000000119209]","./assets/img/ocean/animals/seahorse.jpg","[""ArrowRight""]","revaluation","ocean","11","{""ArrowUp,ArrowLeft"":2,""ArrowUp,ArrowRight"":11,""ArrowDown,ArrowLeft"":8,""ArrowDown,ArrowRight"":27}","true","ArrowUp,ArrowRight","","revaluation","1","32","","",""
"html-keyboard-response","258","1111447","0.0-4.0-4.0-1.16","spark_pilot_norest","10685","4","7","Female","","","","","","","null","<div style=""font-size:60px;"">+</div>","null","fixation","","","","","","","","","33","","",""
"revaluation","259","1115454","0.0-4.0-4.0-0.17","spark_pilot_norest","10685","4","7","Female","","","false","","","","[1109.800000011921]","./assets/img/ocean/animals/seahorse.jpg","[""ArrowLeft""]","revaluation","ocean","2","{""ArrowUp,ArrowLeft"":2,""ArrowUp,ArrowRight"":11,""ArrowDown,ArrowLeft"":8,""ArrowDown,ArrowRight"":27}","false","ArrowUp,ArrowLeft","","revaluation","1","34","","",""
"html-keyboard-response","260","1115956","0.0-4.0-4.0-1.17","spark_pilot_norest","10685","4","7","Female","","","","","","","null","<div style=""font-size:60px;"">+</div>","null","fixation","","","","","","","","","35","","",""
"learning-instructions","261","1124399","0.0-4.0-5.0-0.0","spark_pilot_norest","10685","4","7","Female","","","","","","","null","<p> You have almost finished this part of the game! </p>
            <p> We are going to ask you to make a few more choices. </p>","","instructions","","","","","","","","","","","",""
"learning-instructions","262","1140396","0.0-4.0-5.0-0.1","spark_pilot_norest","10685","4","7","Female","","","","","","","null","<p> First, you need to decide whether to go up or down. When you see each picture, use the arrow keys to make your choice. </p>
            <p><b>You will not see which animal you found, but try to get to the one that will give you the most treasure.</b></p>","","instructions","","","","","","","","","","","",""
"html-keyboard-response","263","1141398","0.0-4.0-6.0-0.0","spark_pilot_norest","10685","4","7","Female","","","","","","","null","<div style=""font-size:100px;color:red;"">Starting in...</div>","null","","","","","","","","","","","","",""
"html-keyboard-response","264","1142412","0.0-4.0-6.0-1.0","spark_pilot_norest","10685","4","7","Female","","","","","","","null","<div style=""font-size:200px;color:red;"">3</div>","null","","","","","","","","","","","","",""
"html-keyboard-response","265","1143413","0.0-4.0-6.0-2.0","spark_pilot_norest","10685","4","7","Female","","","","","","","null","<div style=""font-size:200px;color:red;"">2</div>","null","","","","","","","","","","","","",""
"html-keyboard-response","266","1144428","0.0-4.0-6.0-3.0","spark_pilot_norest","10685","4","7","Female","","","","","","","null","<div style=""font-size:200px;color:red;"">1</div>","null","","","","","","","","","","","","",""
"revaluation","267","1145427","0.0-4.0-7.0-0.0","spark_pilot_norest","10685","4","7","Female","","","false","","","","[995.0999999642372]","./assets/img/ocean/test/2.jpg","[""ArrowUp""]","first stage test","ocean","0","{""ArrowUp,ArrowLeft"":2,""ArrowUp,ArrowRight"":11,""ArrowDown,ArrowLeft"":8,""ArrowDown,ArrowRight"":27}","false","ArrowUp","false","revaluation","1","","","",""
"html-keyboard-response","268","1145936","0.0-4.0-7.0-1.0","spark_pilot_norest","10685","4","7","Female","","","","","","","null","<div style=""font-size:60px;"">+</div>","null","fixation","","","","","","","","","","","",""
"revaluation","269","1146738","0.0-4.0-7.0-0.1","spark_pilot_norest","10685","4","7","Female","","","false","","","","[798.5999999642372]","./assets/img/ocean/test/1.jpg","[""ArrowDown""]","first stage test","ocean","0","{""ArrowUp,ArrowLeft"":2,""ArrowUp,ArrowRight"":11,""ArrowDown,ArrowLeft"":8,""ArrowDown,ArrowRight"":27}","true","ArrowDown","false","revaluation","1","","","",""
"html-keyboard-response","270","1147250","0.0-4.0-7.0-1.1","spark_pilot_norest","10685","4","7","Female","","","","","","","null","<div style=""font-size:60px;"">+</div>","null","fixation","","","","","","","","","","","",""
"revaluation","271","1148081","0.0-4.0-7.0-0.2","spark_pilot_norest","10685","4","7","Female","","","false","","","","[828.2000000476837]","./assets/img/ocean/test/0.jpg","[""ArrowDown""]","first stage test","ocean","0","{""ArrowUp,ArrowLeft"":2,""ArrowUp,ArrowRight"":11,""ArrowDown,ArrowLeft"":8,""ArrowDown,ArrowRight"":27}","true","ArrowDown","false","revaluation","1","","","",""
"html-keyboard-response","272","1148584","0.0-4.0-7.0-1.2","spark_pilot_norest","10685","4","7","Female","","","","","","","null","<div style=""font-size:60px;"">+</div>","null","fixation","","","","","","","","","","","",""
"revaluation","273","1149209","0.0-4.0-7.0-0.3","spark_pilot_norest","10685","4","7","Female","","","false","","","","[619.1999999880791]","./assets/img/ocean/test/3.jpg","[""ArrowUp""]","first stage test","ocean","0","{""ArrowUp,ArrowLeft"":2,""ArrowUp,ArrowRight"":11,""ArrowDown,ArrowLeft"":8,""ArrowDown,ArrowRight"":27}","false","ArrowUp","false","revaluation","1","","","",""
"html-keyboard-response","274","1149720","0.0-4.0-7.0-1.3","spark_pilot_norest","10685","4","7","Female","","","","","","","null","<div style=""font-size:60px;"">+</div>","null","fixation","","","","","","","","","","","",""
"learning-instructions","275","1163080","0.0-4.0-8.0-0.0","spark_pilot_norest","10685","4","7","Female","","","","","","","null","<p> Now you will see the animals again and can search their chests for treasure. </p>
            <p> This time, you will not see how much treasure you earned, but you will earn more bonus money for making better choices. </p>","","instructions","","","","","","","","","","","",""
"html-keyboard-response","276","1164088","0.0-4.0-9.0-0.0","spark_pilot_norest","10685","4","7","Female","","","","","","","null","<div style=""font-size:100px;color:red;"">Starting in...</div>","null","","","","","","","","","","","","",""
"html-keyboard-response","277","1165100","0.0-4.0-9.0-1.0","spark_pilot_norest","10685","4","7","Female","","","","","","","null","<div style=""font-size:200px;color:red;"">3</div>","null","","","","","","","","","","","","",""
"html-keyboard-response","278","1166104","0.0-4.0-9.0-2.0","spark_pilot_norest","10685","4","7","Female","","","","","","","null","<div style=""font-size:200px;color:red;"">2</div>","null","","","","","","","","","","","","",""
"html-keyboard-response","279","1167106","0.0-4.0-9.0-3.0","spark_pilot_norest","10685","4","7","Female","","","","","","","null","<div style=""font-size:200px;color:red;"">1</div>","null","","","","","","","","","","","","",""
"revaluation","280","1167954","0.0-4.0-10.0-0.0","spark_pilot_norest","10685","4","7","Female","","","false","","","","[845.0999999642372]","./assets/img/ocean/animals/seahorse.jpg","[""ArrowRight""]","second stage test","ocean","0","{""ArrowUp,ArrowLeft"":2,""ArrowUp,ArrowRight"":11,""ArrowDown,ArrowLeft"":8,""ArrowDown,ArrowRight"":27}","true","ArrowUp,ArrowRight","","revaluation","1","","","",""
"html-keyboard-response","281","1168467","0.0-4.0-10.0-1.0","spark_pilot_norest","10685","4","7","Female","","","","","","","null","<div style=""font-size:60px;"">+</div>","null","fixation","","","","","","","","","","","",""
"revaluation","282","1168877","0.0-4.0-10.0-0.1","spark_pilot_norest","10685","4","7","Female","","","false","","","","[402.80000001192093]","./assets/img/ocean/animals/seahorse.jpg","[""ArrowLeft""]","second stage test","ocean","0","{""ArrowUp,ArrowLeft"":2,""ArrowUp,ArrowRight"":11,""ArrowDown,ArrowLeft"":8,""ArrowDown,ArrowRight"":27}","false","ArrowUp,ArrowLeft","","revaluation","1","","","",""
"html-keyboard-response","283","1169390","0.0-4.0-10.0-1.1","spark_pilot_norest","10685","4","7","Female","","","","","","","null","<div style=""font-size:60px;"">+</div>","null","fixation","","","","","","","","","","","",""
"revaluation","284","1169753","0.0-4.0-10.0-0.2","spark_pilot_norest","10685","4","7","Female","","","false","","","","[359.9000000357628]","./assets/img/ocean/animals/seahorse.jpg","[""ArrowRight""]","second stage test","ocean","0","{""ArrowUp,ArrowLeft"":2,""ArrowUp,ArrowRight"":11,""ArrowDown,ArrowLeft"":8,""ArrowDown,ArrowRight"":27}","true","ArrowUp,ArrowRight","","revaluation","1","","","",""
"html-keyboard-response","285","1170269","0.0-4.0-10.0-1.2","spark_pilot_norest","10685","4","7","Female","","","","","","","null","<div style=""font-size:60px;"">+</div>","null","fixation","","","","","","","","","","","",""
"revaluation","286","1170607","0.0-4.0-10.0-0.3","spark_pilot_norest","10685","4","7","Female","","","false","","","","[333.5]","./assets/img/ocean/animals/seahorse.jpg","[""ArrowRight""]","second stage test","ocean","0","{""ArrowUp,ArrowLeft"":2,""ArrowUp,ArrowRight"":11,""ArrowDown,ArrowLeft"":8,""ArrowDown,ArrowRight"":27}","true","ArrowUp,ArrowRight","","revaluation","1","","","",""
"html-keyboard-response","287","1171111","0.0-4.0-10.0-1.3","spark_pilot_norest","10685","4","7","Female","","","","","","","null","<div style=""font-size:60px;"">+</div>","null","fixation","","","","","","","","","","","",""
"revaluation","288","1171667","0.0-4.0-10.0-0.4","spark_pilot_norest","10685","4","7","Female","","","false","","","","[551.3999999761581]","./assets/img/ocean/animals/octopus.jpg","[""ArrowLeft""]","second stage test","ocean","0","{""ArrowUp,ArrowLeft"":2,""ArrowUp,ArrowRight"":11,""ArrowDown,ArrowLeft"":8,""ArrowDown,ArrowRight"":27}","false","ArrowDown,ArrowLeft","","revaluation","1","","","",""
"html-keyboard-response","289","1172182","0.0-4.0-10.0-1.4","spark_pilot_norest","10685","4","7","Female","","","","","","","null","<div style=""font-size:60px;"">+</div>","null","fixation","","","","","","","","","","","",""
"revaluation","290","1172639","0.0-4.0-10.0-0.5","spark_pilot_norest","10685","4","7","Female","","","false","","","","[453.4000000357628]","./assets/img/ocean/animals/octopus.jpg","[""ArrowLeft""]","second stage test","ocean","0","{""ArrowUp,ArrowLeft"":2,""ArrowUp,ArrowRight"":11,""ArrowDown,ArrowLeft"":8,""ArrowDown,ArrowRight"":27}","false","ArrowDown,ArrowLeft","","revaluation","1","","","",""
"html-keyboard-response","291","1173142","0.0-4.0-10.0-1.5","spark_pilot_norest","10685","4","7","Female","","","","","","","null","<div style=""font-size:60px;"">+</div>","null","fixation","","","","","","","","","","","",""
"revaluation","292","1173605","0.0-4.0-10.0-0.6","spark_pilot_norest","10685","4","7","Female","","","false","","","","[459.2000000476837]","./assets/img/ocean/animals/octopus.jpg","[""ArrowLeft""]","second stage test","ocean","0","{""ArrowUp,ArrowLeft"":2,""ArrowUp,ArrowRight"":11,""ArrowDown,ArrowLeft"":8,""ArrowDown,ArrowRight"":27}","false","ArrowDown,ArrowLeft","","revaluation","1","","","",""
"html-keyboard-response","293","1174120","0.0-4.0-10.0-1.6","spark_pilot_norest","10685","4","7","Female","","","","","","","null","<div style=""font-size:60px;"">+</div>","null","fixation","","","","","","","","","","","",""
"revaluation","294","1174549","0.0-4.0-10.0-0.7","spark_pilot_norest","10685","4","7","Female","","","false","","","","[426.69999998807907]","./assets/img/ocean/animals/octopus.jpg","[""ArrowLeft""]","second stage test","ocean","0","{""ArrowUp,ArrowLeft"":2,""ArrowUp,ArrowRight"":11,""ArrowDown,ArrowLeft"":8,""ArrowDown,ArrowRight"":27}","false","ArrowDown,ArrowLeft","","revaluation","1","","","",""
"html-keyboard-response","295","1175062","0.0-4.0-10.0-1.7","spark_pilot_norest","10685","4","7","Female","","","","","","","null","<div style=""font-size:60px;"">+</div>","null","fixation","","","","","","","","","","","",""
"learning-instructions","296","1179809","0.0-4.0-0.1-0.2","spark_pilot_norest","10685","4","7","Female","","","","","","","1968","<p> This time you are searching for treasure in the <b>canyon</b>.</p>","","instructions","","","","","","","","","","","",""
"learning-instructions","297","1198675","0.0-4.0-0.1-0.3","spark_pilot_norest","10685","4","7","Female","","","","","","","1613.199999988079","<p><b>New</b> animals with <b>new</b> treasure chests live here. You need to explore to discover where the animal with the best treasure chest is.</p>
                    <p> Like before, once you figure out which animal has the chest with the most treasure, you should try to get to that animal and select that chest! </p>","","instructions","","","","","","","","","","","",""
"learning-instructions","298","1219289","0.0-4.0-1.1-0.1","spark_pilot_norest","10685","4","7","Female","","","","","","","5887.099999964237","<p> Remember, when you see a picture of the place, use the up and down keys to <b>find an animal</b>.</p>
            <p> When you encounter an animal, you should use the left and right keys to <b>select a treasure chest</b>.</p>
            <p> Don't forget to look out for the robber! </p>","","instructions","","","","","","","","","","","",""
"revaluation","299","1223319","0.0-4.0-2.1-0.50","spark_pilot_norest","10685","4","7","Female","","","false","","","","[1200]","./assets/img/canyon/catch/6.jpg","[""spaceBar""]","value training","canyon","0","{""ArrowUp,ArrowLeft"":23,""ArrowUp,ArrowRight"":10,""ArrowDown,ArrowLeft"":8,""ArrowDown,ArrowRight"":30}","true","spaceBar","true","original","2","0","","",""
"html-keyboard-response","300","1223822","0.0-4.0-2.1-1.50","spark_pilot_norest","10685","4","7","Female","","","","","","","null","<div style=""font-size:60px;"">+</div>","null","fixation","","","","","","","","","1","","",""
"revaluation","301","1229871","0.0-4.0-2.1-0.51","spark_pilot_norest","10685","4","7","Female","","","false","","","","[892.6999999880791,1015.6999999880791]","./assets/img/canyon/memory/12.jpg","[""ArrowDown"",""ArrowRight""]","value training","canyon","30","{""ArrowUp,ArrowLeft"":23,""ArrowUp,ArrowRight"":10,""ArrowDown,ArrowLeft"":8,""ArrowDown,ArrowRight"":30}","true","ArrowDown,ArrowRight","false","original","2","2","","",""
"html-keyboard-response","302","1230386","0.0-4.0-2.1-1.51","spark_pilot_norest","10685","4","7","Female","","","","","","","null","<div style=""font-size:60px;"">+</div>","null","fixation","","","","","","","","","3","","",""
"revaluation","303","1236418","0.0-4.0-2.1-0.52","spark_pilot_norest","10685","4","7","Female","","","false","","","","[596.9000000357628,514]","./assets/img/canyon/memory/0.jpg","[""ArrowUp"",""ArrowRight""]","value training","canyon","10","{""ArrowUp,ArrowLeft"":23,""ArrowUp,ArrowRight"":10,""ArrowDown,ArrowLeft"":8,""ArrowDown,ArrowRight"":30}","false","ArrowUp,ArrowRight","false","original","2","4","","",""
"html-keyboard-response","304","1236936","0.0-4.0-2.1-1.52","spark_pilot_norest","10685","4","7","Female","","","","","","","null","<div style=""font-size:60px;"">+</div>","null","fixation","","","","","","","","","5","","",""
"revaluation","305","1242963","0.0-4.0-2.1-0.53","spark_pilot_norest","10685","4","7","Female","","","false","","","","[1221.199999988079,1259.300000011921]","./assets/img/canyon/memory/1.jpg","[""ArrowUp"",""ArrowLeft""]","value training","canyon","23","{""ArrowUp,ArrowLeft"":23,""ArrowUp,ArrowRight"":10,""ArrowDown,ArrowLeft"":8,""ArrowDown,ArrowRight"":30}","false","ArrowUp,ArrowLeft","false","original","2","6","","",""
"html-keyboard-response","306","1243468","0.0-4.0-2.1-1.53","spark_pilot_norest","10685","4","7","Female","","","","","","","null","<div style=""font-size:60px;"">+</div>","null","fixation","","","","","","","","","7","","",""
"revaluation","307","1249476","0.0-4.0-2.1-0.54","spark_pilot_norest","10685","4","7","Female","","","false","","","","[782,1394.800000011921]","./assets/img/canyon/memory/14.jpg","[""ArrowDown"",""ArrowRight""]","value training","canyon","30","{""ArrowUp,ArrowLeft"":23,""ArrowUp,ArrowRight"":10,""ArrowDown,ArrowLeft"":8,""ArrowDown,ArrowRight"":30}","true","ArrowDown,ArrowRight","false","original","2","8","","",""
"html-keyboard-response","308","1249978","0.0-4.0-2.1-1.54","spark_pilot_norest","10685","4","7","Female","","","","","","","null","<div style=""font-size:60px;"">+</div>","null","fixation","","","","","","","","","9","","",""
"revaluation","309","1255986","0.0-4.0-2.1-0.55","spark_pilot_norest","10685","4","7","Female","","","false","","","","[474.5999999642372,527.7000000476837]","./assets/img/canyon/memory/7.jpg","[""ArrowDown"",""ArrowLeft""]","value training","canyon","8","{""ArrowUp,ArrowLeft"":23,""ArrowUp,ArrowRight"":10,""ArrowDown,ArrowLeft"":8,""ArrowDown,ArrowRight"":30}","false","ArrowDown,ArrowLeft","false","original","2","10","","",""
"html-keyboard-response","310","1256488","0.0-4.0-2.1-1.55","spark_pilot_norest","10685","4","7","Female","","","","","","","null","<div style=""font-size:60px;"">+</div>","null","fixation","","","","","","","","","11","","",""
"revaluation","311","1262495","0.0-4.0-2.1-0.56","spark_pilot_norest","10685","4","7","Female","","","false","","","","[833.9000000357628,737.1000000238419]","./assets/img/canyon/memory/15.jpg","[""ArrowDown"",""ArrowRight""]","value training","canyon","30","{""ArrowUp,ArrowLeft"":23,""ArrowUp,ArrowRight"":10,""ArrowDown,ArrowLeft"":8,""ArrowDown,ArrowRight"":30}","true","ArrowDown,ArrowRight","false","original","2","12","","",""
