"trial_type","trial_index","time_elapsed","internal_node_id","task_version","subject_id","assigned_condition","age","gender","success","timeout","failed_images","failed_audio","failed_video","browser_interaction","rt","stimulus","response","task_part","environment","score","rewardMap","correct","fullState","isCatch","condition","order","trial_num","key_press","ground_truth","bonus"
"pavlovia","0","934","0.0-0.0","spark_pilot_norest","9986","4","23","Male","","","","","","","","","","","","","","","","","","","","","",""
"preload","1","11961","0.0-1.0","spark_pilot_norest","9986","4","23","Male","true","false","[]","[]","[]","[{""event"":""focus"",""trial"":2,""time"":29590},{""event"":""fullscreenenter"",""trial"":2,""time"":32230},{""event"":""fullscreenexit"",""trial"":3,""time"":36090}]","","","","","","","","","","","","","","","",""
"fullscreen","2","33221","0.0-2.0","spark_pilot_norest","9986","4","23","Male","true","","","","","[{""event"":""focus"",""trial"":2,""time"":29590},{""event"":""fullscreenenter"",""trial"":2,""time"":32230},{""event"":""fullscreenexit"",""trial"":3,""time"":36090}]","","","","","","","","","","","","","","","",""
"audio-button-response","3","52985","0.0-3.0-0.0-0.0","spark_pilot_norest","9986","4","23","Male","","","","","","","19771","./assets/audio/audiotest/turtle.mp3","4","audio_test","","","","","","","","","","","",""
"audio-button-response","4","71830","0.0-3.0-0.1-0.1","spark_pilot_norest","9986","4","23","Male","","","","","","","17800","./assets/audio/audiotest/turtle.mp3","4","audio_test","","","","","","","","","","","",""
"audio-button-response","5","74180","0.0-3.0-0.2-0.2","spark_pilot_norest","9986","4","23","Male","","","","","","","1349","./assets/audio/audiotest/turtle.mp3","2","audio_test","","","","","","","","","","","",""
"learning-instructions","6","82316","0.0-3.0-1.0-0.0","spark_pilot_norest","9986","4","23","Male","","","","","","","1174","<p> Welcome! Please remember to stay in fullscreen mode and don't click away from the experiment. </p>","","instructions","","","","","","","","","","","",""
"learning-instructions","7","91816","0.0-3.0-1.0-0.1","spark_pilot_norest","9986","4","23","Male","","","","","","","1114","<p> Today you will be playing a game to earn treasure. </p>
            <p> At the end of the experiment, you will earn a bonus based on how much treasure you find. </p>
            <img src='./assets/img/instructions/treasure.jpg' class='instructions-image'>","","instructions","","","","","","","","","","","",""
"learning-instructions","8","102042","0.0-3.0-1.0-0.2","spark_pilot_norest","9986","4","23","Male","","","","","","","1980.1000000238419","<p> Animals have hidden treasure in treasure chests. </p>
            <p> You need to first find an animal and then choose which of their treasure chests to search. </p>
            <img src='./assets/img/space/animals/cat.jpg' class='instructions-image'>","","instructions","","","","","","","","","","","",""
"learning-instructions","9","117479","0.0-3.0-1.0-0.3","spark_pilot_norest","9986","4","23","Male","","","","","","","2307.100000023842","<p> In each round, you will search for treasure in a different place. In the real game, there will be two rounds. </p>
            <p> You will begin with a separate, practice round where you will search for treasure in outer space. </p>
            <img src='./assets/img/space/0.jpg' class='instructions-image'>","","instructions","","","","","","","","","","","",""
"learning-instructions","10","130537","0.0-3.0-1.0-0.4","spark_pilot_norest","9986","4","23","Male","","","","","","","1674.199999988079","<p> On every turn, you will see a picture of the place that you are in, but the specific image may be different each time. </p>
            <p> For example, both of these images mean you are in outer space. </p>
            <img src='./assets/img/instructions/outerspace.jpg' class='instructions-image'>","","instructions","","","","","","","","","","","",""
"learning-instructions","11","140154","0.0-3.0-1.0-0.5","spark_pilot_norest","9986","4","23","Male","","","","","","","1810.800000011921","<p> You need to decide which direction to travel in. </p>
            <p> You can choose between going <b>up or down</b> by using the arrow keys. </p>
            <img src='./assets/img/instructions/updown.jpg' class='instructions-image'>","","instructions","","","","","","","","","","","",""
"learning-instructions","12","151342","0.0-3.0-1.0-0.6","spark_pilot_norest","9986","4","23","Male","","","","","","","2399.199999988079","<p> You will have <b>2 seconds</b> to make your choice. </p>
            <p> If you do not make a choice within 2 seconds, you will not find an animal or earn treasure. </p>
            <img src='./assets/img/instructions/2seconds.jpg' class='instructions-image'>","","instructions","","","","","","","","","","","",""
"learning-instructions","13","159337","0.0-3.0-1.0-0.7","spark_pilot_norest","9986","4","23","Male","","","","","","","984.0999999642372","<p> Let’s try practicing that now! </p>
            <p> When you see a picture of the place you are in, press the <b>up</b> key to travel up. </p>
            <img src='./assets/img/instructions/pressUp.jpg' class='instructions-image'>","","instructions","","","","","","","","","","","",""
"revaluation","14","163342","0.0-3.0-2.0-0.0","spark_pilot_norest","9986","4","23","Male","","false","","","","","[488]","./assets/img/space/0.jpg","[""ArrowUp""]","first stage practice","space","0","null","null","ArrowUp","false","","","","","",""
"html-keyboard-response","15","163843","0.0-3.0-2.0-1.0","spark_pilot_norest","9986","4","23","Male","","","","","","","null","<div style=""font-size:60px;"">+</div>","null","fixation","","","","","","","","","","","",""
"revaluation","16","167846","0.0-3.0-2.0-0.1","spark_pilot_norest","9986","4","23","Male","","false","","","","","[629.9000000357628]","./assets/img/space/1.jpg","[""ArrowUp""]","first stage practice","space","0","null","null","ArrowUp","false","","","","","",""
"html-keyboard-response","17","168347","0.0-3.0-2.0-1.1","spark_pilot_norest","9986","4","23","Male","","","","","","","null","<div style=""font-size:60px;"">+</div>","null","fixation","","","","","","","","","","","",""
"revaluation","18","172350","0.0-3.0-2.0-0.2","spark_pilot_norest","9986","4","23","Male","","false","","","","","[501.69999998807907]","./assets/img/space/2.jpg","[""ArrowUp""]","first stage practice","space","0","null","null","ArrowUp","false","","","","","",""
"html-keyboard-response","19","172851","0.0-3.0-2.0-1.2","spark_pilot_norest","9986","4","23","Male","","","","","","","null","<div style=""font-size:60px;"">+</div>","null","fixation","","","","","","","","","","","",""
"learning-instructions","20","178510","0.0-3.0-3.0-0.0","spark_pilot_norest","9986","4","23","Male","","","","","","","977","<p> Great job! Now try pressing the <b>down</b> key to travel down. </p>
            <img src='./assets/img/instructions/pressDown.jpg' class='instructions-image'>","","instructions","","","","","","","","","","","",""
"revaluation","21","182512","0.0-3.0-4.0-0.0","spark_pilot_norest","9986","4","23","Male","","false","","","","","[832.1999999880791]","./assets/img/space/3.jpg","[""ArrowDown""]","first stage practice","space","0","null","null","ArrowDown","false","","","","","",""
"html-keyboard-response","22","183013","0.0-3.0-4.0-1.0","spark_pilot_norest","9986","4","23","Male","","","","","","","null","<div style=""font-size:60px;"">+</div>","null","fixation","","","","","","","","","","","",""
"revaluation","23","187016","0.0-3.0-4.0-0.1","spark_pilot_norest","9986","4","23","Male","","false","","","","","[388.2999999523163]","./assets/img/space/4.jpg","[""ArrowDown""]","first stage practice","space","0","null","null","ArrowDown","false","","","","","",""
"html-keyboard-response","24","187518","0.0-3.0-4.0-1.1","spark_pilot_norest","9986","4","23","Male","","","","","","","null","<div style=""font-size:60px;"">+</div>","null","fixation","","","","","","","","","","","",""
"revaluation","25","191520","0.0-3.0-4.0-0.2","spark_pilot_norest","9986","4","23","Male","","false","","","","","[409.69999998807907]","./assets/img/space/5.jpg","[""ArrowDown""]","first stage practice","space","0","null","null","ArrowDown","false","","","","","",""
"html-keyboard-response","26","192021","0.0-3.0-4.0-1.2","spark_pilot_norest","9986","4","23","Male","","","","","","","null","<div style=""font-size:60px;"">+</div>","null","fixation","","","","","","","","","","","",""
"learning-instructions","27","204658","0.0-3.0-5.0-0.0","spark_pilot_norest","9986","4","23","Male","","","","","","","2805.100000023842","<p> The animals don’t move, so the animal in the upper part of a place will stay in the upper part of a place, and the animal in the lower part of a place will stay in the lower part of a place. </p>","","instructions","","","","","","","","","","","",""
"learning-instructions","28","216738","0.0-3.0-5.0-0.1","spark_pilot_norest","9986","4","23","Male","","","","","","","2965.5","<p> Each animal has two treasure chests for you to choose from. </p>
            <p> The amount of treasure in each chest can range from <b> 0 to 40 pieces.</b></p>","","instructions","","","","","","","","","","","",""
"learning-instructions","29","229320","0.0-3.0-5.0-0.2","spark_pilot_norest","9986","4","23","Male","","","","","","","1417.3999999761581","<p> You should decide which chest to search for treasure by using the <b>left</b> and <b>right</b> arrow keys. </p>
            <p><b> Pay attention to which animal is on the screen, as the animals have different treasure chests. </b></p>
            <img src='./assets/img/instructions/leftright.jpg' class='instructions-image'>","","instructions","","","","","","","","","","","",""
"learning-instructions","30","236107","0.0-3.0-5.0-0.3","spark_pilot_norest","9986","4","23","Male","","","","","","","444.19999998807907","<p> Let’s try practicing that now. </p>
            <p> When you see an animal, choose which chest to search for treasure. </p>
            <img src='./assets/img/instructions/chooseChest.jpg' class='instructions-image'>","","instructions","","","","","","","","","","","",""
"revaluation","31","240109","0.0-3.0-6.0-0.0","spark_pilot_norest","9986","4","23","Male","","false","","","","","[839.6999999880791]","./assets/img/space/animals/rabbit.jpg","[""ArrowRight""]","second stage practice","space","23","{""ArrowUp,ArrowLeft"":3,""ArrowUp,ArrowRight"":36,""ArrowDown,ArrowLeft"":15,""ArrowDown,ArrowRight"":23}","true","ArrowDown,ArrowRight","","","","","","",""
"html-keyboard-response","32","240610","0.0-3.0-6.0-1.0","spark_pilot_norest","9986","4","23","Male","","","","","","","null","<div style=""font-size:60px;"">+</div>","null","fixation","","","","","","","","","","","",""
"revaluation","33","244612","0.0-3.0-6.0-0.1","spark_pilot_norest","9986","4","23","Male","","false","","","","","[470.60000002384186]","./assets/img/space/animals/cat.jpg","[""ArrowLeft""]","second stage practice","space","3","{""ArrowUp,ArrowLeft"":3,""ArrowUp,ArrowRight"":36,""ArrowDown,ArrowLeft"":15,""ArrowDown,ArrowRight"":23}","false","ArrowUp,ArrowLeft","","","","","","",""
"html-keyboard-response","34","245115","0.0-3.0-6.0-1.1","spark_pilot_norest","9986","4","23","Male","","","","","","","null","<div style=""font-size:60px;"">+</div>","null","fixation","","","","","","","","","","","",""
"revaluation","35","249117","0.0-3.0-6.0-0.2","spark_pilot_norest","9986","4","23","Male","","false","","","","","[958.5]","./assets/img/space/animals/rabbit.jpg","[""ArrowLeft""]","second stage practice","space","15","{""ArrowUp,ArrowLeft"":3,""ArrowUp,ArrowRight"":36,""ArrowDown,ArrowLeft"":15,""ArrowDown,ArrowRight"":23}","false","ArrowDown,ArrowLeft","","","","","","",""
"html-keyboard-response","36","249618","0.0-3.0-6.0-1.2","spark_pilot_norest","9986","4","23","Male","","","","","","","null","<div style=""font-size:60px;"">+</div>","null","fixation","","","","","","","","","","","",""
"revaluation","37","253620","0.0-3.0-6.0-0.3","spark_pilot_norest","9986","4","23","Male","","false","","","","","[883.7000000476837]","./assets/img/space/animals/cat.jpg","[""ArrowRight""]","second stage practice","space","36","{""ArrowUp,ArrowLeft"":3,""ArrowUp,ArrowRight"":36,""ArrowDown,ArrowLeft"":15,""ArrowDown,ArrowRight"":23}","true","ArrowUp,ArrowRight","","","","","","",""
"html-keyboard-response","38","254120","0.0-3.0-6.0-1.3","spark_pilot_norest","9986","4","23","Male","","","","","","","null","<div style=""font-size:60px;"">+</div>","null","fixation","","","","","","","","","","","",""
"learning-instructions","39","272086","0.0-3.0-7.0-0.0","spark_pilot_norest","9986","4","23","Male","","","","","","","1183.300000011921","<p> Great job. Now let’s try putting it together. </p>
            <p> On each turn, you will first see a picture to remind you of the place you are in, and you need to choose whether to go up or down. </p>
            <p> Then you will see an animal and choose which of its chests to search for treasure. </p>","","instructions","","","","","","","","","","","",""
"learning-instructions","40","280866","0.0-3.0-7.0-0.1","spark_pilot_norest","9986","4","23","Male","","","","","","","533.7999999523163","<p> When you choose whether to go up or down, try to go to the animal with the chest with the most treasure. </p>
            <p> Try practicing that now! </p>","","instructions","","","","","","","","","","","",""
"revaluation","41","286870","0.0-3.0-8.0-0.0","spark_pilot_norest","9986","4","23","Male","","false","","","","","[659.1999999880791,421.10000002384186]","./assets/img/space/6.jpg","[""ArrowUp"",""ArrowRight""]","full practice","space","36","{""ArrowUp,ArrowLeft"":3,""ArrowUp,ArrowRight"":36,""ArrowDown,ArrowLeft"":15,""ArrowDown,ArrowRight"":23}","true","ArrowUp,ArrowRight","false","","","","","",""
"html-keyboard-response","42","287372","0.0-3.0-8.0-1.0","spark_pilot_norest","9986","4","23","Male","","","","","","","null","<div style=""font-size:60px;"">+</div>","null","fixation","","","","","","","","","","","",""
"revaluation","43","293375","0.0-3.0-8.0-0.1","spark_pilot_norest","9986","4","23","Male","","false","","","","","[245.19999998807907,72.69999998807907]","./assets/img/space/7.jpg","[""ArrowDown"",""ArrowRight""]","full practice","space","23","{""ArrowUp,ArrowLeft"":3,""ArrowUp,ArrowRight"":36,""ArrowDown,ArrowLeft"":15,""ArrowDown,ArrowRight"":23}","false","ArrowDown,ArrowRight","false","","","","","",""
"html-keyboard-response","44","293876","0.0-3.0-8.0-1.1","spark_pilot_norest","9986","4","23","Male","","","","","","","null","<div style=""font-size:60px;"">+</div>","null","fixation","","","","","","","","","","","",""
"revaluation","45","299881","0.0-3.0-8.0-0.2","spark_pilot_norest","9986","4","23","Male","","false","","","","","[668.6999999880791,335.0999999642372]","./assets/img/space/8.jpg","[""ArrowUp"",""ArrowLeft""]","full practice","space","3","{""ArrowUp,ArrowLeft"":3,""ArrowUp,ArrowRight"":36,""ArrowDown,ArrowLeft"":15,""ArrowDown,ArrowRight"":23}","false","ArrowUp,ArrowLeft","false","","","","","",""
"html-keyboard-response","46","300381","0.0-3.0-8.0-1.2","spark_pilot_norest","9986","4","23","Male","","","","","","","null","<div style=""font-size:60px;"">+</div>","null","fixation","","","","","","","","","","","",""
"revaluation","47","306384","0.0-3.0-8.0-0.3","spark_pilot_norest","9986","4","23","Male","","false","","","","","[120.30000001192093,27.5]","./assets/img/space/9.jpg","[""ArrowDown"",""ArrowLeft""]","full practice","space","15","{""ArrowUp,ArrowLeft"":3,""ArrowUp,ArrowRight"":36,""ArrowDown,ArrowLeft"":15,""ArrowDown,ArrowRight"":23}","false","ArrowDown,ArrowLeft","false","","","","","",""
"html-keyboard-response","48","306885","0.0-3.0-8.0-1.3","spark_pilot_norest","9986","4","23","Male","","","","","","","null","<div style=""font-size:60px;"">+</div>","null","fixation","","","","","","","","","","","",""
"revaluation","49","312888","0.0-3.0-8.0-0.4","spark_pilot_norest","9986","4","23","Male","","false","","","","","[182.80000001192093,8.699999988079071]","./assets/img/space/10.jpg","[""ArrowUp"",""ArrowRight""]","full practice","space","36","{""ArrowUp,ArrowLeft"":3,""ArrowUp,ArrowRight"":36,""ArrowDown,ArrowLeft"":15,""ArrowDown,ArrowRight"":23}","true","ArrowUp,ArrowRight","false","","","","","",""
"html-keyboard-response","50","313389","0.0-3.0-8.0-1.4","spark_pilot_norest","9986","4","23","Male","","","","","","","null","<div style=""font-size:60px;"">+</div>","null","fixation","","","","","","","","","","","",""
"learning-instructions","51","324290","0.0-3.0-9.0-0.0","spark_pilot_norest","9986","4","23","Male","","","","","","","617.5999999642372","<p> One last thing: sometimes, you will see a robber. The robber can be anywhere in the picture. </p>
            <p> If you do not stop them, you will lose treasure. </p>
            <img src='./assets/img/instructions/robber.jpg' class='instructions-image'>","","instructions","","","","","","","","","","","",""
"learning-instructions","52","332780","0.0-3.0-9.0-0.1","spark_pilot_norest","9986","4","23","Male","","","","","","","1337.5","<p> If you see the robber, you should <b>press the space bar</b> rather than using the arrow keys. </p>
            <p> Try practicing that now! </p>","","instructions","","","","","","","","","","","",""
"revaluation","53","336782","0.0-3.0-10.0-0.0","spark_pilot_norest","9986","4","23","Male","","false","","","","","[683.8000000119209]","./assets/img/space/catch/0.jpg","[""spaceBar""]","catch practice","space","0","{""ArrowUp,ArrowLeft"":3,""ArrowUp,ArrowRight"":36,""ArrowDown,ArrowLeft"":15,""ArrowDown,ArrowRight"":23}","true","spaceBar","true","","","","","",""
"html-keyboard-response","54","337284","0.0-3.0-10.0-1.0","spark_pilot_norest","9986","4","23","Male","","","","","","","null","<div style=""font-size:60px;"">+</div>","null","fixation","","","","","","","","","","","",""
"revaluation","55","341287","0.0-3.0-10.0-0.1","spark_pilot_norest","9986","4","23","Male","","false","","","","","[558.4000000357628]","./assets/img/space/catch/1.jpg","[""spaceBar""]","catch practice","space","0","{""ArrowUp,ArrowLeft"":3,""ArrowUp,ArrowRight"":36,""ArrowDown,ArrowLeft"":15,""ArrowDown,ArrowRight"":23}","true","spaceBar","true","","","","","",""
"html-keyboard-response","56","341789","0.0-3.0-10.0-1.1","spark_pilot_norest","9986","4","23","Male","","","","","","","null","<div style=""font-size:60px;"">+</div>","null","fixation","","","","","","","","","","","",""
"revaluation","57","345792","0.0-3.0-10.0-0.2","spark_pilot_norest","9986","4","23","Male","","false","","","","","[842.5]","./assets/img/space/catch/2.jpg","[""spaceBar""]","catch practice","space","0","{""ArrowUp,ArrowLeft"":3,""ArrowUp,ArrowRight"":36,""ArrowDown,ArrowLeft"":15,""ArrowDown,ArrowRight"":23}","true","spaceBar","true","","","","","",""
"html-keyboard-response","58","346294","0.0-3.0-10.0-1.2","spark_pilot_norest","9986","4","23","Male","","","","","","","null","<div style=""font-size:60px;"">+</div>","null","fixation","","","","","","","","","","","",""
"learning-instructions","59","351776","0.0-3.0-11.0-0.0-0.0","spark_pilot_norest","9986","4","23","Male","","","","","","","243.19999998807907","<p> Now, you will practice a shortened version of the game to get a sense of how it all fits together. </p>","","instructions","","","","","","","","","","","",""
"learning-instructions","60","355301","0.0-3.0-11.0-0.0-0.1","spark_pilot_norest","9986","4","23","Male","","","","","","","338.69999998807907","<p>This time you are searching for treasure in outer space.</p>","","instructions","","","","","","","","","","","",""
"learning-instructions","61","370197","0.0-3.0-11.0-1.0-0.0","spark_pilot_norest","9986","4","23","Male","","","","","","","154.5999999642372","<p> Remember, when you see a picture of the place, use the up and down keys to <b>find an animal</b>.</p>
            <p> When you encounter an animal, you should use the left and right keys to <b>select a treasure chest</b>.</p>
            <p> Don't forget to look out for the robber! </p>","","instructions","","","","","","","","","","","",""
"revaluation","62","376200","0.0-3.0-11.0-2.0-0.0","spark_pilot_norest","9986","4","23","Male","","false","","","","","[845.8000000119209,603.8999999761581]","./assets/img/space/11.jpg","[""ArrowUp"",""ArrowRight""]","practice block","space","36","{""ArrowUp,ArrowLeft"":3,""ArrowUp,ArrowRight"":36,""ArrowDown,ArrowLeft"":15,""ArrowDown,ArrowRight"":23}","true","ArrowUp,ArrowRight","false","","","","","",""
"html-keyboard-response","63","376701","0.0-3.0-11.0-2.0-1.0","spark_pilot_norest","9986","4","23","Male","","","","","","","null","<div style=""font-size:60px;"">+</div>","null","fixation","","","","","","","","","","","",""
"revaluation","64","382706","0.0-3.0-11.0-2.0-0.1","spark_pilot_norest","9986","4","23","Male","","false","","","","","[824.3000000119209,165]","./assets/img/space/12.jpg","[""ArrowUp"",""ArrowRight""]","practice block","space","36","{""ArrowUp,ArrowLeft"":3,""ArrowUp,ArrowRight"":36,""ArrowDown,ArrowLeft"":15,""ArrowDown,ArrowRight"":23}","true","ArrowUp,ArrowRight","false","","","","","",""
"html-keyboard-response","65","383208","0.0-3.0-11.0-2.0-1.1","spark_pilot_norest","9986","4","23","Male","","","","","","","null","<div style=""font-size:60px;"">+</div>","null","fixation","","","","","","","","","","","",""
"revaluation","66","389213","0.0-3.0-11.0-2.0-0.2","spark_pilot_norest","9986","4","23","Male","","false","","","","","[567.8000000119209,407.80000001192093]","./assets/img/space/13.jpg","[""ArrowUp"",""ArrowRight""]","practice block","space","36","{""ArrowUp,ArrowLeft"":3,""ArrowUp,ArrowRight"":36,""ArrowDown,ArrowLeft"":15,""ArrowDown,ArrowRight"":23}","true","ArrowUp,ArrowRight","false","","","","","",""
"html-keyboard-response","67","389714","0.0-3.0-11.0-2.0-1.2","spark_pilot_norest","9986","4","23","Male","","","","","","","null","<div style=""font-size:60px;"">+</div>","null","fixation","","","","","","","","","","","",""
"revaluation","68","395718","0.0-3.0-11.0-2.0-0.3","spark_pilot_norest","9986","4","23","Male","","false","","","","","[928.3999999761581,149.30000001192093]","./assets/img/space/14.jpg","[""ArrowUp"",""ArrowRight""]","practice block","space","36","{""ArrowUp,ArrowLeft"":3,""ArrowUp,ArrowRight"":36,""ArrowDown,ArrowLeft"":15,""ArrowDown,ArrowRight"":23}","true","ArrowUp,ArrowRight","false","","","","","",""
"html-keyboard-response","69","396220","0.0-3.0-11.0-2.0-1.3","spark_pilot_norest","9986","4","23","Male","","","","","","","null","<div style=""font-size:60px;"">+</div>","null","fixation","","","","","","","","","","","",""
"revaluation","70","402223","0.0-3.0-11.0-2.0-0.4","spark_pilot_norest","9986","4","23","Male","","false","","","","","[1016.3000000119209,237.30000001192093]","./assets/img/space/11.jpg","[""ArrowUp"",""ArrowRight""]","practice block","space","36","{""ArrowUp,ArrowLeft"":3,""ArrowUp,ArrowRight"":36,""ArrowDown,ArrowLeft"":15,""ArrowDown,ArrowRight"":23}","true","ArrowUp,ArrowRight","false","","","","","",""
"html-keyboard-response","71","402724","0.0-3.0-11.0-2.0-1.4","spark_pilot_norest","9986","4","23","Male","","","","","","","null","<div style=""font-size:60px;"">+</div>","null","fixation","","","","","","","","","","","",""
"revaluation","72","408729","0.0-3.0-11.0-2.0-0.5","spark_pilot_norest","9986","4","23","Male","","false","","","","","[914.2999999523163,201]","./assets/img/space/12.jpg","[""ArrowUp"",""ArrowRight""]","practice block","space","36","{""ArrowUp,ArrowLeft"":3,""ArrowUp,ArrowRight"":36,""ArrowDown,ArrowLeft"":15,""ArrowDown,ArrowRight"":23}","true","ArrowUp,ArrowRight","false","","","","","",""
"html-keyboard-response","73","409230","0.0-3.0-11.0-2.0-1.5","spark_pilot_norest","9986","4","23","Male","","","","","","","null","<div style=""font-size:60px;"">+</div>","null","fixation","","","","","","","","","","","",""
"revaluation","74","415234","0.0-3.0-11.0-2.0-0.6","spark_pilot_norest","9986","4","23","Male","","false","","","","","[905,409.5]","./assets/img/space/13.jpg","[""ArrowUp"",""ArrowRight""]","practice block","space","36","{""ArrowUp,ArrowLeft"":3,""ArrowUp,ArrowRight"":36,""ArrowDown,ArrowLeft"":15,""ArrowDown,ArrowRight"":23}","true","ArrowUp,ArrowRight","false","","","","","",""
"html-keyboard-response","75","415735","0.0-3.0-11.0-2.0-1.6","spark_pilot_norest","9986","4","23","Male","","","","","","","null","<div style=""font-size:60px;"">+</div>","null","fixation","","","","","","","","","","","",""
"revaluation","76","421739","0.0-3.0-11.0-2.0-0.7","spark_pilot_norest","9986","4","23","Male","","false","","","","","[878.6000000238419,299.5]","./assets/img/space/14.jpg","[""ArrowUp"",""ArrowRight""]","practice block","space","36","{""ArrowUp,ArrowLeft"":3,""ArrowUp,ArrowRight"":36,""ArrowDown,ArrowLeft"":15,""ArrowDown,ArrowRight"":23}","true","ArrowUp,ArrowRight","false","","","","","",""
"html-keyboard-response","77","422240","0.0-3.0-11.0-2.0-1.7","spark_pilot_norest","9986","4","23","Male","","","","","","","null","<div style=""font-size:60px;"">+</div>","null","fixation","","","","","","","","","","","",""
"revaluation","78","426243","0.0-3.0-11.0-2.0-0.8","spark_pilot_norest","9986","4","23","Male","","false","","","","","[530.6000000238419]","./assets/img/space/catch/3.jpg","[""spaceBar""]","practice block","space","0","{""ArrowUp,ArrowLeft"":3,""ArrowUp,ArrowRight"":36,""ArrowDown,ArrowLeft"":15,""ArrowDown,ArrowRight"":23}","true","spaceBar","true","","","","","",""
"html-keyboard-response","79","426743","0.0-3.0-11.0-2.0-1.8","spark_pilot_norest","9986","4","23","Male","","","","","","","null","<div style=""font-size:60px;"">+</div>","null","fixation","","","","","","","","","","","",""
"learning-instructions","80","440332","0.0-3.0-11.0-3.0-0.0","spark_pilot_norest","9986","4","23","Male","","","","","","","699.3000000119209","<p> Now, you will travel with a friend who will choose whether you go up or down first. </p>
            <p> On these turns, you will just see the animal that they found. You will still get to choose which chest to search for treasure.</p>","","instructions","","","","","","","","","","","",""
"revaluation","81","444334","0.0-3.0-11.0-4.0-0.0","spark_pilot_norest","9986","4","23","Male","","false","","","","","[988.1000000238419]","./assets/img/space/animals/rabbit.jpg","[""ArrowRight""]","practice block","space","23","{""ArrowUp,ArrowLeft"":3,""ArrowUp,ArrowRight"":36,""ArrowDown,ArrowLeft"":15,""ArrowDown,ArrowRight"":23}","true","ArrowDown,ArrowRight","","","","","","",""
"html-keyboard-response","82","444835","0.0-3.0-11.0-4.0-1.0","spark_pilot_norest","9986","4","23","Male","","","","","","","null","<div style=""font-size:60px;"">+</div>","null","fixation","","","","","","","","","","","",""
"revaluation","83","448837","0.0-3.0-11.0-4.0-0.1","spark_pilot_norest","9986","4","23","Male","","false","","","","","[554.1999999880791]","./assets/img/space/animals/cat.jpg","[""ArrowRight""]","practice block","space","36","{""ArrowUp,ArrowLeft"":3,""ArrowUp,ArrowRight"":36,""ArrowDown,ArrowLeft"":15,""ArrowDown,ArrowRight"":23}","true","ArrowUp,ArrowRight","","","","","","",""
"html-keyboard-response","84","449338","0.0-3.0-11.0-4.0-1.1","spark_pilot_norest","9986","4","23","Male","","","","","","","null","<div style=""font-size:60px;"">+</div>","null","fixation","","","","","","","","","","","",""
"revaluation","85","453341","0.0-3.0-11.0-4.0-0.2","spark_pilot_norest","9986","4","23","Male","","false","","","","","[426.5999999642372]","./assets/img/space/animals/cat.jpg","[""ArrowRight""]","practice block","space","36","{""ArrowUp,ArrowLeft"":3,""ArrowUp,ArrowRight"":36,""ArrowDown,ArrowLeft"":15,""ArrowDown,ArrowRight"":23}","true","ArrowUp,ArrowRight","","","","","","",""
"html-keyboard-response","86","453842","0.0-3.0-11.0-4.0-1.2","spark_pilot_norest","9986","4","23","Male","","","","","","","null","<div style=""font-size:60px;"">+</div>","null","fixation","","","","","","","","","","","",""
"revaluation","87","457845","0.0-3.0-11.0-4.0-0.3","spark_pilot_norest","9986","4","23","Male","","false","","","","","[529.5]","./assets/img/space/animals/rabbit.jpg","[""ArrowRight""]","practice block","space","23","{""ArrowUp,ArrowLeft"":3,""ArrowUp,ArrowRight"":36,""ArrowDown,ArrowLeft"":15,""ArrowDown,ArrowRight"":23}","true","ArrowDown,ArrowRight","","","","","","",""
"html-keyboard-response","88","458346","0.0-3.0-11.0-4.0-1.3","spark_pilot_norest","9986","4","23","Male","","","","","","","null","<div style=""font-size:60px;"">+</div>","null","fixation","","","","","","","","","","","",""
"learning-instructions","89","466454","0.0-3.0-11.0-5.0-0.0","spark_pilot_norest","9986","4","23","Male","","","","","","","null","<p> You have almost finished this part of the game! </p>
            <p> We are going to ask you to make a few more choices. </p>","","instructions","","","","","","","","","","","",""
"learning-instructions","90","482432","0.0-3.0-11.0-5.0-0.1","spark_pilot_norest","9986","4","23","Male","","","","","","","null","<p> First, you need to decide whether to go up or down. When you see each picture, use the arrow keys to make your choice. </p>
            <p><b>You will not see which animal you found, but try to get to the one that will give you the most treasure.</b></p>","","instructions","","","","","","","","","","","",""
"html-keyboard-response","91","483434","0.0-3.0-11.0-6.0-0.0","spark_pilot_norest","9986","4","23","Male","","","","","","","null","<div style=""font-size:100px;color:red;"">Starting in...</div>","null","","","","","","","","","","","","",""
"html-keyboard-response","92","484437","0.0-3.0-11.0-6.0-1.0","spark_pilot_norest","9986","4","23","Male","","","","","","","null","<div style=""font-size:200px;color:red;"">3</div>","null","","","","","","","","","","","","",""
"html-keyboard-response","93","485438","0.0-3.0-11.0-6.0-2.0","spark_pilot_norest","9986","4","23","Male","","","","","","","null","<div style=""font-size:200px;color:red;"">2</div>","null","","","","","","","","","","","","",""
"html-keyboard-response","94","486439","0.0-3.0-11.0-6.0-3.0","spark_pilot_norest","9986","4","23","Male","","","","","","","null","<div style=""font-size:200px;color:red;"">1</div>","null","","","","","","","","","","","","",""
"revaluation","95","487154","0.0-3.0-11.0-7.0","spark_pilot_norest","9986","4","23","Male","","false","","","","","[713.8000000119209]","./assets/img/space/15.jpg","[""ArrowUp""]","practice block","space","0","{""ArrowUp,ArrowLeft"":3,""ArrowUp,ArrowRight"":36,""ArrowDown,ArrowLeft"":15,""ArrowDown,ArrowRight"":23}","true","ArrowUp","false","","","","","",""
"html-keyboard-response","96","487655","0.0-3.0-11.0-8.0","spark_pilot_norest","9986","4","23","Male","","","","","","","null","<div style=""font-size:60px;"">+</div>","null","fixation","","","","","","","","","","","",""
"learning-instructions","97","501004","0.0-3.0-11.0-9.0-0.0","spark_pilot_norest","9986","4","23","Male","","","","","","","null","<p> Now you will see the animals again and can search their chests for treasure. </p>
            <p> This time, you will not see how much treasure you earned, but you will earn more bonus money for making better choices. </p>","","instructions","","","","","","","","","","","",""
"html-keyboard-response","98","502005","0.0-3.0-11.0-10.0-0.0","spark_pilot_norest","9986","4","23","Male","","","","","","","null","<div style=""font-size:100px;color:red;"">Starting in...</div>","null","","","","","","","","","","","","",""
"html-keyboard-response","99","503006","0.0-3.0-11.0-10.0-1.0","spark_pilot_norest","9986","4","23","Male","","","","","","","null","<div style=""font-size:200px;color:red;"">3</div>","null","","","","","","","","","","","","",""
"html-keyboard-response","100","504008","0.0-3.0-11.0-10.0-2.0","spark_pilot_norest","9986","4","23","Male","","","","","","","null","<div style=""font-size:200px;color:red;"">2</div>","null","","","","","","","","","","","","",""
"html-keyboard-response","101","505009","0.0-3.0-11.0-10.0-3.0","spark_pilot_norest","9986","4","23","Male","","","","","","","null","<div style=""font-size:200px;color:red;"">1</div>","null","","","","","","","","","","","","",""
"revaluation","102","505622","0.0-3.0-11.0-11.0-0.0","spark_pilot_norest","9986","4","23","Male","","false","","","","","[611.6000000238419]","./assets/img/space/animals/cat.jpg","[""ArrowRight""]","practice block","space","0","{""ArrowUp,ArrowLeft"":3,""ArrowUp,ArrowRight"":36,""ArrowDown,ArrowLeft"":15,""ArrowDown,ArrowRight"":23}","true","ArrowUp,ArrowRight","","","","","","",""
"html-keyboard-response","103","506123","0.0-3.0-11.0-11.0-1.0","spark_pilot_norest","9986","4","23","Male","","","","","","","null","<div style=""font-size:60px;"">+</div>","null","fixation","","","","","","","","","","","",""
"revaluation","104","507059","0.0-3.0-11.0-11.0-0.1","spark_pilot_norest","9986","4","23","Male","","false","","","","","[935.1999999880791]","./assets/img/space/animals/rabbit.jpg","[""ArrowRight""]","practice block","space","0","{""ArrowUp,ArrowLeft"":3,""ArrowUp,ArrowRight"":36,""ArrowDown,ArrowLeft"":15,""ArrowDown,ArrowRight"":23}","true","ArrowDown,ArrowRight","","","","","","",""
"html-keyboard-response","105","507559","0.0-3.0-11.0-11.0-1.1","spark_pilot_norest","9986","4","23","Male","","","","","","","null","<div style=""font-size:60px;"">+</div>","null","fixation","","","","","","","","","","","",""
"learning-instructions","106","513726","0.0-3.0-12.0-0.0","spark_pilot_norest","9986","4","23","Male","","","","","","","1603.699999988079","<p> Before you start, we're going to ask you a few questions about how the game works. </p>","","instructions","","","","","","","","","","","",""
"comp-q","107","521243","0.0-3.0-13.0-0.0-0.0","spark_pilot_norest","9986","4","23","Male","","","","","","","1950.699999988079","<p> <b> True or False? </b> </p>
            <p> There can be 50 pieces of treasure in a given animal's chest. </p>","1","comp_question","","","","true","","","","","","","",""
"comp-q","108","528533","0.0-3.0-13.0-0.0-1.0","spark_pilot_norest","9986","4","23","Male","","","","","","","650.7999999523163","<p> <b> That's right! </b> The amount of treasure in each chest can range from 0 to 40 pieces. </p>","0","comp_answer","","","","","","","","","","","",""
"comp-q","109","536323","0.0-3.0-13.0-0.1-0.1","spark_pilot_norest","9986","4","23","Male","","","","","","","690.8000000119209","<p> <b> True or False? </b> </p><p> In this game, all animals have the same amount of treasure in their left and right chests. </p>","1","comp_question","","","","true","","","","","","","",""
"comp-q","110","542636","0.0-3.0-13.0-0.1-1.1","spark_pilot_norest","9986","4","23","Male","","","","","","","1103.800000011921","<p> <b> That's right! </b> Animals have different amounts of treasure in their treasure chests. </p>","0","comp_answer","","","","","","","","","","","",""
"comp-q","111","549321","0.0-3.0-13.0-0.2-0.2","spark_pilot_norest","9986","4","23","Male","","","","","","","867.6000000238419","<p> <b> True or False? </b> </p><p> The same animal will always be there if you go up in the same place. </p>","0","comp_question","","","","true","","","","","","","",""
"comp-q","112","556574","0.0-3.0-13.0-0.2-1.2","spark_pilot_norest","9986","4","23","Male","","","","","","","820.5","<p> <b> That's right! </b> One animal lives in the upper part and one lives in the lower part of every place. </p>","0","comp_answer","","","","","","","","","","","",""
"comp-q","113","562674","0.0-3.0-13.0-0.3-0.3","spark_pilot_norest","9986","4","23","Male","","","","","","","591.8000000119209","<p> <b> True or False? </b> </p><p> If you see a different picture, it means you are in a new place. </p>","0","comp_question","","","","false","","","","","","","",""
"comp-q","114","575826","0.0-3.0-13.0-0.3-1.3","spark_pilot_norest","9986","4","23","Male","","","","","","","2073.599999964237","<p> <b>Incorrect.</b> Lots of different images may show the same place. For example,  you may see three different images that all remind you that you are in outer space. </p>","0","comp_answer","","","","","","","","","","","",""
"comp-q","115","582176","0.0-3.0-13.0-0.4-0.4","spark_pilot_norest","9986","4","23","Male","","","","","","","853.6000000238419","<p> <b> True or False? </b> </p><p> If you see a different picture, it means you are in a new place. </p>","1","comp_question","","","","true","","","","","","","",""
"comp-q","116","594802","0.0-3.0-13.0-0.4-1.4","spark_pilot_norest","9986","4","23","Male","","","","","","","1429.699999988079","<p> <b> That's right! </b> Lots of different images may show the same place. For example,  you may see three different images that all remind you that you are in outer space. </p>","0","comp_answer","","","","","","","","","","","",""
"learning-instructions","117","679331","0.0-3.0-14.0-0.0","spark_pilot_norest","9986","4","23","Male","","","","","","","74698.40000003576","<p> Good job. Remember to do your best because the amount of treasure you earn will be converted into bonus money. </p>
            <p> It’s time to start the real game! </p>","","instructions","","","","","","","","","","","",""
"learning-instructions","118","683272","0.0-4.0-0.0-0.0","spark_pilot_norest","9986","4","23","Male","","","","","","","1249.7000000476837","<p> This time you are searching for treasure in the <b>ocean</b>.</p>","","instructions","","","","","","","","","","","",""
"learning-instructions","119","701648","0.0-4.0-0.0-0.1","spark_pilot_norest","9986","4","23","Male","","","","","","","1106.1000000238419","<p><b>New</b> animals with <b>new</b> treasure chests live here. You need to explore to discover where the animal with the best treasure chest is.</p>
                    <p> Like before, once you figure out which animal has the chest with the most treasure, you should try to get to that animal and select that chest! </p>","","instructions","","","","","","","","","","","",""
"learning-instructions","120","717475","0.0-4.0-1.0-0.0","spark_pilot_norest","9986","4","23","Male","","","","","","","1092.9000000357628","<p> Remember, when you see a picture of the place, use the up and down keys to <b>find an animal</b>.</p>
            <p> When you encounter an animal, you should use the left and right keys to <b>select a treasure chest</b>.</p>
            <p> Don't forget to look out for the robber! </p>","","instructions","","","","","","","","","","","",""
"revaluation","121","723478","0.0-4.0-2.0-0.0","spark_pilot_norest","9986","4","23","Male","","false","","","","","[1159.7000000476837,329.89999997615814]","./assets/img/ocean/memory/28.jpg","[""ArrowUp"",""ArrowRight""]","value training","ocean","10","{""ArrowUp,ArrowLeft"":26,""ArrowUp,ArrowRight"":10,""ArrowDown,ArrowLeft"":5,""ArrowDown,ArrowRight"":17}","false","ArrowUp,ArrowRight","false","revaluation","1","0","","",""
"html-keyboard-response","122","723979","0.0-4.0-2.0-1.0","spark_pilot_norest","9986","4","23","Male","","","","","","","null","<div style=""font-size:60px;"">+</div>","null","fixation","","","","","","","","","1","","",""
"revaluation","123","729981","0.0-4.0-2.0-0.1","spark_pilot_norest","9986","4","23","Male","","false","","","","","[1173.4000000357628,366.39999997615814]","./assets/img/ocean/memory/24.jpg","[""ArrowUp"",""ArrowLeft""]","value training","ocean","26","{""ArrowUp,ArrowLeft"":26,""ArrowUp,ArrowRight"":10,""ArrowDown,ArrowLeft"":5,""ArrowDown,ArrowRight"":17}","true","ArrowUp,ArrowLeft","false","revaluation","1","2","","",""
"html-keyboard-response","124","730482","0.0-4.0-2.0-1.1","spark_pilot_norest","9986","4","23","Male","","","","","","","null","<div style=""font-size:60px;"">+</div>","null","fixation","","","","","","","","","3","","",""
"revaluation","125","736487","0.0-4.0-2.0-0.2","spark_pilot_norest","9986","4","23","Male","","false","","","","","[427.5999999642372,599]","./assets/img/ocean/memory/13.jpg","[""ArrowDown"",""ArrowLeft""]","value training","ocean","5","{""ArrowUp,ArrowLeft"":26,""ArrowUp,ArrowRight"":10,""ArrowDown,ArrowLeft"":5,""ArrowDown,ArrowRight"":17}","false","ArrowDown,ArrowLeft","false","revaluation","1","4","","",""
"html-keyboard-response","126","736988","0.0-4.0-2.0-1.2","spark_pilot_norest","9986","4","23","Male","","","","","","","null","<div style=""font-size:60px;"">+</div>","null","fixation","","","","","","","","","5","","",""
"revaluation","127","742992","0.0-4.0-2.0-0.3","spark_pilot_norest","9986","4","23","Male","","false","","","","","[445.4000000357628,244.69999998807907]","./assets/img/ocean/memory/5.jpg","[""ArrowDown"",""ArrowRight""]","value training","ocean","17","{""ArrowUp,ArrowLeft"":26,""ArrowUp,ArrowRight"":10,""ArrowDown,ArrowLeft"":5,""ArrowDown,ArrowRight"":17}","false","ArrowDown,ArrowRight","false","revaluation","1","6","","",""
"html-keyboard-response","128","743493","0.0-4.0-2.0-1.3","spark_pilot_norest","9986","4","23","Male","","","","","","","null","<div style=""font-size:60px;"">+</div>","null","fixation","","","","","","","","","7","","",""
"revaluation","129","749497","0.0-4.0-2.0-0.4","spark_pilot_norest","9986","4","23","Male","","false","","","","","[478.60000002384186,183.69999998807907]","./assets/img/ocean/memory/13.jpg","[""ArrowUp"",""ArrowLeft""]","value training","ocean","26","{""ArrowUp,ArrowLeft"":26,""ArrowUp,ArrowRight"":10,""ArrowDown,ArrowLeft"":5,""ArrowDown,ArrowRight"":17}","true","ArrowUp,ArrowLeft","false","revaluation","1","8","","",""
"html-keyboard-response","130","749998","0.0-4.0-2.0-1.4","spark_pilot_norest","9986","4","23","Male","","","","","","","null","<div style=""font-size:60px;"">+</div>","null","fixation","","","","","","","","","9","","",""
"revaluation","131","756000","0.0-4.0-2.0-0.5","spark_pilot_norest","9986","4","23","Male","","false","","","","","[417,32.80000001192093]","./assets/img/ocean/memory/33.jpg","[""ArrowUp"",""ArrowRight""]","value training","ocean","10","{""ArrowUp,ArrowLeft"":26,""ArrowUp,ArrowRight"":10,""ArrowDown,ArrowLeft"":5,""ArrowDown,ArrowRight"":17}","false","ArrowUp,ArrowRight","false","revaluation","1","10","","",""
"html-keyboard-response","132","756501","0.0-4.0-2.0-1.5","spark_pilot_norest","9986","4","23","Male","","","","","","","null","<div style=""font-size:60px;"">+</div>","null","fixation","","","","","","","","","11","","",""
"revaluation","133","762504","0.0-4.0-2.0-0.6","spark_pilot_norest","9986","4","23","Male","","false","","","","","[46.299999952316284,295.2000000476837]","./assets/img/ocean/memory/6.jpg","[""ArrowUp"",""ArrowLeft""]","value training","ocean","26","{""ArrowUp,ArrowLeft"":26,""ArrowUp,ArrowRight"":10,""ArrowDown,ArrowLeft"":5,""ArrowDown,ArrowRight"":17}","true","ArrowUp,ArrowLeft","false","revaluation","1","12","","",""
"html-keyboard-response","134","763004","0.0-4.0-2.0-1.6","spark_pilot_norest","9986","4","23","Male","","","","","","","null","<div style=""font-size:60px;"">+</div>","null","fixation","","","","","","","","","13","","",""
"revaluation","135","769008","0.0-4.0-2.0-0.7","spark_pilot_norest","9986","4","23","Male","","false","","","","","[704.5,284.60000002384186]","./assets/img/ocean/memory/8.jpg","[""ArrowUp"",""ArrowLeft""]","value training","ocean","26","{""ArrowUp,ArrowLeft"":26,""ArrowUp,ArrowRight"":10,""ArrowDown,ArrowLeft"":5,""ArrowDown,ArrowRight"":17}","true","ArrowUp,ArrowLeft","false","revaluation","1","14","","",""
"html-keyboard-response","136","769509","0.0-4.0-2.0-1.7","spark_pilot_norest","9986","4","23","Male","","","","","","","null","<div style=""font-size:60px;"">+</div>","null","fixation","","","","","","","","","15","","",""
"revaluation","137","775512","0.0-4.0-2.0-0.8","spark_pilot_norest","9986","4","23","Male","","false","","","","","[874.6999999880791,324.30000001192093]","./assets/img/ocean/memory/20.jpg","[""ArrowUp"",""ArrowLeft""]","value training","ocean","26","{""ArrowUp,ArrowLeft"":26,""ArrowUp,ArrowRight"":10,""ArrowDown,ArrowLeft"":5,""ArrowDown,ArrowRight"":17}","true","ArrowUp,ArrowLeft","false","revaluation","1","16","","",""
"html-keyboard-response","138","776014","0.0-4.0-2.0-1.8","spark_pilot_norest","9986","4","23","Male","","","","","","","null","<div style=""font-size:60px;"">+</div>","null","fixation","","","","","","","","","17","","",""
"revaluation","139","782018","0.0-4.0-2.0-0.9","spark_pilot_norest","9986","4","23","Male","","false","","","","","[531.1000000238419,346.80000001192093]","./assets/img/ocean/memory/38.jpg","[""ArrowUp"",""ArrowLeft""]","value training","ocean","26","{""ArrowUp,ArrowLeft"":26,""ArrowUp,ArrowRight"":10,""ArrowDown,ArrowLeft"":5,""ArrowDown,ArrowRight"":17}","true","ArrowUp,ArrowLeft","false","revaluation","1","18","","",""
"html-keyboard-response","140","782518","0.0-4.0-2.0-1.9","spark_pilot_norest","9986","4","23","Male","","","","","","","null","<div style=""font-size:60px;"">+</div>","null","fixation","","","","","","","","","19","","",""
"revaluation","141","788522","0.0-4.0-2.0-0.10","spark_pilot_norest","9986","4","23","Male","","false","","","","","[513.6000000238419,201.9000000357628]","./assets/img/ocean/memory/10.jpg","[""ArrowUp"",""ArrowLeft""]","value training","ocean","26","{""ArrowUp,ArrowLeft"":26,""ArrowUp,ArrowRight"":10,""ArrowDown,ArrowLeft"":5,""ArrowDown,ArrowRight"":17}","true","ArrowUp,ArrowLeft","false","revaluation","1","20","","",""
"html-keyboard-response","142","789022","0.0-4.0-2.0-1.10","spark_pilot_norest","9986","4","23","Male","","","","","","","null","<div style=""font-size:60px;"">+</div>","null","fixation","","","","","","","","","21","","",""
"revaluation","143","793025","0.0-4.0-2.0-0.11","spark_pilot_norest","9986","4","23","Male","","false","","","","","[825.9000000357628]","./assets/img/ocean/catch/0.jpg","[""spaceBar""]","value training","ocean","0","{""ArrowUp,ArrowLeft"":26,""ArrowUp,ArrowRight"":10,""ArrowDown,ArrowLeft"":5,""ArrowDown,ArrowRight"":17}","true","spaceBar","true","revaluation","1","22","","",""
"html-keyboard-response","144","793526","0.0-4.0-2.0-1.11","spark_pilot_norest","9986","4","23","Male","","","","","","","null","<div style=""font-size:60px;"">+</div>","null","fixation","","","","","","","","","23","","",""
"revaluation","145","799530","0.0-4.0-2.0-0.12","spark_pilot_norest","9986","4","23","Male","","false","","","","","[709.2000000476837,431.7000000476837]","./assets/img/ocean/memory/31.jpg","[""ArrowUp"",""ArrowLeft""]","value training","ocean","26","{""ArrowUp,ArrowLeft"":26,""ArrowUp,ArrowRight"":10,""ArrowDown,ArrowLeft"":5,""ArrowDown,ArrowRight"":17}","true","ArrowUp,ArrowLeft","false","revaluation","1","24","","",""
"html-keyboard-response","146","800030","0.0-4.0-2.0-1.12","spark_pilot_norest","9986","4","23","Male","","","","","","","null","<div style=""font-size:60px;"">+</div>","null","fixation","","","","","","","","","25","","",""
"revaluation","147","806036","0.0-4.0-2.0-0.13","spark_pilot_norest","9986","4","23","Male","","false","","","","","[630.8999999761581,107.30000001192093]","./assets/img/ocean/memory/17.jpg","[""ArrowUp"",""ArrowLeft""]","value training","ocean","26","{""ArrowUp,ArrowLeft"":26,""ArrowUp,ArrowRight"":10,""ArrowDown,ArrowLeft"":5,""ArrowDown,ArrowRight"":17}","true","ArrowUp,ArrowLeft","false","revaluation","1","26","","",""
"html-keyboard-response","148","806537","0.0-4.0-2.0-1.13","spark_pilot_norest","9986","4","23","Male","","","","","","","null","<div style=""font-size:60px;"">+</div>","null","fixation","","","","","","","","","27","","",""
"revaluation","149","812544","0.0-4.0-2.0-0.14","spark_pilot_norest","9986","4","23","Male","","false","","","","","[404.2999999523163,185.80000001192093]","./assets/img/ocean/memory/38.jpg","[""ArrowUp"",""ArrowLeft""]","value training","ocean","26","{""ArrowUp,ArrowLeft"":26,""ArrowUp,ArrowRight"":10,""ArrowDown,ArrowLeft"":5,""ArrowDown,ArrowRight"":17}","true","ArrowUp,ArrowLeft","false","revaluation","1","28","","",""
"html-keyboard-response","150","813045","0.0-4.0-2.0-1.14","spark_pilot_norest","9986","4","23","Male","","","","","","","null","<div style=""font-size:60px;"">+</div>","null","fixation","","","","","","","","","29","","",""
"revaluation","151","819049","0.0-4.0-2.0-0.15","spark_pilot_norest","9986","4","23","Male","","false","","","","","[389.39999997615814,86.70000004768372]","./assets/img/ocean/memory/22.jpg","[""ArrowUp"",""ArrowLeft""]","value training","ocean","26","{""ArrowUp,ArrowLeft"":26,""ArrowUp,ArrowRight"":10,""ArrowDown,ArrowLeft"":5,""ArrowDown,ArrowRight"":17}","true","ArrowUp,ArrowLeft","false","revaluation","1","30","","",""
"html-keyboard-response","152","819549","0.0-4.0-2.0-1.15","spark_pilot_norest","9986","4","23","Male","","","","","","","null","<div style=""font-size:60px;"">+</div>","null","fixation","","","","","","","","","31","","",""
"revaluation","153","825554","0.0-4.0-2.0-0.16","spark_pilot_norest","9986","4","23","Male","","false","","","","","[779,112.19999998807907]","./assets/img/ocean/memory/10.jpg","[""ArrowUp"",""ArrowLeft""]","value training","ocean","26","{""ArrowUp,ArrowLeft"":26,""ArrowUp,ArrowRight"":10,""ArrowDown,ArrowLeft"":5,""ArrowDown,ArrowRight"":17}","true","ArrowUp,ArrowLeft","false","revaluation","1","32","","",""
"html-keyboard-response","154","826056","0.0-4.0-2.0-1.16","spark_pilot_norest","9986","4","23","Male","","","","","","","null","<div style=""font-size:60px;"">+</div>","null","fixation","","","","","","","","","33","","",""
"revaluation","155","830060","0.0-4.0-2.0-0.17","spark_pilot_norest","9986","4","23","Male","","false","","","","","[913.2999999523163]","./assets/img/ocean/catch/7.jpg","[""spaceBar""]","value training","ocean","0","{""ArrowUp,ArrowLeft"":26,""ArrowUp,ArrowRight"":10,""ArrowDown,ArrowLeft"":5,""ArrowDown,ArrowRight"":17}","true","spaceBar","true","revaluation","1","34","","",""
"html-keyboard-response","156","830561","0.0-4.0-2.0-1.17","spark_pilot_norest","9986","4","23","Male","","","","","","","null","<div style=""font-size:60px;"">+</div>","null","fixation","","","","","","","","","35","","",""
"revaluation","157","836567","0.0-4.0-2.0-0.18","spark_pilot_norest","9986","4","23","Male","","false","","","","","[518.7000000476837,514.3000000119209]","./assets/img/ocean/memory/26.jpg","[""ArrowUp"",""ArrowLeft""]","value training","ocean","26","{""ArrowUp,ArrowLeft"":26,""ArrowUp,ArrowRight"":10,""ArrowDown,ArrowLeft"":5,""ArrowDown,ArrowRight"":17}","true","ArrowUp,ArrowLeft","false","revaluation","1","36","","",""
"html-keyboard-response","158","837068","0.0-4.0-2.0-1.18","spark_pilot_norest","9986","4","23","Male","","","","","","","null","<div style=""font-size:60px;"">+</div>","null","fixation","","","","","","","","","37","","",""
"revaluation","159","843071","0.0-4.0-2.0-0.19","spark_pilot_norest","9986","4","23","Male","","false","","","","","[439.89999997615814,163.30000001192093]","./assets/img/ocean/memory/27.jpg","[""ArrowUp"",""ArrowLeft""]","value training","ocean","26","{""ArrowUp,ArrowLeft"":26,""ArrowUp,ArrowRight"":10,""ArrowDown,ArrowLeft"":5,""ArrowDown,ArrowRight"":17}","true","ArrowUp,ArrowLeft","false","revaluation","1","38","","",""
"html-keyboard-response","160","843571","0.0-4.0-2.0-1.19","spark_pilot_norest","9986","4","23","Male","","","","","","","null","<div style=""font-size:60px;"">+</div>","null","fixation","","","","","","","","","39","","",""
"revaluation","161","849575","0.0-4.0-2.0-0.20","spark_pilot_norest","9986","4","23","Male","","false","","","","","[785.5,255]","./assets/img/ocean/memory/11.jpg","[""ArrowUp"",""ArrowLeft""]","value training","ocean","26","{""ArrowUp,ArrowLeft"":26,""ArrowUp,ArrowRight"":10,""ArrowDown,ArrowLeft"":5,""ArrowDown,ArrowRight"":17}","true","ArrowUp,ArrowLeft","false","revaluation","1","40","","",""
"html-keyboard-response","162","850077","0.0-4.0-2.0-1.20","spark_pilot_norest","9986","4","23","Male","","","","","","","null","<div style=""font-size:60px;"">+</div>","null","fixation","","","","","","","","","41","","",""
"revaluation","163","856082","0.0-4.0-2.0-0.21","spark_pilot_norest","9986","4","23","Male","","false","","","","","[681.1999999880791,284.89999997615814]","./assets/img/ocean/memory/8.jpg","[""ArrowUp"",""ArrowLeft""]","value training","ocean","26","{""ArrowUp,ArrowLeft"":26,""ArrowUp,ArrowRight"":10,""ArrowDown,ArrowLeft"":5,""ArrowDown,ArrowRight"":17}","true","ArrowUp,ArrowLeft","false","revaluation","1","42","","",""
"html-keyboard-response","164","856583","0.0-4.0-2.0-1.21","spark_pilot_norest","9986","4","23","Male","","","","","","","null","<div style=""font-size:60px;"">+</div>","null","fixation","","","","","","","","","43","","",""
"revaluation","165","862587","0.0-4.0-2.0-0.22","spark_pilot_norest","9986","4","23","Male","","false","","","","","[847.8000000119209,419.80000001192093]","./assets/img/ocean/memory/28.jpg","[""ArrowUp"",""ArrowLeft""]","value training","ocean","26","{""ArrowUp,ArrowLeft"":26,""ArrowUp,ArrowRight"":10,""ArrowDown,ArrowLeft"":5,""ArrowDown,ArrowRight"":17}","true","ArrowUp,ArrowLeft","false","revaluation","1","44","","",""
"html-keyboard-response","166","863089","0.0-4.0-2.0-1.22","spark_pilot_norest","9986","4","23","Male","","","","","","","null","<div style=""font-size:60px;"">+</div>","null","fixation","","","","","","","","","45","","",""
"revaluation","167","869092","0.0-4.0-2.0-0.23","spark_pilot_norest","9986","4","23","Male","","false","","","","","[707.6999999880791,321.0999999642372]","./assets/img/ocean/memory/27.jpg","[""ArrowUp"",""ArrowLeft""]","value training","ocean","26","{""ArrowUp,ArrowLeft"":26,""ArrowUp,ArrowRight"":10,""ArrowDown,ArrowLeft"":5,""ArrowDown,ArrowRight"":17}","true","ArrowUp,ArrowLeft","false","revaluation","1","46","","",""
"html-keyboard-response","168","869593","0.0-4.0-2.0-1.23","spark_pilot_norest","9986","4","23","Male","","","","","","","null","<div style=""font-size:60px;"">+</div>","null","fixation","","","","","","","","","47","","",""
"revaluation","169","875599","0.0-4.0-2.0-0.24","spark_pilot_norest","9986","4","23","Male","","false","","","","","[845.6000000238419,296.69999998807907]","./assets/img/ocean/memory/11.jpg","[""ArrowUp"",""ArrowLeft""]","value training","ocean","26","{""ArrowUp,ArrowLeft"":26,""ArrowUp,ArrowRight"":10,""ArrowDown,ArrowLeft"":5,""ArrowDown,ArrowRight"":17}","true","ArrowUp,ArrowLeft","false","revaluation","1","48","","",""
"html-keyboard-response","170","876100","0.0-4.0-2.0-1.24","spark_pilot_norest","9986","4","23","Male","","","","","","","null","<div style=""font-size:60px;"">+</div>","null","fixation","","","","","","","","","49","","",""
"revaluation","171","882104","0.0-4.0-2.0-0.25","spark_pilot_norest","9986","4","23","Male","","false","","","","","[864,453.80000001192093]","./assets/img/ocean/memory/3.jpg","[""ArrowUp"",""ArrowLeft""]","value training","ocean","26","{""ArrowUp,ArrowLeft"":26,""ArrowUp,ArrowRight"":10,""ArrowDown,ArrowLeft"":5,""ArrowDown,ArrowRight"":17}","true","ArrowUp,ArrowLeft","false","revaluation","1","50","","",""
"html-keyboard-response","172","882605","0.0-4.0-2.0-1.25","spark_pilot_norest","9986","4","23","Male","","","","","","","null","<div style=""font-size:60px;"">+</div>","null","fixation","","","","","","","","","51","","",""
"revaluation","173","888611","0.0-4.0-2.0-0.26","spark_pilot_norest","9986","4","23","Male","","false","","","","","[904.8000000119209,793.7000000476837]","./assets/img/ocean/memory/32.jpg","[""ArrowUp"",""ArrowLeft""]","value training","ocean","26","{""ArrowUp,ArrowLeft"":26,""ArrowUp,ArrowRight"":10,""ArrowDown,ArrowLeft"":5,""ArrowDown,ArrowRight"":17}","true","ArrowUp,ArrowLeft","false","revaluation","1","52","","",""
"html-keyboard-response","174","889111","0.0-4.0-2.0-1.26","spark_pilot_norest","9986","4","23","Male","","","","","","","null","<div style=""font-size:60px;"">+</div>","null","fixation","","","","","","","","","53","","",""
"revaluation","175","895115","0.0-4.0-2.0-0.27","spark_pilot_norest","9986","4","23","Male","","false","","","","","[1008.8000000119209,410.30000001192093]","./assets/img/ocean/memory/19.jpg","[""ArrowUp"",""ArrowLeft""]","value training","ocean","26","{""ArrowUp,ArrowLeft"":26,""ArrowUp,ArrowRight"":10,""ArrowDown,ArrowLeft"":5,""ArrowDown,ArrowRight"":17}","true","ArrowUp,ArrowLeft","false","revaluation","1","54","","",""
"html-keyboard-response","176","895616","0.0-4.0-2.0-1.27","spark_pilot_norest","9986","4","23","Male","","","","","","","null","<div style=""font-size:60px;"">+</div>","null","fixation","","","","","","","","","55","","",""
"revaluation","177","899619","0.0-4.0-2.0-0.28","spark_pilot_norest","9986","4","23","Male","","false","","","","","[1280.699999988079]","./assets/img/ocean/catch/1.jpg","[""spaceBar""]","value training","ocean","0","{""ArrowUp,ArrowLeft"":26,""ArrowUp,ArrowRight"":10,""ArrowDown,ArrowLeft"":5,""ArrowDown,ArrowRight"":17}","true","spaceBar","true","revaluation","1","56","","",""
"html-keyboard-response","178","900121","0.0-4.0-2.0-1.28","spark_pilot_norest","9986","4","23","Male","","","","","","","null","<div style=""font-size:60px;"">+</div>","null","fixation","","","","","","","","","57","","",""
"revaluation","179","906126","0.0-4.0-2.0-0.29","spark_pilot_norest","9986","4","23","Male","","false","","","","","[1222,736]","./assets/img/ocean/memory/33.jpg","[""ArrowUp"",""ArrowLeft""]","value training","ocean","26","{""ArrowUp,ArrowLeft"":26,""ArrowUp,ArrowRight"":10,""ArrowDown,ArrowLeft"":5,""ArrowDown,ArrowRight"":17}","true","ArrowUp,ArrowLeft","false","revaluation","1","58","","",""
"html-keyboard-response","180","906627","0.0-4.0-2.0-1.29","spark_pilot_norest","9986","4","23","Male","","","","","","","null","<div style=""font-size:60px;"">+</div>","null","fixation","","","","","","","","","59","","",""
"revaluation","181","910629","0.0-4.0-2.0-0.30","spark_pilot_norest","9986","4","23","Male","","false","","","","","[1297.1000000238419]","./assets/img/ocean/catch/4.jpg","[""ArrowUp""]","value training","ocean","-10","{""ArrowUp,ArrowLeft"":26,""ArrowUp,ArrowRight"":10,""ArrowDown,ArrowLeft"":5,""ArrowDown,ArrowRight"":17}","false","ArrowUp","true","revaluation","1","60","","",""
"html-keyboard-response","182","911131","0.0-4.0-2.0-1.30","spark_pilot_norest","9986","4","23","Male","","","","","","","null","<div style=""font-size:60px;"">+</div>","null","fixation","","","","","","","","","61","","",""
"revaluation","183","915133","0.0-4.0-2.0-0.31","spark_pilot_norest","9986","4","23","Male","","false","","","","","[585.2000000476837]","./assets/img/ocean/catch/2.jpg","[""spaceBar""]","value training","ocean","0","{""ArrowUp,ArrowLeft"":26,""ArrowUp,ArrowRight"":10,""ArrowDown,ArrowLeft"":5,""ArrowDown,ArrowRight"":17}","true","spaceBar","true","revaluation","1","62","","",""
"html-keyboard-response","184","915634","0.0-4.0-2.0-1.31","spark_pilot_norest","9986","4","23","Male","","","","","","","null","<div style=""font-size:60px;"">+</div>","null","fixation","","","","","","","","","63","","",""
"revaluation","185","921637","0.0-4.0-2.0-0.32","spark_pilot_norest","9986","4","23","Male","","false","","","","","[1050.5,535.8000000119209]","./assets/img/ocean/memory/22.jpg","[""ArrowUp"",""ArrowLeft""]","value training","ocean","26","{""ArrowUp,ArrowLeft"":26,""ArrowUp,ArrowRight"":10,""ArrowDown,ArrowLeft"":5,""ArrowDown,ArrowRight"":17}","true","ArrowUp,ArrowLeft","false","revaluation","1","64","","",""
"html-keyboard-response","186","922138","0.0-4.0-2.0-1.32","spark_pilot_norest","9986","4","23","Male","","","","","","","null","<div style=""font-size:60px;"">+</div>","null","fixation","","","","","","","","","65","","",""
"revaluation","187","928142","0.0-4.0-2.0-0.33","spark_pilot_norest","9986","4","23","Male","","false","","","","","[718.2999999523163,358.69999998807907]","./assets/img/ocean/memory/17.jpg","[""ArrowUp"",""ArrowLeft""]","value training","ocean","26","{""ArrowUp,ArrowLeft"":26,""ArrowUp,ArrowRight"":10,""ArrowDown,ArrowLeft"":5,""ArrowDown,ArrowRight"":17}","true","ArrowUp,ArrowLeft","false","revaluation","1","66","","",""
"html-keyboard-response","188","928644","0.0-4.0-2.0-1.33","spark_pilot_norest","9986","4","23","Male","","","","","","","null","<div style=""font-size:60px;"">+</div>","null","fixation","","","","","","","","","67","","",""
"revaluation","189","934647","0.0-4.0-2.0-0.34","spark_pilot_norest","9986","4","23","Male","","false","","","","","[695,341]","./assets/img/ocean/memory/6.jpg","[""ArrowUp"",""ArrowLeft""]","value training","ocean","26","{""ArrowUp,ArrowLeft"":26,""ArrowUp,ArrowRight"":10,""ArrowDown,ArrowLeft"":5,""ArrowDown,ArrowRight"":17}","true","ArrowUp,ArrowLeft","false","revaluation","1","68","","",""
"html-keyboard-response","190","935148","0.0-4.0-2.0-1.34","spark_pilot_norest","9986","4","23","Male","","","","","","","null","<div style=""font-size:60px;"">+</div>","null","fixation","","","","","","","","","69","","",""
"revaluation","191","941152","0.0-4.0-2.0-0.35","spark_pilot_norest","9986","4","23","Male","","false","","","","","[599.3999999761581,235.5]","./assets/img/ocean/memory/19.jpg","[""ArrowUp"",""ArrowLeft""]","value training","ocean","26","{""ArrowUp,ArrowLeft"":26,""ArrowUp,ArrowRight"":10,""ArrowDown,ArrowLeft"":5,""ArrowDown,ArrowRight"":17}","true","ArrowUp,ArrowLeft","false","revaluation","1","70","","",""
"html-keyboard-response","192","941653","0.0-4.0-2.0-1.35","spark_pilot_norest","9986","4","23","Male","","","","","","","null","<div style=""font-size:60px;"">+</div>","null","fixation","","","","","","","","","71","","",""
"revaluation","193","947657","0.0-4.0-2.0-0.36","spark_pilot_norest","9986","4","23","Male","","false","","","","","[671.4000000357628,100.70000004768372]","./assets/img/ocean/memory/31.jpg","[""ArrowUp"",""ArrowLeft""]","value training","ocean","26","{""ArrowUp,ArrowLeft"":26,""ArrowUp,ArrowRight"":10,""ArrowDown,ArrowLeft"":5,""ArrowDown,ArrowRight"":17}","true","ArrowUp,ArrowLeft","false","revaluation","1","72","","",""
"html-keyboard-response","194","948158","0.0-4.0-2.0-1.36","spark_pilot_norest","9986","4","23","Male","","","","","","","null","<div style=""font-size:60px;"">+</div>","null","fixation","","","","","","","","","73","","",""
"revaluation","195","952161","0.0-4.0-2.0-0.37","spark_pilot_norest","9986","4","23","Male","","false","","","","","[1171]","./assets/img/ocean/catch/3.jpg","[""spaceBar""]","value training","ocean","0","{""ArrowUp,ArrowLeft"":26,""ArrowUp,ArrowRight"":10,""ArrowDown,ArrowLeft"":5,""ArrowDown,ArrowRight"":17}","true","spaceBar","true","revaluation","1","74","","",""
"html-keyboard-response","196","952662","0.0-4.0-2.0-1.37","spark_pilot_norest","9986","4","23","Male","","","","","","","null","<div style=""font-size:60px;"">+</div>","null","fixation","","","","","","","","","75","","",""
"revaluation","197","958664","0.0-4.0-2.0-0.38","spark_pilot_norest","9986","4","23","Male","","false","","","","","[620.9000000357628,331.69999998807907]","./assets/img/ocean/memory/0.jpg","[""ArrowUp"",""ArrowLeft""]","value training","ocean","26","{""ArrowUp,ArrowLeft"":26,""ArrowUp,ArrowRight"":10,""ArrowDown,ArrowLeft"":5,""ArrowDown,ArrowRight"":17}","true","ArrowUp,ArrowLeft","false","revaluation","1","76","","",""
"html-keyboard-response","198","959166","0.0-4.0-2.0-1.38","spark_pilot_norest","9986","4","23","Male","","","","","","","null","<div style=""font-size:60px;"">+</div>","null","fixation","","","","","","","","","77","","",""
"revaluation","199","965169","0.0-4.0-2.0-0.39","spark_pilot_norest","9986","4","23","Male","","false","","","","","[885.1999999880791,465.89999997615814]","./assets/img/ocean/memory/35.jpg","[""ArrowUp"",""ArrowLeft""]","value training","ocean","26","{""ArrowUp,ArrowLeft"":26,""ArrowUp,ArrowRight"":10,""ArrowDown,ArrowLeft"":5,""ArrowDown,ArrowRight"":17}","true","ArrowUp,ArrowLeft","false","revaluation","1","78","","",""
"html-keyboard-response","200","965670","0.0-4.0-2.0-1.39","spark_pilot_norest","9986","4","23","Male","","","","","","","null","<div style=""font-size:60px;"">+</div>","null","fixation","","","","","","","","","79","","",""
"revaluation","201","971675","0.0-4.0-2.0-0.40","spark_pilot_norest","9986","4","23","Male","","false","","","","","[587,538.8999999761581]","./assets/img/ocean/memory/24.jpg","[""ArrowUp"",""ArrowLeft""]","value training","ocean","26","{""ArrowUp,ArrowLeft"":26,""ArrowUp,ArrowRight"":10,""ArrowDown,ArrowLeft"":5,""ArrowDown,ArrowRight"":17}","true","ArrowUp,ArrowLeft","false","revaluation","1","80","","",""
"html-keyboard-response","202","972176","0.0-4.0-2.0-1.40","spark_pilot_norest","9986","4","23","Male","","","","","","","null","<div style=""font-size:60px;"">+</div>","null","fixation","","","","","","","","","81","","",""
"revaluation","203","978179","0.0-4.0-2.0-0.41","spark_pilot_norest","9986","4","23","Male","","false","","","","","[847.0999999642372,905.5]","./assets/img/ocean/memory/0.jpg","[""ArrowUp"",""ArrowLeft""]","value training","ocean","26","{""ArrowUp,ArrowLeft"":26,""ArrowUp,ArrowRight"":10,""ArrowDown,ArrowLeft"":5,""ArrowDown,ArrowRight"":17}","true","ArrowUp,ArrowLeft","false","revaluation","1","82","","",""
"html-keyboard-response","204","978681","0.0-4.0-2.0-1.41","spark_pilot_norest","9986","4","23","Male","","","","","","","null","<div style=""font-size:60px;"">+</div>","null","fixation","","","","","","","","","83","","",""
"revaluation","205","984684","0.0-4.0-2.0-0.42","spark_pilot_norest","9986","4","23","Male","","false","","","","","[840.9000000357628,540.8999999761581]","./assets/img/ocean/memory/26.jpg","[""ArrowUp"",""ArrowLeft""]","value training","ocean","26","{""ArrowUp,ArrowLeft"":26,""ArrowUp,ArrowRight"":10,""ArrowDown,ArrowLeft"":5,""ArrowDown,ArrowRight"":17}","true","ArrowUp,ArrowLeft","false","revaluation","1","84","","",""
"html-keyboard-response","206","985185","0.0-4.0-2.0-1.42","spark_pilot_norest","9986","4","23","Male","","","","","","","null","<div style=""font-size:60px;"">+</div>","null","fixation","","","","","","","","","85","","",""
"revaluation","207","989187","0.0-4.0-2.0-0.43","spark_pilot_norest","9986","4","23","Male","","false","","","","","[1017.5]","./assets/img/ocean/catch/6.jpg","[""spaceBar""]","value training","ocean","0","{""ArrowUp,ArrowLeft"":26,""ArrowUp,ArrowRight"":10,""ArrowDown,ArrowLeft"":5,""ArrowDown,ArrowRight"":17}","true","spaceBar","true","revaluation","1","86","","",""
"html-keyboard-response","208","989689","0.0-4.0-2.0-1.43","spark_pilot_norest","9986","4","23","Male","","","","","","","null","<div style=""font-size:60px;"">+</div>","null","fixation","","","","","","","","","87","","",""
"revaluation","209","995691","0.0-4.0-2.0-0.44","spark_pilot_norest","9986","4","23","Male","","false","","","","","[613.6000000238419,386]","./assets/img/ocean/memory/5.jpg","[""ArrowUp"",""ArrowLeft""]","value training","ocean","26","{""ArrowUp,ArrowLeft"":26,""ArrowUp,ArrowRight"":10,""ArrowDown,ArrowLeft"":5,""ArrowDown,ArrowRight"":17}","true","ArrowUp,ArrowLeft","false","revaluation","1","88","","",""
"html-keyboard-response","210","996193","0.0-4.0-2.0-1.44","spark_pilot_norest","9986","4","23","Male","","","","","","","null","<div style=""font-size:60px;"">+</div>","null","fixation","","","","","","","","","89","","",""
"revaluation","211","1002197","0.0-4.0-2.0-0.45","spark_pilot_norest","9986","4","23","Male","","false","","","","","[727.8000000119209,423.0999999642372]","./assets/img/ocean/memory/35.jpg","[""ArrowUp"",""ArrowLeft""]","value training","ocean","26","{""ArrowUp,ArrowLeft"":26,""ArrowUp,ArrowRight"":10,""ArrowDown,ArrowLeft"":5,""ArrowDown,ArrowRight"":17}","true","ArrowUp,ArrowLeft","false","revaluation","1","90","","",""
"html-keyboard-response","212","1002698","0.0-4.0-2.0-1.45","spark_pilot_norest","9986","4","23","Male","","","","","","","null","<div style=""font-size:60px;"">+</div>","null","fixation","","","","","","","","","91","","",""
"revaluation","213","1008702","0.0-4.0-2.0-0.46","spark_pilot_norest","9986","4","23","Male","","false","","","","","[795.5,289.0999999642372]","./assets/img/ocean/memory/32.jpg","[""ArrowUp"",""ArrowLeft""]","value training","ocean","26","{""ArrowUp,ArrowLeft"":26,""ArrowUp,ArrowRight"":10,""ArrowDown,ArrowLeft"":5,""ArrowDown,ArrowRight"":17}","true","ArrowUp,ArrowLeft","false","revaluation","1","92","","",""
"html-keyboard-response","214","1009203","0.0-4.0-2.0-1.46","spark_pilot_norest","9986","4","23","Male","","","","","","","null","<div style=""font-size:60px;"">+</div>","null","fixation","","","","","","","","","93","","",""
"revaluation","215","1015207","0.0-4.0-2.0-0.47","spark_pilot_norest","9986","4","23","Male","","false","","","","","[704.5,395.39999997615814]","./assets/img/ocean/memory/3.jpg","[""ArrowUp"",""ArrowLeft""]","value training","ocean","26","{""ArrowUp,ArrowLeft"":26,""ArrowUp,ArrowRight"":10,""ArrowDown,ArrowLeft"":5,""ArrowDown,ArrowRight"":17}","true","ArrowUp,ArrowLeft","false","revaluation","1","94","","",""
"html-keyboard-response","216","1015708","0.0-4.0-2.0-1.47","spark_pilot_norest","9986","4","23","Male","","","","","","","null","<div style=""font-size:60px;"">+</div>","null","fixation","","","","","","","","","95","","",""
"revaluation","217","1019711","0.0-4.0-2.0-0.48","spark_pilot_norest","9986","4","23","Male","","false","","","","","[1263.0999999642372]","./assets/img/ocean/catch/5.jpg","[""spaceBar""]","value training","ocean","0","{""ArrowUp,ArrowLeft"":26,""ArrowUp,ArrowRight"":10,""ArrowDown,ArrowLeft"":5,""ArrowDown,ArrowRight"":17}","true","spaceBar","true","revaluation","1","96","","",""
"html-keyboard-response","218","1020212","0.0-4.0-2.0-1.48","spark_pilot_norest","9986","4","23","Male","","","","","","","null","<div style=""font-size:60px;"">+</div>","null","fixation","","","","","","","","","97","","",""
"revaluation","219","1026216","0.0-4.0-2.0-0.49","spark_pilot_norest","9986","4","23","Male","","false","","","","","[1132,233.30000001192093]","./assets/img/ocean/memory/20.jpg","[""ArrowUp"",""ArrowLeft""]","value training","ocean","26","{""ArrowUp,ArrowLeft"":26,""ArrowUp,ArrowRight"":10,""ArrowDown,ArrowLeft"":5,""ArrowDown,ArrowRight"":17}","true","ArrowUp,ArrowLeft","false","revaluation","1","98","","",""
"html-keyboard-response","220","1026717","0.0-4.0-2.0-1.49","spark_pilot_norest","9986","4","23","Male","","","","","","","null","<div style=""font-size:60px;"">+</div>","null","fixation","","","","","","","","","99","","",""
"learning-instructions","221","1041146","0.0-4.0-3.0-0.0","spark_pilot_norest","9986","4","23","Male","","","","","","","1553.1000000238419","<p> Now, you will travel with a friend who will choose whether you go up or down first. </p>
            <p> On these turns, you will just see the animal that they found. You will still get to choose which chest to search for treasure.</p>","","instructions","","","","","","","","","","","",""
"revaluation","222","1045148","0.0-4.0-4.0-0.0","spark_pilot_norest","9986","4","23","Male","","false","","","","","[944.9000000357628]","./assets/img/ocean/animals/octopus.jpg","[""ArrowLeft""]","revaluation","ocean","2","{""ArrowUp,ArrowLeft"":2,""ArrowUp,ArrowRight"":11,""ArrowDown,ArrowLeft"":8,""ArrowDown,ArrowRight"":27}","false","ArrowUp,ArrowLeft","","revaluation","1","0","","",""
"html-keyboard-response","223","1045650","0.0-4.0-4.0-1.0","spark_pilot_norest","9986","4","23","Male","","","","","","","null","<div style=""font-size:60px;"">+</div>","null","fixation","","","","","","","","","1","","",""
"revaluation","224","1049653","0.0-4.0-4.0-0.1","spark_pilot_norest","9986","4","23","Male","","false","","","","","[980.1999999880791]","./assets/img/ocean/animals/seahorse.jpg","[""ArrowLeft""]","revaluation","ocean","8","{""ArrowUp,ArrowLeft"":2,""ArrowUp,ArrowRight"":11,""ArrowDown,ArrowLeft"":8,""ArrowDown,ArrowRight"":27}","false","ArrowDown,ArrowLeft","","revaluation","1","2","","",""
"html-keyboard-response","225","1050154","0.0-4.0-4.0-1.1","spark_pilot_norest","9986","4","23","Male","","","","","","","null","<div style=""font-size:60px;"">+</div>","null","fixation","","","","","","","","","3","","",""
"revaluation","226","1054155","0.0-4.0-4.0-0.2","spark_pilot_norest","9986","4","23","Male","","false","","","","","[417.30000001192093]","./assets/img/ocean/animals/octopus.jpg","[""ArrowRight""]","revaluation","ocean","11","{""ArrowUp,ArrowLeft"":2,""ArrowUp,ArrowRight"":11,""ArrowDown,ArrowLeft"":8,""ArrowDown,ArrowRight"":27}","true","ArrowUp,ArrowRight","","revaluation","1","4","","",""
"html-keyboard-response","227","1054657","0.0-4.0-4.0-1.2","spark_pilot_norest","9986","4","23","Male","","","","","","","null","<div style=""font-size:60px;"">+</div>","null","fixation","","","","","","","","","5","","",""
"revaluation","228","1058660","0.0-4.0-4.0-0.3","spark_pilot_norest","9986","4","23","Male","","false","","","","","[421.2999999523163]","./assets/img/ocean/animals/seahorse.jpg","[""ArrowRight""]","revaluation","ocean","27","{""ArrowUp,ArrowLeft"":2,""ArrowUp,ArrowRight"":11,""ArrowDown,ArrowLeft"":8,""ArrowDown,ArrowRight"":27}","true","ArrowDown,ArrowRight","","revaluation","1","6","","",""
"html-keyboard-response","229","1059161","0.0-4.0-4.0-1.3","spark_pilot_norest","9986","4","23","Male","","","","","","","null","<div style=""font-size:60px;"">+</div>","null","fixation","","","","","","","","","7","","",""
"revaluation","230","1063163","0.0-4.0-4.0-0.4","spark_pilot_norest","9986","4","23","Male","","false","","","","","[380]","./assets/img/ocean/animals/octopus.jpg","[""ArrowRight""]","revaluation","ocean","11","{""ArrowUp,ArrowLeft"":2,""ArrowUp,ArrowRight"":11,""ArrowDown,ArrowLeft"":8,""ArrowDown,ArrowRight"":27}","true","ArrowUp,ArrowRight","","revaluation","1","8","","",""
"html-keyboard-response","231","1063664","0.0-4.0-4.0-1.4","spark_pilot_norest","9986","4","23","Male","","","","","","","null","<div style=""font-size:60px;"">+</div>","null","fixation","","","","","","","","","9","","",""
"revaluation","232","1067667","0.0-4.0-4.0-0.5","spark_pilot_norest","9986","4","23","Male","","false","","","","","[168.30000001192093]","./assets/img/ocean/animals/octopus.jpg","[""ArrowRight""]","revaluation","ocean","11","{""ArrowUp,ArrowLeft"":2,""ArrowUp,ArrowRight"":11,""ArrowDown,ArrowLeft"":8,""ArrowDown,ArrowRight"":27}","true","ArrowUp,ArrowRight","","revaluation","1","10","","",""
"html-keyboard-response","233","1068168","0.0-4.0-4.0-1.5","spark_pilot_norest","9986","4","23","Male","","","","","","","null","<div style=""font-size:60px;"">+</div>","null","fixation","","","","","","","","","11","","",""
"revaluation","234","1072170","0.0-4.0-4.0-0.6","spark_pilot_norest","9986","4","23","Male","","false","","","","","[185.5]","./assets/img/ocean/animals/octopus.jpg","[""ArrowRight""]","revaluation","ocean","11","{""ArrowUp,ArrowLeft"":2,""ArrowUp,ArrowRight"":11,""ArrowDown,ArrowLeft"":8,""ArrowDown,ArrowRight"":27}","true","ArrowUp,ArrowRight","","revaluation","1","12","","",""
"html-keyboard-response","235","1072671","0.0-4.0-4.0-1.6","spark_pilot_norest","9986","4","23","Male","","","","","","","null","<div style=""font-size:60px;"">+</div>","null","fixation","","","","","","","","","13","","",""
"revaluation","236","1076673","0.0-4.0-4.0-0.7","spark_pilot_norest","9986","4","23","Male","","false","","","","","[195.79999995231628]","./assets/img/ocean/animals/octopus.jpg","[""ArrowRight""]","revaluation","ocean","11","{""ArrowUp,ArrowLeft"":2,""ArrowUp,ArrowRight"":11,""ArrowDown,ArrowLeft"":8,""ArrowDown,ArrowRight"":27}","true","ArrowUp,ArrowRight","","revaluation","1","14","","",""
"html-keyboard-response","237","1077174","0.0-4.0-4.0-1.7","spark_pilot_norest","9986","4","23","Male","","","","","","","null","<div style=""font-size:60px;"">+</div>","null","fixation","","","","","","","","","15","","",""
"revaluation","238","1081176","0.0-4.0-4.0-0.8","spark_pilot_norest","9986","4","23","Male","","false","","","","","[133.39999997615814]","./assets/img/ocean/animals/seahorse.jpg","[""ArrowRight""]","revaluation","ocean","27","{""ArrowUp,ArrowLeft"":2,""ArrowUp,ArrowRight"":11,""ArrowDown,ArrowLeft"":8,""ArrowDown,ArrowRight"":27}","true","ArrowDown,ArrowRight","","revaluation","1","16","","",""
"html-keyboard-response","239","1081677","0.0-4.0-4.0-1.8","spark_pilot_norest","9986","4","23","Male","","","","","","","null","<div style=""font-size:60px;"">+</div>","null","fixation","","","","","","","","","17","","",""
"revaluation","240","1085679","0.0-4.0-4.0-0.9","spark_pilot_norest","9986","4","23","Male","","false","","","","","[47.69999998807907]","./assets/img/ocean/animals/seahorse.jpg","[""ArrowRight""]","revaluation","ocean","27","{""ArrowUp,ArrowLeft"":2,""ArrowUp,ArrowRight"":11,""ArrowDown,ArrowLeft"":8,""ArrowDown,ArrowRight"":27}","true","ArrowDown,ArrowRight","","revaluation","1","18","","",""
"html-keyboard-response","241","1086179","0.0-4.0-4.0-1.9","spark_pilot_norest","9986","4","23","Male","","","","","","","null","<div style=""font-size:60px;"">+</div>","null","fixation","","","","","","","","","19","","",""
"revaluation","242","1090181","0.0-4.0-4.0-0.10","spark_pilot_norest","9986","4","23","Male","","false","","","","","[105.70000004768372]","./assets/img/ocean/animals/seahorse.jpg","[""ArrowRight""]","revaluation","ocean","27","{""ArrowUp,ArrowLeft"":2,""ArrowUp,ArrowRight"":11,""ArrowDown,ArrowLeft"":8,""ArrowDown,ArrowRight"":27}","true","ArrowDown,ArrowRight","","revaluation","1","20","","",""
"html-keyboard-response","243","1090683","0.0-4.0-4.0-1.10","spark_pilot_norest","9986","4","23","Male","","","","","","","null","<div style=""font-size:60px;"">+</div>","null","fixation","","","","","","","","","21","","",""
"revaluation","244","1094685","0.0-4.0-4.0-0.11","spark_pilot_norest","9986","4","23","Male","","false","","","","","[100.19999998807907]","./assets/img/ocean/animals/octopus.jpg","[""ArrowRight""]","revaluation","ocean","11","{""ArrowUp,ArrowLeft"":2,""ArrowUp,ArrowRight"":11,""ArrowDown,ArrowLeft"":8,""ArrowDown,ArrowRight"":27}","true","ArrowUp,ArrowRight","","revaluation","1","22","","",""
"html-keyboard-response","245","1095185","0.0-4.0-4.0-1.11","spark_pilot_norest","9986","4","23","Male","","","","","","","null","<div style=""font-size:60px;"">+</div>","null","fixation","","","","","","","","","23","","",""
"revaluation","246","1099187","0.0-4.0-4.0-0.12","spark_pilot_norest","9986","4","23","Male","","false","","","","","[58.90000003576279]","./assets/img/ocean/animals/seahorse.jpg","[""ArrowRight""]","revaluation","ocean","27","{""ArrowUp,ArrowLeft"":2,""ArrowUp,ArrowRight"":11,""ArrowDown,ArrowLeft"":8,""ArrowDown,ArrowRight"":27}","true","ArrowDown,ArrowRight","","revaluation","1","24","","",""
"html-keyboard-response","247","1099688","0.0-4.0-4.0-1.12","spark_pilot_norest","9986","4","23","Male","","","","","","","null","<div style=""font-size:60px;"">+</div>","null","fixation","","","","","","","","","25","","",""
"revaluation","248","1103691","0.0-4.0-4.0-0.13","spark_pilot_norest","9986","4","23","Male","","false","","","","","[2.599999964237213]","./assets/img/ocean/animals/seahorse.jpg","[""ArrowRight""]","revaluation","ocean","27","{""ArrowUp,ArrowLeft"":2,""ArrowUp,ArrowRight"":11,""ArrowDown,ArrowLeft"":8,""ArrowDown,ArrowRight"":27}","true","ArrowDown,ArrowRight","","revaluation","1","26","","",""
"html-keyboard-response","249","1104192","0.0-4.0-4.0-1.13","spark_pilot_norest","9986","4","23","Male","","","","","","","null","<div style=""font-size:60px;"">+</div>","null","fixation","","","","","","","","","27","","",""
"revaluation","250","1108194","0.0-4.0-4.0-0.14","spark_pilot_norest","9986","4","23","Male","","false","","","","","[19.600000023841858]","./assets/img/ocean/animals/seahorse.jpg","[""ArrowRight""]","revaluation","ocean","27","{""ArrowUp,ArrowLeft"":2,""ArrowUp,ArrowRight"":11,""ArrowDown,ArrowLeft"":8,""ArrowDown,ArrowRight"":27}","true","ArrowDown,ArrowRight","","revaluation","1","28","","",""
"html-keyboard-response","251","1108695","0.0-4.0-4.0-1.14","spark_pilot_norest","9986","4","23","Male","","","","","","","null","<div style=""font-size:60px;"">+</div>","null","fixation","","","","","","","","","29","","",""
"revaluation","252","1112699","0.0-4.0-4.0-0.15","spark_pilot_norest","9986","4","23","Male","","false","","","","","[3.800000011920929]","./assets/img/ocean/animals/seahorse.jpg","[""ArrowRight""]","revaluation","ocean","27","{""ArrowUp,ArrowLeft"":2,""ArrowUp,ArrowRight"":11,""ArrowDown,ArrowLeft"":8,""ArrowDown,ArrowRight"":27}","true","ArrowDown,ArrowRight","","revaluation","1","30","","",""
"html-keyboard-response","253","1113199","0.0-4.0-4.0-1.15","spark_pilot_norest","9986","4","23","Male","","","","","","","null","<div style=""font-size:60px;"">+</div>","null","fixation","","","","","","","","","31","","",""
"revaluation","254","1117201","0.0-4.0-4.0-0.16","spark_pilot_norest","9986","4","23","Male","","false","","","","","[784.7000000476837]","./assets/img/ocean/animals/octopus.jpg","[""ArrowRight""]","revaluation","ocean","11","{""ArrowUp,ArrowLeft"":2,""ArrowUp,ArrowRight"":11,""ArrowDown,ArrowLeft"":8,""ArrowDown,ArrowRight"":27}","true","ArrowUp,ArrowRight","","revaluation","1","32","","",""
"html-keyboard-response","255","1117702","0.0-4.0-4.0-1.16","spark_pilot_norest","9986","4","23","Male","","","","","","","null","<div style=""font-size:60px;"">+</div>","null","fixation","","","","","","","","","33","","",""
"revaluation","256","1121704","0.0-4.0-4.0-0.17","spark_pilot_norest","9986","4","23","Male","","false","","","","","[15.600000023841858]","./assets/img/ocean/animals/octopus.jpg","[""ArrowRight""]","revaluation","ocean","11","{""ArrowUp,ArrowLeft"":2,""ArrowUp,ArrowRight"":11,""ArrowDown,ArrowLeft"":8,""ArrowDown,ArrowRight"":27}","true","ArrowUp,ArrowRight","","revaluation","1","34","","",""
"html-keyboard-response","257","1122205","0.0-4.0-4.0-1.17","spark_pilot_norest","9986","4","23","Male","","","","","","","null","<div style=""font-size:60px;"">+</div>","null","fixation","","","","","","","","","35","","",""
"learning-instructions","258","1130303","0.0-4.0-5.0-0.0","spark_pilot_norest","9986","4","23","Male","","","","","","","null","<p> You have almost finished this part of the game! </p>
            <p> We are going to ask you to make a few more choices. </p>","","instructions","","","","","","","","","","","",""
"learning-instructions","259","1146283","0.0-4.0-5.0-0.1","spark_pilot_norest","9986","4","23","Male","","","","","","","null","<p> First, you need to decide whether to go up or down. When you see each picture, use the arrow keys to make your choice. </p>
            <p><b>You will not see which animal you found, but try to get to the one that will give you the most treasure.</b></p>","","instructions","","","","","","","","","","","",""
"html-keyboard-response","260","1147284","0.0-4.0-6.0-0.0","spark_pilot_norest","9986","4","23","Male","","","","","","","null","<div style=""font-size:100px;color:red;"">Starting in...</div>","null","","","","","","","","","","","","",""
"html-keyboard-response","261","1148285","0.0-4.0-6.0-1.0","spark_pilot_norest","9986","4","23","Male","","","","","","","null","<div style=""font-size:200px;color:red;"">3</div>","null","","","","","","","","","","","","",""
"html-keyboard-response","262","1149286","0.0-4.0-6.0-2.0","spark_pilot_norest","9986","4","23","Male","","","","","","","null","<div style=""font-size:200px;color:red;"">2</div>","null","","","","","","","","","","","","",""
"html-keyboard-response","263","1150287","0.0-4.0-6.0-3.0","spark_pilot_norest","9986","4","23","Male","","","","","","","null","<div style=""font-size:200px;color:red;"">1</div>","null","","","","","","","","","","","","",""
"revaluation","264","1150922","0.0-4.0-7.0-0.0","spark_pilot_norest","9986","4","23","Male","","false","","","","","[634.9000000357628]","./assets/img/ocean/test/2.jpg","[""ArrowUp""]","first stage test","ocean","0","{""ArrowUp,ArrowLeft"":2,""ArrowUp,ArrowRight"":11,""ArrowDown,ArrowLeft"":8,""ArrowDown,ArrowRight"":27}","false","ArrowUp","false","revaluation","1","","","",""
"html-keyboard-response","265","1151423","0.0-4.0-7.0-1.0","spark_pilot_norest","9986","4","23","Male","","","","","","","null","<div style=""font-size:60px;"">+</div>","null","fixation","","","","","","","","","","","",""
"revaluation","266","1152634","0.0-4.0-7.0-0.1","spark_pilot_norest","9986","4","23","Male","","false","","","","","[1209.7000000476837]","./assets/img/ocean/test/3.jpg","[""ArrowUp""]","first stage test","ocean","0","{""ArrowUp,ArrowLeft"":2,""ArrowUp,ArrowRight"":11,""ArrowDown,ArrowLeft"":8,""ArrowDown,ArrowRight"":27}","false","ArrowUp","false","revaluation","1","","","",""
"html-keyboard-response","267","1153135","0.0-4.0-7.0-1.1","spark_pilot_norest","9986","4","23","Male","","","","","","","null","<div style=""font-size:60px;"">+</div>","null","fixation","","","","","","","","","","","",""
"revaluation","268","1154646","0.0-4.0-7.0-0.2","spark_pilot_norest","9986","4","23","Male","","false","","","","","[1510]","./assets/img/ocean/test/1.jpg","[""ArrowUp""]","first stage test","ocean","0","{""ArrowUp,ArrowLeft"":2,""ArrowUp,ArrowRight"":11,""ArrowDown,ArrowLeft"":8,""ArrowDown,ArrowRight"":27}","false","ArrowUp","false","revaluation","1","","","",""
"html-keyboard-response","269","1155148","0.0-4.0-7.0-1.2","spark_pilot_norest","9986","4","23","Male","","","","","","","null","<div style=""font-size:60px;"">+</div>","null","fixation","","","","","","","","","","","",""
"revaluation","270","1155963","0.0-4.0-7.0-0.3","spark_pilot_norest","9986","4","23","Male","","false","","","","","[814.3000000119209]","./assets/img/ocean/test/0.jpg","[""ArrowUp""]","first stage test","ocean","0","{""ArrowUp,ArrowLeft"":2,""ArrowUp,ArrowRight"":11,""ArrowDown,ArrowLeft"":8,""ArrowDown,ArrowRight"":27}","false","ArrowUp","false","revaluation","1","","","",""
"html-keyboard-response","271","1156463","0.0-4.0-7.0-1.3","spark_pilot_norest","9986","4","23","Male","","","","","","","null","<div style=""font-size:60px;"">+</div>","null","fixation","","","","","","","","","","","",""
"learning-instructions","272","1169814","0.0-4.0-8.0-0.0","spark_pilot_norest","9986","4","23","Male","","","","","","","null","<p> Now you will see the animals again and can search their chests for treasure. </p>
            <p> This time, you will not see how much treasure you earned, but you will earn more bonus money for making better choices. </p>","","instructions","","","","","","","","","","","",""
"html-keyboard-response","273","1170815","0.0-4.0-9.0-0.0","spark_pilot_norest","9986","4","23","Male","","","","","","","null","<div style=""font-size:100px;color:red;"">Starting in...</div>","null","","","","","","","","","","","","",""
"html-keyboard-response","274","1171816","0.0-4.0-9.0-1.0","spark_pilot_norest","9986","4","23","Male","","","","","","","null","<div style=""font-size:200px;color:red;"">3</div>","null","","","","","","","","","","","","",""
"html-keyboard-response","275","1172818","0.0-4.0-9.0-2.0","spark_pilot_norest","9986","4","23","Male","","","","","","","null","<div style=""font-size:200px;color:red;"">2</div>","null","","","","","","","","","","","","",""
"html-keyboard-response","276","1173819","0.0-4.0-9.0-3.0","spark_pilot_norest","9986","4","23","Male","","","","","","","null","<div style=""font-size:200px;color:red;"">1</div>","null","","","","","","","","","","","","",""
"revaluation","277","1174884","0.0-4.0-10.0-0.0","spark_pilot_norest","9986","4","23","Male","","false","","","","","[1063.699999988079]","./assets/img/ocean/animals/octopus.jpg","[""ArrowLeft""]","second stage test","ocean","0","{""ArrowUp,ArrowLeft"":2,""ArrowUp,ArrowRight"":11,""ArrowDown,ArrowLeft"":8,""ArrowDown,ArrowRight"":27}","false","ArrowUp,ArrowLeft","","revaluation","1","","","",""
"html-keyboard-response","278","1175384","0.0-4.0-10.0-1.0","spark_pilot_norest","9986","4","23","Male","","","","","","","null","<div style=""font-size:60px;"">+</div>","null","fixation","","","","","","","","","","","",""
"revaluation","279","1176510","0.0-4.0-10.0-0.1","spark_pilot_norest","9986","4","23","Male","","false","","","","","[1124.5]","./assets/img/ocean/animals/octopus.jpg","[""ArrowRight""]","second stage test","ocean","0","{""ArrowUp,ArrowLeft"":2,""ArrowUp,ArrowRight"":11,""ArrowDown,ArrowLeft"":8,""ArrowDown,ArrowRight"":27}","true","ArrowUp,ArrowRight","","revaluation","1","","","",""
"html-keyboard-response","280","1177010","0.0-4.0-10.0-1.1","spark_pilot_norest","9986","4","23","Male","","","","","","","null","<div style=""font-size:60px;"">+</div>","null","fixation","","","","","","","","","","","",""
"revaluation","281","1178421","0.0-4.0-10.0-0.2","spark_pilot_norest","9986","4","23","Male","","false","","","","","[1409.800000011921]","./assets/img/ocean/animals/octopus.jpg","[""ArrowLeft""]","second stage test","ocean","0","{""ArrowUp,ArrowLeft"":2,""ArrowUp,ArrowRight"":11,""ArrowDown,ArrowLeft"":8,""ArrowDown,ArrowRight"":27}","false","ArrowUp,ArrowLeft","","revaluation","1","","","",""
"html-keyboard-response","282","1178921","0.0-4.0-10.0-1.2","spark_pilot_norest","9986","4","23","Male","","","","","","","null","<div style=""font-size:60px;"">+</div>","null","fixation","","","","","","","","","","","",""
"revaluation","283","1180005","0.0-4.0-10.0-0.3","spark_pilot_norest","9986","4","23","Male","","false","","","","","[1082.699999988079]","./assets/img/ocean/animals/octopus.jpg","[""ArrowLeft""]","second stage test","ocean","0","{""ArrowUp,ArrowLeft"":2,""ArrowUp,ArrowRight"":11,""ArrowDown,ArrowLeft"":8,""ArrowDown,ArrowRight"":27}","false","ArrowUp,ArrowLeft","","revaluation","1","","","",""
"html-keyboard-response","284","1180506","0.0-4.0-10.0-1.3","spark_pilot_norest","9986","4","23","Male","","","","","","","null","<div style=""font-size:60px;"">+</div>","null","fixation","","","","","","","","","","","",""
"revaluation","285","1181155","0.0-4.0-10.0-0.4","spark_pilot_norest","9986","4","23","Male","","false","","","","","[647.6999999880791]","./assets/img/ocean/animals/seahorse.jpg","[""ArrowRight""]","second stage test","ocean","0","{""ArrowUp,ArrowLeft"":2,""ArrowUp,ArrowRight"":11,""ArrowDown,ArrowLeft"":8,""ArrowDown,ArrowRight"":27}","true","ArrowDown,ArrowRight","","revaluation","1","","","",""
"html-keyboard-response","286","1181656","0.0-4.0-10.0-1.4","spark_pilot_norest","9986","4","23","Male","","","","","","","null","<div style=""font-size:60px;"">+</div>","null","fixation","","","","","","","","","","","",""
"revaluation","287","1181974","0.0-4.0-10.0-0.5","spark_pilot_norest","9986","4","23","Male","","false","","","","","[316.89999997615814]","./assets/img/ocean/animals/seahorse.jpg","[""ArrowRight""]","second stage test","ocean","0","{""ArrowUp,ArrowLeft"":2,""ArrowUp,ArrowRight"":11,""ArrowDown,ArrowLeft"":8,""ArrowDown,ArrowRight"":27}","true","ArrowDown,ArrowRight","","revaluation","1","","","",""
"html-keyboard-response","288","1182475","0.0-4.0-10.0-1.5","spark_pilot_norest","9986","4","23","Male","","","","","","","null","<div style=""font-size:60px;"">+</div>","null","fixation","","","","","","","","","","","",""
"revaluation","289","1182776","0.0-4.0-10.0-0.6","spark_pilot_norest","9986","4","23","Male","","false","","","","","[300.10000002384186]","./assets/img/ocean/animals/seahorse.jpg","[""ArrowRight""]","second stage test","ocean","0","{""ArrowUp,ArrowLeft"":2,""ArrowUp,ArrowRight"":11,""ArrowDown,ArrowLeft"":8,""ArrowDown,ArrowRight"":27}","true","ArrowDown,ArrowRight","","revaluation","1","","","",""
"html-keyboard-response","290","1183276","0.0-4.0-10.0-1.6","spark_pilot_norest","9986","4","23","Male","","","","","","","null","<div style=""font-size:60px;"">+</div>","null","fixation","","","","","","","","","","","",""
"revaluation","291","1183995","0.0-4.0-10.0-0.7","spark_pilot_norest","9986","4","23","Male","","false","","","","","[717.4000000357628]","./assets/img/ocean/animals/seahorse.jpg","[""ArrowRight""]","second stage test","ocean","0","{""ArrowUp,ArrowLeft"":2,""ArrowUp,ArrowRight"":11,""ArrowDown,ArrowLeft"":8,""ArrowDown,ArrowRight"":27}","true","ArrowDown,ArrowRight","","revaluation","1","","","",""
"html-keyboard-response","292","1184495","0.0-4.0-10.0-1.7","spark_pilot_norest","9986","4","23","Male","","","","","","","null","<div style=""font-size:60px;"">+</div>","null","fixation","","","","","","","","","","","",""
"learning-instructions","293","1189387","0.0-4.0-0.1-0.2","spark_pilot_norest","9986","4","23","Male","","","","","","","2134.399999976158","<p> This time you are searching for treasure in the <b>canyon</b>.</p>","","instructions","","","","","","","","","","","",""
"learning-instructions","294","1208465","0.0-4.0-0.1-0.3","spark_pilot_norest","9986","4","23","Male","","","","","","","1822.6000000238419","<p><b>New</b> animals with <b>new</b> treasure chests live here. You need to explore to discover where the animal with the best treasure chest is.</p>
                    <p> Like before, once you figure out which animal has the chest with the most treasure, you should try to get to that animal and select that chest! </p>","","instructions","","","","","","","","","","","",""
"learning-instructions","295","1276731","0.0-4.0-1.1-0.1","spark_pilot_norest","9986","4","23","Male","","","","","","","53528.5","<p> Remember, when you see a picture of the place, use the up and down keys to <b>find an animal</b>.</p>
            <p> When you encounter an animal, you should use the left and right keys to <b>select a treasure chest</b>.</p>
            <p> Don't forget to look out for the robber! </p>","","instructions","","","","","","","","","","","",""
"revaluation","296","1280734","0.0-4.0-2.1-0.50","spark_pilot_norest","9986","4","23","Male","","false","","","","","[746.8000000119209]","./assets/img/canyon/catch/2.jpg","[""ArrowUp""]","value training","canyon","-10","{""ArrowUp,ArrowLeft"":23,""ArrowUp,ArrowRight"":10,""ArrowDown,ArrowLeft"":8,""ArrowDown,ArrowRight"":30}","false","ArrowUp","true","original","2","0","","",""
"html-keyboard-response","297","1281234","0.0-4.0-2.1-1.50","spark_pilot_norest","9986","4","23","Male","","","","","","","null","<div style=""font-size:60px;"">+</div>","null","fixation","","","","","","","","","1","","",""
"revaluation","298","1287239","0.0-4.0-2.1-0.51","spark_pilot_norest","9986","4","23","Male","","false","","","","","[1059.2999999523163,957.9000000357628]","./assets/img/canyon/memory/11.jpg","[""ArrowUp"",""ArrowLeft""]","value training","canyon","23","{""ArrowUp,ArrowLeft"":23,""ArrowUp,ArrowRight"":10,""ArrowDown,ArrowLeft"":8,""ArrowDown,ArrowRight"":30}","false","ArrowUp,ArrowLeft","false","original","2","2","","",""
"html-keyboard-response","299","1287740","0.0-4.0-2.1-1.51","spark_pilot_norest","9986","4","23","Male","","","","","","","null","<div style=""font-size:60px;"">+</div>","null","fixation","","","","","","","","","3","","",""
"revaluation","300","1293745","0.0-4.0-2.1-0.52","spark_pilot_norest","9986","4","23","Male","","false","","","","","[1280.7999999523163,660.3000000119209]","./assets/img/canyon/memory/35.jpg","[""ArrowUp"",""ArrowRight""]","value training","canyon","10","{""ArrowUp,ArrowLeft"":23,""ArrowUp,ArrowRight"":10,""ArrowDown,ArrowLeft"":8,""ArrowDown,ArrowRight"":30}","false","ArrowUp,ArrowRight","false","original","2","4","","",""
"html-keyboard-response","301","1294247","0.0-4.0-2.1-1.52","spark_pilot_norest","9986","4","23","Male","","","","","","","null","<div style=""font-size:60px;"">+</div>","null","fixation","","","","","","","","","5","","",""
"revaluation","302","1300250","0.0-4.0-2.1-0.53","spark_pilot_norest","9986","4","23","Male","","false","","","","","[189.10000002384186,546.8000000119209]","./assets/img/canyon/memory/11.jpg","[""ArrowDown"",""ArrowRight""]","value training","canyon","30","{""ArrowUp,ArrowLeft"":23,""ArrowUp,ArrowRight"":10,""ArrowDown,ArrowLeft"":8,""ArrowDown,ArrowRight"":30}","true","ArrowDown,ArrowRight","false","original","2","6","","",""
"html-keyboard-response","303","1300751","0.0-4.0-2.1-1.53","spark_pilot_norest","9986","4","23","Male","","","","","","","null","<div style=""font-size:60px;"">+</div>","null","fixation","","","","","","","","","7","","",""
"revaluation","304","1306755","0.0-4.0-2.1-0.54","spark_pilot_norest","9986","4","23","Male","","false","","","","","[356.19999998807907,226.20000004768372]","./assets/img/canyon/memory/0.jpg","[""ArrowDown"",""ArrowLeft""]","value training","canyon","8","{""ArrowUp,ArrowLeft"":23,""ArrowUp,ArrowRight"":10,""ArrowDown,ArrowLeft"":8,""ArrowDown,ArrowRight"":30}","false","ArrowDown,ArrowLeft","false","original","2","8","","",""
"html-keyboard-response","305","1307256","0.0-4.0-2.1-1.54","spark_pilot_norest","9986","4","23","Male","","","","","","","null","<div style=""font-size:60px;"">+</div>","null","fixation","","","","","","","","","9","","",""
"revaluation","306","1311260","0.0-4.0-2.1-0.55","spark_pilot_norest","9986","4","23","Male","","false","","","","","[251]","./assets/img/canyon/catch/6.jpg","[""ArrowDown""]","value training","canyon","-10","{""ArrowUp,ArrowLeft"":23,""ArrowUp,ArrowRight"":10,""ArrowDown,ArrowLeft"":8,""ArrowDown,ArrowRight"":30}","false","ArrowDown","true","original","2","10","","",""
"html-keyboard-response","307","1311762","0.0-4.0-2.1-1.55","spark_pilot_norest","9986","4","23","Male","","","","","","","null","<div style=""font-size:60px;"">+</div>","null","fixation","","","","","","","","","11","","",""
"revaluation","308","1317765","0.0-4.0-2.1-0.56","spark_pilot_norest","9986","4","23","Male","","false","","","","","[799.6000000238419,7.400000035762787]","./assets/img/canyon/memory/0.jpg","[""ArrowDown"",""ArrowRight""]","value training","canyon","30","{""ArrowUp,ArrowLeft"":23,""ArrowUp,ArrowRight"":10,""ArrowDown,ArrowLeft"":8,""ArrowDown,ArrowRight"":30}","true","ArrowDown,ArrowRight","false","original","2","12","","",""
"html-keyboard-response","309","1318266","0.0-4.0-2.1-1.56","spark_pilot_norest","9986","4","23","Male","","","","","","","null","<div style=""font-size:60px;"">+</div>","null","fixation","","","","","","","","","13","","",""
"revaluation","310","1324270","0.0-4.0-2.1-0.57","spark_pilot_norest","9986","4","23","Male","","false","","","","","[851,537.0999999642372]","./assets/img/canyon/memory/28.jpg","[""ArrowDown"",""ArrowRight""]","value training","canyon","30","{""ArrowUp,ArrowLeft"":23,""ArrowUp,ArrowRight"":10,""ArrowDown,ArrowLeft"":8,""ArrowDown,ArrowRight"":30}","true","ArrowDown,ArrowRight","false","original","2","14","","",""
"html-keyboard-response","311","1324772","0.0-4.0-2.1-1.57","spark_pilot_norest","9986","4","23","Male","","","","","","","null","<div style=""font-size:60px;"">+</div>","null","fixation","","","","","","","","","15","","",""
"revaluation","312","1330775","0.0-4.0-2.1-0.58","spark_pilot_norest","9986","4","23","Male","","false","","","","","[749.1000000238419,501]","./assets/img/canyon/memory/19.jpg","[""ArrowDown"",""ArrowRight""]","value training","canyon","30","{""ArrowUp,ArrowLeft"":23,""ArrowUp,ArrowRight"":10,""ArrowDown,ArrowLeft"":8,""ArrowDown,ArrowRight"":30}","true","ArrowDown,ArrowRight","false","original","2","16","","",""
"html-keyboard-response","313","1331276","0.0-4.0-2.1-1.58","spark_pilot_norest","9986","4","23","Male","","","","","","","null","<div style=""font-size:60px;"">+</div>","null","fixation","","","","","","","","","17","","",""
