"trial_type","trial_index","time_elapsed","internal_node_id","task_version","subject_id","assigned_condition","age","gender","success","timeout","failed_images","failed_audio","failed_video","browser_interaction","rt","stimulus","response","task_part","environment","score","rewardMap","correct","fullState","isCatch","condition","order","trial_num","key_press","ground_truth","bonus"
"pavlovia","0","1706","0.0-0.0","spark_pilot_norest","11451","7","7","Female","","","","","","","","","","","","","","","","","","","","","",""
"preload","1","44132","0.0-1.0","spark_pilot_norest","11451","7","7","Female","true","false","[]","[]","[]","[{""event"":""fullscreenenter"",""trial"":2,""time"":68381}]","","","","","","","","","","","","","","","",""
"fullscreen","2","69373","0.0-2.0","spark_pilot_norest","11451","7","7","Female","true","","","","","","","","","","","","","","","","","","","","",""
"audio-button-response","3","71702","0.0-3.0-0.0-0.0","spark_pilot_norest","11451","7","7","Female","","","","","","","2229","./assets/audio/audiotest/turtle.mp3","2","audio_test","","","","","","","","","","","",""
"learning-instructions","4","85912","0.0-3.0-1.0-0.0","spark_pilot_norest","11451","7","7","Female","","","","","","","7227.799999999988","<p> Welcome! Please remember to stay in fullscreen mode and don't click away from the experiment. </p>","","instructions","","","","","","","","","","","",""
"learning-instructions","5","96112","0.0-3.0-1.0-0.1","spark_pilot_norest","11451","7","7","Female","","","","","","","1785.7000000000116","<p> Today you will be playing a game to earn treasure. </p>
            <p> At the end of the experiment, you will earn a bonus based on how much treasure you find. </p>
            <img src='./assets/img/instructions/treasure.jpg' class='instructions-image'>","","instructions","","","","","","","","","","","",""
"learning-instructions","6","106432","0.0-3.0-1.0-0.2","spark_pilot_norest","11451","7","7","Female","","","","","","","2057.100000000035","<p> Animals have hidden treasure in treasure chests. </p>
            <p> You need to first find an animal and then choose which of their treasure chests to search. </p>
            <img src='./assets/img/space/animals/cat.jpg' class='instructions-image'>","","instructions","","","","","","","","","","","",""
"learning-instructions","7","121680","0.0-3.0-1.0-0.3","spark_pilot_norest","11451","7","7","Female","","","","","","","2095.2000000000116","<p> In each round, you will search for treasure in a different place. In the real game, there will be two rounds. </p>
            <p> You will begin with a separate, practice round where you will search for treasure in outer space. </p>
            <img src='./assets/img/space/0.jpg' class='instructions-image'>","","instructions","","","","","","","","","","","",""
"learning-instructions","8","135643","0.0-3.0-1.0-0.4","spark_pilot_norest","11451","7","7","Female","","","","","","","2554","<p> On every turn, you will see a picture of the place that you are in, but the specific image may be different each time. </p>
            <p> For example, both of these images mean you are in outer space. </p>
            <img src='./assets/img/instructions/outerspace.jpg' class='instructions-image'>","","instructions","","","","","","","","","","","",""
"learning-instructions","9","145833","0.0-3.0-1.0-0.5","spark_pilot_norest","11451","7","7","Female","","","","","","","2343.2999999999884","<p> You need to decide which direction to travel in. </p>
            <p> You can choose between going <b>up or down</b> by using the arrow keys. </p>
            <img src='./assets/img/instructions/updown.jpg' class='instructions-image'>","","instructions","","","","","","","","","","","",""
"learning-instructions","10","156892","0.0-3.0-1.0-0.6","spark_pilot_norest","11451","7","7","Female","","","","","","","2245.7000000000116","<p> You will have <b>2 seconds</b> to make your choice. </p>
            <p> If you do not make a choice within 2 seconds, you will not find an animal or earn treasure. </p>
            <img src='./assets/img/instructions/2seconds.jpg' class='instructions-image'>","","instructions","","","","","","","","","","","",""
"learning-instructions","11","165691","0.0-3.0-1.0-0.7","spark_pilot_norest","11451","7","7","Female","","","","","","","1753.5","<p> Let’s try practicing that now! </p>
            <p> When you see a picture of the place you are in, press the <b>up</b> key to travel up. </p>
            <img src='./assets/img/instructions/pressUp.jpg' class='instructions-image'>","","instructions","","","","","","","","","","","",""
"revaluation","12","169718","0.0-3.0-2.0-0.0","spark_pilot_norest","11451","7","7","Female","","true","","","","","[]","./assets/img/space/0.jpg","[]","first stage practice","space","-5","null","null","","false","","","","","",""
"html-keyboard-response","13","170222","0.0-3.0-2.0-1.0","spark_pilot_norest","11451","7","7","Female","","","","","","","null","<div style=""font-size:60px;"">+</div>","null","fixation","","","","","","","","","","","",""
"revaluation","14","174237","0.0-3.0-2.0-0.1","spark_pilot_norest","11451","7","7","Female","","false","","","","","[581.0999999999767]","./assets/img/space/1.jpg","[""ArrowUp""]","first stage practice","space","0","null","null","ArrowUp","false","","","","","",""
"html-keyboard-response","15","174741","0.0-3.0-2.0-1.1","spark_pilot_norest","11451","7","7","Female","","","","","","","null","<div style=""font-size:60px;"">+</div>","null","fixation","","","","","","","","","","","",""
"revaluation","16","178758","0.0-3.0-2.0-0.2","spark_pilot_norest","11451","7","7","Female","","true","","","","","[]","./assets/img/space/2.jpg","[]","first stage practice","space","-5","null","null","","false","","","","","",""
"html-keyboard-response","17","179261","0.0-3.0-2.0-1.2","spark_pilot_norest","11451","7","7","Female","","","","","","","null","<div style=""font-size:60px;"">+</div>","null","fixation","","","","","","","","","","","",""
"learning-instructions","18","186140","0.0-3.0-3.0-0.0","spark_pilot_norest","11451","7","7","Female","","","","","","","2179.2000000000116","<p> Great job! Now try pressing the <b>down</b> key to travel down. </p>
            <img src='./assets/img/instructions/pressDown.jpg' class='instructions-image'>","","instructions","","","","","","","","","","","",""
"revaluation","19","190150","0.0-3.0-4.0-0.0","spark_pilot_norest","11451","7","7","Female","","false","","","","","[937.5]","./assets/img/space/3.jpg","[""ArrowDown""]","first stage practice","space","0","null","null","ArrowDown","false","","","","","",""
"html-keyboard-response","20","190653","0.0-3.0-4.0-1.0","spark_pilot_norest","11451","7","7","Female","","","","","","","null","<div style=""font-size:60px;"">+</div>","null","fixation","","","","","","","","","","","",""
"revaluation","21","194670","0.0-3.0-4.0-0.1","spark_pilot_norest","11451","7","7","Female","","false","","","","","[739.8000000000466]","./assets/img/space/4.jpg","[""ArrowDown""]","first stage practice","space","0","null","null","ArrowDown","false","","","","","",""
"html-keyboard-response","22","195173","0.0-3.0-4.0-1.1","spark_pilot_norest","11451","7","7","Female","","","","","","","null","<div style=""font-size:60px;"">+</div>","null","fixation","","","","","","","","","","","",""
"revaluation","23","199189","0.0-3.0-4.0-0.2","spark_pilot_norest","11451","7","7","Female","","false","","","","","[597]","./assets/img/space/5.jpg","[""ArrowDown""]","first stage practice","space","0","null","null","ArrowDown","false","","","","","",""
"html-keyboard-response","24","199693","0.0-3.0-4.0-1.2","spark_pilot_norest","11451","7","7","Female","","","","","","","null","<div style=""font-size:60px;"">+</div>","null","fixation","","","","","","","","","","","",""
"learning-instructions","25","212103","0.0-3.0-5.0-0.0","spark_pilot_norest","11451","7","7","Female","","","","","","","2555.7999999999884","<p> The animals don’t move, so the animal in the upper part of a place will stay in the upper part of a place, and the animal in the lower part of a place will stay in the lower part of a place. </p>","","instructions","","","","","","","","","","","",""
"learning-instructions","26","224331","0.0-3.0-5.0-0.1","spark_pilot_norest","11451","7","7","Female","","","","","","","3082.600000000035","<p> Each animal has two treasure chests for you to choose from. </p>
            <p> The amount of treasure in each chest can range from <b> 0 to 40 pieces.</b></p>","","instructions","","","","","","","","","","","",""
"learning-instructions","27","239182","0.0-3.0-5.0-0.2","spark_pilot_norest","11451","7","7","Female","","","","","","","3660.899999999965","<p> You should decide which chest to search for treasure by using the <b>left</b> and <b>right</b> arrow keys. </p>
            <p><b> Pay attention to which animal is on the screen, as the animals have different treasure chests. </b></p>
            <img src='./assets/img/instructions/leftright.jpg' class='instructions-image'>","","instructions","","","","","","","","","","","",""
"learning-instructions","28","247500","0.0-3.0-5.0-0.3","spark_pilot_norest","11451","7","7","Female","","","","","","","1941.2999999999884","<p> Let’s try practicing that now. </p>
            <p> When you see an animal, choose which chest to search for treasure. </p>
            <img src='./assets/img/instructions/chooseChest.jpg' class='instructions-image'>","","instructions","","","","","","","","","","","",""
"revaluation","29","251521","0.0-3.0-6.0-0.0","spark_pilot_norest","11451","7","7","Female","","false","","","","","[1220.6999999999534]","./assets/img/space/animals/cat.jpg","[""ArrowRight""]","second stage practice","space","36","{""ArrowUp,ArrowLeft"":3,""ArrowUp,ArrowRight"":36,""ArrowDown,ArrowLeft"":15,""ArrowDown,ArrowRight"":23}","true","ArrowUp,ArrowRight","","","","","","",""
"html-keyboard-response","30","252029","0.0-3.0-6.0-1.0","spark_pilot_norest","11451","7","7","Female","","","","","","","null","<div style=""font-size:60px;"">+</div>","null","fixation","","","","","","","","","","","",""
"revaluation","31","256045","0.0-3.0-6.0-0.1","spark_pilot_norest","11451","7","7","Female","","false","","","","","[826.8999999999651]","./assets/img/space/animals/cat.jpg","[""ArrowLeft""]","second stage practice","space","3","{""ArrowUp,ArrowLeft"":3,""ArrowUp,ArrowRight"":36,""ArrowDown,ArrowLeft"":15,""ArrowDown,ArrowRight"":23}","false","ArrowUp,ArrowLeft","","","","","","",""
"html-keyboard-response","32","256549","0.0-3.0-6.0-1.1","spark_pilot_norest","11451","7","7","Female","","","","","","","null","<div style=""font-size:60px;"">+</div>","null","fixation","","","","","","","","","","","",""
"revaluation","33","260566","0.0-3.0-6.0-0.2","spark_pilot_norest","11451","7","7","Female","","false","","","","","[418.80000000001746]","./assets/img/space/animals/rabbit.jpg","[""ArrowRight""]","second stage practice","space","23","{""ArrowUp,ArrowLeft"":3,""ArrowUp,ArrowRight"":36,""ArrowDown,ArrowLeft"":15,""ArrowDown,ArrowRight"":23}","true","ArrowDown,ArrowRight","","","","","","",""
"html-keyboard-response","34","261070","0.0-3.0-6.0-1.2","spark_pilot_norest","11451","7","7","Female","","","","","","","null","<div style=""font-size:60px;"">+</div>","null","fixation","","","","","","","","","","","",""
"revaluation","35","265086","0.0-3.0-6.0-0.3","spark_pilot_norest","11451","7","7","Female","","false","","","","","[410.0999999999767]","./assets/img/space/animals/rabbit.jpg","[""ArrowRight""]","second stage practice","space","23","{""ArrowUp,ArrowLeft"":3,""ArrowUp,ArrowRight"":36,""ArrowDown,ArrowLeft"":15,""ArrowDown,ArrowRight"":23}","true","ArrowDown,ArrowRight","","","","","","",""
"html-keyboard-response","36","265589","0.0-3.0-6.0-1.3","spark_pilot_norest","11451","7","7","Female","","","","","","","null","<div style=""font-size:60px;"">+</div>","null","fixation","","","","","","","","","","","",""
"learning-instructions","37","283937","0.0-3.0-7.0-0.0","spark_pilot_norest","11451","7","7","Female","","","","","","","1525.6999999999534","<p> Great job. Now let’s try putting it together. </p>
            <p> On each turn, you will first see a picture to remind you of the place you are in, and you need to choose whether to go up or down. </p>
            <p> Then you will see an animal and choose which of its chests to search for treasure. </p>","","instructions","","","","","","","","","","","",""
"learning-instructions","38","294358","0.0-3.0-7.0-0.1","spark_pilot_norest","11451","7","7","Female","","","","","","","2165","<p> When you choose whether to go up or down, try to go to the animal with the chest with the most treasure. </p>
            <p> Try practicing that now! </p>","","instructions","","","","","","","","","","","",""
"revaluation","39","300382","0.0-3.0-8.0-0.0","spark_pilot_norest","11451","7","7","Female","","false","","","","","[1129.5,1154.2000000000698]","./assets/img/space/6.jpg","[""ArrowUp"",""ArrowRight""]","full practice","space","36","{""ArrowUp,ArrowLeft"":3,""ArrowUp,ArrowRight"":36,""ArrowDown,ArrowLeft"":15,""ArrowDown,ArrowRight"":23}","true","ArrowUp,ArrowRight","false","","","","","",""
"html-keyboard-response","40","300885","0.0-3.0-8.0-1.0","spark_pilot_norest","11451","7","7","Female","","","","","","","null","<div style=""font-size:60px;"">+</div>","null","fixation","","","","","","","","","","","",""
"revaluation","41","306910","0.0-3.0-8.0-0.1","spark_pilot_norest","11451","7","7","Female","","false","","","","","[1208.4000000000233,710.6999999999534]","./assets/img/space/7.jpg","[""ArrowDown"",""ArrowRight""]","full practice","space","23","{""ArrowUp,ArrowLeft"":3,""ArrowUp,ArrowRight"":36,""ArrowDown,ArrowLeft"":15,""ArrowDown,ArrowRight"":23}","false","ArrowDown,ArrowRight","false","","","","","",""
"html-keyboard-response","42","307413","0.0-3.0-8.0-1.1","spark_pilot_norest","11451","7","7","Female","","","","","","","null","<div style=""font-size:60px;"">+</div>","null","fixation","","","","","","","","","","","",""
"revaluation","43","313438","0.0-3.0-8.0-0.2","spark_pilot_norest","11451","7","7","Female","","false","","","","","[460.5999999999767,426.9000000000233]","./assets/img/space/8.jpg","[""ArrowDown"",""ArrowRight""]","full practice","space","23","{""ArrowUp,ArrowLeft"":3,""ArrowUp,ArrowRight"":36,""ArrowDown,ArrowLeft"":15,""ArrowDown,ArrowRight"":23}","false","ArrowDown,ArrowRight","false","","","","","",""
"html-keyboard-response","44","313941","0.0-3.0-8.0-1.2","spark_pilot_norest","11451","7","7","Female","","","","","","","null","<div style=""font-size:60px;"">+</div>","null","fixation","","","","","","","","","","","",""
"revaluation","45","319966","0.0-3.0-8.0-0.3","spark_pilot_norest","11451","7","7","Female","","false","","","","","[474.9000000000233,427.29999999993015]","./assets/img/space/9.jpg","[""ArrowDown"",""ArrowRight""]","full practice","space","23","{""ArrowUp,ArrowLeft"":3,""ArrowUp,ArrowRight"":36,""ArrowDown,ArrowLeft"":15,""ArrowDown,ArrowRight"":23}","false","ArrowDown,ArrowRight","false","","","","","",""
"html-keyboard-response","46","320469","0.0-3.0-8.0-1.3","spark_pilot_norest","11451","7","7","Female","","","","","","","null","<div style=""font-size:60px;"">+</div>","null","fixation","","","","","","","","","","","",""
"revaluation","47","326494","0.0-3.0-8.0-0.4","spark_pilot_norest","11451","7","7","Female","","false","","","","","[435.79999999993015,519.5]","./assets/img/space/10.jpg","[""ArrowDown"",""ArrowRight""]","full practice","space","23","{""ArrowUp,ArrowLeft"":3,""ArrowUp,ArrowRight"":36,""ArrowDown,ArrowLeft"":15,""ArrowDown,ArrowRight"":23}","false","ArrowDown,ArrowRight","false","","","","","",""
"html-keyboard-response","48","326997","0.0-3.0-8.0-1.4","spark_pilot_norest","11451","7","7","Female","","","","","","","null","<div style=""font-size:60px;"">+</div>","null","fixation","","","","","","","","","","","",""
"learning-instructions","49","339697","0.0-3.0-9.0-0.0","spark_pilot_norest","11451","7","7","Female","","","","","","","2402.4000000000233","<p> One last thing: sometimes, you will see a robber. The robber can be anywhere in the picture. </p>
            <p> If you do not stop them, you will lose treasure. </p>
            <img src='./assets/img/instructions/robber.jpg' class='instructions-image'>","","instructions","","","","","","","","","","","",""
"learning-instructions","50","349924","0.0-3.0-9.0-0.1","spark_pilot_norest","11451","7","7","Female","","","","","","","3050.20000000007","<p> If you see the robber, you should <b>press the space bar</b> rather than using the arrow keys. </p>
            <p> Try practicing that now! </p>","","instructions","","","","","","","","","","","",""
"revaluation","51","353941","0.0-3.0-10.0-0.0","spark_pilot_norest","11451","7","7","Female","","false","","","","","[1601.9000000000233]","./assets/img/space/catch/0.jpg","[""ArrowDown""]","catch practice","space","-10","{""ArrowUp,ArrowLeft"":3,""ArrowUp,ArrowRight"":36,""ArrowDown,ArrowLeft"":15,""ArrowDown,ArrowRight"":23}","false","ArrowDown","true","","","","","",""
"html-keyboard-response","52","354445","0.0-3.0-10.0-1.0","spark_pilot_norest","11451","7","7","Female","","","","","","","null","<div style=""font-size:60px;"">+</div>","null","fixation","","","","","","","","","","","",""
"revaluation","53","358462","0.0-3.0-10.0-0.1","spark_pilot_norest","11451","7","7","Female","","false","","","","","[911.0999999999767]","./assets/img/space/catch/1.jpg","[""spaceBar""]","catch practice","space","0","{""ArrowUp,ArrowLeft"":3,""ArrowUp,ArrowRight"":36,""ArrowDown,ArrowLeft"":15,""ArrowDown,ArrowRight"":23}","true","spaceBar","true","","","","","",""
"html-keyboard-response","54","358965","0.0-3.0-10.0-1.1","spark_pilot_norest","11451","7","7","Female","","","","","","","null","<div style=""font-size:60px;"">+</div>","null","fixation","","","","","","","","","","","",""
"revaluation","55","362981","0.0-3.0-10.0-0.2","spark_pilot_norest","11451","7","7","Female","","false","","","","","[1055.6999999999534]","./assets/img/space/catch/2.jpg","[""spaceBar""]","catch practice","space","0","{""ArrowUp,ArrowLeft"":3,""ArrowUp,ArrowRight"":36,""ArrowDown,ArrowLeft"":15,""ArrowDown,ArrowRight"":23}","true","spaceBar","true","","","","","",""
"html-keyboard-response","56","363485","0.0-3.0-10.0-1.2","spark_pilot_norest","11451","7","7","Female","","","","","","","null","<div style=""font-size:60px;"">+</div>","null","fixation","","","","","","","","","","","",""
"learning-instructions","57","370968","0.0-3.0-11.0-0.0-0.0","spark_pilot_norest","11451","7","7","Female","","","","","","","2217.1999999999534","<p> Now, you will practice a shortened version of the game to get a sense of how it all fits together. </p>","","instructions","","","","","","","","","","","",""
"learning-instructions","58","376879","0.0-3.0-11.0-0.0-0.1","spark_pilot_norest","11451","7","7","Female","","","","","","","2709.79999999993","<p>This time you are searching for treasure in outer space.</p>","","instructions","","","","","","","","","","","",""
"learning-instructions","59","393757","0.0-3.0-11.0-1.0-0.0","spark_pilot_norest","11451","7","7","Female","","","","","","","2105.5","<p> Remember, when you see a picture of the place, use the up and down keys to <b>find an animal</b>.</p>
            <p> When you encounter an animal, you should use the left and right keys to <b>select a treasure chest</b>.</p>
            <p> Don't forget to look out for the robber! </p>","","instructions","","","","","","","","","","","",""
"revaluation","60","399782","0.0-3.0-11.0-2.0-0.0","spark_pilot_norest","11451","7","7","Female","","false","","","","","[1357,596.5]","./assets/img/space/11.jpg","[""ArrowDown"",""ArrowRight""]","practice block","space","23","{""ArrowUp,ArrowLeft"":3,""ArrowUp,ArrowRight"":36,""ArrowDown,ArrowLeft"":15,""ArrowDown,ArrowRight"":23}","false","ArrowDown,ArrowRight","false","","","","","",""
"html-keyboard-response","61","400285","0.0-3.0-11.0-2.0-1.0","spark_pilot_norest","11451","7","7","Female","","","","","","","null","<div style=""font-size:60px;"">+</div>","null","fixation","","","","","","","","","","","",""
"revaluation","62","406309","0.0-3.0-11.0-2.0-0.1","spark_pilot_norest","11451","7","7","Female","","false","","","","","[545.9000000000233,592.0999999999767]","./assets/img/space/12.jpg","[""ArrowDown"",""ArrowRight""]","practice block","space","23","{""ArrowUp,ArrowLeft"":3,""ArrowUp,ArrowRight"":36,""ArrowDown,ArrowLeft"":15,""ArrowDown,ArrowRight"":23}","false","ArrowDown,ArrowRight","false","","","","","",""
"html-keyboard-response","63","406813","0.0-3.0-11.0-2.0-1.1","spark_pilot_norest","11451","7","7","Female","","","","","","","null","<div style=""font-size:60px;"">+</div>","null","fixation","","","","","","","","","","","",""
"revaluation","64","412838","0.0-3.0-11.0-2.0-0.2","spark_pilot_norest","11451","7","7","Female","","false","","","","","[427.0999999999767,448.30000000004657]","./assets/img/space/13.jpg","[""ArrowDown"",""ArrowRight""]","practice block","space","23","{""ArrowUp,ArrowLeft"":3,""ArrowUp,ArrowRight"":36,""ArrowDown,ArrowLeft"":15,""ArrowDown,ArrowRight"":23}","false","ArrowDown,ArrowRight","false","","","","","",""
"html-keyboard-response","65","413341","0.0-3.0-11.0-2.0-1.2","spark_pilot_norest","11451","7","7","Female","","","","","","","null","<div style=""font-size:60px;"">+</div>","null","fixation","","","","","","","","","","","",""
"revaluation","66","419366","0.0-3.0-11.0-2.0-0.3","spark_pilot_norest","11451","7","7","Female","","false","","","","","[505.4000000000233,489.4000000000233]","./assets/img/space/14.jpg","[""ArrowDown"",""ArrowRight""]","practice block","space","23","{""ArrowUp,ArrowLeft"":3,""ArrowUp,ArrowRight"":36,""ArrowDown,ArrowLeft"":15,""ArrowDown,ArrowRight"":23}","false","ArrowDown,ArrowRight","false","","","","","",""
"html-keyboard-response","67","419869","0.0-3.0-11.0-2.0-1.3","spark_pilot_norest","11451","7","7","Female","","","","","","","null","<div style=""font-size:60px;"">+</div>","null","fixation","","","","","","","","","","","",""
"revaluation","68","425894","0.0-3.0-11.0-2.0-0.4","spark_pilot_norest","11451","7","7","Female","","false","","","","","[269,514.7999999999302]","./assets/img/space/11.jpg","[""ArrowDown"",""ArrowRight""]","practice block","space","23","{""ArrowUp,ArrowLeft"":3,""ArrowUp,ArrowRight"":36,""ArrowDown,ArrowLeft"":15,""ArrowDown,ArrowRight"":23}","false","ArrowDown,ArrowRight","false","","","","","",""
"html-keyboard-response","69","426397","0.0-3.0-11.0-2.0-1.4","spark_pilot_norest","11451","7","7","Female","","","","","","","null","<div style=""font-size:60px;"">+</div>","null","fixation","","","","","","","","","","","",""
"revaluation","70","432422","0.0-3.0-11.0-2.0-0.5","spark_pilot_norest","11451","7","7","Female","","false","","","","","[439,444.5]","./assets/img/space/12.jpg","[""ArrowDown"",""ArrowRight""]","practice block","space","23","{""ArrowUp,ArrowLeft"":3,""ArrowUp,ArrowRight"":36,""ArrowDown,ArrowLeft"":15,""ArrowDown,ArrowRight"":23}","false","ArrowDown,ArrowRight","false","","","","","",""
"html-keyboard-response","71","432925","0.0-3.0-11.0-2.0-1.5","spark_pilot_norest","11451","7","7","Female","","","","","","","null","<div style=""font-size:60px;"">+</div>","null","fixation","","","","","","","","","","","",""
"revaluation","72","438950","0.0-3.0-11.0-2.0-0.6","spark_pilot_norest","11451","7","7","Female","","false","","","","","[335.0999999999767,397.79999999993015]","./assets/img/space/13.jpg","[""ArrowDown"",""ArrowRight""]","practice block","space","23","{""ArrowUp,ArrowLeft"":3,""ArrowUp,ArrowRight"":36,""ArrowDown,ArrowLeft"":15,""ArrowDown,ArrowRight"":23}","false","ArrowDown,ArrowRight","false","","","","","",""
"html-keyboard-response","73","439453","0.0-3.0-11.0-2.0-1.6","spark_pilot_norest","11451","7","7","Female","","","","","","","null","<div style=""font-size:60px;"">+</div>","null","fixation","","","","","","","","","","","",""
"revaluation","74","445478","0.0-3.0-11.0-2.0-0.7","spark_pilot_norest","11451","7","7","Female","","false","","","","","[323.39999999990687,270.69999999995343]","./assets/img/space/14.jpg","[""ArrowDown"",""ArrowRight""]","practice block","space","23","{""ArrowUp,ArrowLeft"":3,""ArrowUp,ArrowRight"":36,""ArrowDown,ArrowLeft"":15,""ArrowDown,ArrowRight"":23}","false","ArrowDown,ArrowRight","false","","","","","",""
"html-keyboard-response","75","445981","0.0-3.0-11.0-2.0-1.7","spark_pilot_norest","11451","7","7","Female","","","","","","","null","<div style=""font-size:60px;"">+</div>","null","fixation","","","","","","","","","","","",""
"revaluation","76","449998","0.0-3.0-11.0-2.0-0.8","spark_pilot_norest","11451","7","7","Female","","false","","","","","[304.69999999995343]","./assets/img/space/catch/3.jpg","[""ArrowDown""]","practice block","space","-10","{""ArrowUp,ArrowLeft"":3,""ArrowUp,ArrowRight"":36,""ArrowDown,ArrowLeft"":15,""ArrowDown,ArrowRight"":23}","false","ArrowDown","true","","","","","",""
"html-keyboard-response","77","450501","0.0-3.0-11.0-2.0-1.8","spark_pilot_norest","11451","7","7","Female","","","","","","","null","<div style=""font-size:60px;"">+</div>","null","fixation","","","","","","","","","","","",""
"learning-instructions","78","464729","0.0-3.0-11.0-3.0-0.0","spark_pilot_norest","11451","7","7","Female","","","","","","","1201.5","<p> Now, you will travel with a friend who will choose whether you go up or down first. </p>
            <p> On these turns, you will just see the animal that they found. You will still get to choose which chest to search for treasure.</p>","","instructions","","","","","","","","","","","",""
"revaluation","79","468742","0.0-3.0-11.0-4.0-0.0","spark_pilot_norest","11451","7","7","Female","","false","","","","","[976.6000000000931]","./assets/img/space/animals/rabbit.jpg","[""ArrowRight""]","practice block","space","23","{""ArrowUp,ArrowLeft"":3,""ArrowUp,ArrowRight"":36,""ArrowDown,ArrowLeft"":15,""ArrowDown,ArrowRight"":23}","true","ArrowDown,ArrowRight","","","","","","",""
"html-keyboard-response","80","469245","0.0-3.0-11.0-4.0-1.0","spark_pilot_norest","11451","7","7","Female","","","","","","","null","<div style=""font-size:60px;"">+</div>","null","fixation","","","","","","","","","","","",""
"revaluation","81","473262","0.0-3.0-11.0-4.0-0.1","spark_pilot_norest","11451","7","7","Female","","false","","","","","[626.3000000000466]","./assets/img/space/animals/cat.jpg","[""ArrowRight""]","practice block","space","36","{""ArrowUp,ArrowLeft"":3,""ArrowUp,ArrowRight"":36,""ArrowDown,ArrowLeft"":15,""ArrowDown,ArrowRight"":23}","true","ArrowUp,ArrowRight","","","","","","",""
"html-keyboard-response","82","473765","0.0-3.0-11.0-4.0-1.1","spark_pilot_norest","11451","7","7","Female","","","","","","","null","<div style=""font-size:60px;"">+</div>","null","fixation","","","","","","","","","","","",""
"revaluation","83","477782","0.0-3.0-11.0-4.0-0.2","spark_pilot_norest","11451","7","7","Female","","false","","","","","[414.19999999995343]","./assets/img/space/animals/cat.jpg","[""ArrowRight""]","practice block","space","36","{""ArrowUp,ArrowLeft"":3,""ArrowUp,ArrowRight"":36,""ArrowDown,ArrowLeft"":15,""ArrowDown,ArrowRight"":23}","true","ArrowUp,ArrowRight","","","","","","",""
"html-keyboard-response","84","478285","0.0-3.0-11.0-4.0-1.2","spark_pilot_norest","11451","7","7","Female","","","","","","","null","<div style=""font-size:60px;"">+</div>","null","fixation","","","","","","","","","","","",""
"revaluation","85","482302","0.0-3.0-11.0-4.0-0.3","spark_pilot_norest","11451","7","7","Female","","false","","","","","[560.2999999999302]","./assets/img/space/animals/rabbit.jpg","[""ArrowRight""]","practice block","space","23","{""ArrowUp,ArrowLeft"":3,""ArrowUp,ArrowRight"":36,""ArrowDown,ArrowLeft"":15,""ArrowDown,ArrowRight"":23}","true","ArrowDown,ArrowRight","","","","","","",""
"html-keyboard-response","86","482805","0.0-3.0-11.0-4.0-1.3","spark_pilot_norest","11451","7","7","Female","","","","","","","null","<div style=""font-size:60px;"">+</div>","null","fixation","","","","","","","","","","","",""
"learning-instructions","87","490949","0.0-3.0-11.0-5.0-0.0","spark_pilot_norest","11451","7","7","Female","","","","","","","null","<p> You have almost finished this part of the game! </p>
            <p> We are going to ask you to make a few more choices. </p>","","instructions","","","","","","","","","","","",""
"learning-instructions","88","506981","0.0-3.0-11.0-5.0-0.1","spark_pilot_norest","11451","7","7","Female","","","","","","","null","<p> First, you need to decide whether to go up or down. When you see each picture, use the arrow keys to make your choice. </p>
            <p><b>You will not see which animal you found, but try to get to the one that will give you the most treasure.</b></p>","","instructions","","","","","","","","","","","",""
"html-keyboard-response","89","507990","0.0-3.0-11.0-6.0-0.0","spark_pilot_norest","11451","7","7","Female","","","","","","","null","<div style=""font-size:100px;color:red;"">Starting in...</div>","null","","","","","","","","","","","","",""
"html-keyboard-response","90","508997","0.0-3.0-11.0-6.0-1.0","spark_pilot_norest","11451","7","7","Female","","","","","","","null","<div style=""font-size:200px;color:red;"">3</div>","null","","","","","","","","","","","","",""
"html-keyboard-response","91","510006","0.0-3.0-11.0-6.0-2.0","spark_pilot_norest","11451","7","7","Female","","","","","","","null","<div style=""font-size:200px;color:red;"">2</div>","null","","","","","","","","","","","","",""
"html-keyboard-response","92","511013","0.0-3.0-11.0-6.0-3.0","spark_pilot_norest","11451","7","7","Female","","","","","","","null","<div style=""font-size:200px;color:red;"">1</div>","null","","","","","","","","","","","","",""
"revaluation","93","511750","0.0-3.0-11.0-7.0","spark_pilot_norest","11451","7","7","Female","","false","","","","","[732.8000000000466]","./assets/img/space/15.jpg","[""ArrowDown""]","practice block","space","0","{""ArrowUp,ArrowLeft"":3,""ArrowUp,ArrowRight"":36,""ArrowDown,ArrowLeft"":15,""ArrowDown,ArrowRight"":23}","false","ArrowDown","false","","","","","",""
"html-keyboard-response","94","512253","0.0-3.0-11.0-8.0","spark_pilot_norest","11451","7","7","Female","","","","","","","null","<div style=""font-size:60px;"">+</div>","null","fixation","","","","","","","","","","","",""
"learning-instructions","95","525645","0.0-3.0-11.0-9.0-0.0","spark_pilot_norest","11451","7","7","Female","","","","","","","null","<p> Now you will see the animals again and can search their chests for treasure. </p>
            <p> This time, you will not see how much treasure you earned, but you will earn more bonus money for making better choices. </p>","","instructions","","","","","","","","","","","",""
"html-keyboard-response","96","526650","0.0-3.0-11.0-10.0-0.0","spark_pilot_norest","11451","7","7","Female","","","","","","","null","<div style=""font-size:100px;color:red;"">Starting in...</div>","null","","","","","","","","","","","","",""
"html-keyboard-response","97","527653","0.0-3.0-11.0-10.0-1.0","spark_pilot_norest","11451","7","7","Female","","","","","","","null","<div style=""font-size:200px;color:red;"">3</div>","null","","","","","","","","","","","","",""
"html-keyboard-response","98","528658","0.0-3.0-11.0-10.0-2.0","spark_pilot_norest","11451","7","7","Female","","","","","","","null","<div style=""font-size:200px;color:red;"">2</div>","null","","","","","","","","","","","","",""
"html-keyboard-response","99","529661","0.0-3.0-11.0-10.0-3.0","spark_pilot_norest","11451","7","7","Female","","","","","","","null","<div style=""font-size:200px;color:red;"">1</div>","null","","","","","","","","","","","","",""
"revaluation","100","530049","0.0-3.0-11.0-11.0-0.0","spark_pilot_norest","11451","7","7","Female","","false","","","","","[383.19999999995343]","./assets/img/space/animals/cat.jpg","[""ArrowRight""]","practice block","space","0","{""ArrowUp,ArrowLeft"":3,""ArrowUp,ArrowRight"":36,""ArrowDown,ArrowLeft"":15,""ArrowDown,ArrowRight"":23}","true","ArrowUp,ArrowRight","","","","","","",""
"html-keyboard-response","101","530557","0.0-3.0-11.0-11.0-1.0","spark_pilot_norest","11451","7","7","Female","","","","","","","null","<div style=""font-size:60px;"">+</div>","null","fixation","","","","","","","","","","","",""
"revaluation","102","531091","0.0-3.0-11.0-11.0-0.1","spark_pilot_norest","11451","7","7","Female","","false","","","","","[530.5999999999767]","./assets/img/space/animals/rabbit.jpg","[""ArrowRight""]","practice block","space","0","{""ArrowUp,ArrowLeft"":3,""ArrowUp,ArrowRight"":36,""ArrowDown,ArrowLeft"":15,""ArrowDown,ArrowRight"":23}","true","ArrowDown,ArrowRight","","","","","","",""
"html-keyboard-response","103","531597","0.0-3.0-11.0-11.0-1.1","spark_pilot_norest","11451","7","7","Female","","","","","","","null","<div style=""font-size:60px;"">+</div>","null","fixation","","","","","","","","","","","",""
"learning-instructions","104","537906","0.0-3.0-12.0-0.0","spark_pilot_norest","11451","7","7","Female","","","","","","","1706","<p> Before you start, we're going to ask you a few questions about how the game works. </p>","","instructions","","","","","","","","","","","",""
"comp-q","105","545116","0.0-3.0-13.0-0.0-0.0","spark_pilot_norest","11451","7","7","Female","","","","","","","1596.1999999999534","<p> <b> True or False? </b> </p>
            <p> There can be 50 pieces of treasure in a given animal's chest. </p>","0","comp_question","","","","false","","","","","","","",""
"comp-q","106","552988","0.0-3.0-13.0-0.0-1.0","spark_pilot_norest","11451","7","7","Female","","","","","","","1332.3000000000466","<p> <b>Incorrect.</b> The amount of treasure in each chest can range from 0 to 40 pieces. </p>","0","comp_answer","","","","","","","","","","","",""
"comp-q","107","559461","0.0-3.0-13.0-0.1-0.1","spark_pilot_norest","11451","7","7","Female","","","","","","","904.1999999999534","<p> <b> True or False? </b> </p>
            <p> There can be 50 pieces of treasure in a given animal's chest. </p>","1","comp_question","","","","true","","","","","","","",""
"comp-q","108","567864","0.0-3.0-13.0-0.1-1.1","spark_pilot_norest","11451","7","7","Female","","","","","","","1733.4000000000233","<p> <b> That's right! </b> The amount of treasure in each chest can range from 0 to 40 pieces. </p>","0","comp_answer","","","","","","","","","","","",""
"comp-q","109","576948","0.0-3.0-13.0-0.2-0.2","spark_pilot_norest","11451","7","7","Female","","","","","","","1953.9000000000233","<p> <b> True or False? </b> </p><p> In this game, all animals have the same amount of treasure in their left and right chests. </p>","1","comp_question","","","","true","","","","","","","",""
"comp-q","110","584733","0.0-3.0-13.0-0.2-1.2","spark_pilot_norest","11451","7","7","Female","","","","","","","2527.9000000000233","<p> <b> That's right! </b> Animals have different amounts of treasure in their treasure chests. </p>","0","comp_answer","","","","","","","","","","","",""
"comp-q","111","591808","0.0-3.0-13.0-0.3-0.3","spark_pilot_norest","11451","7","7","Female","","","","","","","1218.7999999999302","<p> <b> True or False? </b> </p><p> The same animal will always be there if you go up in the same place. </p>","1","comp_question","","","","false","","","","","","","",""
"comp-q","112","599183","0.0-3.0-13.0-0.3-1.3","spark_pilot_norest","11451","7","7","Female","","","","","","","1074.3000000000466","<p> <b>Incorrect.</b> One animal lives in the upper part and one lives in the lower part of every place. </p>","0","comp_answer","","","","","","","","","","","",""
"comp-q","113","608528","0.0-3.0-13.0-0.4-0.4","spark_pilot_norest","11451","7","7","Female","","","","","","","3518","<p> <b> True or False? </b> </p><p> The same animal will always be there if you go up in the same place. </p>","1","comp_question","","","","false","","","","","","","",""
"comp-q","114","616276","0.0-3.0-13.0-0.4-1.4","spark_pilot_norest","11451","7","7","Female","","","","","","","1462.5","<p> <b>Incorrect.</b> One animal lives in the upper part and one lives in the lower part of every place. </p>","0","comp_answer","","","","","","","","","","","",""
"comp-q","115","622831","0.0-3.0-13.0-0.5-0.5","spark_pilot_norest","11451","7","7","Female","","","","","","","732.0999999999767","<p> <b> True or False? </b> </p><p> The same animal will always be there if you go up in the same place. </p>","0","comp_question","","","","true","","","","","","","",""
"comp-q","116","631952","0.0-3.0-13.0-0.5-1.5","spark_pilot_norest","11451","7","7","Female","","","","","","","2664.899999999907","<p> <b> That's right! </b> One animal lives in the upper part and one lives in the lower part of every place. </p>","0","comp_answer","","","","","","","","","","","",""
"comp-q","117","638527","0.0-3.0-13.0-0.6-0.6","spark_pilot_norest","11451","7","7","Female","","","","","","","1036.5999999999767","<p> <b> True or False? </b> </p><p> If you see a different picture, it means you are in a new place. </p>","0","comp_question","","","","false","","","","","","","",""
"comp-q","118","653171","0.0-3.0-13.0-0.6-1.6","spark_pilot_norest","11451","7","7","Female","","","","","","","3541.6999999999534","<p> <b>Incorrect.</b> Lots of different images may show the same place. For example,  you may see three different images that all remind you that you are in outer space. </p>","0","comp_answer","","","","","","","","","","","",""
"comp-q","119","663946","0.0-3.0-13.0-0.7-0.7","spark_pilot_norest","11451","7","7","Female","","","","","","","5271.800000000047","<p> <b> True or False? </b> </p><p> If you see a different picture, it means you are in a new place. </p>","1","comp_question","","","","true","","","","","","","",""
"comp-q","120","678620","0.0-3.0-13.0-0.7-1.7","spark_pilot_norest","11451","7","7","Female","","","","","","","3422.5","<p> <b> That's right! </b> Lots of different images may show the same place. For example,  you may see three different images that all remind you that you are in outer space. </p>","0","comp_answer","","","","","","","","","","","",""
"learning-instructions","121","690574","0.0-3.0-14.0-0.0","spark_pilot_norest","11451","7","7","Female","","","","","","","2086.70000000007","<p> Good job. Remember to do your best because the amount of treasure you earn will be converted into bonus money. </p>
            <p> It’s time to start the real game! </p>","","instructions","","","","","","","","","","","",""
"learning-instructions","122","697566","0.0-4.0-0.0-0.0","spark_pilot_norest","11451","7","7","Female","","","","","","","4214.899999999907","<p> This time you are searching for treasure in the <b>canyon</b>.</p>","","instructions","","","","","","","","","","","",""
"learning-instructions","123","716567","0.0-4.0-0.0-0.1","spark_pilot_norest","11451","7","7","Female","","","","","","","1690.9000000000233","<p><b>New</b> animals with <b>new</b> treasure chests live here. You need to explore to discover where the animal with the best treasure chest is.</p>
                    <p> Like before, once you figure out which animal has the chest with the most treasure, you should try to get to that animal and select that chest! </p>","","instructions","","","","","","","","","","","",""
"learning-instructions","124","734195","0.0-4.0-1.0-0.0","spark_pilot_norest","11451","7","7","Female","","","","","","","2892.20000000007","<p> Remember, when you see a picture of the place, use the up and down keys to <b>find an animal</b>.</p>
            <p> When you encounter an animal, you should use the left and right keys to <b>select a treasure chest</b>.</p>
            <p> Don't forget to look out for the robber! </p>","","instructions","","","","","","","","","","","",""
"revaluation","125","738210","0.0-4.0-2.0-0.0","spark_pilot_norest","11451","7","7","Female","","true","","","","","[]","./assets/img/canyon/memory/2.jpg","[]","value training","canyon","-5","{""ArrowUp,ArrowLeft"":23,""ArrowUp,ArrowRight"":10,""ArrowDown,ArrowLeft"":8,""ArrowDown,ArrowRight"":30}","false","","false","original","1","0","","",""
"html-keyboard-response","126","738717","0.0-4.0-2.0-1.0","spark_pilot_norest","11451","7","7","Female","","","","","","","null","<div style=""font-size:60px;"">+</div>","null","fixation","","","","","","","","","1","","",""
"revaluation","127","742733","0.0-4.0-2.0-0.1","spark_pilot_norest","11451","7","7","Female","","true","","","","","[]","./assets/img/canyon/memory/5.jpg","[]","value training","canyon","-5","{""ArrowUp,ArrowLeft"":23,""ArrowUp,ArrowRight"":10,""ArrowDown,ArrowLeft"":8,""ArrowDown,ArrowRight"":30}","false","","false","original","1","2","","",""
"html-keyboard-response","128","743237","0.0-4.0-2.0-1.1","spark_pilot_norest","11451","7","7","Female","","","","","","","null","<div style=""font-size:60px;"">+</div>","null","fixation","","","","","","","","","3","","",""
"revaluation","129","749262","0.0-4.0-2.0-0.2","spark_pilot_norest","11451","7","7","Female","","false","","","","","[742,1351.7999999999302]","./assets/img/canyon/memory/32.jpg","[""ArrowUp"",""ArrowLeft""]","value training","canyon","23","{""ArrowUp,ArrowLeft"":23,""ArrowUp,ArrowRight"":10,""ArrowDown,ArrowLeft"":8,""ArrowDown,ArrowRight"":30}","false","ArrowUp,ArrowLeft","false","original","1","4","","",""
"html-keyboard-response","130","749765","0.0-4.0-2.0-1.2","spark_pilot_norest","11451","7","7","Female","","","","","","","null","<div style=""font-size:60px;"">+</div>","null","fixation","","","","","","","","","5","","",""
"revaluation","131","755789","0.0-4.0-2.0-0.3","spark_pilot_norest","11451","7","7","Female","","false","","","","","[534.9000000000233,791.5]","./assets/img/canyon/memory/9.jpg","[""ArrowDown"",""ArrowLeft""]","value training","canyon","8","{""ArrowUp,ArrowLeft"":23,""ArrowUp,ArrowRight"":10,""ArrowDown,ArrowLeft"":8,""ArrowDown,ArrowRight"":30}","false","ArrowDown,ArrowLeft","false","original","1","6","","",""
"html-keyboard-response","132","756293","0.0-4.0-2.0-1.3","spark_pilot_norest","11451","7","7","Female","","","","","","","null","<div style=""font-size:60px;"">+</div>","null","fixation","","","","","","","","","7","","",""
"revaluation","133","762318","0.0-4.0-2.0-0.4","spark_pilot_norest","11451","7","7","Female","","false","","","","","[488.70000000006985,402.69999999995343]","./assets/img/canyon/memory/28.jpg","[""ArrowUp"",""ArrowRight""]","value training","canyon","10","{""ArrowUp,ArrowLeft"":23,""ArrowUp,ArrowRight"":10,""ArrowDown,ArrowLeft"":8,""ArrowDown,ArrowRight"":30}","false","ArrowUp,ArrowRight","false","original","1","8","","",""
"html-keyboard-response","134","762821","0.0-4.0-2.0-1.4","spark_pilot_norest","11451","7","7","Female","","","","","","","null","<div style=""font-size:60px;"">+</div>","null","fixation","","","","","","","","","9","","",""
"revaluation","135","768846","0.0-4.0-2.0-0.5","spark_pilot_norest","11451","7","7","Female","","false","","","","","[314.4000000000233,508.89999999990687]","./assets/img/canyon/memory/9.jpg","[""ArrowDown"",""ArrowLeft""]","value training","canyon","8","{""ArrowUp,ArrowLeft"":23,""ArrowUp,ArrowRight"":10,""ArrowDown,ArrowLeft"":8,""ArrowDown,ArrowRight"":30}","false","ArrowDown,ArrowLeft","false","original","1","10","","",""
"html-keyboard-response","136","769349","0.0-4.0-2.0-1.5","spark_pilot_norest","11451","7","7","Female","","","","","","","null","<div style=""font-size:60px;"">+</div>","null","fixation","","","","","","","","","11","","",""
"revaluation","137","775374","0.0-4.0-2.0-0.6","spark_pilot_norest","11451","7","7","Female","","false","","","","","[507.5,293.5]","./assets/img/canyon/memory/15.jpg","[""ArrowUp"",""ArrowRight""]","value training","canyon","10","{""ArrowUp,ArrowLeft"":23,""ArrowUp,ArrowRight"":10,""ArrowDown,ArrowLeft"":8,""ArrowDown,ArrowRight"":30}","false","ArrowUp,ArrowRight","false","original","1","12","","",""
"html-keyboard-response","138","775877","0.0-4.0-2.0-1.6","spark_pilot_norest","11451","7","7","Female","","","","","","","null","<div style=""font-size:60px;"">+</div>","null","fixation","","","","","","","","","13","","",""
"revaluation","139","781902","0.0-4.0-2.0-0.7","spark_pilot_norest","11451","7","7","Female","","false","","","","","[676.3000000000466,365.5]","./assets/img/canyon/memory/21.jpg","[""ArrowDown"",""ArrowLeft""]","value training","canyon","8","{""ArrowUp,ArrowLeft"":23,""ArrowUp,ArrowRight"":10,""ArrowDown,ArrowLeft"":8,""ArrowDown,ArrowRight"":30}","false","ArrowDown,ArrowLeft","false","original","1","14","","",""
"html-keyboard-response","140","782405","0.0-4.0-2.0-1.7","spark_pilot_norest","11451","7","7","Female","","","","","","","null","<div style=""font-size:60px;"">+</div>","null","fixation","","","","","","","","","15","","",""
"revaluation","141","788430","0.0-4.0-2.0-0.8","spark_pilot_norest","11451","7","7","Female","","false","","","","","[409.20000000006985,283.29999999993015]","./assets/img/canyon/memory/27.jpg","[""ArrowDown"",""ArrowLeft""]","value training","canyon","8","{""ArrowUp,ArrowLeft"":23,""ArrowUp,ArrowRight"":10,""ArrowDown,ArrowLeft"":8,""ArrowDown,ArrowRight"":30}","false","ArrowDown,ArrowLeft","false","original","1","16","","",""
"html-keyboard-response","142","788933","0.0-4.0-2.0-1.8","spark_pilot_norest","11451","7","7","Female","","","","","","","null","<div style=""font-size:60px;"">+</div>","null","fixation","","","","","","","","","17","","",""
"revaluation","143","794958","0.0-4.0-2.0-0.9","spark_pilot_norest","11451","7","7","Female","","false","","","","","[317.79999999993015,268.19999999995343]","./assets/img/canyon/memory/14.jpg","[""ArrowDown"",""ArrowRight""]","value training","canyon","30","{""ArrowUp,ArrowLeft"":23,""ArrowUp,ArrowRight"":10,""ArrowDown,ArrowLeft"":8,""ArrowDown,ArrowRight"":30}","true","ArrowDown,ArrowRight","false","original","1","18","","",""
"html-keyboard-response","144","795461","0.0-4.0-2.0-1.9","spark_pilot_norest","11451","7","7","Female","","","","","","","null","<div style=""font-size:60px;"">+</div>","null","fixation","","","","","","","","","19","","",""
"revaluation","145","801486","0.0-4.0-2.0-0.10","spark_pilot_norest","11451","7","7","Female","","false","","","","","[477.5,416.5999999999767]","./assets/img/canyon/memory/19.jpg","[""ArrowDown"",""ArrowRight""]","value training","canyon","30","{""ArrowUp,ArrowLeft"":23,""ArrowUp,ArrowRight"":10,""ArrowDown,ArrowLeft"":8,""ArrowDown,ArrowRight"":30}","true","ArrowDown,ArrowRight","false","original","1","20","","",""
"html-keyboard-response","146","801990","0.0-4.0-2.0-1.10","spark_pilot_norest","11451","7","7","Female","","","","","","","null","<div style=""font-size:60px;"">+</div>","null","fixation","","","","","","","","","21","","",""
"revaluation","147","808014","0.0-4.0-2.0-0.11","spark_pilot_norest","11451","7","7","Female","","false","","","","","[274,456.79999999993015]","./assets/img/canyon/memory/8.jpg","[""ArrowDown"",""ArrowRight""]","value training","canyon","30","{""ArrowUp,ArrowLeft"":23,""ArrowUp,ArrowRight"":10,""ArrowDown,ArrowLeft"":8,""ArrowDown,ArrowRight"":30}","true","ArrowDown,ArrowRight","false","original","1","22","","",""
"html-keyboard-response","148","808517","0.0-4.0-2.0-1.11","spark_pilot_norest","11451","7","7","Female","","","","","","","null","<div style=""font-size:60px;"">+</div>","null","fixation","","","","","","","","","23","","",""
"revaluation","149","812534","0.0-4.0-2.0-0.12","spark_pilot_norest","11451","7","7","Female","","false","","","","","[589]","./assets/img/canyon/catch/0.jpg","[""ArrowDown""]","value training","canyon","-10","{""ArrowUp,ArrowLeft"":23,""ArrowUp,ArrowRight"":10,""ArrowDown,ArrowLeft"":8,""ArrowDown,ArrowRight"":30}","false","ArrowDown","true","original","1","24","","",""
"html-keyboard-response","150","813037","0.0-4.0-2.0-1.12","spark_pilot_norest","11451","7","7","Female","","","","","","","null","<div style=""font-size:60px;"">+</div>","null","fixation","","","","","","","","","25","","",""
"revaluation","151","819062","0.0-4.0-2.0-0.13","spark_pilot_norest","11451","7","7","Female","","false","","","","","[525.1999999999534,485.79999999993015]","./assets/img/canyon/memory/13.jpg","[""ArrowDown"",""ArrowRight""]","value training","canyon","30","{""ArrowUp,ArrowLeft"":23,""ArrowUp,ArrowRight"":10,""ArrowDown,ArrowLeft"":8,""ArrowDown,ArrowRight"":30}","true","ArrowDown,ArrowRight","false","original","1","26","","",""
"html-keyboard-response","152","819565","0.0-4.0-2.0-1.13","spark_pilot_norest","11451","7","7","Female","","","","","","","null","<div style=""font-size:60px;"">+</div>","null","fixation","","","","","","","","","27","","",""
"revaluation","153","825590","0.0-4.0-2.0-0.14","spark_pilot_norest","11451","7","7","Female","","false","","","","","[487.80000000004657,373.19999999995343]","./assets/img/canyon/memory/38.jpg","[""ArrowDown"",""ArrowRight""]","value training","canyon","30","{""ArrowUp,ArrowLeft"":23,""ArrowUp,ArrowRight"":10,""ArrowDown,ArrowLeft"":8,""ArrowDown,ArrowRight"":30}","true","ArrowDown,ArrowRight","false","original","1","28","","",""
"html-keyboard-response","154","826093","0.0-4.0-2.0-1.14","spark_pilot_norest","11451","7","7","Female","","","","","","","null","<div style=""font-size:60px;"">+</div>","null","fixation","","","","","","","","","29","","",""
"revaluation","155","830110","0.0-4.0-2.0-0.15","spark_pilot_norest","11451","7","7","Female","","false","","","","","[466]","./assets/img/canyon/catch/2.jpg","[""ArrowDown""]","value training","canyon","-10","{""ArrowUp,ArrowLeft"":23,""ArrowUp,ArrowRight"":10,""ArrowDown,ArrowLeft"":8,""ArrowDown,ArrowRight"":30}","false","ArrowDown","true","original","1","30","","",""
"html-keyboard-response","156","830613","0.0-4.0-2.0-1.15","spark_pilot_norest","11451","7","7","Female","","","","","","","null","<div style=""font-size:60px;"">+</div>","null","fixation","","","","","","","","","31","","",""
"revaluation","157","836638","0.0-4.0-2.0-0.16","spark_pilot_norest","11451","7","7","Female","","false","","","","","[474.5,498.4000000000233]","./assets/img/canyon/memory/17.jpg","[""ArrowDown"",""ArrowRight""]","value training","canyon","30","{""ArrowUp,ArrowLeft"":23,""ArrowUp,ArrowRight"":10,""ArrowDown,ArrowLeft"":8,""ArrowDown,ArrowRight"":30}","true","ArrowDown,ArrowRight","false","original","1","32","","",""
"html-keyboard-response","158","837141","0.0-4.0-2.0-1.16","spark_pilot_norest","11451","7","7","Female","","","","","","","null","<div style=""font-size:60px;"">+</div>","null","fixation","","","","","","","","","33","","",""
"revaluation","159","843165","0.0-4.0-2.0-0.17","spark_pilot_norest","11451","7","7","Female","","false","","","","","[1448.7999999999302,81]","./assets/img/canyon/memory/16.jpg","[""ArrowDown"",""ArrowRight""]","value training","canyon","30","{""ArrowUp,ArrowLeft"":23,""ArrowUp,ArrowRight"":10,""ArrowDown,ArrowLeft"":8,""ArrowDown,ArrowRight"":30}","true","ArrowDown,ArrowRight","false","original","1","34","","",""
"html-keyboard-response","160","843669","0.0-4.0-2.0-1.17","spark_pilot_norest","11451","7","7","Female","","","","","","","null","<div style=""font-size:60px;"">+</div>","null","fixation","","","","","","","","","35","","",""
"revaluation","161","849702","0.0-4.0-2.0-0.18","spark_pilot_norest","11451","7","7","Female","","false","","","","","[1284.4000000000233,452]","./assets/img/canyon/memory/11.jpg","[""ArrowDown"",""ArrowRight""]","value training","canyon","30","{""ArrowUp,ArrowLeft"":23,""ArrowUp,ArrowRight"":10,""ArrowDown,ArrowLeft"":8,""ArrowDown,ArrowRight"":30}","true","ArrowDown,ArrowRight","false","original","1","36","","",""
"html-keyboard-response","162","850205","0.0-4.0-2.0-1.18","spark_pilot_norest","11451","7","7","Female","","","","","","","null","<div style=""font-size:60px;"">+</div>","null","fixation","","","","","","","","","37","","",""
"revaluation","163","856230","0.0-4.0-2.0-0.19","spark_pilot_norest","11451","7","7","Female","","false","","","","","[1500.3999999999069,583.1999999999534]","./assets/img/canyon/memory/34.jpg","[""ArrowDown"",""ArrowRight""]","value training","canyon","30","{""ArrowUp,ArrowLeft"":23,""ArrowUp,ArrowRight"":10,""ArrowDown,ArrowLeft"":8,""ArrowDown,ArrowRight"":30}","true","ArrowDown,ArrowRight","false","original","1","38","","",""
"html-keyboard-response","164","856733","0.0-4.0-2.0-1.19","spark_pilot_norest","11451","7","7","Female","","","","","","","null","<div style=""font-size:60px;"">+</div>","null","fixation","","","","","","","","","39","","",""
"revaluation","165","862758","0.0-4.0-2.0-0.20","spark_pilot_norest","11451","7","7","Female","","false","","","","","[882.9000000000233,449.69999999995343]","./assets/img/canyon/memory/1.jpg","[""ArrowDown"",""ArrowRight""]","value training","canyon","30","{""ArrowUp,ArrowLeft"":23,""ArrowUp,ArrowRight"":10,""ArrowDown,ArrowLeft"":8,""ArrowDown,ArrowRight"":30}","true","ArrowDown,ArrowRight","false","original","1","40","","",""
"html-keyboard-response","166","863261","0.0-4.0-2.0-1.20","spark_pilot_norest","11451","7","7","Female","","","","","","","null","<div style=""font-size:60px;"">+</div>","null","fixation","","","","","","","","","41","","",""
"revaluation","167","869286","0.0-4.0-2.0-0.21","spark_pilot_norest","11451","7","7","Female","","false","","","","","[814.1999999999534,466.19999999995343]","./assets/img/canyon/memory/17.jpg","[""ArrowDown"",""ArrowRight""]","value training","canyon","30","{""ArrowUp,ArrowLeft"":23,""ArrowUp,ArrowRight"":10,""ArrowDown,ArrowLeft"":8,""ArrowDown,ArrowRight"":30}","true","ArrowDown,ArrowRight","false","original","1","42","","",""
"html-keyboard-response","168","869789","0.0-4.0-2.0-1.21","spark_pilot_norest","11451","7","7","Female","","","","","","","null","<div style=""font-size:60px;"">+</div>","null","fixation","","","","","","","","","43","","",""
"revaluation","169","875814","0.0-4.0-2.0-0.22","spark_pilot_norest","11451","7","7","Female","","false","","","","","[605.3999999999069,357]","./assets/img/canyon/memory/32.jpg","[""ArrowDown"",""ArrowRight""]","value training","canyon","30","{""ArrowUp,ArrowLeft"":23,""ArrowUp,ArrowRight"":10,""ArrowDown,ArrowLeft"":8,""ArrowDown,ArrowRight"":30}","true","ArrowDown,ArrowRight","false","original","1","44","","",""
"html-keyboard-response","170","876317","0.0-4.0-2.0-1.22","spark_pilot_norest","11451","7","7","Female","","","","","","","null","<div style=""font-size:60px;"">+</div>","null","fixation","","","","","","","","","45","","",""
"revaluation","171","880334","0.0-4.0-2.0-0.23","spark_pilot_norest","11451","7","7","Female","","false","","","","","[789.3000000000466]","./assets/img/canyon/catch/3.jpg","[""spaceBar""]","value training","canyon","0","{""ArrowUp,ArrowLeft"":23,""ArrowUp,ArrowRight"":10,""ArrowDown,ArrowLeft"":8,""ArrowDown,ArrowRight"":30}","true","spaceBar","true","original","1","46","","",""
"html-keyboard-response","172","880837","0.0-4.0-2.0-1.23","spark_pilot_norest","11451","7","7","Female","","","","","","","null","<div style=""font-size:60px;"">+</div>","null","fixation","","","","","","","","","47","","",""
"revaluation","173","886863","0.0-4.0-2.0-0.24","spark_pilot_norest","11451","7","7","Female","","false","","","","","[1161.3999999999069,407.19999999995343]","./assets/img/canyon/memory/36.jpg","[""ArrowDown"",""ArrowRight""]","value training","canyon","30","{""ArrowUp,ArrowLeft"":23,""ArrowUp,ArrowRight"":10,""ArrowDown,ArrowLeft"":8,""ArrowDown,ArrowRight"":30}","true","ArrowDown,ArrowRight","false","original","1","48","","",""
"html-keyboard-response","174","887365","0.0-4.0-2.0-1.24","spark_pilot_norest","11451","7","7","Female","","","","","","","null","<div style=""font-size:60px;"">+</div>","null","fixation","","","","","","","","","49","","",""
"revaluation","175","893390","0.0-4.0-2.0-0.25","spark_pilot_norest","11451","7","7","Female","","false","","","","","[988.1000000000931,490.69999999995343]","./assets/img/canyon/memory/16.jpg","[""ArrowDown"",""ArrowRight""]","value training","canyon","30","{""ArrowUp,ArrowLeft"":23,""ArrowUp,ArrowRight"":10,""ArrowDown,ArrowLeft"":8,""ArrowDown,ArrowRight"":30}","true","ArrowDown,ArrowRight","false","original","1","50","","",""
"html-keyboard-response","176","893893","0.0-4.0-2.0-1.25","spark_pilot_norest","11451","7","7","Female","","","","","","","null","<div style=""font-size:60px;"">+</div>","null","fixation","","","","","","","","","51","","",""
"revaluation","177","897909","0.0-4.0-2.0-0.26","spark_pilot_norest","11451","7","7","Female","","false","","","","","[791]","./assets/img/canyon/catch/6.jpg","[""spaceBar""]","value training","canyon","0","{""ArrowUp,ArrowLeft"":23,""ArrowUp,ArrowRight"":10,""ArrowDown,ArrowLeft"":8,""ArrowDown,ArrowRight"":30}","true","spaceBar","true","original","1","52","","",""
"html-keyboard-response","178","898413","0.0-4.0-2.0-1.26","spark_pilot_norest","11451","7","7","Female","","","","","","","null","<div style=""font-size:60px;"">+</div>","null","fixation","","","","","","","","","53","","",""
"revaluation","179","904438","0.0-4.0-2.0-0.27","spark_pilot_norest","11451","7","7","Female","","false","","","","","[468.9000000001397,362.4000000001397]","./assets/img/canyon/memory/38.jpg","[""ArrowDown"",""ArrowRight""]","value training","canyon","30","{""ArrowUp,ArrowLeft"":23,""ArrowUp,ArrowRight"":10,""ArrowDown,ArrowLeft"":8,""ArrowDown,ArrowRight"":30}","true","ArrowDown,ArrowRight","false","original","1","54","","",""
"html-keyboard-response","180","904941","0.0-4.0-2.0-1.27","spark_pilot_norest","11451","7","7","Female","","","","","","","null","<div style=""font-size:60px;"">+</div>","null","fixation","","","","","","","","","55","","",""
"revaluation","181","910966","0.0-4.0-2.0-0.28","spark_pilot_norest","11451","7","7","Female","","false","","","","","[657.6999999999534,640.6999999999534]","./assets/img/canyon/memory/2.jpg","[""ArrowDown"",""ArrowRight""]","value training","canyon","30","{""ArrowUp,ArrowLeft"":23,""ArrowUp,ArrowRight"":10,""ArrowDown,ArrowLeft"":8,""ArrowDown,ArrowRight"":30}","true","ArrowDown,ArrowRight","false","original","1","56","","",""
"html-keyboard-response","182","911469","0.0-4.0-2.0-1.28","spark_pilot_norest","11451","7","7","Female","","","","","","","null","<div style=""font-size:60px;"">+</div>","null","fixation","","","","","","","","","57","","",""
"revaluation","183","917494","0.0-4.0-2.0-0.29","spark_pilot_norest","11451","7","7","Female","","false","","","","","[607,361.19999999995343]","./assets/img/canyon/memory/27.jpg","[""ArrowDown"",""ArrowRight""]","value training","canyon","30","{""ArrowUp,ArrowLeft"":23,""ArrowUp,ArrowRight"":10,""ArrowDown,ArrowLeft"":8,""ArrowDown,ArrowRight"":30}","true","ArrowDown,ArrowRight","false","original","1","58","","",""
"html-keyboard-response","184","917997","0.0-4.0-2.0-1.29","spark_pilot_norest","11451","7","7","Female","","","","","","","null","<div style=""font-size:60px;"">+</div>","null","fixation","","","","","","","","","59","","",""
"revaluation","185","924022","0.0-4.0-2.0-0.30","spark_pilot_norest","11451","7","7","Female","","false","","","","","[667.8000000000466,481.5]","./assets/img/canyon/memory/34.jpg","[""ArrowDown"",""ArrowRight""]","value training","canyon","30","{""ArrowUp,ArrowLeft"":23,""ArrowUp,ArrowRight"":10,""ArrowDown,ArrowLeft"":8,""ArrowDown,ArrowRight"":30}","true","ArrowDown,ArrowRight","false","original","1","60","","",""
"html-keyboard-response","186","924525","0.0-4.0-2.0-1.30","spark_pilot_norest","11451","7","7","Female","","","","","","","null","<div style=""font-size:60px;"">+</div>","null","fixation","","","","","","","","","61","","",""
"revaluation","187","928542","0.0-4.0-2.0-0.31","spark_pilot_norest","11451","7","7","Female","","false","","","","","[1277.0999999998603]","./assets/img/canyon/catch/1.jpg","[""spaceBar""]","value training","canyon","0","{""ArrowUp,ArrowLeft"":23,""ArrowUp,ArrowRight"":10,""ArrowDown,ArrowLeft"":8,""ArrowDown,ArrowRight"":30}","true","spaceBar","true","original","1","62","","",""
"html-keyboard-response","188","929045","0.0-4.0-2.0-1.31","spark_pilot_norest","11451","7","7","Female","","","","","","","null","<div style=""font-size:60px;"">+</div>","null","fixation","","","","","","","","","63","","",""
"revaluation","189","935069","0.0-4.0-2.0-0.32","spark_pilot_norest","11451","7","7","Female","","false","","","","","[1159.1999999999534,407.80000000004657]","./assets/img/canyon/memory/8.jpg","[""ArrowDown"",""ArrowRight""]","value training","canyon","30","{""ArrowUp,ArrowLeft"":23,""ArrowUp,ArrowRight"":10,""ArrowDown,ArrowLeft"":8,""ArrowDown,ArrowRight"":30}","true","ArrowDown,ArrowRight","false","original","1","64","","",""
"html-keyboard-response","190","935573","0.0-4.0-2.0-1.32","spark_pilot_norest","11451","7","7","Female","","","","","","","null","<div style=""font-size:60px;"">+</div>","null","fixation","","","","","","","","","65","","",""
"revaluation","191","941598","0.0-4.0-2.0-0.33","spark_pilot_norest","11451","7","7","Female","","false","","","","","[795.8999999999069,406.80000000004657]","./assets/img/canyon/memory/15.jpg","[""ArrowDown"",""ArrowRight""]","value training","canyon","30","{""ArrowUp,ArrowLeft"":23,""ArrowUp,ArrowRight"":10,""ArrowDown,ArrowLeft"":8,""ArrowDown,ArrowRight"":30}","true","ArrowDown,ArrowRight","false","original","1","66","","",""
"html-keyboard-response","192","942101","0.0-4.0-2.0-1.33","spark_pilot_norest","11451","7","7","Female","","","","","","","null","<div style=""font-size:60px;"">+</div>","null","fixation","","","","","","","","","67","","",""
"revaluation","193","948126","0.0-4.0-2.0-0.34","spark_pilot_norest","11451","7","7","Female","","false","","","","","[1043.5,346.79999999981374]","./assets/img/canyon/memory/21.jpg","[""ArrowDown"",""ArrowRight""]","value training","canyon","30","{""ArrowUp,ArrowLeft"":23,""ArrowUp,ArrowRight"":10,""ArrowDown,ArrowLeft"":8,""ArrowDown,ArrowRight"":30}","true","ArrowDown,ArrowRight","false","original","1","68","","",""
"html-keyboard-response","194","948629","0.0-4.0-2.0-1.34","spark_pilot_norest","11451","7","7","Female","","","","","","","null","<div style=""font-size:60px;"">+</div>","null","fixation","","","","","","","","","69","","",""
"revaluation","195","954654","0.0-4.0-2.0-0.35","spark_pilot_norest","11451","7","7","Female","","false","","","","","[820.2000000001863,536.5]","./assets/img/canyon/memory/1.jpg","[""ArrowDown"",""ArrowRight""]","value training","canyon","30","{""ArrowUp,ArrowLeft"":23,""ArrowUp,ArrowRight"":10,""ArrowDown,ArrowLeft"":8,""ArrowDown,ArrowRight"":30}","true","ArrowDown,ArrowRight","false","original","1","70","","",""
"html-keyboard-response","196","955157","0.0-4.0-2.0-1.35","spark_pilot_norest","11451","7","7","Female","","","","","","","null","<div style=""font-size:60px;"">+</div>","null","fixation","","","","","","","","","71","","",""
"revaluation","197","961181","0.0-4.0-2.0-0.36","spark_pilot_norest","11451","7","7","Female","","false","","","","","[820,285.5999999998603]","./assets/img/canyon/memory/41.jpg","[""ArrowDown"",""ArrowRight""]","value training","canyon","30","{""ArrowUp,ArrowLeft"":23,""ArrowUp,ArrowRight"":10,""ArrowDown,ArrowLeft"":8,""ArrowDown,ArrowRight"":30}","true","ArrowDown,ArrowRight","false","original","1","72","","",""
"html-keyboard-response","198","961685","0.0-4.0-2.0-1.36","spark_pilot_norest","11451","7","7","Female","","","","","","","null","<div style=""font-size:60px;"">+</div>","null","fixation","","","","","","","","","73","","",""
"revaluation","199","967709","0.0-4.0-2.0-0.37","spark_pilot_norest","11451","7","7","Female","","false","","","","","[457.80000000004657,533.6000000000931]","./assets/img/canyon/memory/11.jpg","[""ArrowDown"",""ArrowRight""]","value training","canyon","30","{""ArrowUp,ArrowLeft"":23,""ArrowUp,ArrowRight"":10,""ArrowDown,ArrowLeft"":8,""ArrowDown,ArrowRight"":30}","true","ArrowDown,ArrowRight","false","original","1","74","","",""
"html-keyboard-response","200","968213","0.0-4.0-2.0-1.37","spark_pilot_norest","11451","7","7","Female","","","","","","","null","<div style=""font-size:60px;"">+</div>","null","fixation","","","","","","","","","75","","",""
"revaluation","201","974238","0.0-4.0-2.0-0.38","spark_pilot_norest","11451","7","7","Female","","false","","","","","[519,258.60000000009313]","./assets/img/canyon/memory/41.jpg","[""ArrowDown"",""ArrowRight""]","value training","canyon","30","{""ArrowUp,ArrowLeft"":23,""ArrowUp,ArrowRight"":10,""ArrowDown,ArrowLeft"":8,""ArrowDown,ArrowRight"":30}","true","ArrowDown,ArrowRight","false","original","1","76","","",""
"html-keyboard-response","202","974741","0.0-4.0-2.0-1.38","spark_pilot_norest","11451","7","7","Female","","","","","","","null","<div style=""font-size:60px;"">+</div>","null","fixation","","","","","","","","","77","","",""
"revaluation","203","978757","0.0-4.0-2.0-0.39","spark_pilot_norest","11451","7","7","Female","","false","","","","","[735]","./assets/img/canyon/catch/4.jpg","[""spaceBar""]","value training","canyon","0","{""ArrowUp,ArrowLeft"":23,""ArrowUp,ArrowRight"":10,""ArrowDown,ArrowLeft"":8,""ArrowDown,ArrowRight"":30}","true","spaceBar","true","original","1","78","","",""
"html-keyboard-response","204","979261","0.0-4.0-2.0-1.39","spark_pilot_norest","11451","7","7","Female","","","","","","","null","<div style=""font-size:60px;"">+</div>","null","fixation","","","","","","","","","79","","",""
"revaluation","205","985286","0.0-4.0-2.0-0.40","spark_pilot_norest","11451","7","7","Female","","false","","","","","[785.3000000000466,451.39999999990687]","./assets/img/canyon/memory/14.jpg","[""ArrowDown"",""ArrowRight""]","value training","canyon","30","{""ArrowUp,ArrowLeft"":23,""ArrowUp,ArrowRight"":10,""ArrowDown,ArrowLeft"":8,""ArrowDown,ArrowRight"":30}","true","ArrowDown,ArrowRight","false","original","1","80","","",""
"html-keyboard-response","206","985789","0.0-4.0-2.0-1.40","spark_pilot_norest","11451","7","7","Female","","","","","","","null","<div style=""font-size:60px;"">+</div>","null","fixation","","","","","","","","","81","","",""
"revaluation","207","989806","0.0-4.0-2.0-0.41","spark_pilot_norest","11451","7","7","Female","","false","","","","","[668]","./assets/img/canyon/catch/7.jpg","[""spaceBar""]","value training","canyon","0","{""ArrowUp,ArrowLeft"":23,""ArrowUp,ArrowRight"":10,""ArrowDown,ArrowLeft"":8,""ArrowDown,ArrowRight"":30}","true","spaceBar","true","original","1","82","","",""
"html-keyboard-response","208","990309","0.0-4.0-2.0-1.41","spark_pilot_norest","11451","7","7","Female","","","","","","","null","<div style=""font-size:60px;"">+</div>","null","fixation","","","","","","","","","83","","",""
"revaluation","209","996334","0.0-4.0-2.0-0.42","spark_pilot_norest","11451","7","7","Female","","false","","","","","[635.5,291.39999999990687]","./assets/img/canyon/memory/28.jpg","[""ArrowDown"",""ArrowRight""]","value training","canyon","30","{""ArrowUp,ArrowLeft"":23,""ArrowUp,ArrowRight"":10,""ArrowDown,ArrowLeft"":8,""ArrowDown,ArrowRight"":30}","true","ArrowDown,ArrowRight","false","original","1","84","","",""
"html-keyboard-response","210","996837","0.0-4.0-2.0-1.42","spark_pilot_norest","11451","7","7","Female","","","","","","","null","<div style=""font-size:60px;"">+</div>","null","fixation","","","","","","","","","85","","",""
"revaluation","211","1000854","0.0-4.0-2.0-0.43","spark_pilot_norest","11451","7","7","Female","","false","","","","","[716.6000000000931]","./assets/img/canyon/catch/5.jpg","[""spaceBar""]","value training","canyon","0","{""ArrowUp,ArrowLeft"":23,""ArrowUp,ArrowRight"":10,""ArrowDown,ArrowLeft"":8,""ArrowDown,ArrowRight"":30}","true","spaceBar","true","original","1","86","","",""
"html-keyboard-response","212","1001357","0.0-4.0-2.0-1.43","spark_pilot_norest","11451","7","7","Female","","","","","","","null","<div style=""font-size:60px;"">+</div>","null","fixation","","","","","","","","","87","","",""
"revaluation","213","1007382","0.0-4.0-2.0-0.44","spark_pilot_norest","11451","7","7","Female","","false","","","","","[494.80000000004657,426.20000000018626]","./assets/img/canyon/memory/13.jpg","[""ArrowDown"",""ArrowRight""]","value training","canyon","30","{""ArrowUp,ArrowLeft"":23,""ArrowUp,ArrowRight"":10,""ArrowDown,ArrowLeft"":8,""ArrowDown,ArrowRight"":30}","true","ArrowDown,ArrowRight","false","original","1","88","","",""
"html-keyboard-response","214","1007885","0.0-4.0-2.0-1.44","spark_pilot_norest","11451","7","7","Female","","","","","","","null","<div style=""font-size:60px;"">+</div>","null","fixation","","","","","","","","","89","","",""
"revaluation","215","1013910","0.0-4.0-2.0-0.45","spark_pilot_norest","11451","7","7","Female","","false","","","","","[826.6999999999534,629.0999999998603]","./assets/img/canyon/memory/5.jpg","[""ArrowDown"",""ArrowRight""]","value training","canyon","30","{""ArrowUp,ArrowLeft"":23,""ArrowUp,ArrowRight"":10,""ArrowDown,ArrowLeft"":8,""ArrowDown,ArrowRight"":30}","true","ArrowDown,ArrowRight","false","original","1","90","","",""
"html-keyboard-response","216","1014413","0.0-4.0-2.0-1.45","spark_pilot_norest","11451","7","7","Female","","","","","","","null","<div style=""font-size:60px;"">+</div>","null","fixation","","","","","","","","","91","","",""
"revaluation","217","1020438","0.0-4.0-2.0-0.46","spark_pilot_norest","11451","7","7","Female","","false","","","","","[651.3000000000466,347.39999999990687]","./assets/img/canyon/memory/19.jpg","[""ArrowDown"",""ArrowRight""]","value training","canyon","30","{""ArrowUp,ArrowLeft"":23,""ArrowUp,ArrowRight"":10,""ArrowDown,ArrowLeft"":8,""ArrowDown,ArrowRight"":30}","true","ArrowDown,ArrowRight","false","original","1","92","","",""
"html-keyboard-response","218","1020941","0.0-4.0-2.0-1.46","spark_pilot_norest","11451","7","7","Female","","","","","","","null","<div style=""font-size:60px;"">+</div>","null","fixation","","","","","","","","","93","","",""
"revaluation","219","1026966","0.0-4.0-2.0-0.47","spark_pilot_norest","11451","7","7","Female","","false","","","","","[509.69999999995343,336.19999999995343]","./assets/img/canyon/memory/7.jpg","[""ArrowDown"",""ArrowRight""]","value training","canyon","30","{""ArrowUp,ArrowLeft"":23,""ArrowUp,ArrowRight"":10,""ArrowDown,ArrowLeft"":8,""ArrowDown,ArrowRight"":30}","true","ArrowDown,ArrowRight","false","original","1","94","","",""
"html-keyboard-response","220","1027469","0.0-4.0-2.0-1.47","spark_pilot_norest","11451","7","7","Female","","","","","","","null","<div style=""font-size:60px;"">+</div>","null","fixation","","","","","","","","","95","","",""
"revaluation","221","1033494","0.0-4.0-2.0-0.48","spark_pilot_norest","11451","7","7","Female","","false","","","","","[513,264.5]","./assets/img/canyon/memory/7.jpg","[""ArrowDown"",""ArrowRight""]","value training","canyon","30","{""ArrowUp,ArrowLeft"":23,""ArrowUp,ArrowRight"":10,""ArrowDown,ArrowLeft"":8,""ArrowDown,ArrowRight"":30}","true","ArrowDown,ArrowRight","false","original","1","96","","",""
"html-keyboard-response","222","1033998","0.0-4.0-2.0-1.48","spark_pilot_norest","11451","7","7","Female","","","","","","","null","<div style=""font-size:60px;"">+</div>","null","fixation","","","","","","","","","97","","",""
"revaluation","223","1040022","0.0-4.0-2.0-0.49","spark_pilot_norest","11451","7","7","Female","","false","","","","","[732.9000000001397,282]","./assets/img/canyon/memory/36.jpg","[""ArrowDown"",""ArrowRight""]","value training","canyon","30","{""ArrowUp,ArrowLeft"":23,""ArrowUp,ArrowRight"":10,""ArrowDown,ArrowLeft"":8,""ArrowDown,ArrowRight"":30}","true","ArrowDown,ArrowRight","false","original","1","98","","",""
"html-keyboard-response","224","1040525","0.0-4.0-2.0-1.49","spark_pilot_norest","11451","7","7","Female","","","","","","","null","<div style=""font-size:60px;"">+</div>","null","fixation","","","","","","","","","99","","",""
"learning-instructions","225","1057054","0.0-4.0-3.0-0.0","spark_pilot_norest","11451","7","7","Female","","","","","","","3558.3000000000466","<p> Now, you will travel with a friend who will choose whether you go up or down first. </p>
            <p> On these turns, you will just see the animal that they found. You will still get to choose which chest to search for treasure.</p>","","instructions","","","","","","","","","","","",""
"revaluation","226","1061070","0.0-4.0-4.0-0.0","spark_pilot_norest","11451","7","7","Female","","false","","","","","[1355.1999999999534]","./assets/img/canyon/animals/lion.jpg","[""ArrowLeft""]","revaluation","canyon","23","{""ArrowUp,ArrowLeft"":23,""ArrowUp,ArrowRight"":10,""ArrowDown,ArrowLeft"":8,""ArrowDown,ArrowRight"":30}","true","ArrowUp,ArrowLeft","","original","1","0","","",""
"html-keyboard-response","227","1061581","0.0-4.0-4.0-1.0","spark_pilot_norest","11451","7","7","Female","","","","","","","null","<div style=""font-size:60px;"">+</div>","null","fixation","","","","","","","","","1","","",""
"revaluation","228","1065598","0.0-4.0-4.0-0.1","spark_pilot_norest","11451","7","7","Female","","false","","","","","[756.7999999998137]","./assets/img/canyon/animals/giraffe.jpg","[""ArrowRight""]","revaluation","canyon","30","{""ArrowUp,ArrowLeft"":23,""ArrowUp,ArrowRight"":10,""ArrowDown,ArrowLeft"":8,""ArrowDown,ArrowRight"":30}","true","ArrowDown,ArrowRight","","original","1","2","","",""
"html-keyboard-response","229","1066101","0.0-4.0-4.0-1.1","spark_pilot_norest","11451","7","7","Female","","","","","","","null","<div style=""font-size:60px;"">+</div>","null","fixation","","","","","","","","","3","","",""
"revaluation","230","1070118","0.0-4.0-4.0-0.2","spark_pilot_norest","11451","7","7","Female","","false","","","","","[538.5999999998603]","./assets/img/canyon/animals/giraffe.jpg","[""ArrowLeft""]","revaluation","canyon","8","{""ArrowUp,ArrowLeft"":23,""ArrowUp,ArrowRight"":10,""ArrowDown,ArrowLeft"":8,""ArrowDown,ArrowRight"":30}","false","ArrowDown,ArrowLeft","","original","1","4","","",""
"html-keyboard-response","231","1070621","0.0-4.0-4.0-1.2","spark_pilot_norest","11451","7","7","Female","","","","","","","null","<div style=""font-size:60px;"">+</div>","null","fixation","","","","","","","","","5","","",""
"revaluation","232","1074638","0.0-4.0-4.0-0.3","spark_pilot_norest","11451","7","7","Female","","false","","","","","[328.19999999995343]","./assets/img/canyon/animals/giraffe.jpg","[""ArrowRight""]","revaluation","canyon","30","{""ArrowUp,ArrowLeft"":23,""ArrowUp,ArrowRight"":10,""ArrowDown,ArrowLeft"":8,""ArrowDown,ArrowRight"":30}","true","ArrowDown,ArrowRight","","original","1","6","","",""
"html-keyboard-response","233","1075141","0.0-4.0-4.0-1.3","spark_pilot_norest","11451","7","7","Female","","","","","","","null","<div style=""font-size:60px;"">+</div>","null","fixation","","","","","","","","","7","","",""
"revaluation","234","1079157","0.0-4.0-4.0-0.4","spark_pilot_norest","11451","7","7","Female","","false","","","","","[438]","./assets/img/canyon/animals/lion.jpg","[""ArrowRight""]","revaluation","canyon","10","{""ArrowUp,ArrowLeft"":23,""ArrowUp,ArrowRight"":10,""ArrowDown,ArrowLeft"":8,""ArrowDown,ArrowRight"":30}","false","ArrowUp,ArrowRight","","original","1","8","","",""
"html-keyboard-response","235","1079661","0.0-4.0-4.0-1.4","spark_pilot_norest","11451","7","7","Female","","","","","","","null","<div style=""font-size:60px;"">+</div>","null","fixation","","","","","","","","","9","","",""
"revaluation","236","1083678","0.0-4.0-4.0-0.5","spark_pilot_norest","11451","7","7","Female","","false","","","","","[544.1999999999534]","./assets/img/canyon/animals/lion.jpg","[""ArrowLeft""]","revaluation","canyon","23","{""ArrowUp,ArrowLeft"":23,""ArrowUp,ArrowRight"":10,""ArrowDown,ArrowLeft"":8,""ArrowDown,ArrowRight"":30}","true","ArrowUp,ArrowLeft","","original","1","10","","",""
"html-keyboard-response","237","1084181","0.0-4.0-4.0-1.5","spark_pilot_norest","11451","7","7","Female","","","","","","","null","<div style=""font-size:60px;"">+</div>","null","fixation","","","","","","","","","11","","",""
"revaluation","238","1088198","0.0-4.0-4.0-0.6","spark_pilot_norest","11451","7","7","Female","","false","","","","","[404.30000000004657]","./assets/img/canyon/animals/lion.jpg","[""ArrowLeft""]","revaluation","canyon","23","{""ArrowUp,ArrowLeft"":23,""ArrowUp,ArrowRight"":10,""ArrowDown,ArrowLeft"":8,""ArrowDown,ArrowRight"":30}","true","ArrowUp,ArrowLeft","","original","1","12","","",""
"html-keyboard-response","239","1088701","0.0-4.0-4.0-1.6","spark_pilot_norest","11451","7","7","Female","","","","","","","null","<div style=""font-size:60px;"">+</div>","null","fixation","","","","","","","","","13","","",""
"revaluation","240","1092718","0.0-4.0-4.0-0.7","spark_pilot_norest","11451","7","7","Female","","false","","","","","[660.6000000000931]","./assets/img/canyon/animals/lion.jpg","[""ArrowLeft""]","revaluation","canyon","23","{""ArrowUp,ArrowLeft"":23,""ArrowUp,ArrowRight"":10,""ArrowDown,ArrowLeft"":8,""ArrowDown,ArrowRight"":30}","true","ArrowUp,ArrowLeft","","original","1","14","","",""
"html-keyboard-response","241","1093221","0.0-4.0-4.0-1.7","spark_pilot_norest","11451","7","7","Female","","","","","","","null","<div style=""font-size:60px;"">+</div>","null","fixation","","","","","","","","","15","","",""
"revaluation","242","1097238","0.0-4.0-4.0-0.8","spark_pilot_norest","11451","7","7","Female","","false","","","","","[523.8000000000466]","./assets/img/canyon/animals/lion.jpg","[""ArrowLeft""]","revaluation","canyon","23","{""ArrowUp,ArrowLeft"":23,""ArrowUp,ArrowRight"":10,""ArrowDown,ArrowLeft"":8,""ArrowDown,ArrowRight"":30}","true","ArrowUp,ArrowLeft","","original","1","16","","",""
"html-keyboard-response","243","1097741","0.0-4.0-4.0-1.8","spark_pilot_norest","11451","7","7","Female","","","","","","","null","<div style=""font-size:60px;"">+</div>","null","fixation","","","","","","","","","17","","",""
"revaluation","244","1101757","0.0-4.0-4.0-0.9","spark_pilot_norest","11451","7","7","Female","","false","","","","","[524.4000000001397]","./assets/img/canyon/animals/lion.jpg","[""ArrowLeft""]","revaluation","canyon","23","{""ArrowUp,ArrowLeft"":23,""ArrowUp,ArrowRight"":10,""ArrowDown,ArrowLeft"":8,""ArrowDown,ArrowRight"":30}","true","ArrowUp,ArrowLeft","","original","1","18","","",""
"html-keyboard-response","245","1102261","0.0-4.0-4.0-1.9","spark_pilot_norest","11451","7","7","Female","","","","","","","null","<div style=""font-size:60px;"">+</div>","null","fixation","","","","","","","","","19","","",""
"revaluation","246","1106278","0.0-4.0-4.0-0.10","spark_pilot_norest","11451","7","7","Female","","false","","","","","[833]","./assets/img/canyon/animals/giraffe.jpg","[""ArrowLeft""]","revaluation","canyon","8","{""ArrowUp,ArrowLeft"":23,""ArrowUp,ArrowRight"":10,""ArrowDown,ArrowLeft"":8,""ArrowDown,ArrowRight"":30}","false","ArrowDown,ArrowLeft","","original","1","20","","",""
"html-keyboard-response","247","1106781","0.0-4.0-4.0-1.10","spark_pilot_norest","11451","7","7","Female","","","","","","","null","<div style=""font-size:60px;"">+</div>","null","fixation","","","","","","","","","21","","",""
"revaluation","248","1110798","0.0-4.0-4.0-0.11","spark_pilot_norest","11451","7","7","Female","","false","","","","","[358.60000000009313]","./assets/img/canyon/animals/giraffe.jpg","[""ArrowRight""]","revaluation","canyon","30","{""ArrowUp,ArrowLeft"":23,""ArrowUp,ArrowRight"":10,""ArrowDown,ArrowLeft"":8,""ArrowDown,ArrowRight"":30}","true","ArrowDown,ArrowRight","","original","1","22","","",""
"html-keyboard-response","249","1111301","0.0-4.0-4.0-1.11","spark_pilot_norest","11451","7","7","Female","","","","","","","null","<div style=""font-size:60px;"">+</div>","null","fixation","","","","","","","","","23","","",""
"revaluation","250","1115318","0.0-4.0-4.0-0.12","spark_pilot_norest","11451","7","7","Female","","false","","","","","[370.69999999995343]","./assets/img/canyon/animals/lion.jpg","[""ArrowRight""]","revaluation","canyon","10","{""ArrowUp,ArrowLeft"":23,""ArrowUp,ArrowRight"":10,""ArrowDown,ArrowLeft"":8,""ArrowDown,ArrowRight"":30}","false","ArrowUp,ArrowRight","","original","1","24","","",""
"html-keyboard-response","251","1115821","0.0-4.0-4.0-1.12","spark_pilot_norest","11451","7","7","Female","","","","","","","null","<div style=""font-size:60px;"">+</div>","null","fixation","","","","","","","","","25","","",""
"revaluation","252","1119838","0.0-4.0-4.0-0.13","spark_pilot_norest","11451","7","7","Female","","false","","","","","[304.69999999995343]","./assets/img/canyon/animals/giraffe.jpg","[""ArrowLeft""]","revaluation","canyon","8","{""ArrowUp,ArrowLeft"":23,""ArrowUp,ArrowRight"":10,""ArrowDown,ArrowLeft"":8,""ArrowDown,ArrowRight"":30}","false","ArrowDown,ArrowLeft","","original","1","26","","",""
"html-keyboard-response","253","1120341","0.0-4.0-4.0-1.13","spark_pilot_norest","11451","7","7","Female","","","","","","","null","<div style=""font-size:60px;"">+</div>","null","fixation","","","","","","","","","27","","",""
"revaluation","254","1124357","0.0-4.0-4.0-0.14","spark_pilot_norest","11451","7","7","Female","","false","","","","","[390.69999999995343]","./assets/img/canyon/animals/giraffe.jpg","[""ArrowRight""]","revaluation","canyon","30","{""ArrowUp,ArrowLeft"":23,""ArrowUp,ArrowRight"":10,""ArrowDown,ArrowLeft"":8,""ArrowDown,ArrowRight"":30}","true","ArrowDown,ArrowRight","","original","1","28","","",""
"html-keyboard-response","255","1124861","0.0-4.0-4.0-1.14","spark_pilot_norest","11451","7","7","Female","","","","","","","null","<div style=""font-size:60px;"">+</div>","null","fixation","","","","","","","","","29","","",""
"revaluation","256","1128878","0.0-4.0-4.0-0.15","spark_pilot_norest","11451","7","7","Female","","false","","","","","[515.1000000000931]","./assets/img/canyon/animals/giraffe.jpg","[""ArrowRight""]","revaluation","canyon","30","{""ArrowUp,ArrowLeft"":23,""ArrowUp,ArrowRight"":10,""ArrowDown,ArrowLeft"":8,""ArrowDown,ArrowRight"":30}","true","ArrowDown,ArrowRight","","original","1","30","","",""
"html-keyboard-response","257","1129382","0.0-4.0-4.0-1.15","spark_pilot_norest","11451","7","7","Female","","","","","","","null","<div style=""font-size:60px;"">+</div>","null","fixation","","","","","","","","","31","","",""
"revaluation","258","1133398","0.0-4.0-4.0-0.16","spark_pilot_norest","11451","7","7","Female","","false","","","","","[371.0999999998603]","./assets/img/canyon/animals/giraffe.jpg","[""ArrowRight""]","revaluation","canyon","30","{""ArrowUp,ArrowLeft"":23,""ArrowUp,ArrowRight"":10,""ArrowDown,ArrowLeft"":8,""ArrowDown,ArrowRight"":30}","true","ArrowDown,ArrowRight","","original","1","32","","",""
"html-keyboard-response","259","1133901","0.0-4.0-4.0-1.16","spark_pilot_norest","11451","7","7","Female","","","","","","","null","<div style=""font-size:60px;"">+</div>","null","fixation","","","","","","","","","33","","",""
"revaluation","260","1137918","0.0-4.0-4.0-0.17","spark_pilot_norest","11451","7","7","Female","","false","","","","","[296]","./assets/img/canyon/animals/lion.jpg","[""ArrowRight""]","revaluation","canyon","10","{""ArrowUp,ArrowLeft"":23,""ArrowUp,ArrowRight"":10,""ArrowDown,ArrowLeft"":8,""ArrowDown,ArrowRight"":30}","false","ArrowUp,ArrowRight","","original","1","34","","",""
"html-keyboard-response","261","1138421","0.0-4.0-4.0-1.17","spark_pilot_norest","11451","7","7","Female","","","","","","","null","<div style=""font-size:60px;"">+</div>","null","fixation","","","","","","","","","35","","",""
"learning-instructions","262","1146605","0.0-4.0-5.0-0.0","spark_pilot_norest","11451","7","7","Female","","","","","","","null","<p> You have almost finished this part of the game! </p>
            <p> We are going to ask you to make a few more choices. </p>","","instructions","","","","","","","","","","","",""
"learning-instructions","263","1162573","0.0-4.0-5.0-0.1","spark_pilot_norest","11451","7","7","Female","","","","","","","null","<p> First, you need to decide whether to go up or down. When you see each picture, use the arrow keys to make your choice. </p>
            <p><b>You will not see which animal you found, but try to get to the one that will give you the most treasure.</b></p>","","instructions","","","","","","","","","","","",""
"html-keyboard-response","264","1163581","0.0-4.0-6.0-0.0","spark_pilot_norest","11451","7","7","Female","","","","","","","null","<div style=""font-size:100px;color:red;"">Starting in...</div>","null","","","","","","","","","","","","",""
"html-keyboard-response","265","1164589","0.0-4.0-6.0-1.0","spark_pilot_norest","11451","7","7","Female","","","","","","","null","<div style=""font-size:200px;color:red;"">3</div>","null","","","","","","","","","","","","",""
"html-keyboard-response","266","1165597","0.0-4.0-6.0-2.0","spark_pilot_norest","11451","7","7","Female","","","","","","","null","<div style=""font-size:200px;color:red;"">2</div>","null","","","","","","","","","","","","",""
"html-keyboard-response","267","1166605","0.0-4.0-6.0-3.0","spark_pilot_norest","11451","7","7","Female","","","","","","","null","<div style=""font-size:200px;color:red;"">1</div>","null","","","","","","","","","","","","",""
"revaluation","268","1167233","0.0-4.0-7.0-0.0","spark_pilot_norest","11451","7","7","Female","","false","","","","","[625.2999999998137]","./assets/img/canyon/test/1.jpg","[""ArrowUp""]","first stage test","canyon","0","{""ArrowUp,ArrowLeft"":23,""ArrowUp,ArrowRight"":10,""ArrowDown,ArrowLeft"":8,""ArrowDown,ArrowRight"":30}","false","ArrowUp","false","original","1","","","",""
"html-keyboard-response","269","1167741","0.0-4.0-7.0-1.0","spark_pilot_norest","11451","7","7","Female","","","","","","","null","<div style=""font-size:60px;"">+</div>","null","fixation","","","","","","","","","","","",""
"revaluation","270","1168226","0.0-4.0-7.0-0.1","spark_pilot_norest","11451","7","7","Female","","false","","","","","[480.30000000004657]","./assets/img/canyon/test/0.jpg","[""ArrowUp""]","first stage test","canyon","0","{""ArrowUp,ArrowLeft"":23,""ArrowUp,ArrowRight"":10,""ArrowDown,ArrowLeft"":8,""ArrowDown,ArrowRight"":30}","false","ArrowUp","false","original","1","","","",""
"html-keyboard-response","271","1168733","0.0-4.0-7.0-1.1","spark_pilot_norest","11451","7","7","Female","","","","","","","null","<div style=""font-size:60px;"">+</div>","null","fixation","","","","","","","","","","","",""
"revaluation","272","1169331","0.0-4.0-7.0-0.2","spark_pilot_norest","11451","7","7","Female","","false","","","","","[595]","./assets/img/canyon/test/2.jpg","[""ArrowDown""]","first stage test","canyon","0","{""ArrowUp,ArrowLeft"":23,""ArrowUp,ArrowRight"":10,""ArrowDown,ArrowLeft"":8,""ArrowDown,ArrowRight"":30}","true","ArrowDown","false","original","1","","","",""
"html-keyboard-response","273","1169837","0.0-4.0-7.0-1.2","spark_pilot_norest","11451","7","7","Female","","","","","","","null","<div style=""font-size:60px;"">+</div>","null","fixation","","","","","","","","","","","",""
"revaluation","274","1170252","0.0-4.0-7.0-0.3","spark_pilot_norest","11451","7","7","Female","","false","","","","","[409.69999999995343]","./assets/img/canyon/test/3.jpg","[""ArrowUp""]","first stage test","canyon","0","{""ArrowUp,ArrowLeft"":23,""ArrowUp,ArrowRight"":10,""ArrowDown,ArrowLeft"":8,""ArrowDown,ArrowRight"":30}","false","ArrowUp","false","original","1","","","",""
"html-keyboard-response","275","1170758","0.0-4.0-7.0-1.3","spark_pilot_norest","11451","7","7","Female","","","","","","","null","<div style=""font-size:60px;"">+</div>","null","fixation","","","","","","","","","","","",""
"learning-instructions","276","1184110","0.0-4.0-8.0-0.0","spark_pilot_norest","11451","7","7","Female","","","","","","","null","<p> Now you will see the animals again and can search their chests for treasure. </p>
            <p> This time, you will not see how much treasure you earned, but you will earn more bonus money for making better choices. </p>","","instructions","","","","","","","","","","","",""
"html-keyboard-response","277","1185117","0.0-4.0-9.0-0.0","spark_pilot_norest","11451","7","7","Female","","","","","","","null","<div style=""font-size:100px;color:red;"">Starting in...</div>","null","","","","","","","","","","","","",""
"html-keyboard-response","278","1186125","0.0-4.0-9.0-1.0","spark_pilot_norest","11451","7","7","Female","","","","","","","null","<div style=""font-size:200px;color:red;"">3</div>","null","","","","","","","","","","","","",""
"html-keyboard-response","279","1187133","0.0-4.0-9.0-2.0","spark_pilot_norest","11451","7","7","Female","","","","","","","null","<div style=""font-size:200px;color:red;"">2</div>","null","","","","","","","","","","","","",""
"html-keyboard-response","280","1188141","0.0-4.0-9.0-3.0","spark_pilot_norest","11451","7","7","Female","","","","","","","null","<div style=""font-size:200px;color:red;"">1</div>","null","","","","","","","","","","","","",""
"revaluation","281","1188821","0.0-4.0-10.0-0.0","spark_pilot_norest","11451","7","7","Female","","false","","","","","[674.9000000001397]","./assets/img/canyon/animals/lion.jpg","[""ArrowLeft""]","second stage test","canyon","0","{""ArrowUp,ArrowLeft"":23,""ArrowUp,ArrowRight"":10,""ArrowDown,ArrowLeft"":8,""ArrowDown,ArrowRight"":30}","true","ArrowUp,ArrowLeft","","original","1","","","",""
"html-keyboard-response","282","1189326","0.0-4.0-10.0-1.0","spark_pilot_norest","11451","7","7","Female","","","","","","","null","<div style=""font-size:60px;"">+</div>","null","fixation","","","","","","","","","","","",""
"revaluation","283","1189642","0.0-4.0-10.0-0.1","spark_pilot_norest","11451","7","7","Female","","false","","","","","[312.10000000009313]","./assets/img/canyon/animals/lion.jpg","[""ArrowRight""]","second stage test","canyon","0","{""ArrowUp,ArrowLeft"":23,""ArrowUp,ArrowRight"":10,""ArrowDown,ArrowLeft"":8,""ArrowDown,ArrowRight"":30}","false","ArrowUp,ArrowRight","","original","1","","","",""
"html-keyboard-response","284","1190150","0.0-4.0-10.0-1.1","spark_pilot_norest","11451","7","7","Female","","","","","","","null","<div style=""font-size:60px;"">+</div>","null","fixation","","","","","","","","","","","",""
"revaluation","285","1190485","0.0-4.0-10.0-0.2","spark_pilot_norest","11451","7","7","Female","","false","","","","","[330.69999999995343]","./assets/img/canyon/animals/lion.jpg","[""ArrowLeft""]","second stage test","canyon","0","{""ArrowUp,ArrowLeft"":23,""ArrowUp,ArrowRight"":10,""ArrowDown,ArrowLeft"":8,""ArrowDown,ArrowRight"":30}","true","ArrowUp,ArrowLeft","","original","1","","","",""
"html-keyboard-response","286","1190989","0.0-4.0-10.0-1.2","spark_pilot_norest","11451","7","7","Female","","","","","","","null","<div style=""font-size:60px;"">+</div>","null","fixation","","","","","","","","","","","",""
"revaluation","287","1191268","0.0-4.0-10.0-0.3","spark_pilot_norest","11451","7","7","Female","","false","","","","","[274.39999999990687]","./assets/img/canyon/animals/lion.jpg","[""ArrowRight""]","second stage test","canyon","0","{""ArrowUp,ArrowLeft"":23,""ArrowUp,ArrowRight"":10,""ArrowDown,ArrowLeft"":8,""ArrowDown,ArrowRight"":30}","false","ArrowUp,ArrowRight","","original","1","","","",""
"html-keyboard-response","288","1191773","0.0-4.0-10.0-1.3","spark_pilot_norest","11451","7","7","Female","","","","","","","null","<div style=""font-size:60px;"">+</div>","null","fixation","","","","","","","","","","","",""
"revaluation","289","1192111","0.0-4.0-10.0-0.4","spark_pilot_norest","11451","7","7","Female","","false","","","","","[333.30000000004657]","./assets/img/canyon/animals/giraffe.jpg","[""ArrowLeft""]","second stage test","canyon","0","{""ArrowUp,ArrowLeft"":23,""ArrowUp,ArrowRight"":10,""ArrowDown,ArrowLeft"":8,""ArrowDown,ArrowRight"":30}","false","ArrowDown,ArrowLeft","","original","1","","","",""
"html-keyboard-response","290","1192613","0.0-4.0-10.0-1.4","spark_pilot_norest","11451","7","7","Female","","","","","","","null","<div style=""font-size:60px;"">+</div>","null","fixation","","","","","","","","","","","",""
"revaluation","291","1192870","0.0-4.0-10.0-0.5","spark_pilot_norest","11451","7","7","Female","","false","","","","","[252.9000000001397]","./assets/img/canyon/animals/giraffe.jpg","[""ArrowRight""]","second stage test","canyon","0","{""ArrowUp,ArrowLeft"":23,""ArrowUp,ArrowRight"":10,""ArrowDown,ArrowLeft"":8,""ArrowDown,ArrowRight"":30}","true","ArrowDown,ArrowRight","","original","1","","","",""
"html-keyboard-response","292","1193374","0.0-4.0-10.0-1.5","spark_pilot_norest","11451","7","7","Female","","","","","","","null","<div style=""font-size:60px;"">+</div>","null","fixation","","","","","","","","","","","",""
"revaluation","293","1193858","0.0-4.0-10.0-0.6","spark_pilot_norest","11451","7","7","Female","","false","","","","","[480.60000000009313]","./assets/img/canyon/animals/giraffe.jpg","[""ArrowLeft""]","second stage test","canyon","0","{""ArrowUp,ArrowLeft"":23,""ArrowUp,ArrowRight"":10,""ArrowDown,ArrowLeft"":8,""ArrowDown,ArrowRight"":30}","false","ArrowDown,ArrowLeft","","original","1","","","",""
"html-keyboard-response","294","1194365","0.0-4.0-10.0-1.6","spark_pilot_norest","11451","7","7","Female","","","","","","","null","<div style=""font-size:60px;"">+</div>","null","fixation","","","","","","","","","","","",""
"revaluation","295","1194659","0.0-4.0-10.0-0.7","spark_pilot_norest","11451","7","7","Female","","false","","","","","[291.10000000009313]","./assets/img/canyon/animals/giraffe.jpg","[""ArrowRight""]","second stage test","canyon","0","{""ArrowUp,ArrowLeft"":23,""ArrowUp,ArrowRight"":10,""ArrowDown,ArrowLeft"":8,""ArrowDown,ArrowRight"":30}","true","ArrowDown,ArrowRight","","original","1","","","",""
"html-keyboard-response","296","1195166","0.0-4.0-10.0-1.7","spark_pilot_norest","11451","7","7","Female","","","","","","","null","<div style=""font-size:60px;"">+</div>","null","fixation","","","","","","","","","","","",""
"learning-instructions","297","1199959","0.0-4.0-0.1-0.2","spark_pilot_norest","11451","7","7","Female","","","","","","","2074.3000000000466","<p> This time you are searching for treasure in the <b>ocean</b>.</p>","","instructions","","","","","","","","","","","",""
"learning-instructions","298","1219287","0.0-4.0-0.1-0.3","spark_pilot_norest","11451","7","7","Female","","","","","","","2074.600000000093","<p><b>New</b> animals with <b>new</b> treasure chests live here. You need to explore to discover where the animal with the best treasure chest is.</p>
                    <p> Like before, once you figure out which animal has the chest with the most treasure, you should try to get to that animal and select that chest! </p>","","instructions","","","","","","","","","","","",""
"learning-instructions","299","1235516","0.0-4.0-1.1-0.1","spark_pilot_norest","11451","7","7","Female","","","","","","","1503.3000000000466","<p> Remember, when you see a picture of the place, use the up and down keys to <b>find an animal</b>.</p>
            <p> When you encounter an animal, you should use the left and right keys to <b>select a treasure chest</b>.</p>
            <p> Don't forget to look out for the robber! </p>","","instructions","","","","","","","","","","","",""
"revaluation","300","1241542","0.0-4.0-2.1-0.50","spark_pilot_norest","11451","7","7","Female","","false","","","","","[1045.8000000000466,409.5999999998603]","./assets/img/ocean/memory/11.jpg","[""ArrowUp"",""ArrowRight""]","value training","ocean","10","{""ArrowUp,ArrowLeft"":26,""ArrowUp,ArrowRight"":10,""ArrowDown,ArrowLeft"":5,""ArrowDown,ArrowRight"":17}","false","ArrowUp,ArrowRight","false","revaluation","2","0","","",""
"html-keyboard-response","301","1242045","0.0-4.0-2.1-1.50","spark_pilot_norest","11451","7","7","Female","","","","","","","null","<div style=""font-size:60px;"">+</div>","null","fixation","","","","","","","","","1","","",""
"revaluation","302","1246062","0.0-4.0-2.1-0.51","spark_pilot_norest","11451","7","7","Female","","false","","","","","[830.6000000000931]","./assets/img/ocean/catch/2.jpg","[""spaceBar""]","value training","ocean","0","{""ArrowUp,ArrowLeft"":26,""ArrowUp,ArrowRight"":10,""ArrowDown,ArrowLeft"":5,""ArrowDown,ArrowRight"":17}","true","spaceBar","true","revaluation","2","2","","",""
"html-keyboard-response","303","1246566","0.0-4.0-2.1-1.51","spark_pilot_norest","11451","7","7","Female","","","","","","","null","<div style=""font-size:60px;"">+</div>","null","fixation","","","","","","","","","3","","",""
"revaluation","304","1252590","0.0-4.0-2.1-0.52","spark_pilot_norest","11451","7","7","Female","","false","","","","","[454.10000000009313,288.19999999995343]","./assets/img/ocean/memory/2.jpg","[""ArrowUp"",""ArrowRight""]","value training","ocean","10","{""ArrowUp,ArrowLeft"":26,""ArrowUp,ArrowRight"":10,""ArrowDown,ArrowLeft"":5,""ArrowDown,ArrowRight"":17}","false","ArrowUp,ArrowRight","false","revaluation","2","4","","",""
"html-keyboard-response","305","1253093","0.0-4.0-2.1-1.52","spark_pilot_norest","11451","7","7","Female","","","","","","","null","<div style=""font-size:60px;"">+</div>","null","fixation","","","","","","","","","5","","",""
"revaluation","306","1259118","0.0-4.0-2.1-0.53","spark_pilot_norest","11451","7","7","Female","","false","","","","","[663.1000000000931,435.69999999995343]","./assets/img/ocean/memory/16.jpg","[""ArrowUp"",""ArrowRight""]","value training","ocean","10","{""ArrowUp,ArrowLeft"":26,""ArrowUp,ArrowRight"":10,""ArrowDown,ArrowLeft"":5,""ArrowDown,ArrowRight"":17}","false","ArrowUp,ArrowRight","false","revaluation","2","6","","",""
"html-keyboard-response","307","1259622","0.0-4.0-2.1-1.53","spark_pilot_norest","11451","7","7","Female","","","","","","","null","<div style=""font-size:60px;"">+</div>","null","fixation","","","","","","","","","7","","",""
"revaluation","308","1265645","0.0-4.0-2.1-0.54","spark_pilot_norest","11451","7","7","Female","","false","","","","","[480.69999999995343,485.30000000004657]","./assets/img/ocean/memory/17.jpg","[""ArrowUp"",""ArrowRight""]","value training","ocean","10","{""ArrowUp,ArrowLeft"":26,""ArrowUp,ArrowRight"":10,""ArrowDown,ArrowLeft"":5,""ArrowDown,ArrowRight"":17}","false","ArrowUp,ArrowRight","false","revaluation","2","8","","",""
"html-keyboard-response","309","1266149","0.0-4.0-2.1-1.54","spark_pilot_norest","11451","7","7","Female","","","","","","","null","<div style=""font-size:60px;"">+</div>","null","fixation","","","","","","","","","9","","",""
"revaluation","310","1272174","0.0-4.0-2.1-0.55","spark_pilot_norest","11451","7","7","Female","","false","","","","","[617.5,264]","./assets/img/ocean/memory/17.jpg","[""ArrowUp"",""ArrowRight""]","value training","ocean","10","{""ArrowUp,ArrowLeft"":26,""ArrowUp,ArrowRight"":10,""ArrowDown,ArrowLeft"":5,""ArrowDown,ArrowRight"":17}","false","ArrowUp,ArrowRight","false","revaluation","2","10","","",""
"html-keyboard-response","311","1272677","0.0-4.0-2.1-1.55","spark_pilot_norest","11451","7","7","Female","","","","","","","null","<div style=""font-size:60px;"">+</div>","null","fixation","","","","","","","","","11","","",""
