"trial_type","trial_index","time_elapsed","internal_node_id","task_version","subject_id","assigned_condition","age","gender","success","timeout","failed_images","failed_audio","failed_video","browser_interaction","rt","stimulus","response","task_part","environment","score","rewardMap","correct","fullState","isCatch","condition","order","trial_num","key_press","ground_truth","bonus"
"pavlovia","0","1209","0.0-0.0","spark_pilot_norest","8619","6","13","Female","","","","","","","","","","","","","","","","","","","","","",""
"preload","1","75963","0.0-1.0","spark_pilot_norest","8619","6","13","Female","true","false","[]","[]","[]","[{""event"":""fullscreenenter"",""trial"":2,""time"":83319}]","","","","","","","","","","","","","","","",""
"fullscreen","2","84291","0.0-2.0","spark_pilot_norest","8619","6","13","Female","true","","","","","","","","","","","","","","","","","","","","",""
"audio-button-response","3","85977","0.0-3.0-0.0-0.0","spark_pilot_norest","8619","6","13","Female","","","","","","","1557","./assets/audio/audiotest/turtle.mp3","2","audio_test","","","","","","","","","","","",""
"learning-instructions","4","94503","0.0-3.0-1.0-0.0","spark_pilot_norest","8619","6","13","Female","","","","","","","1528.8000001907349","<p> Welcome! Please remember to stay in fullscreen mode and don't click away from the experiment. </p>","","instructions","","","","","","","","","","","",""
"learning-instructions","5","103505","0.0-3.0-1.0-0.1","spark_pilot_norest","8619","6","13","Female","","","","","","","582.1000003814697","<p> Today you will be playing a game to earn treasure. </p>
            <p> At the end of the experiment, you will earn a bonus based on how much treasure you find. </p>
            <img src='./assets/img/instructions/treasure.jpg' class='instructions-image'>","","instructions","","","","","","","","","","","",""
"learning-instructions","6","112238","0.0-3.0-1.0-0.2","spark_pilot_norest","8619","6","13","Female","","","","","","","462.30000019073486","<p> Animals have hidden treasure in treasure chests. </p>
            <p> You need to first find an animal and then choose which of their treasure chests to search. </p>
            <img src='./assets/img/space/animals/cat.jpg' class='instructions-image'>","","instructions","","","","","","","","","","","",""
"learning-instructions","7","125867","0.0-3.0-1.0-0.3","spark_pilot_norest","8619","6","13","Female","","","","","","","458.80000019073486","<p> In each round, you will search for treasure in a different place. In the real game, there will be two rounds. </p>
            <p> You will begin with a separate, practice round where you will search for treasure in outer space. </p>
            <img src='./assets/img/space/0.jpg' class='instructions-image'>","","instructions","","","","","","","","","","","",""
"learning-instructions","8","137906","0.0-3.0-1.0-0.4","spark_pilot_norest","8619","6","13","Female","","","","","","","603.8999996185303","<p> On every turn, you will see a picture of the place that you are in, but the specific image may be different each time. </p>
            <p> For example, both of these images mean you are in outer space. </p>
            <img src='./assets/img/instructions/outerspace.jpg' class='instructions-image'>","","instructions","","","","","","","","","","","",""
"learning-instructions","9","146636","0.0-3.0-1.0-0.5","spark_pilot_norest","8619","6","13","Female","","","","","","","885.6999998092651","<p> You need to decide which direction to travel in. </p>
            <p> You can choose between going <b>up or down</b> by using the arrow keys. </p>
            <img src='./assets/img/instructions/updown.jpg' class='instructions-image'>","","instructions","","","","","","","","","","","",""
"learning-instructions","10","156296","0.0-3.0-1.0-0.6","spark_pilot_norest","8619","6","13","Female","","","","","","","828.5999994277954","<p> You will have <b>2 seconds</b> to make your choice. </p>
            <p> If you do not make a choice within 2 seconds, you will not find an animal or earn treasure. </p>
            <img src='./assets/img/instructions/2seconds.jpg' class='instructions-image'>","","instructions","","","","","","","","","","","",""
"learning-instructions","11","164046","0.0-3.0-1.0-0.7","spark_pilot_norest","8619","6","13","Female","","","","","","","695.8000001907349","<p> Let’s try practicing that now! </p>
            <p> When you see a picture of the place you are in, press the <b>up</b> key to travel up. </p>
            <img src='./assets/img/instructions/pressUp.jpg' class='instructions-image'>","","instructions","","","","","","","","","","","",""
"revaluation","12","168079","0.0-3.0-2.0-0.0","spark_pilot_norest","8619","6","13","Female","","false","","","","","[603.8000001907349]","./assets/img/space/0.jpg","[""ArrowUp""]","first stage practice","space","0","null","null","ArrowUp","false","","","","","",""
"html-keyboard-response","13","168596","0.0-3.0-2.0-1.0","spark_pilot_norest","8619","6","13","Female","","","","","","","null","<div style=""font-size:60px;"">+</div>","null","fixation","","","","","","","","","","","",""
"revaluation","14","172613","0.0-3.0-2.0-0.1","spark_pilot_norest","8619","6","13","Female","","false","","","","","[979.8999996185303]","./assets/img/space/1.jpg","[""ArrowUp""]","first stage practice","space","0","null","null","ArrowUp","false","","","","","",""
"html-keyboard-response","15","173117","0.0-3.0-2.0-1.1","spark_pilot_norest","8619","6","13","Female","","","","","","","null","<div style=""font-size:60px;"">+</div>","null","fixation","","","","","","","","","","","",""
"revaluation","16","177140","0.0-3.0-2.0-0.2","spark_pilot_norest","8619","6","13","Female","","false","","","","","[474.9000005722046]","./assets/img/space/2.jpg","[""ArrowUp""]","first stage practice","space","0","null","null","ArrowUp","false","","","","","",""
"html-keyboard-response","17","177641","0.0-3.0-2.0-1.2","spark_pilot_norest","8619","6","13","Female","","","","","","","null","<div style=""font-size:60px;"">+</div>","null","fixation","","","","","","","","","","","",""
"learning-instructions","18","187545","0.0-3.0-3.0-0.0","spark_pilot_norest","8619","6","13","Female","","","","","","","5197.60000038147","<p> Great job! Now try pressing the <b>down</b> key to travel down. </p>
            <img src='./assets/img/instructions/pressDown.jpg' class='instructions-image'>","","instructions","","","","","","","","","","","",""
"revaluation","19","191563","0.0-3.0-4.0-0.0","spark_pilot_norest","8619","6","13","Female","","false","","","","","[718.3999996185303]","./assets/img/space/3.jpg","[""ArrowDown""]","first stage practice","space","0","null","null","ArrowDown","false","","","","","",""
"html-keyboard-response","20","192073","0.0-3.0-4.0-1.0","spark_pilot_norest","8619","6","13","Female","","","","","","","null","<div style=""font-size:60px;"">+</div>","null","fixation","","","","","","","","","","","",""
"revaluation","21","196100","0.0-3.0-4.0-0.1","spark_pilot_norest","8619","6","13","Female","","false","","","","","[384.19999980926514]","./assets/img/space/4.jpg","[""ArrowDown""]","first stage practice","space","0","null","null","ArrowDown","false","","","","","",""
"html-keyboard-response","22","196611","0.0-3.0-4.0-1.1","spark_pilot_norest","8619","6","13","Female","","","","","","","null","<div style=""font-size:60px;"">+</div>","null","fixation","","","","","","","","","","","",""
"revaluation","23","200633","0.0-3.0-4.0-0.2","spark_pilot_norest","8619","6","13","Female","","false","","","","","[345.70000076293945]","./assets/img/space/5.jpg","[""ArrowDown""]","first stage practice","space","0","null","null","ArrowDown","false","","","","","",""
"html-keyboard-response","24","201140","0.0-3.0-4.0-1.2","spark_pilot_norest","8619","6","13","Female","","","","","","","null","<div style=""font-size:60px;"">+</div>","null","fixation","","","","","","","","","","","",""
"learning-instructions","25","212350","0.0-3.0-5.0-0.0","spark_pilot_norest","8619","6","13","Female","","","","","","","1342","<p> The animals don’t move, so the animal in the upper part of a place will stay in the upper part of a place, and the animal in the lower part of a place will stay in the lower part of a place. </p>","","instructions","","","","","","","","","","","",""
"learning-instructions","26","222412","0.0-3.0-5.0-0.1","spark_pilot_norest","8619","6","13","Female","","","","","","","907.5","<p> Each animal has two treasure chests for you to choose from. </p>
            <p> The amount of treasure in each chest can range from <b> 0 to 40 pieces.</b></p>","","instructions","","","","","","","","","","","",""
"learning-instructions","27","234130","0.0-3.0-5.0-0.2","spark_pilot_norest","8619","6","13","Female","","","","","","","518.6999998092651","<p> You should decide which chest to search for treasure by using the <b>left</b> and <b>right</b> arrow keys. </p>
            <p><b> Pay attention to which animal is on the screen, as the animals have different treasure chests. </b></p>
            <img src='./assets/img/instructions/leftright.jpg' class='instructions-image'>","","instructions","","","","","","","","","","","",""
"learning-instructions","28","241097","0.0-3.0-5.0-0.3","spark_pilot_norest","8619","6","13","Female","","","","","","","584.3999996185303","<p> Let’s try practicing that now. </p>
            <p> When you see an animal, choose which chest to search for treasure. </p>
            <img src='./assets/img/instructions/chooseChest.jpg' class='instructions-image'>","","instructions","","","","","","","","","","","",""
"revaluation","29","245107","0.0-3.0-6.0-0.0","spark_pilot_norest","8619","6","13","Female","","false","","","","","[968.5]","./assets/img/space/animals/rabbit.jpg","[""ArrowRight""]","second stage practice","space","23","{""ArrowUp,ArrowLeft"":3,""ArrowUp,ArrowRight"":36,""ArrowDown,ArrowLeft"":15,""ArrowDown,ArrowRight"":23}","true","ArrowDown,ArrowRight","","","","","","",""
"html-keyboard-response","30","245610","0.0-3.0-6.0-1.0","spark_pilot_norest","8619","6","13","Female","","","","","","","null","<div style=""font-size:60px;"">+</div>","null","fixation","","","","","","","","","","","",""
"revaluation","31","249642","0.0-3.0-6.0-0.1","spark_pilot_norest","8619","6","13","Female","","false","","","","","[790.2000007629395]","./assets/img/space/animals/cat.jpg","[""ArrowLeft""]","second stage practice","space","3","{""ArrowUp,ArrowLeft"":3,""ArrowUp,ArrowRight"":36,""ArrowDown,ArrowLeft"":15,""ArrowDown,ArrowRight"":23}","false","ArrowUp,ArrowLeft","","","","","","",""
"html-keyboard-response","32","250155","0.0-3.0-6.0-1.1","spark_pilot_norest","8619","6","13","Female","","","","","","","null","<div style=""font-size:60px;"">+</div>","null","fixation","","","","","","","","","","","",""
"revaluation","33","254180","0.0-3.0-6.0-0.2","spark_pilot_norest","8619","6","13","Female","","false","","","","","[389.8999996185303]","./assets/img/space/animals/rabbit.jpg","[""ArrowLeft""]","second stage practice","space","15","{""ArrowUp,ArrowLeft"":3,""ArrowUp,ArrowRight"":36,""ArrowDown,ArrowLeft"":15,""ArrowDown,ArrowRight"":23}","false","ArrowDown,ArrowLeft","","","","","","",""
"html-keyboard-response","34","254690","0.0-3.0-6.0-1.2","spark_pilot_norest","8619","6","13","Female","","","","","","","null","<div style=""font-size:60px;"">+</div>","null","fixation","","","","","","","","","","","",""
"revaluation","35","258701","0.0-3.0-6.0-0.3","spark_pilot_norest","8619","6","13","Female","","false","","","","","[414.80000019073486]","./assets/img/space/animals/cat.jpg","[""ArrowRight""]","second stage practice","space","36","{""ArrowUp,ArrowLeft"":3,""ArrowUp,ArrowRight"":36,""ArrowDown,ArrowLeft"":15,""ArrowDown,ArrowRight"":23}","true","ArrowUp,ArrowRight","","","","","","",""
"html-keyboard-response","36","259207","0.0-3.0-6.0-1.3","spark_pilot_norest","8619","6","13","Female","","","","","","","null","<div style=""font-size:60px;"">+</div>","null","fixation","","","","","","","","","","","",""
"learning-instructions","37","277727","0.0-3.0-7.0-0.0","spark_pilot_norest","8619","6","13","Female","","","","","","","1683.5","<p> Great job. Now let’s try putting it together. </p>
            <p> On each turn, you will first see a picture to remind you of the place you are in, and you need to choose whether to go up or down. </p>
            <p> Then you will see an animal and choose which of its chests to search for treasure. </p>","","instructions","","","","","","","","","","","",""
"learning-instructions","38","287029","0.0-3.0-7.0-0.1","spark_pilot_norest","8619","6","13","Female","","","","","","","1033","<p> When you choose whether to go up or down, try to go to the animal with the chest with the most treasure. </p>
            <p> Try practicing that now! </p>","","instructions","","","","","","","","","","","",""
"revaluation","39","293054","0.0-3.0-8.0-0.0","spark_pilot_norest","8619","6","13","Female","","false","","","","","[557.0999994277954,484.4000005722046]","./assets/img/space/6.jpg","[""ArrowUp"",""ArrowRight""]","full practice","space","36","{""ArrowUp,ArrowLeft"":3,""ArrowUp,ArrowRight"":36,""ArrowDown,ArrowLeft"":15,""ArrowDown,ArrowRight"":23}","true","ArrowUp,ArrowRight","false","","","","","",""
"html-keyboard-response","40","293558","0.0-3.0-8.0-1.0","spark_pilot_norest","8619","6","13","Female","","","","","","","null","<div style=""font-size:60px;"">+</div>","null","fixation","","","","","","","","","","","",""
"revaluation","41","299573","0.0-3.0-8.0-0.1","spark_pilot_norest","8619","6","13","Female","","false","","","","","[369.19999980926514,499.3999996185303]","./assets/img/space/7.jpg","[""ArrowDown"",""ArrowLeft""]","full practice","space","15","{""ArrowUp,ArrowLeft"":3,""ArrowUp,ArrowRight"":36,""ArrowDown,ArrowLeft"":15,""ArrowDown,ArrowRight"":23}","false","ArrowDown,ArrowLeft","false","","","","","",""
"html-keyboard-response","42","300085","0.0-3.0-8.0-1.1","spark_pilot_norest","8619","6","13","Female","","","","","","","null","<div style=""font-size:60px;"">+</div>","null","fixation","","","","","","","","","","","",""
"revaluation","43","306112","0.0-3.0-8.0-0.2","spark_pilot_norest","8619","6","13","Female","","false","","","","","[301.19999980926514,731.1999998092651]","./assets/img/space/8.jpg","[""ArrowDown"",""ArrowRight""]","full practice","space","23","{""ArrowUp,ArrowLeft"":3,""ArrowUp,ArrowRight"":36,""ArrowDown,ArrowLeft"":15,""ArrowDown,ArrowRight"":23}","false","ArrowDown,ArrowRight","false","","","","","",""
"html-keyboard-response","44","306623","0.0-3.0-8.0-1.2","spark_pilot_norest","8619","6","13","Female","","","","","","","null","<div style=""font-size:60px;"">+</div>","null","fixation","","","","","","","","","","","",""
"revaluation","45","312644","0.0-3.0-8.0-0.3","spark_pilot_norest","8619","6","13","Female","","false","","","","","[370.1000003814697,989.6999998092651]","./assets/img/space/9.jpg","[""ArrowUp"",""ArrowRight""]","full practice","space","36","{""ArrowUp,ArrowLeft"":3,""ArrowUp,ArrowRight"":36,""ArrowDown,ArrowLeft"":15,""ArrowDown,ArrowRight"":23}","true","ArrowUp,ArrowRight","false","","","","","",""
"html-keyboard-response","46","313146","0.0-3.0-8.0-1.3","spark_pilot_norest","8619","6","13","Female","","","","","","","null","<div style=""font-size:60px;"">+</div>","null","fixation","","","","","","","","","","","",""
"revaluation","47","319153","0.0-3.0-8.0-0.4","spark_pilot_norest","8619","6","13","Female","","false","","","","","[610.8999996185303,395.5999994277954]","./assets/img/space/10.jpg","[""ArrowUp"",""ArrowRight""]","full practice","space","36","{""ArrowUp,ArrowLeft"":3,""ArrowUp,ArrowRight"":36,""ArrowDown,ArrowLeft"":15,""ArrowDown,ArrowRight"":23}","true","ArrowUp,ArrowRight","false","","","","","",""
"html-keyboard-response","48","319655","0.0-3.0-8.0-1.4","spark_pilot_norest","8619","6","13","Female","","","","","","","null","<div style=""font-size:60px;"">+</div>","null","fixation","","","","","","","","","","","",""
"learning-instructions","49","334962","0.0-3.0-9.0-0.0","spark_pilot_norest","8619","6","13","Female","","","","","","","4988.39999961853","<p> One last thing: sometimes, you will see a robber. The robber can be anywhere in the picture. </p>
            <p> If you do not stop them, you will lose treasure. </p>
            <img src='./assets/img/instructions/robber.jpg' class='instructions-image'>","","instructions","","","","","","","","","","","",""
"learning-instructions","50","342831","0.0-3.0-9.0-0.1","spark_pilot_norest","8619","6","13","Female","","","","","","","687.1999998092651","<p> If you see the robber, you should <b>press the space bar</b> rather than using the arrow keys. </p>
            <p> Try practicing that now! </p>","","instructions","","","","","","","","","","","",""
"revaluation","51","346856","0.0-3.0-10.0-0.0","spark_pilot_norest","8619","6","13","Female","","false","","","","","[758.1000003814697]","./assets/img/space/catch/0.jpg","[""spaceBar""]","catch practice","space","0","{""ArrowUp,ArrowLeft"":3,""ArrowUp,ArrowRight"":36,""ArrowDown,ArrowLeft"":15,""ArrowDown,ArrowRight"":23}","true","spaceBar","true","","","","","",""
"html-keyboard-response","52","347363","0.0-3.0-10.0-1.0","spark_pilot_norest","8619","6","13","Female","","","","","","","null","<div style=""font-size:60px;"">+</div>","null","fixation","","","","","","","","","","","",""
"revaluation","53","351382","0.0-3.0-10.0-0.1","spark_pilot_norest","8619","6","13","Female","","false","","","","","[1122]","./assets/img/space/catch/1.jpg","[""spaceBar""]","catch practice","space","0","{""ArrowUp,ArrowLeft"":3,""ArrowUp,ArrowRight"":36,""ArrowDown,ArrowLeft"":15,""ArrowDown,ArrowRight"":23}","true","spaceBar","true","","","","","",""
"html-keyboard-response","54","351893","0.0-3.0-10.0-1.1","spark_pilot_norest","8619","6","13","Female","","","","","","","null","<div style=""font-size:60px;"">+</div>","null","fixation","","","","","","","","","","","",""
"revaluation","55","355909","0.0-3.0-10.0-0.2","spark_pilot_norest","8619","6","13","Female","","false","","","","","[588]","./assets/img/space/catch/2.jpg","[""spaceBar""]","catch practice","space","0","{""ArrowUp,ArrowLeft"":3,""ArrowUp,ArrowRight"":36,""ArrowDown,ArrowLeft"":15,""ArrowDown,ArrowRight"":23}","true","spaceBar","true","","","","","",""
"html-keyboard-response","56","356419","0.0-3.0-10.0-1.2","spark_pilot_norest","8619","6","13","Female","","","","","","","null","<div style=""font-size:60px;"">+</div>","null","fixation","","","","","","","","","","","",""
"learning-instructions","57","362721","0.0-3.0-11.0-0.0-0.0","spark_pilot_norest","8619","6","13","Female","","","","","","","1035.7999992370605","<p> Now, you will practice a shortened version of the game to get a sense of how it all fits together. </p>","","instructions","","","","","","","","","","","",""
"learning-instructions","58","366896","0.0-3.0-11.0-0.0-0.1","spark_pilot_norest","8619","6","13","Female","","","","","","","976","<p>This time you are searching for treasure in outer space.</p>","","instructions","","","","","","","","","","","",""
"learning-instructions","59","382256","0.0-3.0-11.0-1.0-0.0","spark_pilot_norest","8619","6","13","Female","","","","","","","570.8999996185303","<p> Remember, when you see a picture of the place, use the up and down keys to <b>find an animal</b>.</p>
            <p> When you encounter an animal, you should use the left and right keys to <b>select a treasure chest</b>.</p>
            <p> Don't forget to look out for the robber! </p>","","instructions","","","","","","","","","","","",""
"revaluation","60","388272","0.0-3.0-11.0-2.0-0.0","spark_pilot_norest","8619","6","13","Female","","false","","","","","[1921,822.6000003814697]","./assets/img/space/11.jpg","[""ArrowUp"",""ArrowRight""]","practice block","space","36","{""ArrowUp,ArrowLeft"":3,""ArrowUp,ArrowRight"":36,""ArrowDown,ArrowLeft"":15,""ArrowDown,ArrowRight"":23}","true","ArrowUp,ArrowRight","false","","","","","",""
"html-keyboard-response","61","388776","0.0-3.0-11.0-2.0-1.0","spark_pilot_norest","8619","6","13","Female","","","","","","","null","<div style=""font-size:60px;"">+</div>","null","fixation","","","","","","","","","","","",""
"revaluation","62","394796","0.0-3.0-11.0-2.0-0.1","spark_pilot_norest","8619","6","13","Female","","false","","","","","[778.1000003814697,785.3999996185303]","./assets/img/space/12.jpg","[""ArrowDown"",""ArrowLeft""]","practice block","space","15","{""ArrowUp,ArrowLeft"":3,""ArrowUp,ArrowRight"":36,""ArrowDown,ArrowLeft"":15,""ArrowDown,ArrowRight"":23}","false","ArrowDown,ArrowLeft","false","","","","","",""
"html-keyboard-response","63","395310","0.0-3.0-11.0-2.0-1.1","spark_pilot_norest","8619","6","13","Female","","","","","","","null","<div style=""font-size:60px;"">+</div>","null","fixation","","","","","","","","","","","",""
"revaluation","64","401321","0.0-3.0-11.0-2.0-0.2","spark_pilot_norest","8619","6","13","Female","","false","","","","","[752.1999998092651,1038]","./assets/img/space/13.jpg","[""ArrowDown"",""ArrowRight""]","practice block","space","23","{""ArrowUp,ArrowLeft"":3,""ArrowUp,ArrowRight"":36,""ArrowDown,ArrowLeft"":15,""ArrowDown,ArrowRight"":23}","false","ArrowDown,ArrowRight","false","","","","","",""
"html-keyboard-response","65","401838","0.0-3.0-11.0-2.0-1.2","spark_pilot_norest","8619","6","13","Female","","","","","","","null","<div style=""font-size:60px;"">+</div>","null","fixation","","","","","","","","","","","",""
"revaluation","66","407860","0.0-3.0-11.0-2.0-0.3","spark_pilot_norest","8619","6","13","Female","","false","","","","","[444.19999980926514,440.5999994277954]","./assets/img/space/14.jpg","[""ArrowDown"",""ArrowRight""]","practice block","space","23","{""ArrowUp,ArrowLeft"":3,""ArrowUp,ArrowRight"":36,""ArrowDown,ArrowLeft"":15,""ArrowDown,ArrowRight"":23}","false","ArrowDown,ArrowRight","false","","","","","",""
"html-keyboard-response","67","408371","0.0-3.0-11.0-2.0-1.3","spark_pilot_norest","8619","6","13","Female","","","","","","","null","<div style=""font-size:60px;"">+</div>","null","fixation","","","","","","","","","","","",""
"revaluation","68","414378","0.0-3.0-11.0-2.0-0.4","spark_pilot_norest","8619","6","13","Female","","false","","","","","[714.7000007629395,971.9000005722046]","./assets/img/space/11.jpg","[""ArrowUp"",""ArrowRight""]","practice block","space","36","{""ArrowUp,ArrowLeft"":3,""ArrowUp,ArrowRight"":36,""ArrowDown,ArrowLeft"":15,""ArrowDown,ArrowRight"":23}","true","ArrowUp,ArrowRight","false","","","","","",""
"html-keyboard-response","69","414881","0.0-3.0-11.0-2.0-1.4","spark_pilot_norest","8619","6","13","Female","","","","","","","null","<div style=""font-size:60px;"">+</div>","null","fixation","","","","","","","","","","","",""
"revaluation","70","420886","0.0-3.0-11.0-2.0-0.5","spark_pilot_norest","8619","6","13","Female","","false","","","","","[679.2999992370605,401.3999996185303]","./assets/img/space/12.jpg","[""ArrowUp"",""ArrowLeft""]","practice block","space","3","{""ArrowUp,ArrowLeft"":3,""ArrowUp,ArrowRight"":36,""ArrowDown,ArrowLeft"":15,""ArrowDown,ArrowRight"":23}","false","ArrowUp,ArrowLeft","false","","","","","",""
"html-keyboard-response","71","421388","0.0-3.0-11.0-2.0-1.5","spark_pilot_norest","8619","6","13","Female","","","","","","","null","<div style=""font-size:60px;"">+</div>","null","fixation","","","","","","","","","","","",""
"revaluation","72","427395","0.0-3.0-11.0-2.0-0.6","spark_pilot_norest","8619","6","13","Female","","false","","","","","[597.8000001907349,496.1000003814697]","./assets/img/space/13.jpg","[""ArrowUp"",""ArrowRight""]","practice block","space","36","{""ArrowUp,ArrowLeft"":3,""ArrowUp,ArrowRight"":36,""ArrowDown,ArrowLeft"":15,""ArrowDown,ArrowRight"":23}","true","ArrowUp,ArrowRight","false","","","","","",""
"html-keyboard-response","73","427897","0.0-3.0-11.0-2.0-1.6","spark_pilot_norest","8619","6","13","Female","","","","","","","null","<div style=""font-size:60px;"">+</div>","null","fixation","","","","","","","","","","","",""
"revaluation","74","433905","0.0-3.0-11.0-2.0-0.7","spark_pilot_norest","8619","6","13","Female","","false","","","","","[570.4000005722046,619.5]","./assets/img/space/14.jpg","[""ArrowUp"",""ArrowRight""]","practice block","space","36","{""ArrowUp,ArrowLeft"":3,""ArrowUp,ArrowRight"":36,""ArrowDown,ArrowLeft"":15,""ArrowDown,ArrowRight"":23}","true","ArrowUp,ArrowRight","false","","","","","",""
"html-keyboard-response","75","434407","0.0-3.0-11.0-2.0-1.7","spark_pilot_norest","8619","6","13","Female","","","","","","","null","<div style=""font-size:60px;"">+</div>","null","fixation","","","","","","","","","","","",""
"revaluation","76","438413","0.0-3.0-11.0-2.0-0.8","spark_pilot_norest","8619","6","13","Female","","false","","","","","[572]","./assets/img/space/catch/3.jpg","[""spaceBar""]","practice block","space","0","{""ArrowUp,ArrowLeft"":3,""ArrowUp,ArrowRight"":36,""ArrowDown,ArrowLeft"":15,""ArrowDown,ArrowRight"":23}","true","spaceBar","true","","","","","",""
"html-keyboard-response","77","438915","0.0-3.0-11.0-2.0-1.8","spark_pilot_norest","8619","6","13","Female","","","","","","","null","<div style=""font-size:60px;"">+</div>","null","fixation","","","","","","","","","","","",""
"learning-instructions","78","453754","0.0-3.0-11.0-3.0-0.0","spark_pilot_norest","8619","6","13","Female","","","","","","","1366.7000007629395","<p> Now, you will travel with a friend who will choose whether you go up or down first. </p>
            <p> On these turns, you will just see the animal that they found. You will still get to choose which chest to search for treasure.</p>","","instructions","","","","","","","","","","","",""
"revaluation","79","457772","0.0-3.0-11.0-4.0-0.0","spark_pilot_norest","8619","6","13","Female","","false","","","","","[1125.5999994277954]","./assets/img/space/animals/rabbit.jpg","[""ArrowRight""]","practice block","space","23","{""ArrowUp,ArrowLeft"":3,""ArrowUp,ArrowRight"":36,""ArrowDown,ArrowLeft"":15,""ArrowDown,ArrowRight"":23}","true","ArrowDown,ArrowRight","","","","","","",""
"html-keyboard-response","80","458285","0.0-3.0-11.0-4.0-1.0","spark_pilot_norest","8619","6","13","Female","","","","","","","null","<div style=""font-size:60px;"">+</div>","null","fixation","","","","","","","","","","","",""
"revaluation","81","462302","0.0-3.0-11.0-4.0-0.1","spark_pilot_norest","8619","6","13","Female","","false","","","","","[726]","./assets/img/space/animals/cat.jpg","[""ArrowLeft""]","practice block","space","3","{""ArrowUp,ArrowLeft"":3,""ArrowUp,ArrowRight"":36,""ArrowDown,ArrowLeft"":15,""ArrowDown,ArrowRight"":23}","false","ArrowUp,ArrowLeft","","","","","","",""
"html-keyboard-response","82","462814","0.0-3.0-11.0-4.0-1.1","spark_pilot_norest","8619","6","13","Female","","","","","","","null","<div style=""font-size:60px;"">+</div>","null","fixation","","","","","","","","","","","",""
"revaluation","83","466823","0.0-3.0-11.0-4.0-0.2","spark_pilot_norest","8619","6","13","Female","","false","","","","","[452.4000005722046]","./assets/img/space/animals/rabbit.jpg","[""ArrowLeft""]","practice block","space","15","{""ArrowUp,ArrowLeft"":3,""ArrowUp,ArrowRight"":36,""ArrowDown,ArrowLeft"":15,""ArrowDown,ArrowRight"":23}","false","ArrowDown,ArrowLeft","","","","","","",""
"html-keyboard-response","84","467334","0.0-3.0-11.0-4.0-1.2","spark_pilot_norest","8619","6","13","Female","","","","","","","null","<div style=""font-size:60px;"">+</div>","null","fixation","","","","","","","","","","","",""
"revaluation","85","471361","0.0-3.0-11.0-4.0-0.3","spark_pilot_norest","8619","6","13","Female","","false","","","","","[866.5]","./assets/img/space/animals/cat.jpg","[""ArrowRight""]","practice block","space","36","{""ArrowUp,ArrowLeft"":3,""ArrowUp,ArrowRight"":36,""ArrowDown,ArrowLeft"":15,""ArrowDown,ArrowRight"":23}","true","ArrowUp,ArrowRight","","","","","","",""
"html-keyboard-response","86","471868","0.0-3.0-11.0-4.0-1.3","spark_pilot_norest","8619","6","13","Female","","","","","","","null","<div style=""font-size:60px;"">+</div>","null","fixation","","","","","","","","","","","",""
"learning-instructions","87","480006","0.0-3.0-11.0-5.0-0.0","spark_pilot_norest","8619","6","13","Female","","","","","","","null","<p> You have almost finished this part of the game! </p>
            <p> We are going to ask you to make a few more choices. </p>","","instructions","","","","","","","","","","","",""
"learning-instructions","88","496044","0.0-3.0-11.0-5.0-0.1","spark_pilot_norest","8619","6","13","Female","","","","","","","null","<p> First, you need to decide whether to go up or down. When you see each picture, use the arrow keys to make your choice. </p>
            <p><b>You will not see which animal you found, but try to get to the one that will give you the most treasure.</b></p>","","instructions","","","","","","","","","","","",""
"html-keyboard-response","89","497057","0.0-3.0-11.0-6.0-0.0","spark_pilot_norest","8619","6","13","Female","","","","","","","null","<div style=""font-size:100px;color:red;"">Starting in...</div>","null","","","","","","","","","","","","",""
"html-keyboard-response","90","498068","0.0-3.0-11.0-6.0-1.0","spark_pilot_norest","8619","6","13","Female","","","","","","","null","<div style=""font-size:200px;color:red;"">3</div>","null","","","","","","","","","","","","",""
"html-keyboard-response","91","499070","0.0-3.0-11.0-6.0-2.0","spark_pilot_norest","8619","6","13","Female","","","","","","","null","<div style=""font-size:200px;color:red;"">2</div>","null","","","","","","","","","","","","",""
"html-keyboard-response","92","500071","0.0-3.0-11.0-6.0-3.0","spark_pilot_norest","8619","6","13","Female","","","","","","","null","<div style=""font-size:200px;color:red;"">1</div>","null","","","","","","","","","","","","",""
"revaluation","93","500590","0.0-3.0-11.0-7.0","spark_pilot_norest","8619","6","13","Female","","false","","","","","[515.5]","./assets/img/space/15.jpg","[""ArrowDown""]","practice block","space","0","{""ArrowUp,ArrowLeft"":3,""ArrowUp,ArrowRight"":36,""ArrowDown,ArrowLeft"":15,""ArrowDown,ArrowRight"":23}","false","ArrowDown","false","","","","","",""
"html-keyboard-response","94","501094","0.0-3.0-11.0-8.0","spark_pilot_norest","8619","6","13","Female","","","","","","","null","<div style=""font-size:60px;"">+</div>","null","fixation","","","","","","","","","","","",""
"learning-instructions","95","514492","0.0-3.0-11.0-9.0-0.0","spark_pilot_norest","8619","6","13","Female","","","","","","","null","<p> Now you will see the animals again and can search their chests for treasure. </p>
            <p> This time, you will not see how much treasure you earned, but you will earn more bonus money for making better choices. </p>","","instructions","","","","","","","","","","","",""
"html-keyboard-response","96","515506","0.0-3.0-11.0-10.0-0.0","spark_pilot_norest","8619","6","13","Female","","","","","","","null","<div style=""font-size:100px;color:red;"">Starting in...</div>","null","","","","","","","","","","","","",""
"html-keyboard-response","97","516509","0.0-3.0-11.0-10.0-1.0","spark_pilot_norest","8619","6","13","Female","","","","","","","null","<div style=""font-size:200px;color:red;"">3</div>","null","","","","","","","","","","","","",""
"html-keyboard-response","98","517511","0.0-3.0-11.0-10.0-2.0","spark_pilot_norest","8619","6","13","Female","","","","","","","null","<div style=""font-size:200px;color:red;"">2</div>","null","","","","","","","","","","","","",""
"html-keyboard-response","99","518520","0.0-3.0-11.0-10.0-3.0","spark_pilot_norest","8619","6","13","Female","","","","","","","null","<div style=""font-size:200px;color:red;"">1</div>","null","","","","","","","","","","","","",""
"revaluation","100","519097","0.0-3.0-11.0-11.0-0.0","spark_pilot_norest","8619","6","13","Female","","false","","","","","[572.1000003814697]","./assets/img/space/animals/cat.jpg","[""ArrowRight""]","practice block","space","0","{""ArrowUp,ArrowLeft"":3,""ArrowUp,ArrowRight"":36,""ArrowDown,ArrowLeft"":15,""ArrowDown,ArrowRight"":23}","true","ArrowUp,ArrowRight","","","","","","",""
"html-keyboard-response","101","519600","0.0-3.0-11.0-11.0-1.0","spark_pilot_norest","8619","6","13","Female","","","","","","","null","<div style=""font-size:60px;"">+</div>","null","fixation","","","","","","","","","","","",""
"revaluation","102","520314","0.0-3.0-11.0-11.0-0.1","spark_pilot_norest","8619","6","13","Female","","false","","","","","[709]","./assets/img/space/animals/rabbit.jpg","[""ArrowRight""]","practice block","space","0","{""ArrowUp,ArrowLeft"":3,""ArrowUp,ArrowRight"":36,""ArrowDown,ArrowLeft"":15,""ArrowDown,ArrowRight"":23}","true","ArrowDown,ArrowRight","","","","","","",""
"html-keyboard-response","103","520817","0.0-3.0-11.0-11.0-1.1","spark_pilot_norest","8619","6","13","Female","","","","","","","null","<div style=""font-size:60px;"">+</div>","null","fixation","","","","","","","","","","","",""
"learning-instructions","104","526477","0.0-3.0-12.0-0.0","spark_pilot_norest","8619","6","13","Female","","","","","","","1075.5","<p> Before you start, we're going to ask you a few questions about how the game works. </p>","","instructions","","","","","","","","","","","",""
"comp-q","105","533726","0.0-3.0-13.0-0.0-0.0","spark_pilot_norest","8619","6","13","Female","","","","","","","1643.8000001907349","<p> <b> True or False? </b> </p>
            <p> There can be 50 pieces of treasure in a given animal's chest. </p>","1","comp_question","","","","true","","","","","","","",""
"comp-q","106","542059","0.0-3.0-13.0-0.0-1.0","spark_pilot_norest","8619","6","13","Female","","","","","","","1659.9000005722046","<p> <b> That's right! </b> The amount of treasure in each chest can range from 0 to 40 pieces. </p>","0","comp_answer","","","","","","","","","","","",""
"comp-q","107","549925","0.0-3.0-13.0-0.1-0.1","spark_pilot_norest","8619","6","13","Female","","","","","","","736.5999994277954","<p> <b> True or False? </b> </p><p> In this game, all animals have the same amount of treasure in their left and right chests. </p>","1","comp_question","","","","true","","","","","","","",""
"comp-q","108","556030","0.0-3.0-13.0-0.1-1.1","spark_pilot_norest","8619","6","13","Female","","","","","","","867.9000005722046","<p> <b> That's right! </b> Animals have different amounts of treasure in their treasure chests. </p>","0","comp_answer","","","","","","","","","","","",""
"comp-q","109","562735","0.0-3.0-13.0-0.2-0.2","spark_pilot_norest","8619","6","13","Female","","","","","","","853.8999996185303","<p> <b> True or False? </b> </p><p> The same animal will always be there if you go up in the same place. </p>","1","comp_question","","","","false","","","","","","","",""
"comp-q","110","570558","0.0-3.0-13.0-0.2-1.2","spark_pilot_norest","8619","6","13","Female","","","","","","","1509.2999992370605","<p> <b>Incorrect.</b> One animal lives in the upper part and one lives in the lower part of every place. </p>","0","comp_answer","","","","","","","","","","","",""
"comp-q","111","577054","0.0-3.0-13.0-0.3-0.3","spark_pilot_norest","8619","6","13","Female","","","","","","","677.5","<p> <b> True or False? </b> </p><p> The same animal will always be there if you go up in the same place. </p>","0","comp_question","","","","true","","","","","","","",""
"comp-q","112","585367","0.0-3.0-13.0-0.3-1.3","spark_pilot_norest","8619","6","13","Female","","","","","","","1865.0999994277954","<p> <b> That's right! </b> One animal lives in the upper part and one lives in the lower part of every place. </p>","0","comp_answer","","","","","","","","","","","",""
"comp-q","113","591504","0.0-3.0-13.0-0.4-0.4","spark_pilot_norest","8619","6","13","Female","","","","","","","609.8000001907349","<p> <b> True or False? </b> </p><p> If you see a different picture, it means you are in a new place. </p>","0","comp_question","","","","false","","","","","","","",""
"comp-q","114","604405","0.0-3.0-13.0-0.4-1.4","spark_pilot_norest","8619","6","13","Female","","","","","","","1798.5","<p> <b>Incorrect.</b> Lots of different images may show the same place. For example,  you may see three different images that all remind you that you are in outer space. </p>","0","comp_answer","","","","","","","","","","","",""
"comp-q","115","611788","0.0-3.0-13.0-0.5-0.5","spark_pilot_norest","8619","6","13","Female","","","","","","","1885.5","<p> <b> True or False? </b> </p><p> If you see a different picture, it means you are in a new place. </p>","1","comp_question","","","","true","","","","","","","",""
"comp-q","116","626777","0.0-3.0-13.0-0.5-1.5","spark_pilot_norest","8619","6","13","Female","","","","","","","3743.8999996185303","<p> <b> That's right! </b> Lots of different images may show the same place. For example,  you may see three different images that all remind you that you are in outer space. </p>","0","comp_answer","","","","","","","","","","","",""
"learning-instructions","117","637944","0.0-3.0-14.0-0.0","spark_pilot_norest","8619","6","13","Female","","","","","","","1300.6999998092651","<p> Good job. Remember to do your best because the amount of treasure you earn will be converted into bonus money. </p>
            <p> It’s time to start the real game! </p>","","instructions","","","","","","","","","","","",""
"learning-instructions","118","641815","0.0-4.0-0.0-0.0","spark_pilot_norest","8619","6","13","Female","","","","","","","1097","<p> This time you are searching for treasure in the <b>canyon</b>.</p>","","instructions","","","","","","","","","","","",""
"learning-instructions","119","661193","0.0-4.0-0.0-0.1","spark_pilot_norest","8619","6","13","Female","","","","","","","2053.6000003814697","<p><b>New</b> animals with <b>new</b> treasure chests live here. You need to explore to discover where the animal with the best treasure chest is.</p>
                    <p> Like before, once you figure out which animal has the chest with the most treasure, you should try to get to that animal and select that chest! </p>","","instructions","","","","","","","","","","","",""
"learning-instructions","120","676715","0.0-4.0-1.0-0.0","spark_pilot_norest","8619","6","13","Female","","","","","","","796.2000007629395","<p> Remember, when you see a picture of the place, use the up and down keys to <b>find an animal</b>.</p>
            <p> When you encounter an animal, you should use the left and right keys to <b>select a treasure chest</b>.</p>
            <p> Don't forget to look out for the robber! </p>","","instructions","","","","","","","","","","","",""
"revaluation","121","680738","0.0-4.0-2.0-0.0","spark_pilot_norest","8619","6","13","Female","","false","","","","","[880.8000001907349]","./assets/img/canyon/catch/5.jpg","[""ArrowUp""]","value training","canyon","-10","{""ArrowUp,ArrowLeft"":23,""ArrowUp,ArrowRight"":10,""ArrowDown,ArrowLeft"":8,""ArrowDown,ArrowRight"":30}","false","ArrowUp","true","revaluation","1","0","","",""
"html-keyboard-response","122","681250","0.0-4.0-2.0-1.0","spark_pilot_norest","8619","6","13","Female","","","","","","","null","<div style=""font-size:60px;"">+</div>","null","fixation","","","","","","","","","1","","",""
"revaluation","123","687294","0.0-4.0-2.0-0.1","spark_pilot_norest","8619","6","13","Female","","false","","","","","[872.6000003814697,679.3000001907349]","./assets/img/canyon/memory/29.jpg","[""ArrowDown"",""ArrowRight""]","value training","canyon","30","{""ArrowUp,ArrowLeft"":23,""ArrowUp,ArrowRight"":10,""ArrowDown,ArrowLeft"":8,""ArrowDown,ArrowRight"":30}","true","ArrowDown,ArrowRight","false","revaluation","1","2","","",""
"html-keyboard-response","124","687800","0.0-4.0-2.0-1.1","spark_pilot_norest","8619","6","13","Female","","","","","","","null","<div style=""font-size:60px;"">+</div>","null","fixation","","","","","","","","","3","","",""
"revaluation","125","691826","0.0-4.0-2.0-0.2","spark_pilot_norest","8619","6","13","Female","","false","","","","","[494.70000076293945]","./assets/img/canyon/catch/3.jpg","[""spaceBar""]","value training","canyon","0","{""ArrowUp,ArrowLeft"":23,""ArrowUp,ArrowRight"":10,""ArrowDown,ArrowLeft"":8,""ArrowDown,ArrowRight"":30}","true","spaceBar","true","revaluation","1","4","","",""
"html-keyboard-response","126","692332","0.0-4.0-2.0-1.2","spark_pilot_norest","8619","6","13","Female","","","","","","","null","<div style=""font-size:60px;"">+</div>","null","fixation","","","","","","","","","5","","",""
"revaluation","127","698355","0.0-4.0-2.0-0.3","spark_pilot_norest","8619","6","13","Female","","false","","","","","[998.6000003814697,582.1999998092651]","./assets/img/canyon/memory/26.jpg","[""ArrowDown"",""ArrowRight""]","value training","canyon","30","{""ArrowUp,ArrowLeft"":23,""ArrowUp,ArrowRight"":10,""ArrowDown,ArrowLeft"":8,""ArrowDown,ArrowRight"":30}","true","ArrowDown,ArrowRight","false","revaluation","1","6","","",""
"html-keyboard-response","128","698860","0.0-4.0-2.0-1.3","spark_pilot_norest","8619","6","13","Female","","","","","","","null","<div style=""font-size:60px;"">+</div>","null","fixation","","","","","","","","","7","","",""
"revaluation","129","704886","0.0-4.0-2.0-0.4","spark_pilot_norest","8619","6","13","Female","","false","","","","","[893.0999994277954,788.2000007629395]","./assets/img/canyon/memory/11.jpg","[""ArrowUp"",""ArrowRight""]","value training","canyon","10","{""ArrowUp,ArrowLeft"":23,""ArrowUp,ArrowRight"":10,""ArrowDown,ArrowLeft"":8,""ArrowDown,ArrowRight"":30}","false","ArrowUp,ArrowRight","false","revaluation","1","8","","",""
"html-keyboard-response","130","705392","0.0-4.0-2.0-1.4","spark_pilot_norest","8619","6","13","Female","","","","","","","null","<div style=""font-size:60px;"">+</div>","null","fixation","","","","","","","","","9","","",""
"revaluation","131","711399","0.0-4.0-2.0-0.5","spark_pilot_norest","8619","6","13","Female","","false","","","","","[678.6000003814697,422.19999980926514]","./assets/img/canyon/memory/35.jpg","[""ArrowUp"",""ArrowLeft""]","value training","canyon","23","{""ArrowUp,ArrowLeft"":23,""ArrowUp,ArrowRight"":10,""ArrowDown,ArrowLeft"":8,""ArrowDown,ArrowRight"":30}","false","ArrowUp,ArrowLeft","false","revaluation","1","10","","",""
"html-keyboard-response","132","711900","0.0-4.0-2.0-1.5","spark_pilot_norest","8619","6","13","Female","","","","","","","null","<div style=""font-size:60px;"">+</div>","null","fixation","","","","","","","","","11","","",""
"revaluation","133","717907","0.0-4.0-2.0-0.6","spark_pilot_norest","8619","6","13","Female","","false","","","","","[666.3000001907349,497.8999996185303]","./assets/img/canyon/memory/30.jpg","[""ArrowDown"",""ArrowRight""]","value training","canyon","30","{""ArrowUp,ArrowLeft"":23,""ArrowUp,ArrowRight"":10,""ArrowDown,ArrowLeft"":8,""ArrowDown,ArrowRight"":30}","true","ArrowDown,ArrowRight","false","revaluation","1","12","","",""
"html-keyboard-response","134","718410","0.0-4.0-2.0-1.6","spark_pilot_norest","8619","6","13","Female","","","","","","","null","<div style=""font-size:60px;"">+</div>","null","fixation","","","","","","","","","13","","",""
"revaluation","135","724416","0.0-4.0-2.0-0.7","spark_pilot_norest","8619","6","13","Female","","false","","","","","[763.3999996185303,591.8999996185303]","./assets/img/canyon/memory/20.jpg","[""ArrowUp"",""ArrowLeft""]","value training","canyon","23","{""ArrowUp,ArrowLeft"":23,""ArrowUp,ArrowRight"":10,""ArrowDown,ArrowLeft"":8,""ArrowDown,ArrowRight"":30}","false","ArrowUp,ArrowLeft","false","revaluation","1","14","","",""
"html-keyboard-response","136","724919","0.0-4.0-2.0-1.7","spark_pilot_norest","8619","6","13","Female","","","","","","","null","<div style=""font-size:60px;"">+</div>","null","fixation","","","","","","","","","15","","",""
"revaluation","137","730926","0.0-4.0-2.0-0.8","spark_pilot_norest","8619","6","13","Female","","false","","","","","[624.1999998092651,360.69999980926514]","./assets/img/canyon/memory/17.jpg","[""ArrowDown"",""ArrowLeft""]","value training","canyon","8","{""ArrowUp,ArrowLeft"":23,""ArrowUp,ArrowRight"":10,""ArrowDown,ArrowLeft"":8,""ArrowDown,ArrowRight"":30}","false","ArrowDown,ArrowLeft","false","revaluation","1","16","","",""
"html-keyboard-response","138","731428","0.0-4.0-2.0-1.8","spark_pilot_norest","8619","6","13","Female","","","","","","","null","<div style=""font-size:60px;"">+</div>","null","fixation","","","","","","","","","17","","",""
"revaluation","139","737435","0.0-4.0-2.0-0.9","spark_pilot_norest","8619","6","13","Female","","false","","","","","[742.0999994277954,652.1999998092651]","./assets/img/canyon/memory/31.jpg","[""ArrowDown"",""ArrowRight""]","value training","canyon","30","{""ArrowUp,ArrowLeft"":23,""ArrowUp,ArrowRight"":10,""ArrowDown,ArrowLeft"":8,""ArrowDown,ArrowRight"":30}","true","ArrowDown,ArrowRight","false","revaluation","1","18","","",""
"html-keyboard-response","140","737937","0.0-4.0-2.0-1.9","spark_pilot_norest","8619","6","13","Female","","","","","","","null","<div style=""font-size:60px;"">+</div>","null","fixation","","","","","","","","","19","","",""
"revaluation","141","743944","0.0-4.0-2.0-0.10","spark_pilot_norest","8619","6","13","Female","","false","","","","","[681.7000007629395,604.6000003814697]","./assets/img/canyon/memory/35.jpg","[""ArrowDown"",""ArrowRight""]","value training","canyon","30","{""ArrowUp,ArrowLeft"":23,""ArrowUp,ArrowRight"":10,""ArrowDown,ArrowLeft"":8,""ArrowDown,ArrowRight"":30}","true","ArrowDown,ArrowRight","false","revaluation","1","20","","",""
"html-keyboard-response","142","744446","0.0-4.0-2.0-1.10","spark_pilot_norest","8619","6","13","Female","","","","","","","null","<div style=""font-size:60px;"">+</div>","null","fixation","","","","","","","","","21","","",""
"revaluation","143","750453","0.0-4.0-2.0-0.11","spark_pilot_norest","8619","6","13","Female","","false","","","","","[776.8999996185303,649.6000003814697]","./assets/img/canyon/memory/32.jpg","[""ArrowDown"",""ArrowRight""]","value training","canyon","30","{""ArrowUp,ArrowLeft"":23,""ArrowUp,ArrowRight"":10,""ArrowDown,ArrowLeft"":8,""ArrowDown,ArrowRight"":30}","true","ArrowDown,ArrowRight","false","revaluation","1","22","","",""
"html-keyboard-response","144","750955","0.0-4.0-2.0-1.11","spark_pilot_norest","8619","6","13","Female","","","","","","","null","<div style=""font-size:60px;"">+</div>","null","fixation","","","","","","","","","23","","",""
"revaluation","145","756961","0.0-4.0-2.0-0.12","spark_pilot_norest","8619","6","13","Female","","false","","","","","[631,543.1999998092651]","./assets/img/canyon/memory/30.jpg","[""ArrowDown"",""ArrowRight""]","value training","canyon","30","{""ArrowUp,ArrowLeft"":23,""ArrowUp,ArrowRight"":10,""ArrowDown,ArrowLeft"":8,""ArrowDown,ArrowRight"":30}","true","ArrowDown,ArrowRight","false","revaluation","1","24","","",""
"html-keyboard-response","146","757463","0.0-4.0-2.0-1.12","spark_pilot_norest","8619","6","13","Female","","","","","","","null","<div style=""font-size:60px;"">+</div>","null","fixation","","","","","","","","","25","","",""
"revaluation","147","763469","0.0-4.0-2.0-0.13","spark_pilot_norest","8619","6","13","Female","","false","","","","","[611.1999998092651,643.6999998092651]","./assets/img/canyon/memory/2.jpg","[""ArrowDown"",""ArrowRight""]","value training","canyon","30","{""ArrowUp,ArrowLeft"":23,""ArrowUp,ArrowRight"":10,""ArrowDown,ArrowLeft"":8,""ArrowDown,ArrowRight"":30}","true","ArrowDown,ArrowRight","false","revaluation","1","26","","",""
"html-keyboard-response","148","763970","0.0-4.0-2.0-1.13","spark_pilot_norest","8619","6","13","Female","","","","","","","null","<div style=""font-size:60px;"">+</div>","null","fixation","","","","","","","","","27","","",""
"revaluation","149","769978","0.0-4.0-2.0-0.14","spark_pilot_norest","8619","6","13","Female","","false","","","","","[609,584.6000003814697]","./assets/img/canyon/memory/29.jpg","[""ArrowDown"",""ArrowRight""]","value training","canyon","30","{""ArrowUp,ArrowLeft"":23,""ArrowUp,ArrowRight"":10,""ArrowDown,ArrowLeft"":8,""ArrowDown,ArrowRight"":30}","true","ArrowDown,ArrowRight","false","revaluation","1","28","","",""
"html-keyboard-response","150","770480","0.0-4.0-2.0-1.14","spark_pilot_norest","8619","6","13","Female","","","","","","","null","<div style=""font-size:60px;"">+</div>","null","fixation","","","","","","","","","29","","",""
"revaluation","151","774486","0.0-4.0-2.0-0.15","spark_pilot_norest","8619","6","13","Female","","false","","","","","[668.4000005722046]","./assets/img/canyon/catch/6.jpg","[""spaceBar""]","value training","canyon","0","{""ArrowUp,ArrowLeft"":23,""ArrowUp,ArrowRight"":10,""ArrowDown,ArrowLeft"":8,""ArrowDown,ArrowRight"":30}","true","spaceBar","true","revaluation","1","30","","",""
"html-keyboard-response","152","774988","0.0-4.0-2.0-1.15","spark_pilot_norest","8619","6","13","Female","","","","","","","null","<div style=""font-size:60px;"">+</div>","null","fixation","","","","","","","","","31","","",""
"revaluation","153","778993","0.0-4.0-2.0-0.16","spark_pilot_norest","8619","6","13","Female","","false","","","","","[905]","./assets/img/canyon/catch/2.jpg","[""spaceBar""]","value training","canyon","0","{""ArrowUp,ArrowLeft"":23,""ArrowUp,ArrowRight"":10,""ArrowDown,ArrowLeft"":8,""ArrowDown,ArrowRight"":30}","true","spaceBar","true","revaluation","1","32","","",""
"html-keyboard-response","154","779494","0.0-4.0-2.0-1.16","spark_pilot_norest","8619","6","13","Female","","","","","","","null","<div style=""font-size:60px;"">+</div>","null","fixation","","","","","","","","","33","","",""
"revaluation","155","783500","0.0-4.0-2.0-0.17","spark_pilot_norest","8619","6","13","Female","","false","","","","","[588.5999994277954]","./assets/img/canyon/catch/0.jpg","[""spaceBar""]","value training","canyon","0","{""ArrowUp,ArrowLeft"":23,""ArrowUp,ArrowRight"":10,""ArrowDown,ArrowLeft"":8,""ArrowDown,ArrowRight"":30}","true","spaceBar","true","revaluation","1","34","","",""
"html-keyboard-response","156","784002","0.0-4.0-2.0-1.17","spark_pilot_norest","8619","6","13","Female","","","","","","","null","<div style=""font-size:60px;"">+</div>","null","fixation","","","","","","","","","35","","",""
"revaluation","157","790009","0.0-4.0-2.0-0.18","spark_pilot_norest","8619","6","13","Female","","false","","","","","[1246.2000007629395,604.3000001907349]","./assets/img/canyon/memory/2.jpg","[""ArrowDown"",""ArrowRight""]","value training","canyon","30","{""ArrowUp,ArrowLeft"":23,""ArrowUp,ArrowRight"":10,""ArrowDown,ArrowLeft"":8,""ArrowDown,ArrowRight"":30}","true","ArrowDown,ArrowRight","false","revaluation","1","36","","",""
"html-keyboard-response","158","790511","0.0-4.0-2.0-1.18","spark_pilot_norest","8619","6","13","Female","","","","","","","null","<div style=""font-size:60px;"">+</div>","null","fixation","","","","","","","","","37","","",""
"revaluation","159","796517","0.0-4.0-2.0-0.19","spark_pilot_norest","8619","6","13","Female","","false","","","","","[677.6999998092651,903.2999992370605]","./assets/img/canyon/memory/31.jpg","[""ArrowDown"",""ArrowRight""]","value training","canyon","30","{""ArrowUp,ArrowLeft"":23,""ArrowUp,ArrowRight"":10,""ArrowDown,ArrowLeft"":8,""ArrowDown,ArrowRight"":30}","true","ArrowDown,ArrowRight","false","revaluation","1","38","","",""
"html-keyboard-response","160","797018","0.0-4.0-2.0-1.19","spark_pilot_norest","8619","6","13","Female","","","","","","","null","<div style=""font-size:60px;"">+</div>","null","fixation","","","","","","","","","39","","",""
"revaluation","161","803025","0.0-4.0-2.0-0.20","spark_pilot_norest","8619","6","13","Female","","false","","","","","[1049,715]","./assets/img/canyon/memory/15.jpg","[""ArrowDown"",""ArrowRight""]","value training","canyon","30","{""ArrowUp,ArrowLeft"":23,""ArrowUp,ArrowRight"":10,""ArrowDown,ArrowLeft"":8,""ArrowDown,ArrowRight"":30}","true","ArrowDown,ArrowRight","false","revaluation","1","40","","",""
"html-keyboard-response","162","803527","0.0-4.0-2.0-1.20","spark_pilot_norest","8619","6","13","Female","","","","","","","null","<div style=""font-size:60px;"">+</div>","null","fixation","","","","","","","","","41","","",""
"revaluation","163","809534","0.0-4.0-2.0-0.21","spark_pilot_norest","8619","6","13","Female","","false","","","","","[699.4000005722046,871.3000001907349]","./assets/img/canyon/memory/0.jpg","[""ArrowDown"",""ArrowRight""]","value training","canyon","30","{""ArrowUp,ArrowLeft"":23,""ArrowUp,ArrowRight"":10,""ArrowDown,ArrowLeft"":8,""ArrowDown,ArrowRight"":30}","true","ArrowDown,ArrowRight","false","revaluation","1","42","","",""
"html-keyboard-response","164","810036","0.0-4.0-2.0-1.21","spark_pilot_norest","8619","6","13","Female","","","","","","","null","<div style=""font-size:60px;"">+</div>","null","fixation","","","","","","","","","43","","",""
"revaluation","165","814041","0.0-4.0-2.0-0.22","spark_pilot_norest","8619","6","13","Female","","false","","","","","[647.6999998092651]","./assets/img/canyon/catch/7.jpg","[""spaceBar""]","value training","canyon","0","{""ArrowUp,ArrowLeft"":23,""ArrowUp,ArrowRight"":10,""ArrowDown,ArrowLeft"":8,""ArrowDown,ArrowRight"":30}","true","spaceBar","true","revaluation","1","44","","",""
"html-keyboard-response","166","814544","0.0-4.0-2.0-1.22","spark_pilot_norest","8619","6","13","Female","","","","","","","null","<div style=""font-size:60px;"">+</div>","null","fixation","","","","","","","","","45","","",""
"revaluation","167","820551","0.0-4.0-2.0-0.23","spark_pilot_norest","8619","6","13","Female","","false","","","","","[537.3000001907349,985]","./assets/img/canyon/memory/33.jpg","[""ArrowDown"",""ArrowRight""]","value training","canyon","30","{""ArrowUp,ArrowLeft"":23,""ArrowUp,ArrowRight"":10,""ArrowDown,ArrowLeft"":8,""ArrowDown,ArrowRight"":30}","true","ArrowDown,ArrowRight","false","revaluation","1","46","","",""
"html-keyboard-response","168","821053","0.0-4.0-2.0-1.23","spark_pilot_norest","8619","6","13","Female","","","","","","","null","<div style=""font-size:60px;"">+</div>","null","fixation","","","","","","","","","47","","",""
"revaluation","169","827059","0.0-4.0-2.0-0.24","spark_pilot_norest","8619","6","13","Female","","false","","","","","[717.1000003814697,752.9000005722046]","./assets/img/canyon/memory/15.jpg","[""ArrowDown"",""ArrowRight""]","value training","canyon","30","{""ArrowUp,ArrowLeft"":23,""ArrowUp,ArrowRight"":10,""ArrowDown,ArrowLeft"":8,""ArrowDown,ArrowRight"":30}","true","ArrowDown,ArrowRight","false","revaluation","1","48","","",""
"html-keyboard-response","170","827575","0.0-4.0-2.0-1.24","spark_pilot_norest","8619","6","13","Female","","","","","","","null","<div style=""font-size:60px;"">+</div>","null","fixation","","","","","","","","","49","","",""
"revaluation","171","833582","0.0-4.0-2.0-0.25","spark_pilot_norest","8619","6","13","Female","","false","","","","","[814.3999996185303,825.3999996185303]","./assets/img/canyon/memory/26.jpg","[""ArrowDown"",""ArrowRight""]","value training","canyon","30","{""ArrowUp,ArrowLeft"":23,""ArrowUp,ArrowRight"":10,""ArrowDown,ArrowLeft"":8,""ArrowDown,ArrowRight"":30}","true","ArrowDown,ArrowRight","false","revaluation","1","50","","",""
"html-keyboard-response","172","834084","0.0-4.0-2.0-1.25","spark_pilot_norest","8619","6","13","Female","","","","","","","null","<div style=""font-size:60px;"">+</div>","null","fixation","","","","","","","","","51","","",""
"revaluation","173","840091","0.0-4.0-2.0-0.26","spark_pilot_norest","8619","6","13","Female","","false","","","","","[398.4000005722046,621.8000001907349]","./assets/img/canyon/memory/33.jpg","[""ArrowDown"",""ArrowRight""]","value training","canyon","30","{""ArrowUp,ArrowLeft"":23,""ArrowUp,ArrowRight"":10,""ArrowDown,ArrowLeft"":8,""ArrowDown,ArrowRight"":30}","true","ArrowDown,ArrowRight","false","revaluation","1","52","","",""
"html-keyboard-response","174","840594","0.0-4.0-2.0-1.26","spark_pilot_norest","8619","6","13","Female","","","","","","","null","<div style=""font-size:60px;"">+</div>","null","fixation","","","","","","","","","53","","",""
"revaluation","175","846609","0.0-4.0-2.0-0.27","spark_pilot_norest","8619","6","13","Female","","false","","","","","[571.8999996185303,462.3999996185303]","./assets/img/canyon/memory/16.jpg","[""ArrowDown"",""ArrowRight""]","value training","canyon","30","{""ArrowUp,ArrowLeft"":23,""ArrowUp,ArrowRight"":10,""ArrowDown,ArrowLeft"":8,""ArrowDown,ArrowRight"":30}","true","ArrowDown,ArrowRight","false","revaluation","1","54","","",""
"html-keyboard-response","176","847110","0.0-4.0-2.0-1.27","spark_pilot_norest","8619","6","13","Female","","","","","","","null","<div style=""font-size:60px;"">+</div>","null","fixation","","","","","","","","","55","","",""
"revaluation","177","853117","0.0-4.0-2.0-0.28","spark_pilot_norest","8619","6","13","Female","","false","","","","","[854.2999992370605,659.6000003814697]","./assets/img/canyon/memory/23.jpg","[""ArrowDown"",""ArrowRight""]","value training","canyon","30","{""ArrowUp,ArrowLeft"":23,""ArrowUp,ArrowRight"":10,""ArrowDown,ArrowLeft"":8,""ArrowDown,ArrowRight"":30}","true","ArrowDown,ArrowRight","false","revaluation","1","56","","",""
"html-keyboard-response","178","853627","0.0-4.0-2.0-1.28","spark_pilot_norest","8619","6","13","Female","","","","","","","null","<div style=""font-size:60px;"">+</div>","null","fixation","","","","","","","","","57","","",""
"revaluation","179","859635","0.0-4.0-2.0-0.29","spark_pilot_norest","8619","6","13","Female","","false","","","","","[624,448]","./assets/img/canyon/memory/14.jpg","[""ArrowDown"",""ArrowRight""]","value training","canyon","30","{""ArrowUp,ArrowLeft"":23,""ArrowUp,ArrowRight"":10,""ArrowDown,ArrowLeft"":8,""ArrowDown,ArrowRight"":30}","true","ArrowDown,ArrowRight","false","revaluation","1","58","","",""
"html-keyboard-response","180","860137","0.0-4.0-2.0-1.29","spark_pilot_norest","8619","6","13","Female","","","","","","","null","<div style=""font-size:60px;"">+</div>","null","fixation","","","","","","","","","59","","",""
"revaluation","181","866144","0.0-4.0-2.0-0.30","spark_pilot_norest","8619","6","13","Female","","false","","","","","[565,448]","./assets/img/canyon/memory/9.jpg","[""ArrowDown"",""ArrowRight""]","value training","canyon","30","{""ArrowUp,ArrowLeft"":23,""ArrowUp,ArrowRight"":10,""ArrowDown,ArrowLeft"":8,""ArrowDown,ArrowRight"":30}","true","ArrowDown,ArrowRight","false","revaluation","1","60","","",""
"html-keyboard-response","182","866645","0.0-4.0-2.0-1.30","spark_pilot_norest","8619","6","13","Female","","","","","","","null","<div style=""font-size:60px;"">+</div>","null","fixation","","","","","","","","","61","","",""
"revaluation","183","872653","0.0-4.0-2.0-0.31","spark_pilot_norest","8619","6","13","Female","","false","","","","","[573.6000003814697,659.2999992370605]","./assets/img/canyon/memory/38.jpg","[""ArrowDown"",""ArrowRight""]","value training","canyon","30","{""ArrowUp,ArrowLeft"":23,""ArrowUp,ArrowRight"":10,""ArrowDown,ArrowLeft"":8,""ArrowDown,ArrowRight"":30}","true","ArrowDown,ArrowRight","false","revaluation","1","62","","",""
"html-keyboard-response","184","873155","0.0-4.0-2.0-1.31","spark_pilot_norest","8619","6","13","Female","","","","","","","null","<div style=""font-size:60px;"">+</div>","null","fixation","","","","","","","","","63","","",""
"revaluation","185","879161","0.0-4.0-2.0-0.32","spark_pilot_norest","8619","6","13","Female","","false","","","","","[651.3000001907349,487.19999980926514]","./assets/img/canyon/memory/6.jpg","[""ArrowDown"",""ArrowRight""]","value training","canyon","30","{""ArrowUp,ArrowLeft"":23,""ArrowUp,ArrowRight"":10,""ArrowDown,ArrowLeft"":8,""ArrowDown,ArrowRight"":30}","true","ArrowDown,ArrowRight","false","revaluation","1","64","","",""
"html-keyboard-response","186","879663","0.0-4.0-2.0-1.32","spark_pilot_norest","8619","6","13","Female","","","","","","","null","<div style=""font-size:60px;"">+</div>","null","fixation","","","","","","","","","65","","",""
"revaluation","187","885670","0.0-4.0-2.0-0.33","spark_pilot_norest","8619","6","13","Female","","false","","","","","[814.8999996185303,475.30000019073486]","./assets/img/canyon/memory/9.jpg","[""ArrowDown"",""ArrowRight""]","value training","canyon","30","{""ArrowUp,ArrowLeft"":23,""ArrowUp,ArrowRight"":10,""ArrowDown,ArrowLeft"":8,""ArrowDown,ArrowRight"":30}","true","ArrowDown,ArrowRight","false","revaluation","1","66","","",""
"html-keyboard-response","188","886173","0.0-4.0-2.0-1.33","spark_pilot_norest","8619","6","13","Female","","","","","","","null","<div style=""font-size:60px;"">+</div>","null","fixation","","","","","","","","","67","","",""
"revaluation","189","892183","0.0-4.0-2.0-0.34","spark_pilot_norest","8619","6","13","Female","","false","","","","","[645.2000007629395,603.6999998092651]","./assets/img/canyon/memory/6.jpg","[""ArrowDown"",""ArrowRight""]","value training","canyon","30","{""ArrowUp,ArrowLeft"":23,""ArrowUp,ArrowRight"":10,""ArrowDown,ArrowLeft"":8,""ArrowDown,ArrowRight"":30}","true","ArrowDown,ArrowRight","false","revaluation","1","68","","",""
"html-keyboard-response","190","892684","0.0-4.0-2.0-1.34","spark_pilot_norest","8619","6","13","Female","","","","","","","null","<div style=""font-size:60px;"">+</div>","null","fixation","","","","","","","","","69","","",""
"revaluation","191","898690","0.0-4.0-2.0-0.35","spark_pilot_norest","8619","6","13","Female","","false","","","","","[720.3000001907349,579.3999996185303]","./assets/img/canyon/memory/11.jpg","[""ArrowDown"",""ArrowRight""]","value training","canyon","30","{""ArrowUp,ArrowLeft"":23,""ArrowUp,ArrowRight"":10,""ArrowDown,ArrowLeft"":8,""ArrowDown,ArrowRight"":30}","true","ArrowDown,ArrowRight","false","revaluation","1","70","","",""
"html-keyboard-response","192","899192","0.0-4.0-2.0-1.35","spark_pilot_norest","8619","6","13","Female","","","","","","","null","<div style=""font-size:60px;"">+</div>","null","fixation","","","","","","","","","71","","",""
"revaluation","193","905198","0.0-4.0-2.0-0.36","spark_pilot_norest","8619","6","13","Female","","false","","","","","[605.2000007629395,666.1999998092651]","./assets/img/canyon/memory/8.jpg","[""ArrowDown"",""ArrowRight""]","value training","canyon","30","{""ArrowUp,ArrowLeft"":23,""ArrowUp,ArrowRight"":10,""ArrowDown,ArrowLeft"":8,""ArrowDown,ArrowRight"":30}","true","ArrowDown,ArrowRight","false","revaluation","1","72","","",""
"html-keyboard-response","194","905700","0.0-4.0-2.0-1.36","spark_pilot_norest","8619","6","13","Female","","","","","","","null","<div style=""font-size:60px;"">+</div>","null","fixation","","","","","","","","","73","","",""
"revaluation","195","911707","0.0-4.0-2.0-0.37","spark_pilot_norest","8619","6","13","Female","","false","","","","","[1063.1999998092651,836.8999996185303]","./assets/img/canyon/memory/19.jpg","[""ArrowUp"",""ArrowRight""]","value training","canyon","10","{""ArrowUp,ArrowLeft"":23,""ArrowUp,ArrowRight"":10,""ArrowDown,ArrowLeft"":8,""ArrowDown,ArrowRight"":30}","false","ArrowUp,ArrowRight","false","revaluation","1","74","","",""
"html-keyboard-response","196","912209","0.0-4.0-2.0-1.37","spark_pilot_norest","8619","6","13","Female","","","","","","","null","<div style=""font-size:60px;"">+</div>","null","fixation","","","","","","","","","75","","",""
"revaluation","197","918216","0.0-4.0-2.0-0.38","spark_pilot_norest","8619","6","13","Female","","false","","","","","[793.9000005722046,500.4000005722046]","./assets/img/canyon/memory/17.jpg","[""ArrowDown"",""ArrowRight""]","value training","canyon","30","{""ArrowUp,ArrowLeft"":23,""ArrowUp,ArrowRight"":10,""ArrowDown,ArrowLeft"":8,""ArrowDown,ArrowRight"":30}","true","ArrowDown,ArrowRight","false","revaluation","1","76","","",""
"html-keyboard-response","198","918718","0.0-4.0-2.0-1.38","spark_pilot_norest","8619","6","13","Female","","","","","","","null","<div style=""font-size:60px;"">+</div>","null","fixation","","","","","","","","","77","","",""
"revaluation","199","924725","0.0-4.0-2.0-0.39","spark_pilot_norest","8619","6","13","Female","","false","","","","","[1085.3000001907349,704.8999996185303]","./assets/img/canyon/memory/14.jpg","[""ArrowDown"",""ArrowRight""]","value training","canyon","30","{""ArrowUp,ArrowLeft"":23,""ArrowUp,ArrowRight"":10,""ArrowDown,ArrowLeft"":8,""ArrowDown,ArrowRight"":30}","true","ArrowDown,ArrowRight","false","revaluation","1","78","","",""
"html-keyboard-response","200","925226","0.0-4.0-2.0-1.39","spark_pilot_norest","8619","6","13","Female","","","","","","","null","<div style=""font-size:60px;"">+</div>","null","fixation","","","","","","","","","79","","",""
"revaluation","201","931233","0.0-4.0-2.0-0.40","spark_pilot_norest","8619","6","13","Female","","false","","","","","[693.6000003814697,1091.7000007629395]","./assets/img/canyon/memory/8.jpg","[""ArrowDown"",""ArrowRight""]","value training","canyon","30","{""ArrowUp,ArrowLeft"":23,""ArrowUp,ArrowRight"":10,""ArrowDown,ArrowLeft"":8,""ArrowDown,ArrowRight"":30}","true","ArrowDown,ArrowRight","false","revaluation","1","80","","",""
"html-keyboard-response","202","931735","0.0-4.0-2.0-1.40","spark_pilot_norest","8619","6","13","Female","","","","","","","null","<div style=""font-size:60px;"">+</div>","null","fixation","","","","","","","","","81","","",""
"revaluation","203","937741","0.0-4.0-2.0-0.41","spark_pilot_norest","8619","6","13","Female","","false","","","","","[788.8000001907349,897]","./assets/img/canyon/memory/19.jpg","[""ArrowDown"",""ArrowRight""]","value training","canyon","30","{""ArrowUp,ArrowLeft"":23,""ArrowUp,ArrowRight"":10,""ArrowDown,ArrowLeft"":8,""ArrowDown,ArrowRight"":30}","true","ArrowDown,ArrowRight","false","revaluation","1","82","","",""
"html-keyboard-response","204","938243","0.0-4.0-2.0-1.41","spark_pilot_norest","8619","6","13","Female","","","","","","","null","<div style=""font-size:60px;"">+</div>","null","fixation","","","","","","","","","83","","",""
"revaluation","205","944249","0.0-4.0-2.0-0.42","spark_pilot_norest","8619","6","13","Female","","false","","","","","[792.5999994277954,703.6000003814697]","./assets/img/canyon/memory/38.jpg","[""ArrowDown"",""ArrowRight""]","value training","canyon","30","{""ArrowUp,ArrowLeft"":23,""ArrowUp,ArrowRight"":10,""ArrowDown,ArrowLeft"":8,""ArrowDown,ArrowRight"":30}","true","ArrowDown,ArrowRight","false","revaluation","1","84","","",""
"html-keyboard-response","206","944750","0.0-4.0-2.0-1.42","spark_pilot_norest","8619","6","13","Female","","","","","","","null","<div style=""font-size:60px;"">+</div>","null","fixation","","","","","","","","","85","","",""
"revaluation","207","950758","0.0-4.0-2.0-0.43","spark_pilot_norest","8619","6","13","Female","","false","","","","","[533.5999994277954,444.5]","./assets/img/canyon/memory/23.jpg","[""ArrowDown"",""ArrowRight""]","value training","canyon","30","{""ArrowUp,ArrowLeft"":23,""ArrowUp,ArrowRight"":10,""ArrowDown,ArrowLeft"":8,""ArrowDown,ArrowRight"":30}","true","ArrowDown,ArrowRight","false","revaluation","1","86","","",""
"html-keyboard-response","208","951260","0.0-4.0-2.0-1.43","spark_pilot_norest","8619","6","13","Female","","","","","","","null","<div style=""font-size:60px;"">+</div>","null","fixation","","","","","","","","","87","","",""
"revaluation","209","957279","0.0-4.0-2.0-0.44","spark_pilot_norest","8619","6","13","Female","","false","","","","","[456.6000003814697,582.3999996185303]","./assets/img/canyon/memory/20.jpg","[""ArrowDown"",""ArrowRight""]","value training","canyon","30","{""ArrowUp,ArrowLeft"":23,""ArrowUp,ArrowRight"":10,""ArrowDown,ArrowLeft"":8,""ArrowDown,ArrowRight"":30}","true","ArrowDown,ArrowRight","false","revaluation","1","88","","",""
"html-keyboard-response","210","957781","0.0-4.0-2.0-1.44","spark_pilot_norest","8619","6","13","Female","","","","","","","null","<div style=""font-size:60px;"">+</div>","null","fixation","","","","","","","","","89","","",""
"revaluation","211","963787","0.0-4.0-2.0-0.45","spark_pilot_norest","8619","6","13","Female","","false","","","","","[540.3000001907349,780]","./assets/img/canyon/memory/0.jpg","[""ArrowDown"",""ArrowRight""]","value training","canyon","30","{""ArrowUp,ArrowLeft"":23,""ArrowUp,ArrowRight"":10,""ArrowDown,ArrowLeft"":8,""ArrowDown,ArrowRight"":30}","true","ArrowDown,ArrowRight","false","revaluation","1","90","","",""
"html-keyboard-response","212","964289","0.0-4.0-2.0-1.45","spark_pilot_norest","8619","6","13","Female","","","","","","","null","<div style=""font-size:60px;"">+</div>","null","fixation","","","","","","","","","91","","",""
"revaluation","213","968295","0.0-4.0-2.0-0.46","spark_pilot_norest","8619","6","13","Female","","false","","","","","[557.5]","./assets/img/canyon/catch/4.jpg","[""spaceBar""]","value training","canyon","0","{""ArrowUp,ArrowLeft"":23,""ArrowUp,ArrowRight"":10,""ArrowDown,ArrowLeft"":8,""ArrowDown,ArrowRight"":30}","true","spaceBar","true","revaluation","1","92","","",""
"html-keyboard-response","214","968797","0.0-4.0-2.0-1.46","spark_pilot_norest","8619","6","13","Female","","","","","","","null","<div style=""font-size:60px;"">+</div>","null","fixation","","","","","","","","","93","","",""
"revaluation","215","974803","0.0-4.0-2.0-0.47","spark_pilot_norest","8619","6","13","Female","","false","","","","","[715.6000003814697,657.1999998092651]","./assets/img/canyon/memory/32.jpg","[""ArrowDown"",""ArrowRight""]","value training","canyon","30","{""ArrowUp,ArrowLeft"":23,""ArrowUp,ArrowRight"":10,""ArrowDown,ArrowLeft"":8,""ArrowDown,ArrowRight"":30}","true","ArrowDown,ArrowRight","false","revaluation","1","94","","",""
"html-keyboard-response","216","975304","0.0-4.0-2.0-1.47","spark_pilot_norest","8619","6","13","Female","","","","","","","null","<div style=""font-size:60px;"">+</div>","null","fixation","","","","","","","","","95","","",""
"revaluation","217","981311","0.0-4.0-2.0-0.48","spark_pilot_norest","8619","6","13","Female","","false","","","","","[805.1000003814697,644.3999996185303]","./assets/img/canyon/memory/16.jpg","[""ArrowDown"",""ArrowRight""]","value training","canyon","30","{""ArrowUp,ArrowLeft"":23,""ArrowUp,ArrowRight"":10,""ArrowDown,ArrowLeft"":8,""ArrowDown,ArrowRight"":30}","true","ArrowDown,ArrowRight","false","revaluation","1","96","","",""
"html-keyboard-response","218","981813","0.0-4.0-2.0-1.48","spark_pilot_norest","8619","6","13","Female","","","","","","","null","<div style=""font-size:60px;"">+</div>","null","fixation","","","","","","","","","97","","",""
"revaluation","219","985819","0.0-4.0-2.0-0.49","spark_pilot_norest","8619","6","13","Female","","false","","","","","[659.8999996185303]","./assets/img/canyon/catch/1.jpg","[""spaceBar""]","value training","canyon","0","{""ArrowUp,ArrowLeft"":23,""ArrowUp,ArrowRight"":10,""ArrowDown,ArrowLeft"":8,""ArrowDown,ArrowRight"":30}","true","spaceBar","true","revaluation","1","98","","",""
"html-keyboard-response","220","986321","0.0-4.0-2.0-1.49","spark_pilot_norest","8619","6","13","Female","","","","","","","null","<div style=""font-size:60px;"">+</div>","null","fixation","","","","","","","","","99","","",""
"learning-instructions","221","1002323","0.0-4.0-3.0-0.0","spark_pilot_norest","8619","6","13","Female","","","","","","","2587.800000190735","<p> Now, you will travel with a friend who will choose whether you go up or down first. </p>
            <p> On these turns, you will just see the animal that they found. You will still get to choose which chest to search for treasure.</p>","","instructions","","","","","","","","","","","",""
"revaluation","222","1006347","0.0-4.0-4.0-0.0","spark_pilot_norest","8619","6","13","Female","","false","","","","","[680.5]","./assets/img/canyon/animals/giraffe.jpg","[""ArrowRight""]","revaluation","canyon","15","{""ArrowUp,ArrowLeft"":27,""ArrowUp,ArrowRight"":15,""ArrowDown,ArrowLeft"":21,""ArrowDown,ArrowRight"":7}","false","ArrowUp,ArrowRight","","revaluation","1","0","","",""
"html-keyboard-response","223","1006864","0.0-4.0-4.0-1.0","spark_pilot_norest","8619","6","13","Female","","","","","","","null","<div style=""font-size:60px;"">+</div>","null","fixation","","","","","","","","","1","","",""
"revaluation","224","1010891","0.0-4.0-4.0-0.1","spark_pilot_norest","8619","6","13","Female","","false","","","","","[560.8999996185303]","./assets/img/canyon/animals/giraffe.jpg","[""ArrowRight""]","revaluation","canyon","15","{""ArrowUp,ArrowLeft"":27,""ArrowUp,ArrowRight"":15,""ArrowDown,ArrowLeft"":21,""ArrowDown,ArrowRight"":7}","false","ArrowUp,ArrowRight","","revaluation","1","2","","",""
"html-keyboard-response","225","1011393","0.0-4.0-4.0-1.1","spark_pilot_norest","8619","6","13","Female","","","","","","","null","<div style=""font-size:60px;"">+</div>","null","fixation","","","","","","","","","3","","",""
"revaluation","226","1015425","0.0-4.0-4.0-0.2","spark_pilot_norest","8619","6","13","Female","","false","","","","","[499.5]","./assets/img/canyon/animals/giraffe.jpg","[""ArrowRight""]","revaluation","canyon","15","{""ArrowUp,ArrowLeft"":27,""ArrowUp,ArrowRight"":15,""ArrowDown,ArrowLeft"":21,""ArrowDown,ArrowRight"":7}","false","ArrowUp,ArrowRight","","revaluation","1","4","","",""
"html-keyboard-response","227","1015936","0.0-4.0-4.0-1.2","spark_pilot_norest","8619","6","13","Female","","","","","","","null","<div style=""font-size:60px;"">+</div>","null","fixation","","","","","","","","","5","","",""
"revaluation","228","1019963","0.0-4.0-4.0-0.3","spark_pilot_norest","8619","6","13","Female","","false","","","","","[721.5]","./assets/img/canyon/animals/lion.jpg","[""ArrowRight""]","revaluation","canyon","7","{""ArrowUp,ArrowLeft"":27,""ArrowUp,ArrowRight"":15,""ArrowDown,ArrowLeft"":21,""ArrowDown,ArrowRight"":7}","false","ArrowDown,ArrowRight","","revaluation","1","6","","",""
"html-keyboard-response","229","1020480","0.0-4.0-4.0-1.3","spark_pilot_norest","8619","6","13","Female","","","","","","","null","<div style=""font-size:60px;"">+</div>","null","fixation","","","","","","","","","7","","",""
"revaluation","230","1024507","0.0-4.0-4.0-0.4","spark_pilot_norest","8619","6","13","Female","","false","","","","","[567.8999996185303]","./assets/img/canyon/animals/giraffe.jpg","[""ArrowLeft""]","revaluation","canyon","27","{""ArrowUp,ArrowLeft"":27,""ArrowUp,ArrowRight"":15,""ArrowDown,ArrowLeft"":21,""ArrowDown,ArrowRight"":7}","true","ArrowUp,ArrowLeft","","revaluation","1","8","","",""
"html-keyboard-response","231","1025024","0.0-4.0-4.0-1.4","spark_pilot_norest","8619","6","13","Female","","","","","","","null","<div style=""font-size:60px;"">+</div>","null","fixation","","","","","","","","","9","","",""
"revaluation","232","1029051","0.0-4.0-4.0-0.5","spark_pilot_norest","8619","6","13","Female","","false","","","","","[743.8999996185303]","./assets/img/canyon/animals/giraffe.jpg","[""ArrowLeft""]","revaluation","canyon","27","{""ArrowUp,ArrowLeft"":27,""ArrowUp,ArrowRight"":15,""ArrowDown,ArrowLeft"":21,""ArrowDown,ArrowRight"":7}","true","ArrowUp,ArrowLeft","","revaluation","1","10","","",""
"html-keyboard-response","233","1029557","0.0-4.0-4.0-1.5","spark_pilot_norest","8619","6","13","Female","","","","","","","null","<div style=""font-size:60px;"">+</div>","null","fixation","","","","","","","","","11","","",""
"revaluation","234","1033563","0.0-4.0-4.0-0.6","spark_pilot_norest","8619","6","13","Female","","false","","","","","[714.5]","./assets/img/canyon/animals/giraffe.jpg","[""ArrowLeft""]","revaluation","canyon","27","{""ArrowUp,ArrowLeft"":27,""ArrowUp,ArrowRight"":15,""ArrowDown,ArrowLeft"":21,""ArrowDown,ArrowRight"":7}","true","ArrowUp,ArrowLeft","","revaluation","1","12","","",""
"html-keyboard-response","235","1034065","0.0-4.0-4.0-1.6","spark_pilot_norest","8619","6","13","Female","","","","","","","null","<div style=""font-size:60px;"">+</div>","null","fixation","","","","","","","","","13","","",""
"revaluation","236","1038071","0.0-4.0-4.0-0.7","spark_pilot_norest","8619","6","13","Female","","false","","","","","[680.3999996185303]","./assets/img/canyon/animals/lion.jpg","[""ArrowLeft""]","revaluation","canyon","21","{""ArrowUp,ArrowLeft"":27,""ArrowUp,ArrowRight"":15,""ArrowDown,ArrowLeft"":21,""ArrowDown,ArrowRight"":7}","true","ArrowDown,ArrowLeft","","revaluation","1","14","","",""
"html-keyboard-response","237","1038574","0.0-4.0-4.0-1.7","spark_pilot_norest","8619","6","13","Female","","","","","","","null","<div style=""font-size:60px;"">+</div>","null","fixation","","","","","","","","","15","","",""
"revaluation","238","1042580","0.0-4.0-4.0-0.8","spark_pilot_norest","8619","6","13","Female","","false","","","","","[822.5]","./assets/img/canyon/animals/lion.jpg","[""ArrowRight""]","revaluation","canyon","7","{""ArrowUp,ArrowLeft"":27,""ArrowUp,ArrowRight"":15,""ArrowDown,ArrowLeft"":21,""ArrowDown,ArrowRight"":7}","false","ArrowDown,ArrowRight","","revaluation","1","16","","",""
"html-keyboard-response","239","1043081","0.0-4.0-4.0-1.8","spark_pilot_norest","8619","6","13","Female","","","","","","","null","<div style=""font-size:60px;"">+</div>","null","fixation","","","","","","","","","17","","",""
"revaluation","240","1047086","0.0-4.0-4.0-0.9","spark_pilot_norest","8619","6","13","Female","","false","","","","","[431.3999996185303]","./assets/img/canyon/animals/giraffe.jpg","[""ArrowLeft""]","revaluation","canyon","27","{""ArrowUp,ArrowLeft"":27,""ArrowUp,ArrowRight"":15,""ArrowDown,ArrowLeft"":21,""ArrowDown,ArrowRight"":7}","true","ArrowUp,ArrowLeft","","revaluation","1","18","","",""
"html-keyboard-response","241","1047588","0.0-4.0-4.0-1.9","spark_pilot_norest","8619","6","13","Female","","","","","","","null","<div style=""font-size:60px;"">+</div>","null","fixation","","","","","","","","","19","","",""
"revaluation","242","1051594","0.0-4.0-4.0-0.10","spark_pilot_norest","8619","6","13","Female","","false","","","","","[465.5]","./assets/img/canyon/animals/lion.jpg","[""ArrowLeft""]","revaluation","canyon","21","{""ArrowUp,ArrowLeft"":27,""ArrowUp,ArrowRight"":15,""ArrowDown,ArrowLeft"":21,""ArrowDown,ArrowRight"":7}","true","ArrowDown,ArrowLeft","","revaluation","1","20","","",""
"html-keyboard-response","243","1052095","0.0-4.0-4.0-1.10","spark_pilot_norest","8619","6","13","Female","","","","","","","null","<div style=""font-size:60px;"">+</div>","null","fixation","","","","","","","","","21","","",""
"revaluation","244","1056102","0.0-4.0-4.0-0.11","spark_pilot_norest","8619","6","13","Female","","false","","","","","[541.2999992370605]","./assets/img/canyon/animals/lion.jpg","[""ArrowLeft""]","revaluation","canyon","21","{""ArrowUp,ArrowLeft"":27,""ArrowUp,ArrowRight"":15,""ArrowDown,ArrowLeft"":21,""ArrowDown,ArrowRight"":7}","true","ArrowDown,ArrowLeft","","revaluation","1","22","","",""
"html-keyboard-response","245","1056605","0.0-4.0-4.0-1.11","spark_pilot_norest","8619","6","13","Female","","","","","","","null","<div style=""font-size:60px;"">+</div>","null","fixation","","","","","","","","","23","","",""
"revaluation","246","1060611","0.0-4.0-4.0-0.12","spark_pilot_norest","8619","6","13","Female","","false","","","","","[568.1000003814697]","./assets/img/canyon/animals/lion.jpg","[""ArrowLeft""]","revaluation","canyon","21","{""ArrowUp,ArrowLeft"":27,""ArrowUp,ArrowRight"":15,""ArrowDown,ArrowLeft"":21,""ArrowDown,ArrowRight"":7}","true","ArrowDown,ArrowLeft","","revaluation","1","24","","",""
"html-keyboard-response","247","1061112","0.0-4.0-4.0-1.12","spark_pilot_norest","8619","6","13","Female","","","","","","","null","<div style=""font-size:60px;"">+</div>","null","fixation","","","","","","","","","25","","",""
"revaluation","248","1065118","0.0-4.0-4.0-0.13","spark_pilot_norest","8619","6","13","Female","","false","","","","","[453]","./assets/img/canyon/animals/giraffe.jpg","[""ArrowLeft""]","revaluation","canyon","27","{""ArrowUp,ArrowLeft"":27,""ArrowUp,ArrowRight"":15,""ArrowDown,ArrowLeft"":21,""ArrowDown,ArrowRight"":7}","true","ArrowUp,ArrowLeft","","revaluation","1","26","","",""
"html-keyboard-response","249","1065620","0.0-4.0-4.0-1.13","spark_pilot_norest","8619","6","13","Female","","","","","","","null","<div style=""font-size:60px;"">+</div>","null","fixation","","","","","","","","","27","","",""
"revaluation","250","1069624","0.0-4.0-4.0-0.14","spark_pilot_norest","8619","6","13","Female","","false","","","","","[681.5]","./assets/img/canyon/animals/lion.jpg","[""ArrowLeft""]","revaluation","canyon","21","{""ArrowUp,ArrowLeft"":27,""ArrowUp,ArrowRight"":15,""ArrowDown,ArrowLeft"":21,""ArrowDown,ArrowRight"":7}","true","ArrowDown,ArrowLeft","","revaluation","1","28","","",""
"html-keyboard-response","251","1070126","0.0-4.0-4.0-1.14","spark_pilot_norest","8619","6","13","Female","","","","","","","null","<div style=""font-size:60px;"">+</div>","null","fixation","","","","","","","","","29","","",""
"revaluation","252","1074132","0.0-4.0-4.0-0.15","spark_pilot_norest","8619","6","13","Female","","false","","","","","[619.9000005722046]","./assets/img/canyon/animals/giraffe.jpg","[""ArrowLeft""]","revaluation","canyon","27","{""ArrowUp,ArrowLeft"":27,""ArrowUp,ArrowRight"":15,""ArrowDown,ArrowLeft"":21,""ArrowDown,ArrowRight"":7}","true","ArrowUp,ArrowLeft","","revaluation","1","30","","",""
"html-keyboard-response","253","1074633","0.0-4.0-4.0-1.15","spark_pilot_norest","8619","6","13","Female","","","","","","","null","<div style=""font-size:60px;"">+</div>","null","fixation","","","","","","","","","31","","",""
"revaluation","254","1078641","0.0-4.0-4.0-0.16","spark_pilot_norest","8619","6","13","Female","","false","","","","","[464.80000019073486]","./assets/img/canyon/animals/lion.jpg","[""ArrowLeft""]","revaluation","canyon","21","{""ArrowUp,ArrowLeft"":27,""ArrowUp,ArrowRight"":15,""ArrowDown,ArrowLeft"":21,""ArrowDown,ArrowRight"":7}","true","ArrowDown,ArrowLeft","","revaluation","1","32","","",""
"html-keyboard-response","255","1079155","0.0-4.0-4.0-1.16","spark_pilot_norest","8619","6","13","Female","","","","","","","null","<div style=""font-size:60px;"">+</div>","null","fixation","","","","","","","","","33","","",""
"revaluation","256","1083160","0.0-4.0-4.0-0.17","spark_pilot_norest","8619","6","13","Female","","false","","","","","[439.69999980926514]","./assets/img/canyon/animals/lion.jpg","[""ArrowLeft""]","revaluation","canyon","21","{""ArrowUp,ArrowLeft"":27,""ArrowUp,ArrowRight"":15,""ArrowDown,ArrowLeft"":21,""ArrowDown,ArrowRight"":7}","true","ArrowDown,ArrowLeft","","revaluation","1","34","","",""
"html-keyboard-response","257","1083662","0.0-4.0-4.0-1.17","spark_pilot_norest","8619","6","13","Female","","","","","","","null","<div style=""font-size:60px;"">+</div>","null","fixation","","","","","","","","","35","","",""
"learning-instructions","258","1092275","0.0-4.0-5.0-0.0","spark_pilot_norest","8619","6","13","Female","","","","","","","null","<p> You have almost finished this part of the game! </p>
            <p> We are going to ask you to make a few more choices. </p>","","instructions","","","","","","","","","","","",""
"learning-instructions","259","1108241","0.0-4.0-5.0-0.1","spark_pilot_norest","8619","6","13","Female","","","","","","","null","<p> First, you need to decide whether to go up or down. When you see each picture, use the arrow keys to make your choice. </p>
            <p><b>You will not see which animal you found, but try to get to the one that will give you the most treasure.</b></p>","","instructions","","","","","","","","","","","",""
"html-keyboard-response","260","1109255","0.0-4.0-6.0-0.0","spark_pilot_norest","8619","6","13","Female","","","","","","","null","<div style=""font-size:100px;color:red;"">Starting in...</div>","null","","","","","","","","","","","","",""
"html-keyboard-response","261","1110270","0.0-4.0-6.0-1.0","spark_pilot_norest","8619","6","13","Female","","","","","","","null","<div style=""font-size:200px;color:red;"">3</div>","null","","","","","","","","","","","","",""
"html-keyboard-response","262","1111272","0.0-4.0-6.0-2.0","spark_pilot_norest","8619","6","13","Female","","","","","","","null","<div style=""font-size:200px;color:red;"">2</div>","null","","","","","","","","","","","","",""
"html-keyboard-response","263","1112273","0.0-4.0-6.0-3.0","spark_pilot_norest","8619","6","13","Female","","","","","","","null","<div style=""font-size:200px;color:red;"">1</div>","null","","","","","","","","","","","","",""
"revaluation","264","1112662","0.0-4.0-7.0-0.0","spark_pilot_norest","8619","6","13","Female","","false","","","","","[383.4000005722046]","./assets/img/canyon/test/1.jpg","[""ArrowDown""]","first stage test","canyon","0","{""ArrowUp,ArrowLeft"":27,""ArrowUp,ArrowRight"":15,""ArrowDown,ArrowLeft"":21,""ArrowDown,ArrowRight"":7}","false","ArrowDown","false","revaluation","1","","","",""
"html-keyboard-response","265","1113171","0.0-4.0-7.0-1.0","spark_pilot_norest","8619","6","13","Female","","","","","","","null","<div style=""font-size:60px;"">+</div>","null","fixation","","","","","","","","","","","",""
"revaluation","266","1114208","0.0-4.0-7.0-0.1","spark_pilot_norest","8619","6","13","Female","","false","","","","","[1032.3999996185303]","./assets/img/canyon/test/2.jpg","[""ArrowDown""]","first stage test","canyon","0","{""ArrowUp,ArrowLeft"":27,""ArrowUp,ArrowRight"":15,""ArrowDown,ArrowLeft"":21,""ArrowDown,ArrowRight"":7}","false","ArrowDown","false","revaluation","1","","","",""
"html-keyboard-response","267","1114712","0.0-4.0-7.0-1.1","spark_pilot_norest","8619","6","13","Female","","","","","","","null","<div style=""font-size:60px;"">+</div>","null","fixation","","","","","","","","","","","",""
"revaluation","268","1115662","0.0-4.0-7.0-0.2","spark_pilot_norest","8619","6","13","Female","","false","","","","","[946.6000003814697]","./assets/img/canyon/test/0.jpg","[""ArrowDown""]","first stage test","canyon","0","{""ArrowUp,ArrowLeft"":27,""ArrowUp,ArrowRight"":15,""ArrowDown,ArrowLeft"":21,""ArrowDown,ArrowRight"":7}","false","ArrowDown","false","revaluation","1","","","",""
"html-keyboard-response","269","1116167","0.0-4.0-7.0-1.2","spark_pilot_norest","8619","6","13","Female","","","","","","","null","<div style=""font-size:60px;"">+</div>","null","fixation","","","","","","","","","","","",""
"revaluation","270","1117153","0.0-4.0-7.0-0.3","spark_pilot_norest","8619","6","13","Female","","false","","","","","[981.8999996185303]","./assets/img/canyon/test/3.jpg","[""ArrowDown""]","first stage test","canyon","0","{""ArrowUp,ArrowLeft"":27,""ArrowUp,ArrowRight"":15,""ArrowDown,ArrowLeft"":21,""ArrowDown,ArrowRight"":7}","false","ArrowDown","false","revaluation","1","","","",""
"html-keyboard-response","271","1117656","0.0-4.0-7.0-1.3","spark_pilot_norest","8619","6","13","Female","","","","","","","null","<div style=""font-size:60px;"">+</div>","null","fixation","","","","","","","","","","","",""
"learning-instructions","272","1131007","0.0-4.0-8.0-0.0","spark_pilot_norest","8619","6","13","Female","","","","","","","null","<p> Now you will see the animals again and can search their chests for treasure. </p>
            <p> This time, you will not see how much treasure you earned, but you will earn more bonus money for making better choices. </p>","","instructions","","","","","","","","","","","",""
"html-keyboard-response","273","1132020","0.0-4.0-9.0-0.0","spark_pilot_norest","8619","6","13","Female","","","","","","","null","<div style=""font-size:100px;color:red;"">Starting in...</div>","null","","","","","","","","","","","","",""
"html-keyboard-response","274","1133027","0.0-4.0-9.0-1.0","spark_pilot_norest","8619","6","13","Female","","","","","","","null","<div style=""font-size:200px;color:red;"">3</div>","null","","","","","","","","","","","","",""
"html-keyboard-response","275","1134028","0.0-4.0-9.0-2.0","spark_pilot_norest","8619","6","13","Female","","","","","","","null","<div style=""font-size:200px;color:red;"">2</div>","null","","","","","","","","","","","","",""
"html-keyboard-response","276","1135033","0.0-4.0-9.0-3.0","spark_pilot_norest","8619","6","13","Female","","","","","","","null","<div style=""font-size:200px;color:red;"">1</div>","null","","","","","","","","","","","","",""
"revaluation","277","1135895","0.0-4.0-10.0-0.0","spark_pilot_norest","8619","6","13","Female","","false","","","","","[858.1999998092651]","./assets/img/canyon/animals/giraffe.jpg","[""ArrowRight""]","second stage test","canyon","0","{""ArrowUp,ArrowLeft"":27,""ArrowUp,ArrowRight"":15,""ArrowDown,ArrowLeft"":21,""ArrowDown,ArrowRight"":7}","false","ArrowUp,ArrowRight","","revaluation","1","","","",""
"html-keyboard-response","278","1136408","0.0-4.0-10.0-1.0","spark_pilot_norest","8619","6","13","Female","","","","","","","null","<div style=""font-size:60px;"">+</div>","null","fixation","","","","","","","","","","","",""
"revaluation","279","1137088","0.0-4.0-10.0-0.1","spark_pilot_norest","8619","6","13","Female","","false","","","","","[676]","./assets/img/canyon/animals/giraffe.jpg","[""ArrowLeft""]","second stage test","canyon","0","{""ArrowUp,ArrowLeft"":27,""ArrowUp,ArrowRight"":15,""ArrowDown,ArrowLeft"":21,""ArrowDown,ArrowRight"":7}","true","ArrowUp,ArrowLeft","","revaluation","1","","","",""
"html-keyboard-response","280","1137604","0.0-4.0-10.0-1.1","spark_pilot_norest","8619","6","13","Female","","","","","","","null","<div style=""font-size:60px;"">+</div>","null","fixation","","","","","","","","","","","",""
"revaluation","281","1138040","0.0-4.0-10.0-0.2","spark_pilot_norest","8619","6","13","Female","","false","","","","","[432.19999980926514]","./assets/img/canyon/animals/giraffe.jpg","[""ArrowRight""]","second stage test","canyon","0","{""ArrowUp,ArrowLeft"":27,""ArrowUp,ArrowRight"":15,""ArrowDown,ArrowLeft"":21,""ArrowDown,ArrowRight"":7}","false","ArrowUp,ArrowRight","","revaluation","1","","","",""
"html-keyboard-response","282","1138553","0.0-4.0-10.0-1.2","spark_pilot_norest","8619","6","13","Female","","","","","","","null","<div style=""font-size:60px;"">+</div>","null","fixation","","","","","","","","","","","",""
"revaluation","283","1138897","0.0-4.0-10.0-0.3","spark_pilot_norest","8619","6","13","Female","","false","","","","","[341.0999994277954]","./assets/img/canyon/animals/giraffe.jpg","[""ArrowLeft""]","second stage test","canyon","0","{""ArrowUp,ArrowLeft"":27,""ArrowUp,ArrowRight"":15,""ArrowDown,ArrowLeft"":21,""ArrowDown,ArrowRight"":7}","true","ArrowUp,ArrowLeft","","revaluation","1","","","",""
"html-keyboard-response","284","1139400","0.0-4.0-10.0-1.3","spark_pilot_norest","8619","6","13","Female","","","","","","","null","<div style=""font-size:60px;"">+</div>","null","fixation","","","","","","","","","","","",""
"revaluation","285","1139770","0.0-4.0-10.0-0.4","spark_pilot_norest","8619","6","13","Female","","false","","","","","[365.8999996185303]","./assets/img/canyon/animals/lion.jpg","[""ArrowRight""]","second stage test","canyon","0","{""ArrowUp,ArrowLeft"":27,""ArrowUp,ArrowRight"":15,""ArrowDown,ArrowLeft"":21,""ArrowDown,ArrowRight"":7}","false","ArrowDown,ArrowRight","","revaluation","1","","","",""
"html-keyboard-response","286","1140280","0.0-4.0-10.0-1.4","spark_pilot_norest","8619","6","13","Female","","","","","","","null","<div style=""font-size:60px;"">+</div>","null","fixation","","","","","","","","","","","",""
"revaluation","287","1140615","0.0-4.0-10.0-0.5","spark_pilot_norest","8619","6","13","Female","","false","","","","","[330.6000003814697]","./assets/img/canyon/animals/lion.jpg","[""ArrowLeft""]","second stage test","canyon","0","{""ArrowUp,ArrowLeft"":27,""ArrowUp,ArrowRight"":15,""ArrowDown,ArrowLeft"":21,""ArrowDown,ArrowRight"":7}","true","ArrowDown,ArrowLeft","","revaluation","1","","","",""
"html-keyboard-response","288","1141127","0.0-4.0-10.0-1.5","spark_pilot_norest","8619","6","13","Female","","","","","","","null","<div style=""font-size:60px;"">+</div>","null","fixation","","","","","","","","","","","",""
"revaluation","289","1141525","0.0-4.0-10.0-0.6","spark_pilot_norest","8619","6","13","Female","","false","","","","","[394.1000003814697]","./assets/img/canyon/animals/lion.jpg","[""ArrowRight""]","second stage test","canyon","0","{""ArrowUp,ArrowLeft"":27,""ArrowUp,ArrowRight"":15,""ArrowDown,ArrowLeft"":21,""ArrowDown,ArrowRight"":7}","false","ArrowDown,ArrowRight","","revaluation","1","","","",""
"html-keyboard-response","290","1142030","0.0-4.0-10.0-1.6","spark_pilot_norest","8619","6","13","Female","","","","","","","null","<div style=""font-size:60px;"">+</div>","null","fixation","","","","","","","","","","","",""
"revaluation","291","1142363","0.0-4.0-10.0-0.7","spark_pilot_norest","8619","6","13","Female","","false","","","","","[329.1000003814697]","./assets/img/canyon/animals/lion.jpg","[""ArrowLeft""]","second stage test","canyon","0","{""ArrowUp,ArrowLeft"":27,""ArrowUp,ArrowRight"":15,""ArrowDown,ArrowLeft"":21,""ArrowDown,ArrowRight"":7}","true","ArrowDown,ArrowLeft","","revaluation","1","","","",""
"html-keyboard-response","292","1142870","0.0-4.0-10.0-1.7","spark_pilot_norest","8619","6","13","Female","","","","","","","null","<div style=""font-size:60px;"">+</div>","null","fixation","","","","","","","","","","","",""
"learning-instructions","293","1147234","0.0-4.0-0.1-0.2","spark_pilot_norest","8619","6","13","Female","","","","","","","1644","<p> This time you are searching for treasure in the <b>ocean</b>.</p>","","instructions","","","","","","","","","","","",""
"learning-instructions","294","1165580","0.0-4.0-0.1-0.3","spark_pilot_norest","8619","6","13","Female","","","","","","","1088.6999998092651","<p><b>New</b> animals with <b>new</b> treasure chests live here. You need to explore to discover where the animal with the best treasure chest is.</p>
                    <p> Like before, once you figure out which animal has the chest with the most treasure, you should try to get to that animal and select that chest! </p>","","instructions","","","","","","","","","","","",""
"learning-instructions","295","1181474","0.0-4.0-1.1-0.1","spark_pilot_norest","8619","6","13","Female","","","","","","","1164.4000005722046","<p> Remember, when you see a picture of the place, use the up and down keys to <b>find an animal</b>.</p>
            <p> When you encounter an animal, you should use the left and right keys to <b>select a treasure chest</b>.</p>
            <p> Don't forget to look out for the robber! </p>","","instructions","","","","","","","","","","","",""
"revaluation","296","1187502","0.0-4.0-2.1-0.50","spark_pilot_norest","8619","6","13","Female","","false","","","","","[732,864.5]","./assets/img/ocean/memory/33.jpg","[""ArrowUp"",""ArrowRight""]","value training","ocean","10","{""ArrowUp,ArrowLeft"":26,""ArrowUp,ArrowRight"":10,""ArrowDown,ArrowLeft"":5,""ArrowDown,ArrowRight"":17}","false","ArrowUp,ArrowRight","false","original","2","0","","",""
"html-keyboard-response","297","1188008","0.0-4.0-2.1-1.50","spark_pilot_norest","8619","6","13","Female","","","","","","","null","<div style=""font-size:60px;"">+</div>","null","fixation","","","","","","","","","1","","",""
"revaluation","298","1192026","0.0-4.0-2.1-0.51","spark_pilot_norest","8619","6","13","Female","","false","","","","","[760.1000003814697]","./assets/img/ocean/catch/2.jpg","[""ArrowUp""]","value training","ocean","-10","{""ArrowUp,ArrowLeft"":26,""ArrowUp,ArrowRight"":10,""ArrowDown,ArrowLeft"":5,""ArrowDown,ArrowRight"":17}","false","ArrowUp","true","original","2","2","","",""
"html-keyboard-response","299","1192537","0.0-4.0-2.1-1.51","spark_pilot_norest","8619","6","13","Female","","","","","","","null","<div style=""font-size:60px;"">+</div>","null","fixation","","","","","","","","","3","","",""
"revaluation","300","1198569","0.0-4.0-2.1-0.52","spark_pilot_norest","8619","6","13","Female","","false","","","","","[667.3999996185303,602.6000003814697]","./assets/img/ocean/memory/26.jpg","[""ArrowUp"",""ArrowLeft""]","value training","ocean","26","{""ArrowUp,ArrowLeft"":26,""ArrowUp,ArrowRight"":10,""ArrowDown,ArrowLeft"":5,""ArrowDown,ArrowRight"":17}","true","ArrowUp,ArrowLeft","false","original","2","4","","",""
"html-keyboard-response","301","1199073","0.0-4.0-2.1-1.52","spark_pilot_norest","8619","6","13","Female","","","","","","","null","<div style=""font-size:60px;"">+</div>","null","fixation","","","","","","","","","5","","",""
"revaluation","302","1205098","0.0-4.0-2.1-0.53","spark_pilot_norest","8619","6","13","Female","","false","","","","","[797.3000001907349,617.6000003814697]","./assets/img/ocean/memory/35.jpg","[""ArrowDown"",""ArrowRight""]","value training","ocean","17","{""ArrowUp,ArrowLeft"":26,""ArrowUp,ArrowRight"":10,""ArrowDown,ArrowLeft"":5,""ArrowDown,ArrowRight"":17}","false","ArrowDown,ArrowRight","false","original","2","6","","",""
"html-keyboard-response","303","1205609","0.0-4.0-2.1-1.53","spark_pilot_norest","8619","6","13","Female","","","","","","","null","<div style=""font-size:60px;"">+</div>","null","fixation","","","","","","","","","7","","",""
"revaluation","304","1211626","0.0-4.0-2.1-0.54","spark_pilot_norest","8619","6","13","Female","","false","","","","","[658.0999994277954,516.0999994277954]","./assets/img/ocean/memory/6.jpg","[""ArrowDown"",""ArrowLeft""]","value training","ocean","5","{""ArrowUp,ArrowLeft"":26,""ArrowUp,ArrowRight"":10,""ArrowDown,ArrowLeft"":5,""ArrowDown,ArrowRight"":17}","false","ArrowDown,ArrowLeft","false","original","2","8","","",""
"html-keyboard-response","305","1212128","0.0-4.0-2.1-1.54","spark_pilot_norest","8619","6","13","Female","","","","","","","null","<div style=""font-size:60px;"">+</div>","null","fixation","","","","","","","","","9","","",""
"revaluation","306","1218137","0.0-4.0-2.1-0.55","spark_pilot_norest","8619","6","13","Female","","false","","","","","[772.6999998092651,949]","./assets/img/ocean/memory/2.jpg","[""ArrowUp"",""ArrowLeft""]","value training","ocean","26","{""ArrowUp,ArrowLeft"":26,""ArrowUp,ArrowRight"":10,""ArrowDown,ArrowLeft"":5,""ArrowDown,ArrowRight"":17}","true","ArrowUp,ArrowLeft","false","original","2","10","","",""
"html-keyboard-response","307","1218639","0.0-4.0-2.1-1.55","spark_pilot_norest","8619","6","13","Female","","","","","","","null","<div style=""font-size:60px;"">+</div>","null","fixation","","","","","","","","","11","","",""
"revaluation","308","1224645","0.0-4.0-2.1-0.56","spark_pilot_norest","8619","6","13","Female","","false","","","","","[824.5,505]","./assets/img/ocean/memory/38.jpg","[""ArrowDown"",""ArrowRight""]","value training","ocean","17","{""ArrowUp,ArrowLeft"":26,""ArrowUp,ArrowRight"":10,""ArrowDown,ArrowLeft"":5,""ArrowDown,ArrowRight"":17}","false","ArrowDown,ArrowRight","false","original","2","12","","",""
"html-keyboard-response","309","1225147","0.0-4.0-2.1-1.56","spark_pilot_norest","8619","6","13","Female","","","","","","","null","<div style=""font-size:60px;"">+</div>","null","fixation","","","","","","","","","13","","",""
"revaluation","310","1231154","0.0-4.0-2.1-0.57","spark_pilot_norest","8619","6","13","Female","","false","","","","","[580,476.6000003814697]","./assets/img/ocean/memory/14.jpg","[""ArrowUp"",""ArrowLeft""]","value training","ocean","26","{""ArrowUp,ArrowLeft"":26,""ArrowUp,ArrowRight"":10,""ArrowDown,ArrowLeft"":5,""ArrowDown,ArrowRight"":17}","true","ArrowUp,ArrowLeft","false","original","2","14","","",""
