"trial_type","trial_index","time_elapsed","internal_node_id","task_version","subject_id","assigned_condition","age","gender","browser_interaction","success","timeout","failed_images","failed_audio","failed_video","rt","stimulus","response","task_part","environment","score","rewardMap","correct","fullState","isCatch","condition","order","trial_num","key_press","ground_truth","bonus"
"pavlovia","0","1104","0.0-0.0","spark_pilot_norest","8654","3","15","Female","[{""event"":""blur"",""trial"":1,""time"":13533},{""event"":""focus"",""trial"":1,""time"":14165},{""event"":""fullscreenenter"",""trial"":2,""time"":19445}]","","","","","","","","","","","","","","","","","","","","",""
"preload","1","17163","0.0-1.0","spark_pilot_norest","8654","3","15","Female","[{""event"":""blur"",""trial"":1,""time"":13533},{""event"":""focus"",""trial"":1,""time"":14165},{""event"":""fullscreenenter"",""trial"":2,""time"":19445}]","true","false","[]","[]","[]","","","","","","","","","","","","","","","",""
"fullscreen","2","20439","0.0-2.0","spark_pilot_norest","8654","3","15","Female","","true","","","","","","","","","","","","","","","","","","","",""
"audio-button-response","3","23148","0.0-3.0-0.0-0.0","spark_pilot_norest","8654","3","15","Female","","","","","","","2667","./assets/audio/audiotest/turtle.mp3","2","audio_test","","","","","","","","","","","",""
"learning-instructions","4","33247","0.0-3.0-1.0-0.0","spark_pilot_norest","8654","3","15","Female","","","","","","","3114.699999999255","<p> Welcome! Please remember to stay in fullscreen mode and don't click away from the experiment. </p>","","instructions","","","","","","","","","","","",""
"learning-instructions","5","42633","0.0-3.0-1.0-0.1","spark_pilot_norest","8654","3","15","Female","","","","","","","991.5","<p> Today you will be playing a game to earn treasure. </p>
            <p> At the end of the experiment, you will earn a bonus based on how much treasure you find. </p>
            <img src='./assets/img/instructions/treasure.jpg' class='instructions-image'>","","instructions","","","","","","","","","","","",""
"learning-instructions","6","51900","0.0-3.0-1.0-0.2","spark_pilot_norest","8654","3","15","Female","","","","","","","1009.9000000022352","<p> Animals have hidden treasure in treasure chests. </p>
            <p> You need to first find an animal and then choose which of their treasure chests to search. </p>
            <img src='./assets/img/space/animals/cat.jpg' class='instructions-image'>","","instructions","","","","","","","","","","","",""
"learning-instructions","7","67932","0.0-3.0-1.0-0.3","spark_pilot_norest","8654","3","15","Female","","","","","","","2888.10000000149","<p> In each round, you will search for treasure in a different place. In the real game, there will be two rounds. </p>
            <p> You will begin with a separate, practice round where you will search for treasure in outer space. </p>
            <img src='./assets/img/space/0.jpg' class='instructions-image'>","","instructions","","","","","","","","","","","",""
"learning-instructions","8","80132","0.0-3.0-1.0-0.4","spark_pilot_norest","8654","3","15","Female","","","","","","","789.6999999992549","<p> On every turn, you will see a picture of the place that you are in, but the specific image may be different each time. </p>
            <p> For example, both of these images mean you are in outer space. </p>
            <img src='./assets/img/instructions/outerspace.jpg' class='instructions-image'>","","instructions","","","","","","","","","","","",""
"learning-instructions","9","88883","0.0-3.0-1.0-0.5","spark_pilot_norest","8654","3","15","Female","","","","","","","926.6999999992549","<p> You need to decide which direction to travel in. </p>
            <p> You can choose between going <b>up or down</b> by using the arrow keys. </p>
            <img src='./assets/img/instructions/updown.jpg' class='instructions-image'>","","instructions","","","","","","","","","","","",""
"learning-instructions","10","98698","0.0-3.0-1.0-0.6","spark_pilot_norest","8654","3","15","Female","","","","","","","1009.3000000007451","<p> You will have <b>2 seconds</b> to make your choice. </p>
            <p> If you do not make a choice within 2 seconds, you will not find an animal or earn treasure. </p>
            <img src='./assets/img/instructions/2seconds.jpg' class='instructions-image'>","","instructions","","","","","","","","","","","",""
"learning-instructions","11","106449","0.0-3.0-1.0-0.7","spark_pilot_norest","8654","3","15","Female","","","","","","","717.4000000022352","<p> Let’s try practicing that now! </p>
            <p> When you see a picture of the place you are in, press the <b>up</b> key to travel up. </p>
            <img src='./assets/img/instructions/pressUp.jpg' class='instructions-image'>","","instructions","","","","","","","","","","","",""
"revaluation","12","110475","0.0-3.0-2.0-0.0","spark_pilot_norest","8654","3","15","Female","","","false","","","","[1097.800000000745]","./assets/img/space/0.jpg","[""ArrowUp""]","first stage practice","space","0","null","null","ArrowUp","false","","","","","",""
"html-keyboard-response","13","110980","0.0-3.0-2.0-1.0","spark_pilot_norest","8654","3","15","Female","","","","","","","null","<div style=""font-size:60px;"">+</div>","null","fixation","","","","","","","","","","","",""
"revaluation","14","114993","0.0-3.0-2.0-0.1","spark_pilot_norest","8654","3","15","Female","","","true","","","","[]","./assets/img/space/1.jpg","[]","first stage practice","space","-5","null","null","","false","","","","","",""
"html-keyboard-response","15","115496","0.0-3.0-2.0-1.1","spark_pilot_norest","8654","3","15","Female","","","","","","","null","<div style=""font-size:60px;"">+</div>","null","fixation","","","","","","","","","","","",""
"revaluation","16","119510","0.0-3.0-2.0-0.2","spark_pilot_norest","8654","3","15","Female","","","false","","","","[800.5]","./assets/img/space/2.jpg","[""ArrowUp""]","first stage practice","space","0","null","null","ArrowUp","false","","","","","",""
"html-keyboard-response","17","120012","0.0-3.0-2.0-1.2","spark_pilot_norest","8654","3","15","Female","","","","","","","null","<div style=""font-size:60px;"">+</div>","null","fixation","","","","","","","","","","","",""
"learning-instructions","18","125582","0.0-3.0-3.0-0.0","spark_pilot_norest","8654","3","15","Female","","","","","","","869.3999999985099","<p> Great job! Now try pressing the <b>down</b> key to travel down. </p>
            <img src='./assets/img/instructions/pressDown.jpg' class='instructions-image'>","","instructions","","","","","","","","","","","",""
"revaluation","19","129594","0.0-3.0-4.0-0.0","spark_pilot_norest","8654","3","15","Female","","","false","","","","[633.8000000007451]","./assets/img/space/3.jpg","[""ArrowDown""]","first stage practice","space","0","null","null","ArrowDown","false","","","","","",""
"html-keyboard-response","20","130096","0.0-3.0-4.0-1.0","spark_pilot_norest","8654","3","15","Female","","","","","","","null","<div style=""font-size:60px;"">+</div>","null","fixation","","","","","","","","","","","",""
"revaluation","21","134112","0.0-3.0-4.0-0.1","spark_pilot_norest","8654","3","15","Female","","","false","","","","[1851.4000000022352]","./assets/img/space/4.jpg","[""ArrowDown""]","first stage practice","space","0","null","null","ArrowDown","false","","","","","",""
"html-keyboard-response","22","134619","0.0-3.0-4.0-1.1","spark_pilot_norest","8654","3","15","Female","","","","","","","null","<div style=""font-size:60px;"">+</div>","null","fixation","","","","","","","","","","","",""
"revaluation","23","138643","0.0-3.0-4.0-0.2","spark_pilot_norest","8654","3","15","Female","","","false","","","","[1503.2999999970198]","./assets/img/space/5.jpg","[""ArrowDown""]","first stage practice","space","0","null","null","ArrowDown","false","","","","","",""
"html-keyboard-response","24","139145","0.0-3.0-4.0-1.2","spark_pilot_norest","8654","3","15","Female","","","","","","","null","<div style=""font-size:60px;"">+</div>","null","fixation","","","","","","","","","","","",""
"learning-instructions","25","154432","0.0-3.0-5.0-0.0","spark_pilot_norest","8654","3","15","Female","","","","","","","5442.60000000149","<p> The animals don’t move, so the animal in the upper part of a place will stay in the upper part of a place, and the animal in the lower part of a place will stay in the lower part of a place. </p>","","instructions","","","","","","","","","","","",""
"learning-instructions","26","164498","0.0-3.0-5.0-0.1","spark_pilot_norest","8654","3","15","Female","","","","","","","938.6999999992549","<p> Each animal has two treasure chests for you to choose from. </p>
            <p> The amount of treasure in each chest can range from <b> 0 to 40 pieces.</b></p>","","instructions","","","","","","","","","","","",""
"learning-instructions","27","176333","0.0-3.0-5.0-0.2","spark_pilot_norest","8654","3","15","Female","","","","","","","654.5","<p> You should decide which chest to search for treasure by using the <b>left</b> and <b>right</b> arrow keys. </p>
            <p><b> Pay attention to which animal is on the screen, as the animals have different treasure chests. </b></p>
            <img src='./assets/img/instructions/leftright.jpg' class='instructions-image'>","","instructions","","","","","","","","","","","",""
"learning-instructions","28","183363","0.0-3.0-5.0-0.3","spark_pilot_norest","8654","3","15","Female","","","","","","","667.5999999977648","<p> Let’s try practicing that now. </p>
            <p> When you see an animal, choose which chest to search for treasure. </p>
            <img src='./assets/img/instructions/chooseChest.jpg' class='instructions-image'>","","instructions","","","","","","","","","","","",""
"revaluation","29","187383","0.0-3.0-6.0-0.0","spark_pilot_norest","8654","3","15","Female","","","false","","","","[816.6999999992549]","./assets/img/space/animals/cat.jpg","[""ArrowRight""]","second stage practice","space","36","{""ArrowUp,ArrowLeft"":3,""ArrowUp,ArrowRight"":36,""ArrowDown,ArrowLeft"":15,""ArrowDown,ArrowRight"":23}","true","ArrowUp,ArrowRight","","","","","","",""
"html-keyboard-response","30","187886","0.0-3.0-6.0-1.0","spark_pilot_norest","8654","3","15","Female","","","","","","","null","<div style=""font-size:60px;"">+</div>","null","fixation","","","","","","","","","","","",""
"revaluation","31","191903","0.0-3.0-6.0-0.1","spark_pilot_norest","8654","3","15","Female","","","false","","","","[766.8999999985099]","./assets/img/space/animals/rabbit.jpg","[""ArrowLeft""]","second stage practice","space","15","{""ArrowUp,ArrowLeft"":3,""ArrowUp,ArrowRight"":36,""ArrowDown,ArrowLeft"":15,""ArrowDown,ArrowRight"":23}","false","ArrowDown,ArrowLeft","","","","","","",""
"html-keyboard-response","32","192410","0.0-3.0-6.0-1.1","spark_pilot_norest","8654","3","15","Female","","","","","","","null","<div style=""font-size:60px;"">+</div>","null","fixation","","","","","","","","","","","",""
"revaluation","33","196427","0.0-3.0-6.0-0.2","spark_pilot_norest","8654","3","15","Female","","","false","","","","[457.5]","./assets/img/space/animals/rabbit.jpg","[""ArrowRight""]","second stage practice","space","23","{""ArrowUp,ArrowLeft"":3,""ArrowUp,ArrowRight"":36,""ArrowDown,ArrowLeft"":15,""ArrowDown,ArrowRight"":23}","true","ArrowDown,ArrowRight","","","","","","",""
"html-keyboard-response","34","196936","0.0-3.0-6.0-1.2","spark_pilot_norest","8654","3","15","Female","","","","","","","null","<div style=""font-size:60px;"">+</div>","null","fixation","","","","","","","","","","","",""
"revaluation","35","200944","0.0-3.0-6.0-0.3","spark_pilot_norest","8654","3","15","Female","","","false","","","","[421.70000000298023]","./assets/img/space/animals/cat.jpg","[""ArrowRight""]","second stage practice","space","36","{""ArrowUp,ArrowLeft"":3,""ArrowUp,ArrowRight"":36,""ArrowDown,ArrowLeft"":15,""ArrowDown,ArrowRight"":23}","true","ArrowUp,ArrowRight","","","","","","",""
"html-keyboard-response","36","201456","0.0-3.0-6.0-1.3","spark_pilot_norest","8654","3","15","Female","","","","","","","null","<div style=""font-size:60px;"">+</div>","null","fixation","","","","","","","","","","","",""
"learning-instructions","37","220961","0.0-3.0-7.0-0.0","spark_pilot_norest","8654","3","15","Female","","","","","","","2704.60000000149","<p> Great job. Now let’s try putting it together. </p>
            <p> On each turn, you will first see a picture to remind you of the place you are in, and you need to choose whether to go up or down. </p>
            <p> Then you will see an animal and choose which of its chests to search for treasure. </p>","","instructions","","","","","","","","","","","",""
"learning-instructions","38","230096","0.0-3.0-7.0-0.1","spark_pilot_norest","8654","3","15","Female","","","","","","","879.5","<p> When you choose whether to go up or down, try to go to the animal with the chest with the most treasure. </p>
            <p> Try practicing that now! </p>","","instructions","","","","","","","","","","","",""
"revaluation","39","236124","0.0-3.0-8.0-0.0","spark_pilot_norest","8654","3","15","Female","","","false","","","","[707.1000000014901,813.3000000007451]","./assets/img/space/6.jpg","[""ArrowUp"",""ArrowRight""]","full practice","space","36","{""ArrowUp,ArrowLeft"":3,""ArrowUp,ArrowRight"":36,""ArrowDown,ArrowLeft"":15,""ArrowDown,ArrowRight"":23}","true","ArrowUp,ArrowRight","false","","","","","",""
"html-keyboard-response","40","236626","0.0-3.0-8.0-1.0","spark_pilot_norest","8654","3","15","Female","","","","","","","null","<div style=""font-size:60px;"">+</div>","null","fixation","","","","","","","","","","","",""
"revaluation","41","242644","0.0-3.0-8.0-0.1","spark_pilot_norest","8654","3","15","Female","","","false","","","","[1128,700.8999999985099]","./assets/img/space/7.jpg","[""ArrowDown"",""ArrowLeft""]","full practice","space","15","{""ArrowUp,ArrowLeft"":3,""ArrowUp,ArrowRight"":36,""ArrowDown,ArrowLeft"":15,""ArrowDown,ArrowRight"":23}","false","ArrowDown,ArrowLeft","false","","","","","",""
"html-keyboard-response","42","243148","0.0-3.0-8.0-1.1","spark_pilot_norest","8654","3","15","Female","","","","","","","null","<div style=""font-size:60px;"">+</div>","null","fixation","","","","","","","","","","","",""
"revaluation","43","249166","0.0-3.0-8.0-0.2","spark_pilot_norest","8654","3","15","Female","","","false","","","","[833.1000000014901,624.4000000022352]","./assets/img/space/8.jpg","[""ArrowUp"",""ArrowRight""]","full practice","space","36","{""ArrowUp,ArrowLeft"":3,""ArrowUp,ArrowRight"":36,""ArrowDown,ArrowLeft"":15,""ArrowDown,ArrowRight"":23}","true","ArrowUp,ArrowRight","false","","","","","",""
"html-keyboard-response","44","249673","0.0-3.0-8.0-1.2","spark_pilot_norest","8654","3","15","Female","","","","","","","null","<div style=""font-size:60px;"">+</div>","null","fixation","","","","","","","","","","","",""
"revaluation","45","255702","0.0-3.0-8.0-0.3","spark_pilot_norest","8654","3","15","Female","","","false","","","","[736.8999999985099,555.1999999992549]","./assets/img/space/9.jpg","[""ArrowDown"",""ArrowRight""]","full practice","space","23","{""ArrowUp,ArrowLeft"":3,""ArrowUp,ArrowRight"":36,""ArrowDown,ArrowLeft"":15,""ArrowDown,ArrowRight"":23}","false","ArrowDown,ArrowRight","false","","","","","",""
"html-keyboard-response","46","256209","0.0-3.0-8.0-1.3","spark_pilot_norest","8654","3","15","Female","","","","","","","null","<div style=""font-size:60px;"">+</div>","null","fixation","","","","","","","","","","","",""
"revaluation","47","262226","0.0-3.0-8.0-0.4","spark_pilot_norest","8654","3","15","Female","","","false","","","","[698.3999999985099,373.9000000022352]","./assets/img/space/10.jpg","[""ArrowUp"",""ArrowRight""]","full practice","space","36","{""ArrowUp,ArrowLeft"":3,""ArrowUp,ArrowRight"":36,""ArrowDown,ArrowLeft"":15,""ArrowDown,ArrowRight"":23}","true","ArrowUp,ArrowRight","false","","","","","",""
"html-keyboard-response","48","262731","0.0-3.0-8.0-1.4","spark_pilot_norest","8654","3","15","Female","","","","","","","null","<div style=""font-size:60px;"">+</div>","null","fixation","","","","","","","","","","","",""
"learning-instructions","49","273913","0.0-3.0-9.0-0.0","spark_pilot_norest","8654","3","15","Female","","","","","","","835.3999999985099","<p> One last thing: sometimes, you will see a robber. The robber can be anywhere in the picture. </p>
            <p> If you do not stop them, you will lose treasure. </p>
            <img src='./assets/img/instructions/robber.jpg' class='instructions-image'>","","instructions","","","","","","","","","","","",""
"learning-instructions","50","281629","0.0-3.0-9.0-0.1","spark_pilot_norest","8654","3","15","Female","","","","","","","552.8000000007451","<p> If you see the robber, you should <b>press the space bar</b> rather than using the arrow keys. </p>
            <p> Try practicing that now! </p>","","instructions","","","","","","","","","","","",""
"revaluation","51","285642","0.0-3.0-10.0-0.0","spark_pilot_norest","8654","3","15","Female","","","false","","","","[836.5]","./assets/img/space/catch/0.jpg","[""spaceBar""]","catch practice","space","0","{""ArrowUp,ArrowLeft"":3,""ArrowUp,ArrowRight"":36,""ArrowDown,ArrowLeft"":15,""ArrowDown,ArrowRight"":23}","true","spaceBar","true","","","","","",""
"html-keyboard-response","52","286150","0.0-3.0-10.0-1.0","spark_pilot_norest","8654","3","15","Female","","","","","","","null","<div style=""font-size:60px;"">+</div>","null","fixation","","","","","","","","","","","",""
"revaluation","53","290162","0.0-3.0-10.0-0.1","spark_pilot_norest","8654","3","15","Female","","","false","","","","[658.5999999977648]","./assets/img/space/catch/1.jpg","[""spaceBar""]","catch practice","space","0","{""ArrowUp,ArrowLeft"":3,""ArrowUp,ArrowRight"":36,""ArrowDown,ArrowLeft"":15,""ArrowDown,ArrowRight"":23}","true","spaceBar","true","","","","","",""
"html-keyboard-response","54","290669","0.0-3.0-10.0-1.1","spark_pilot_norest","8654","3","15","Female","","","","","","","null","<div style=""font-size:60px;"">+</div>","null","fixation","","","","","","","","","","","",""
"revaluation","55","294676","0.0-3.0-10.0-0.2","spark_pilot_norest","8654","3","15","Female","","","false","","","","[628.3999999985099]","./assets/img/space/catch/2.jpg","[""spaceBar""]","catch practice","space","0","{""ArrowUp,ArrowLeft"":3,""ArrowUp,ArrowRight"":36,""ArrowDown,ArrowLeft"":15,""ArrowDown,ArrowRight"":23}","true","spaceBar","true","","","","","",""
"html-keyboard-response","56","295186","0.0-3.0-10.0-1.2","spark_pilot_norest","8654","3","15","Female","","","","","","","null","<div style=""font-size:60px;"">+</div>","null","fixation","","","","","","","","","","","",""
"learning-instructions","57","301729","0.0-3.0-11.0-0.0-0.0","spark_pilot_norest","8654","3","15","Female","","","","","","","1281.9000000022352","<p> Now, you will practice a shortened version of the game to get a sense of how it all fits together. </p>","","instructions","","","","","","","","","","","",""
"learning-instructions","58","305862","0.0-3.0-11.0-0.0-0.1","spark_pilot_norest","8654","3","15","Female","","","","","","","945.8000000007451","<p>This time you are searching for treasure in outer space.</p>","","instructions","","","","","","","","","","","",""
"learning-instructions","59","321712","0.0-3.0-11.0-1.0-0.0","spark_pilot_norest","8654","3","15","Female","","","","","","","1089.4000000022352","<p> Remember, when you see a picture of the place, use the up and down keys to <b>find an animal</b>.</p>
            <p> When you encounter an animal, you should use the left and right keys to <b>select a treasure chest</b>.</p>
            <p> Don't forget to look out for the robber! </p>","","instructions","","","","","","","","","","","",""
"revaluation","60","327733","0.0-3.0-11.0-2.0-0.0","spark_pilot_norest","8654","3","15","Female","","","false","","","","[947.5,541.2000000029802]","./assets/img/space/11.jpg","[""ArrowUp"",""ArrowRight""]","practice block","space","36","{""ArrowUp,ArrowLeft"":3,""ArrowUp,ArrowRight"":36,""ArrowDown,ArrowLeft"":15,""ArrowDown,ArrowRight"":23}","true","ArrowUp,ArrowRight","false","","","","","",""
"html-keyboard-response","61","328240","0.0-3.0-11.0-2.0-1.0","spark_pilot_norest","8654","3","15","Female","","","","","","","null","<div style=""font-size:60px;"">+</div>","null","fixation","","","","","","","","","","","",""
"revaluation","62","334260","0.0-3.0-11.0-2.0-0.1","spark_pilot_norest","8654","3","15","Female","","","false","","","","[735.6000000014901,497.0999999977648]","./assets/img/space/12.jpg","[""ArrowDown"",""ArrowRight""]","practice block","space","23","{""ArrowUp,ArrowLeft"":3,""ArrowUp,ArrowRight"":36,""ArrowDown,ArrowLeft"":15,""ArrowDown,ArrowRight"":23}","false","ArrowDown,ArrowRight","false","","","","","",""
"html-keyboard-response","63","334763","0.0-3.0-11.0-2.0-1.1","spark_pilot_norest","8654","3","15","Female","","","","","","","null","<div style=""font-size:60px;"">+</div>","null","fixation","","","","","","","","","","","",""
"revaluation","64","340787","0.0-3.0-11.0-2.0-0.2","spark_pilot_norest","8654","3","15","Female","","","false","","","","[422.4000000022352,382.6000000014901]","./assets/img/space/13.jpg","[""ArrowUp"",""ArrowRight""]","practice block","space","36","{""ArrowUp,ArrowLeft"":3,""ArrowUp,ArrowRight"":36,""ArrowDown,ArrowLeft"":15,""ArrowDown,ArrowRight"":23}","true","ArrowUp,ArrowRight","false","","","","","",""
"html-keyboard-response","65","341291","0.0-3.0-11.0-2.0-1.2","spark_pilot_norest","8654","3","15","Female","","","","","","","null","<div style=""font-size:60px;"">+</div>","null","fixation","","","","","","","","","","","",""
"revaluation","66","347312","0.0-3.0-11.0-2.0-0.3","spark_pilot_norest","8654","3","15","Female","","","false","","","","[432.69999999925494,405.5999999977648]","./assets/img/space/14.jpg","[""ArrowUp"",""ArrowRight""]","practice block","space","36","{""ArrowUp,ArrowLeft"":3,""ArrowUp,ArrowRight"":36,""ArrowDown,ArrowLeft"":15,""ArrowDown,ArrowRight"":23}","true","ArrowUp,ArrowRight","false","","","","","",""
"html-keyboard-response","67","347819","0.0-3.0-11.0-2.0-1.3","spark_pilot_norest","8654","3","15","Female","","","","","","","null","<div style=""font-size:60px;"">+</div>","null","fixation","","","","","","","","","","","",""
"revaluation","68","353839","0.0-3.0-11.0-2.0-0.4","spark_pilot_norest","8654","3","15","Female","","","false","","","","[750.8000000007451,393.5]","./assets/img/space/11.jpg","[""ArrowUp"",""ArrowRight""]","practice block","space","36","{""ArrowUp,ArrowLeft"":3,""ArrowUp,ArrowRight"":36,""ArrowDown,ArrowLeft"":15,""ArrowDown,ArrowRight"":23}","true","ArrowUp,ArrowRight","false","","","","","",""
"html-keyboard-response","69","354341","0.0-3.0-11.0-2.0-1.4","spark_pilot_norest","8654","3","15","Female","","","","","","","null","<div style=""font-size:60px;"">+</div>","null","fixation","","","","","","","","","","","",""
"revaluation","70","360369","0.0-3.0-11.0-2.0-0.5","spark_pilot_norest","8654","3","15","Female","","","false","","","","[509.30000000074506,383.69999999925494]","./assets/img/space/12.jpg","[""ArrowUp"",""ArrowRight""]","practice block","space","36","{""ArrowUp,ArrowLeft"":3,""ArrowUp,ArrowRight"":36,""ArrowDown,ArrowLeft"":15,""ArrowDown,ArrowRight"":23}","true","ArrowUp,ArrowRight","false","","","","","",""
"html-keyboard-response","71","360874","0.0-3.0-11.0-2.0-1.5","spark_pilot_norest","8654","3","15","Female","","","","","","","null","<div style=""font-size:60px;"">+</div>","null","fixation","","","","","","","","","","","",""
"revaluation","72","366892","0.0-3.0-11.0-2.0-0.6","spark_pilot_norest","8654","3","15","Female","","","false","","","","[428.69999999925494,419.1000000014901]","./assets/img/space/13.jpg","[""ArrowUp"",""ArrowRight""]","practice block","space","36","{""ArrowUp,ArrowLeft"":3,""ArrowUp,ArrowRight"":36,""ArrowDown,ArrowLeft"":15,""ArrowDown,ArrowRight"":23}","true","ArrowUp,ArrowRight","false","","","","","",""
"html-keyboard-response","73","367401","0.0-3.0-11.0-2.0-1.6","spark_pilot_norest","8654","3","15","Female","","","","","","","null","<div style=""font-size:60px;"">+</div>","null","fixation","","","","","","","","","","","",""
"revaluation","74","373417","0.0-3.0-11.0-2.0-0.7","spark_pilot_norest","8654","3","15","Female","","","false","","","","[500.8999999985099,531.8000000007451]","./assets/img/space/14.jpg","[""ArrowUp"",""ArrowRight""]","practice block","space","36","{""ArrowUp,ArrowLeft"":3,""ArrowUp,ArrowRight"":36,""ArrowDown,ArrowLeft"":15,""ArrowDown,ArrowRight"":23}","true","ArrowUp,ArrowRight","false","","","","","",""
"html-keyboard-response","75","373923","0.0-3.0-11.0-2.0-1.7","spark_pilot_norest","8654","3","15","Female","","","","","","","null","<div style=""font-size:60px;"">+</div>","null","fixation","","","","","","","","","","","",""
"revaluation","76","377939","0.0-3.0-11.0-2.0-0.8","spark_pilot_norest","8654","3","15","Female","","","false","","","","[741.5]","./assets/img/space/catch/3.jpg","[""spaceBar""]","practice block","space","0","{""ArrowUp,ArrowLeft"":3,""ArrowUp,ArrowRight"":36,""ArrowDown,ArrowLeft"":15,""ArrowDown,ArrowRight"":23}","true","spaceBar","true","","","","","",""
"html-keyboard-response","77","378450","0.0-3.0-11.0-2.0-1.8","spark_pilot_norest","8654","3","15","Female","","","","","","","null","<div style=""font-size:60px;"">+</div>","null","fixation","","","","","","","","","","","",""
"learning-instructions","78","392678","0.0-3.0-11.0-3.0-0.0","spark_pilot_norest","8654","3","15","Female","","","","","","","1273.0999999977648","<p> Now, you will travel with a friend who will choose whether you go up or down first. </p>
            <p> On these turns, you will just see the animal that they found. You will still get to choose which chest to search for treasure.</p>","","instructions","","","","","","","","","","","",""
"revaluation","79","396691","0.0-3.0-11.0-4.0-0.0","spark_pilot_norest","8654","3","15","Female","","","false","","","","[871.6999999992549]","./assets/img/space/animals/cat.jpg","[""ArrowRight""]","practice block","space","36","{""ArrowUp,ArrowLeft"":3,""ArrowUp,ArrowRight"":36,""ArrowDown,ArrowLeft"":15,""ArrowDown,ArrowRight"":23}","true","ArrowUp,ArrowRight","","","","","","",""
"html-keyboard-response","80","397200","0.0-3.0-11.0-4.0-1.0","spark_pilot_norest","8654","3","15","Female","","","","","","","null","<div style=""font-size:60px;"">+</div>","null","fixation","","","","","","","","","","","",""
"revaluation","81","401206","0.0-3.0-11.0-4.0-0.1","spark_pilot_norest","8654","3","15","Female","","","false","","","","[562]","./assets/img/space/animals/rabbit.jpg","[""ArrowRight""]","practice block","space","23","{""ArrowUp,ArrowLeft"":3,""ArrowUp,ArrowRight"":36,""ArrowDown,ArrowLeft"":15,""ArrowDown,ArrowRight"":23}","true","ArrowDown,ArrowRight","","","","","","",""
"html-keyboard-response","82","401718","0.0-3.0-11.0-4.0-1.1","spark_pilot_norest","8654","3","15","Female","","","","","","","null","<div style=""font-size:60px;"">+</div>","null","fixation","","","","","","","","","","","",""
"revaluation","83","405735","0.0-3.0-11.0-4.0-0.2","spark_pilot_norest","8654","3","15","Female","","","false","","","","[350.9000000022352]","./assets/img/space/animals/cat.jpg","[""ArrowRight""]","practice block","space","36","{""ArrowUp,ArrowLeft"":3,""ArrowUp,ArrowRight"":36,""ArrowDown,ArrowLeft"":15,""ArrowDown,ArrowRight"":23}","true","ArrowUp,ArrowRight","","","","","","",""
"html-keyboard-response","84","406240","0.0-3.0-11.0-4.0-1.2","spark_pilot_norest","8654","3","15","Female","","","","","","","null","<div style=""font-size:60px;"">+</div>","null","fixation","","","","","","","","","","","",""
"revaluation","85","410253","0.0-3.0-11.0-4.0-0.3","spark_pilot_norest","8654","3","15","Female","","","false","","","","[333.5]","./assets/img/space/animals/rabbit.jpg","[""ArrowRight""]","practice block","space","23","{""ArrowUp,ArrowLeft"":3,""ArrowUp,ArrowRight"":36,""ArrowDown,ArrowLeft"":15,""ArrowDown,ArrowRight"":23}","true","ArrowDown,ArrowRight","","","","","","",""
"html-keyboard-response","86","410757","0.0-3.0-11.0-4.0-1.3","spark_pilot_norest","8654","3","15","Female","","","","","","","null","<div style=""font-size:60px;"">+</div>","null","fixation","","","","","","","","","","","",""
"learning-instructions","87","418884","0.0-3.0-11.0-5.0-0.0","spark_pilot_norest","8654","3","15","Female","","","","","","","null","<p> You have almost finished this part of the game! </p>
            <p> We are going to ask you to make a few more choices. </p>","","instructions","","","","","","","","","","","",""
"learning-instructions","88","434899","0.0-3.0-11.0-5.0-0.1","spark_pilot_norest","8654","3","15","Female","","","","","","","null","<p> First, you need to decide whether to go up or down. When you see each picture, use the arrow keys to make your choice. </p>
            <p><b>You will not see which animal you found, but try to get to the one that will give you the most treasure.</b></p>","","instructions","","","","","","","","","","","",""
"html-keyboard-response","89","435905","0.0-3.0-11.0-6.0-0.0","spark_pilot_norest","8654","3","15","Female","","","","","","","null","<div style=""font-size:100px;color:red;"">Starting in...</div>","null","","","","","","","","","","","","",""
"html-keyboard-response","90","436915","0.0-3.0-11.0-6.0-1.0","spark_pilot_norest","8654","3","15","Female","","","","","","","null","<div style=""font-size:200px;color:red;"">3</div>","null","","","","","","","","","","","","",""
"html-keyboard-response","91","437922","0.0-3.0-11.0-6.0-2.0","spark_pilot_norest","8654","3","15","Female","","","","","","","null","<div style=""font-size:200px;color:red;"">2</div>","null","","","","","","","","","","","","",""
"html-keyboard-response","92","438932","0.0-3.0-11.0-6.0-3.0","spark_pilot_norest","8654","3","15","Female","","","","","","","null","<div style=""font-size:200px;color:red;"">1</div>","null","","","","","","","","","","","","",""
"revaluation","93","439347","0.0-3.0-11.0-7.0","spark_pilot_norest","8654","3","15","Female","","","false","","","","[411.9000000022352]","./assets/img/space/15.jpg","[""ArrowUp""]","practice block","space","0","{""ArrowUp,ArrowLeft"":3,""ArrowUp,ArrowRight"":36,""ArrowDown,ArrowLeft"":15,""ArrowDown,ArrowRight"":23}","true","ArrowUp","false","","","","","",""
"html-keyboard-response","94","439855","0.0-3.0-11.0-8.0","spark_pilot_norest","8654","3","15","Female","","","","","","","null","<div style=""font-size:60px;"">+</div>","null","fixation","","","","","","","","","","","",""
"learning-instructions","95","453235","0.0-3.0-11.0-9.0-0.0","spark_pilot_norest","8654","3","15","Female","","","","","","","null","<p> Now you will see the animals again and can search their chests for treasure. </p>
            <p> This time, you will not see how much treasure you earned, but you will earn more bonus money for making better choices. </p>","","instructions","","","","","","","","","","","",""
"html-keyboard-response","96","454239","0.0-3.0-11.0-10.0-0.0","spark_pilot_norest","8654","3","15","Female","","","","","","","null","<div style=""font-size:100px;color:red;"">Starting in...</div>","null","","","","","","","","","","","","",""
"html-keyboard-response","97","455246","0.0-3.0-11.0-10.0-1.0","spark_pilot_norest","8654","3","15","Female","","","","","","","null","<div style=""font-size:200px;color:red;"">3</div>","null","","","","","","","","","","","","",""
"html-keyboard-response","98","456251","0.0-3.0-11.0-10.0-2.0","spark_pilot_norest","8654","3","15","Female","","","","","","","null","<div style=""font-size:200px;color:red;"">2</div>","null","","","","","","","","","","","","",""
"html-keyboard-response","99","457256","0.0-3.0-11.0-10.0-3.0","spark_pilot_norest","8654","3","15","Female","","","","","","","null","<div style=""font-size:200px;color:red;"">1</div>","null","","","","","","","","","","","","",""
"revaluation","100","457711","0.0-3.0-11.0-11.0-0.0","spark_pilot_norest","8654","3","15","Female","","","false","","","","[451.5]","./assets/img/space/animals/cat.jpg","[""ArrowRight""]","practice block","space","0","{""ArrowUp,ArrowLeft"":3,""ArrowUp,ArrowRight"":36,""ArrowDown,ArrowLeft"":15,""ArrowDown,ArrowRight"":23}","true","ArrowUp,ArrowRight","","","","","","",""
"html-keyboard-response","101","458218","0.0-3.0-11.0-11.0-1.0","spark_pilot_norest","8654","3","15","Female","","","","","","","null","<div style=""font-size:60px;"">+</div>","null","fixation","","","","","","","","","","","",""
"revaluation","102","458818","0.0-3.0-11.0-11.0-0.1","spark_pilot_norest","8654","3","15","Female","","","false","","","","[596.3000000007451]","./assets/img/space/animals/rabbit.jpg","[""ArrowRight""]","practice block","space","0","{""ArrowUp,ArrowLeft"":3,""ArrowUp,ArrowRight"":36,""ArrowDown,ArrowLeft"":15,""ArrowDown,ArrowRight"":23}","true","ArrowDown,ArrowRight","","","","","","",""
"html-keyboard-response","103","459322","0.0-3.0-11.0-11.0-1.1","spark_pilot_norest","8654","3","15","Female","","","","","","","null","<div style=""font-size:60px;"">+</div>","null","fixation","","","","","","","","","","","",""
"learning-instructions","104","464976","0.0-3.0-12.0-0.0","spark_pilot_norest","8654","3","15","Female","","","","","","","1077.1000000014901","<p> Before you start, we're going to ask you a few questions about how the game works. </p>","","instructions","","","","","","","","","","","",""
"comp-q","105","471794","0.0-3.0-13.0-0.0-0.0","spark_pilot_norest","8654","3","15","Female","","","","","","","1227.8999999985099","<p> <b> True or False? </b> </p>
            <p> There can be 50 pieces of treasure in a given animal's chest. </p>","1","comp_question","","","","true","","","","","","","",""
"comp-q","106","480125","0.0-3.0-13.0-0.0-1.0","spark_pilot_norest","8654","3","15","Female","","","","","","","1676.5","<p> <b> That's right! </b> The amount of treasure in each chest can range from 0 to 40 pieces. </p>","0","comp_answer","","","","","","","","","","","",""
"comp-q","107","488026","0.0-3.0-13.0-0.1-0.1","spark_pilot_norest","8654","3","15","Female","","","","","","","788.1999999992549","<p> <b> True or False? </b> </p><p> In this game, all animals have the same amount of treasure in their left and right chests. </p>","1","comp_question","","","","true","","","","","","","",""
"comp-q","108","494259","0.0-3.0-13.0-0.1-1.1","spark_pilot_norest","8654","3","15","Female","","","","","","","1004.8999999985099","<p> <b> That's right! </b> Animals have different amounts of treasure in their treasure chests. </p>","0","comp_answer","","","","","","","","","","","",""
"comp-q","109","503459","0.0-3.0-13.0-0.2-0.2","spark_pilot_norest","8654","3","15","Female","","","","","","","3357.699999999255","<p> <b> True or False? </b> </p><p> The same animal will always be there if you go up in the same place. </p>","1","comp_question","","","","false","","","","","","","",""
"comp-q","110","512658","0.0-3.0-13.0-0.2-1.2","spark_pilot_norest","8654","3","15","Female","","","","","","","2893.300000000745","<p> <b>Incorrect.</b> One animal lives in the upper part and one lives in the lower part of every place. </p>","0","comp_answer","","","","","","","","","","","",""
"comp-q","111","519376","0.0-3.0-13.0-0.3-0.3","spark_pilot_norest","8654","3","15","Female","","","","","","","895.6999999992549","<p> <b> True or False? </b> </p><p> The same animal will always be there if you go up in the same place. </p>","0","comp_question","","","","true","","","","","","","",""
"comp-q","112","530392","0.0-3.0-13.0-0.3-1.3","spark_pilot_norest","8654","3","15","Female","","","","","","","4573.599999997765","<p> <b> That's right! </b> One animal lives in the upper part and one lives in the lower part of every place. </p>","0","comp_answer","","","","","","","","","","","",""
"comp-q","113","536459","0.0-3.0-13.0-0.4-0.4","spark_pilot_norest","8654","3","15","Female","","","","","","","544.3000000007451","<p> <b> True or False? </b> </p><p> If you see a different picture, it means you are in a new place. </p>","1","comp_question","","","","true","","","","","","","",""
"comp-q","114","552358","0.0-3.0-13.0-0.4-1.4","spark_pilot_norest","8654","3","15","Female","","","","","","","4678.89999999851","<p> <b> That's right! </b> Lots of different images may show the same place. For example,  you may see three different images that all remind you that you are in outer space. </p>","0","comp_answer","","","","","","","","","","","",""
"learning-instructions","115","574425","0.0-3.0-14.0-0.0","spark_pilot_norest","8654","3","15","Female","","","","","","","12218.20000000298","<p> Good job. Remember to do your best because the amount of treasure you earn will be converted into bonus money. </p>
            <p> It’s time to start the real game! </p>","","instructions","","","","","","","","","","","",""
"learning-instructions","116","578258","0.0-4.0-0.0-0.0","spark_pilot_norest","8654","3","15","Female","","","","","","","1128.7000000029802","<p> This time you are searching for treasure in the <b>ocean</b>.</p>","","instructions","","","","","","","","","","","",""
"learning-instructions","117","597841","0.0-4.0-0.0-0.1","spark_pilot_norest","8654","3","15","Female","","","","","","","2290.39999999851","<p><b>New</b> animals with <b>new</b> treasure chests live here. You need to explore to discover where the animal with the best treasure chest is.</p>
                    <p> Like before, once you figure out which animal has the chest with the most treasure, you should try to get to that animal and select that chest! </p>","","instructions","","","","","","","","","","","",""
"learning-instructions","118","613458","0.0-4.0-1.0-0.0","spark_pilot_norest","8654","3","15","Female","","","","","","","883.3999999985099","<p> Remember, when you see a picture of the place, use the up and down keys to <b>find an animal</b>.</p>
            <p> When you encounter an animal, you should use the left and right keys to <b>select a treasure chest</b>.</p>
            <p> Don't forget to look out for the robber! </p>","","instructions","","","","","","","","","","","",""
"revaluation","119","619480","0.0-4.0-2.0-0.0","spark_pilot_norest","8654","3","15","Female","","","false","","","","[1501.699999999255,864.1000000014901]","./assets/img/ocean/memory/31.jpg","[""ArrowUp"",""ArrowRight""]","value training","ocean","10","{""ArrowUp,ArrowLeft"":23,""ArrowUp,ArrowRight"":10,""ArrowDown,ArrowLeft"":8,""ArrowDown,ArrowRight"":30}","false","ArrowUp,ArrowRight","false","original","1","0","","",""
"html-keyboard-response","120","619987","0.0-4.0-2.0-1.0","spark_pilot_norest","8654","3","15","Female","","","","","","","null","<div style=""font-size:60px;"">+</div>","null","fixation","","","","","","","","","1","","",""
"revaluation","121","626005","0.0-4.0-2.0-0.1","spark_pilot_norest","8654","3","15","Female","","","false","","","","[609.1999999992549,336.1000000014901]","./assets/img/ocean/memory/24.jpg","[""ArrowUp"",""ArrowLeft""]","value training","ocean","23","{""ArrowUp,ArrowLeft"":23,""ArrowUp,ArrowRight"":10,""ArrowDown,ArrowLeft"":8,""ArrowDown,ArrowRight"":30}","false","ArrowUp,ArrowLeft","false","original","1","2","","",""
"html-keyboard-response","122","626516","0.0-4.0-2.0-1.1","spark_pilot_norest","8654","3","15","Female","","","","","","","null","<div style=""font-size:60px;"">+</div>","null","fixation","","","","","","","","","3","","",""
"revaluation","123","632533","0.0-4.0-2.0-0.2","spark_pilot_norest","8654","3","15","Female","","","false","","","","[503.1000000014901,420.80000000074506]","./assets/img/ocean/memory/27.jpg","[""ArrowDown"",""ArrowRight""]","value training","ocean","30","{""ArrowUp,ArrowLeft"":23,""ArrowUp,ArrowRight"":10,""ArrowDown,ArrowLeft"":8,""ArrowDown,ArrowRight"":30}","true","ArrowDown,ArrowRight","false","original","1","4","","",""
"html-keyboard-response","124","633036","0.0-4.0-2.0-1.2","spark_pilot_norest","8654","3","15","Female","","","","","","","null","<div style=""font-size:60px;"">+</div>","null","fixation","","","","","","","","","5","","",""
"revaluation","125","637050","0.0-4.0-2.0-0.3","spark_pilot_norest","8654","3","15","Female","","","false","","","","[443.19999999925494]","./assets/img/ocean/catch/7.jpg","[""ArrowDown""]","value training","ocean","-10","{""ArrowUp,ArrowLeft"":23,""ArrowUp,ArrowRight"":10,""ArrowDown,ArrowLeft"":8,""ArrowDown,ArrowRight"":30}","false","ArrowDown","true","original","1","6","","",""
"html-keyboard-response","126","637554","0.0-4.0-2.0-1.3","spark_pilot_norest","8654","3","15","Female","","","","","","","null","<div style=""font-size:60px;"">+</div>","null","fixation","","","","","","","","","7","","",""
"revaluation","127","641571","0.0-4.0-2.0-0.4","spark_pilot_norest","8654","3","15","Female","","","false","","","","[727]","./assets/img/ocean/catch/0.jpg","[""spaceBar""]","value training","ocean","0","{""ArrowUp,ArrowLeft"":23,""ArrowUp,ArrowRight"":10,""ArrowDown,ArrowLeft"":8,""ArrowDown,ArrowRight"":30}","true","spaceBar","true","original","1","8","","",""
"html-keyboard-response","128","642079","0.0-4.0-2.0-1.4","spark_pilot_norest","8654","3","15","Female","","","","","","","null","<div style=""font-size:60px;"">+</div>","null","fixation","","","","","","","","","9","","",""
"revaluation","129","648100","0.0-4.0-2.0-0.5","spark_pilot_norest","8654","3","15","Female","","","false","","","","[471.8999999985099,571.5]","./assets/img/ocean/memory/11.jpg","[""ArrowDown"",""ArrowLeft""]","value training","ocean","8","{""ArrowUp,ArrowLeft"":23,""ArrowUp,ArrowRight"":10,""ArrowDown,ArrowLeft"":8,""ArrowDown,ArrowRight"":30}","false","ArrowDown,ArrowLeft","false","original","1","10","","",""
"html-keyboard-response","130","648604","0.0-4.0-2.0-1.5","spark_pilot_norest","8654","3","15","Female","","","","","","","null","<div style=""font-size:60px;"">+</div>","null","fixation","","","","","","","","","11","","",""
"revaluation","131","654628","0.0-4.0-2.0-0.6","spark_pilot_norest","8654","3","15","Female","","","false","","","","[1365.5999999977648,470.8999999985099]","./assets/img/ocean/memory/1.jpg","[""ArrowDown"",""ArrowRight""]","value training","ocean","30","{""ArrowUp,ArrowLeft"":23,""ArrowUp,ArrowRight"":10,""ArrowDown,ArrowLeft"":8,""ArrowDown,ArrowRight"":30}","true","ArrowDown,ArrowRight","false","original","1","12","","",""
"html-keyboard-response","132","655136","0.0-4.0-2.0-1.6","spark_pilot_norest","8654","3","15","Female","","","","","","","null","<div style=""font-size:60px;"">+</div>","null","fixation","","","","","","","","","13","","",""
"revaluation","133","661166","0.0-4.0-2.0-0.7","spark_pilot_norest","8654","3","15","Female","","","false","","","","[981,338.6000000014901]","./assets/img/ocean/memory/30.jpg","[""ArrowDown"",""ArrowRight""]","value training","ocean","30","{""ArrowUp,ArrowLeft"":23,""ArrowUp,ArrowRight"":10,""ArrowDown,ArrowLeft"":8,""ArrowDown,ArrowRight"":30}","true","ArrowDown,ArrowRight","false","original","1","14","","",""
"html-keyboard-response","134","661669","0.0-4.0-2.0-1.7","spark_pilot_norest","8654","3","15","Female","","","","","","","null","<div style=""font-size:60px;"">+</div>","null","fixation","","","","","","","","","15","","",""
"revaluation","135","667683","0.0-4.0-2.0-0.8","spark_pilot_norest","8654","3","15","Female","","","false","","","","[545.8000000007451,462]","./assets/img/ocean/memory/12.jpg","[""ArrowDown"",""ArrowRight""]","value training","ocean","30","{""ArrowUp,ArrowLeft"":23,""ArrowUp,ArrowRight"":10,""ArrowDown,ArrowLeft"":8,""ArrowDown,ArrowRight"":30}","true","ArrowDown,ArrowRight","false","original","1","16","","",""
"html-keyboard-response","136","668187","0.0-4.0-2.0-1.8","spark_pilot_norest","8654","3","15","Female","","","","","","","null","<div style=""font-size:60px;"">+</div>","null","fixation","","","","","","","","","17","","",""
"revaluation","137","674213","0.0-4.0-2.0-0.9","spark_pilot_norest","8654","3","15","Female","","","false","","","","[571.6000000014901,438.19999999925494]","./assets/img/ocean/memory/7.jpg","[""ArrowDown"",""ArrowRight""]","value training","ocean","30","{""ArrowUp,ArrowLeft"":23,""ArrowUp,ArrowRight"":10,""ArrowDown,ArrowLeft"":8,""ArrowDown,ArrowRight"":30}","true","ArrowDown,ArrowRight","false","original","1","18","","",""
"html-keyboard-response","138","674719","0.0-4.0-2.0-1.9","spark_pilot_norest","8654","3","15","Female","","","","","","","null","<div style=""font-size:60px;"">+</div>","null","fixation","","","","","","","","","19","","",""
"revaluation","139","680737","0.0-4.0-2.0-0.10","spark_pilot_norest","8654","3","15","Female","","","false","","","","[524.8000000007451,409.5]","./assets/img/ocean/memory/28.jpg","[""ArrowDown"",""ArrowRight""]","value training","ocean","30","{""ArrowUp,ArrowLeft"":23,""ArrowUp,ArrowRight"":10,""ArrowDown,ArrowLeft"":8,""ArrowDown,ArrowRight"":30}","true","ArrowDown,ArrowRight","false","original","1","20","","",""
"html-keyboard-response","140","681244","0.0-4.0-2.0-1.10","spark_pilot_norest","8654","3","15","Female","","","","","","","null","<div style=""font-size:60px;"">+</div>","null","fixation","","","","","","","","","21","","",""
"revaluation","141","687261","0.0-4.0-2.0-0.11","spark_pilot_norest","8654","3","15","Female","","","false","","","","[690.6000000014901,449.5]","./assets/img/ocean/memory/2.jpg","[""ArrowDown"",""ArrowRight""]","value training","ocean","30","{""ArrowUp,ArrowLeft"":23,""ArrowUp,ArrowRight"":10,""ArrowDown,ArrowLeft"":8,""ArrowDown,ArrowRight"":30}","true","ArrowDown,ArrowRight","false","original","1","22","","",""
"html-keyboard-response","142","687767","0.0-4.0-2.0-1.11","spark_pilot_norest","8654","3","15","Female","","","","","","","null","<div style=""font-size:60px;"">+</div>","null","fixation","","","","","","","","","23","","",""
"revaluation","143","693793","0.0-4.0-2.0-0.12","spark_pilot_norest","8654","3","15","Female","","","false","","","","[781.6000000014901,404.3999999985099]","./assets/img/ocean/memory/2.jpg","[""ArrowDown"",""ArrowRight""]","value training","ocean","30","{""ArrowUp,ArrowLeft"":23,""ArrowUp,ArrowRight"":10,""ArrowDown,ArrowLeft"":8,""ArrowDown,ArrowRight"":30}","true","ArrowDown,ArrowRight","false","original","1","24","","",""
"html-keyboard-response","144","694297","0.0-4.0-2.0-1.12","spark_pilot_norest","8654","3","15","Female","","","","","","","null","<div style=""font-size:60px;"">+</div>","null","fixation","","","","","","","","","25","","",""
"revaluation","145","700306","0.0-4.0-2.0-0.13","spark_pilot_norest","8654","3","15","Female","","","false","","","","[452.9000000022352,525.7999999970198]","./assets/img/ocean/memory/30.jpg","[""ArrowDown"",""ArrowRight""]","value training","ocean","30","{""ArrowUp,ArrowLeft"":23,""ArrowUp,ArrowRight"":10,""ArrowDown,ArrowLeft"":8,""ArrowDown,ArrowRight"":30}","true","ArrowDown,ArrowRight","false","original","1","26","","",""
"html-keyboard-response","146","700816","0.0-4.0-2.0-1.13","spark_pilot_norest","8654","3","15","Female","","","","","","","null","<div style=""font-size:60px;"">+</div>","null","fixation","","","","","","","","","27","","",""
"revaluation","147","706833","0.0-4.0-2.0-0.14","spark_pilot_norest","8654","3","15","Female","","","false","","","","[470.8999999985099,419.3999999985099]","./assets/img/ocean/memory/36.jpg","[""ArrowDown"",""ArrowRight""]","value training","ocean","30","{""ArrowUp,ArrowLeft"":23,""ArrowUp,ArrowRight"":10,""ArrowDown,ArrowLeft"":8,""ArrowDown,ArrowRight"":30}","true","ArrowDown,ArrowRight","false","original","1","28","","",""
"html-keyboard-response","148","707335","0.0-4.0-2.0-1.14","spark_pilot_norest","8654","3","15","Female","","","","","","","null","<div style=""font-size:60px;"">+</div>","null","fixation","","","","","","","","","29","","",""
"revaluation","149","711352","0.0-4.0-2.0-0.15","spark_pilot_norest","8654","3","15","Female","","","false","","","","[771.8999999985099]","./assets/img/ocean/catch/1.jpg","[""spaceBar""]","value training","ocean","0","{""ArrowUp,ArrowLeft"":23,""ArrowUp,ArrowRight"":10,""ArrowDown,ArrowLeft"":8,""ArrowDown,ArrowRight"":30}","true","spaceBar","true","original","1","30","","",""
"html-keyboard-response","150","711856","0.0-4.0-2.0-1.15","spark_pilot_norest","8654","3","15","Female","","","","","","","null","<div style=""font-size:60px;"">+</div>","null","fixation","","","","","","","","","31","","",""
"revaluation","151","717883","0.0-4.0-2.0-0.16","spark_pilot_norest","8654","3","15","Female","","","false","","","","[569.8000000007451,478]","./assets/img/ocean/memory/12.jpg","[""ArrowDown"",""ArrowRight""]","value training","ocean","30","{""ArrowUp,ArrowLeft"":23,""ArrowUp,ArrowRight"":10,""ArrowDown,ArrowLeft"":8,""ArrowDown,ArrowRight"":30}","true","ArrowDown,ArrowRight","false","original","1","32","","",""
"html-keyboard-response","152","718385","0.0-4.0-2.0-1.16","spark_pilot_norest","8654","3","15","Female","","","","","","","null","<div style=""font-size:60px;"">+</div>","null","fixation","","","","","","","","","33","","",""
"revaluation","153","724403","0.0-4.0-2.0-0.17","spark_pilot_norest","8654","3","15","Female","","","false","","","","[563.6999999992549,427.6000000014901]","./assets/img/ocean/memory/23.jpg","[""ArrowDown"",""ArrowRight""]","value training","ocean","30","{""ArrowUp,ArrowLeft"":23,""ArrowUp,ArrowRight"":10,""ArrowDown,ArrowLeft"":8,""ArrowDown,ArrowRight"":30}","true","ArrowDown,ArrowRight","false","original","1","34","","",""
"html-keyboard-response","154","724914","0.0-4.0-2.0-1.17","spark_pilot_norest","8654","3","15","Female","","","","","","","null","<div style=""font-size:60px;"">+</div>","null","fixation","","","","","","","","","35","","",""
"revaluation","155","730935","0.0-4.0-2.0-0.18","spark_pilot_norest","8654","3","15","Female","","","false","","","","[487.1000000014901,415.69999999925494]","./assets/img/ocean/memory/8.jpg","[""ArrowDown"",""ArrowRight""]","value training","ocean","30","{""ArrowUp,ArrowLeft"":23,""ArrowUp,ArrowRight"":10,""ArrowDown,ArrowLeft"":8,""ArrowDown,ArrowRight"":30}","true","ArrowDown,ArrowRight","false","original","1","36","","",""
"html-keyboard-response","156","731442","0.0-4.0-2.0-1.18","spark_pilot_norest","8654","3","15","Female","","","","","","","null","<div style=""font-size:60px;"">+</div>","null","fixation","","","","","","","","","37","","",""
"revaluation","157","737456","0.0-4.0-2.0-0.19","spark_pilot_norest","8654","3","15","Female","","","false","","","","[677.4000000022352,430]","./assets/img/ocean/memory/22.jpg","[""ArrowDown"",""ArrowRight""]","value training","ocean","30","{""ArrowUp,ArrowLeft"":23,""ArrowUp,ArrowRight"":10,""ArrowDown,ArrowLeft"":8,""ArrowDown,ArrowRight"":30}","true","ArrowDown,ArrowRight","false","original","1","38","","",""
"html-keyboard-response","158","737967","0.0-4.0-2.0-1.19","spark_pilot_norest","8654","3","15","Female","","","","","","","null","<div style=""font-size:60px;"">+</div>","null","fixation","","","","","","","","","39","","",""
"revaluation","159","743991","0.0-4.0-2.0-0.20","spark_pilot_norest","8654","3","15","Female","","","false","","","","[416.30000000074506,413]","./assets/img/ocean/memory/1.jpg","[""ArrowDown"",""ArrowRight""]","value training","ocean","30","{""ArrowUp,ArrowLeft"":23,""ArrowUp,ArrowRight"":10,""ArrowDown,ArrowLeft"":8,""ArrowDown,ArrowRight"":30}","true","ArrowDown,ArrowRight","false","original","1","40","","",""
"html-keyboard-response","160","744503","0.0-4.0-2.0-1.20","spark_pilot_norest","8654","3","15","Female","","","","","","","null","<div style=""font-size:60px;"">+</div>","null","fixation","","","","","","","","","41","","",""
"revaluation","161","750527","0.0-4.0-2.0-0.21","spark_pilot_norest","8654","3","15","Female","","","false","","","","[467.69999999925494,509.1000000014901]","./assets/img/ocean/memory/18.jpg","[""ArrowDown"",""ArrowRight""]","value training","ocean","30","{""ArrowUp,ArrowLeft"":23,""ArrowUp,ArrowRight"":10,""ArrowDown,ArrowLeft"":8,""ArrowDown,ArrowRight"":30}","true","ArrowDown,ArrowRight","false","original","1","42","","",""
"html-keyboard-response","162","751035","0.0-4.0-2.0-1.21","spark_pilot_norest","8654","3","15","Female","","","","","","","null","<div style=""font-size:60px;"">+</div>","null","fixation","","","","","","","","","43","","",""
"revaluation","163","757052","0.0-4.0-2.0-0.22","spark_pilot_norest","8654","3","15","Female","","","false","","","","[665.8999999985099,552.1000000014901]","./assets/img/ocean/memory/8.jpg","[""ArrowDown"",""ArrowRight""]","value training","ocean","30","{""ArrowUp,ArrowLeft"":23,""ArrowUp,ArrowRight"":10,""ArrowDown,ArrowLeft"":8,""ArrowDown,ArrowRight"":30}","true","ArrowDown,ArrowRight","false","original","1","44","","",""
"html-keyboard-response","164","757561","0.0-4.0-2.0-1.22","spark_pilot_norest","8654","3","15","Female","","","","","","","null","<div style=""font-size:60px;"">+</div>","null","fixation","","","","","","","","","45","","",""
"revaluation","165","763577","0.0-4.0-2.0-0.23","spark_pilot_norest","8654","3","15","Female","","","false","","","","[599.3999999985099,448.5]","./assets/img/ocean/memory/39.jpg","[""ArrowDown"",""ArrowRight""]","value training","ocean","30","{""ArrowUp,ArrowLeft"":23,""ArrowUp,ArrowRight"":10,""ArrowDown,ArrowLeft"":8,""ArrowDown,ArrowRight"":30}","true","ArrowDown,ArrowRight","false","original","1","46","","",""
"html-keyboard-response","166","764085","0.0-4.0-2.0-1.23","spark_pilot_norest","8654","3","15","Female","","","","","","","null","<div style=""font-size:60px;"">+</div>","null","fixation","","","","","","","","","47","","",""
"revaluation","167","770113","0.0-4.0-2.0-0.24","spark_pilot_norest","8654","3","15","Female","","","false","","","","[499.70000000298023,597]","./assets/img/ocean/memory/37.jpg","[""ArrowDown"",""ArrowRight""]","value training","ocean","30","{""ArrowUp,ArrowLeft"":23,""ArrowUp,ArrowRight"":10,""ArrowDown,ArrowLeft"":8,""ArrowDown,ArrowRight"":30}","true","ArrowDown,ArrowRight","false","original","1","48","","",""
"html-keyboard-response","168","770617","0.0-4.0-2.0-1.24","spark_pilot_norest","8654","3","15","Female","","","","","","","null","<div style=""font-size:60px;"">+</div>","null","fixation","","","","","","","","","49","","",""
"revaluation","169","776635","0.0-4.0-2.0-0.25","spark_pilot_norest","8654","3","15","Female","","","false","","","","[505.3999999985099,535.7999999970198]","./assets/img/ocean/memory/40.jpg","[""ArrowDown"",""ArrowRight""]","value training","ocean","30","{""ArrowUp,ArrowLeft"":23,""ArrowUp,ArrowRight"":10,""ArrowDown,ArrowLeft"":8,""ArrowDown,ArrowRight"":30}","true","ArrowDown,ArrowRight","false","original","1","50","","",""
"html-keyboard-response","170","777144","0.0-4.0-2.0-1.25","spark_pilot_norest","8654","3","15","Female","","","","","","","null","<div style=""font-size:60px;"">+</div>","null","fixation","","","","","","","","","51","","",""
"revaluation","171","783161","0.0-4.0-2.0-0.26","spark_pilot_norest","8654","3","15","Female","","","false","","","","[488.30000000074506,470]","./assets/img/ocean/memory/24.jpg","[""ArrowDown"",""ArrowRight""]","value training","ocean","30","{""ArrowUp,ArrowLeft"":23,""ArrowUp,ArrowRight"":10,""ArrowDown,ArrowLeft"":8,""ArrowDown,ArrowRight"":30}","true","ArrowDown,ArrowRight","false","original","1","52","","",""
"html-keyboard-response","172","783667","0.0-4.0-2.0-1.26","spark_pilot_norest","8654","3","15","Female","","","","","","","null","<div style=""font-size:60px;"">+</div>","null","fixation","","","","","","","","","53","","",""
"revaluation","173","789686","0.0-4.0-2.0-0.27","spark_pilot_norest","8654","3","15","Female","","","false","","","","[471.0999999977648,1396.1000000014901]","./assets/img/ocean/memory/27.jpg","[""ArrowDown"",""ArrowRight""]","value training","ocean","30","{""ArrowUp,ArrowLeft"":23,""ArrowUp,ArrowRight"":10,""ArrowDown,ArrowLeft"":8,""ArrowDown,ArrowRight"":30}","true","ArrowDown,ArrowRight","false","original","1","54","","",""
"html-keyboard-response","174","790200","0.0-4.0-2.0-1.27","spark_pilot_norest","8654","3","15","Female","","","","","","","null","<div style=""font-size:60px;"">+</div>","null","fixation","","","","","","","","","55","","",""
"revaluation","175","796221","0.0-4.0-2.0-0.28","spark_pilot_norest","8654","3","15","Female","","","false","","","","[518,475.69999999925494]","./assets/img/ocean/memory/31.jpg","[""ArrowDown"",""ArrowRight""]","value training","ocean","30","{""ArrowUp,ArrowLeft"":23,""ArrowUp,ArrowRight"":10,""ArrowDown,ArrowLeft"":8,""ArrowDown,ArrowRight"":30}","true","ArrowDown,ArrowRight","false","original","1","56","","",""
"html-keyboard-response","176","796733","0.0-4.0-2.0-1.28","spark_pilot_norest","8654","3","15","Female","","","","","","","null","<div style=""font-size:60px;"">+</div>","null","fixation","","","","","","","","","57","","",""
"revaluation","177","800749","0.0-4.0-2.0-0.29","spark_pilot_norest","8654","3","15","Female","","","false","","","","[676.9000000022352]","./assets/img/ocean/catch/3.jpg","[""spaceBar""]","value training","ocean","0","{""ArrowUp,ArrowLeft"":23,""ArrowUp,ArrowRight"":10,""ArrowDown,ArrowLeft"":8,""ArrowDown,ArrowRight"":30}","true","spaceBar","true","original","1","58","","",""
"html-keyboard-response","178","801251","0.0-4.0-2.0-1.29","spark_pilot_norest","8654","3","15","Female","","","","","","","null","<div style=""font-size:60px;"">+</div>","null","fixation","","","","","","","","","59","","",""
"revaluation","179","805268","0.0-4.0-2.0-0.30","spark_pilot_norest","8654","3","15","Female","","","false","","","","[691.8000000007451]","./assets/img/ocean/catch/4.jpg","[""ArrowDown""]","value training","ocean","-10","{""ArrowUp,ArrowLeft"":23,""ArrowUp,ArrowRight"":10,""ArrowDown,ArrowLeft"":8,""ArrowDown,ArrowRight"":30}","false","ArrowDown","true","original","1","60","","",""
"html-keyboard-response","180","805772","0.0-4.0-2.0-1.30","spark_pilot_norest","8654","3","15","Female","","","","","","","null","<div style=""font-size:60px;"">+</div>","null","fixation","","","","","","","","","61","","",""
"revaluation","181","811789","0.0-4.0-2.0-0.31","spark_pilot_norest","8654","3","15","Female","","","false","","","","[1005.1000000014901,685]","./assets/img/ocean/memory/35.jpg","[""ArrowDown"",""ArrowRight""]","value training","ocean","30","{""ArrowUp,ArrowLeft"":23,""ArrowUp,ArrowRight"":10,""ArrowDown,ArrowLeft"":8,""ArrowDown,ArrowRight"":30}","true","ArrowDown,ArrowRight","false","original","1","62","","",""
"html-keyboard-response","182","812300","0.0-4.0-2.0-1.31","spark_pilot_norest","8654","3","15","Female","","","","","","","null","<div style=""font-size:60px;"">+</div>","null","fixation","","","","","","","","","63","","",""
"revaluation","183","818317","0.0-4.0-2.0-0.32","spark_pilot_norest","8654","3","15","Female","","","false","","","","[619.1999999992549,408.6000000014901]","./assets/img/ocean/memory/39.jpg","[""ArrowDown"",""ArrowRight""]","value training","ocean","30","{""ArrowUp,ArrowLeft"":23,""ArrowUp,ArrowRight"":10,""ArrowDown,ArrowLeft"":8,""ArrowDown,ArrowRight"":30}","true","ArrowDown,ArrowRight","false","original","1","64","","",""
"html-keyboard-response","184","818829","0.0-4.0-2.0-1.32","spark_pilot_norest","8654","3","15","Female","","","","","","","null","<div style=""font-size:60px;"">+</div>","null","fixation","","","","","","","","","65","","",""
"revaluation","185","822846","0.0-4.0-2.0-0.33","spark_pilot_norest","8654","3","15","Female","","","false","","","","[561.6999999992549]","./assets/img/ocean/catch/2.jpg","[""spaceBar""]","value training","ocean","0","{""ArrowUp,ArrowLeft"":23,""ArrowUp,ArrowRight"":10,""ArrowDown,ArrowLeft"":8,""ArrowDown,ArrowRight"":30}","true","spaceBar","true","original","1","66","","",""
"html-keyboard-response","186","823351","0.0-4.0-2.0-1.33","spark_pilot_norest","8654","3","15","Female","","","","","","","null","<div style=""font-size:60px;"">+</div>","null","fixation","","","","","","","","","67","","",""
"revaluation","187","829372","0.0-4.0-2.0-0.34","spark_pilot_norest","8654","3","15","Female","","","false","","","","[759.3999999985099,667.5]","./assets/img/ocean/memory/15.jpg","[""ArrowDown"",""ArrowRight""]","value training","ocean","30","{""ArrowUp,ArrowLeft"":23,""ArrowUp,ArrowRight"":10,""ArrowDown,ArrowLeft"":8,""ArrowDown,ArrowRight"":30}","true","ArrowDown,ArrowRight","false","original","1","68","","",""
"html-keyboard-response","188","829883","0.0-4.0-2.0-1.34","spark_pilot_norest","8654","3","15","Female","","","","","","","null","<div style=""font-size:60px;"">+</div>","null","fixation","","","","","","","","","69","","",""
"revaluation","189","835901","0.0-4.0-2.0-0.35","spark_pilot_norest","8654","3","15","Female","","","false","","","","[682.5,550.8000000007451]","./assets/img/ocean/memory/23.jpg","[""ArrowDown"",""ArrowRight""]","value training","ocean","30","{""ArrowUp,ArrowLeft"":23,""ArrowUp,ArrowRight"":10,""ArrowDown,ArrowLeft"":8,""ArrowDown,ArrowRight"":30}","true","ArrowDown,ArrowRight","false","original","1","70","","",""
"html-keyboard-response","190","836411","0.0-4.0-2.0-1.35","spark_pilot_norest","8654","3","15","Female","","","","","","","null","<div style=""font-size:60px;"">+</div>","null","fixation","","","","","","","","","71","","",""
"revaluation","191","842417","0.0-4.0-2.0-0.36","spark_pilot_norest","8654","3","15","Female","","","false","","","","[675.5999999977648,521.3000000007451]","./assets/img/ocean/memory/11.jpg","[""ArrowDown"",""ArrowRight""]","value training","ocean","30","{""ArrowUp,ArrowLeft"":23,""ArrowUp,ArrowRight"":10,""ArrowDown,ArrowLeft"":8,""ArrowDown,ArrowRight"":30}","true","ArrowDown,ArrowRight","false","original","1","72","","",""
"html-keyboard-response","192","842923","0.0-4.0-2.0-1.36","spark_pilot_norest","8654","3","15","Female","","","","","","","null","<div style=""font-size:60px;"">+</div>","null","fixation","","","","","","","","","73","","",""
"revaluation","193","848939","0.0-4.0-2.0-0.37","spark_pilot_norest","8654","3","15","Female","","","false","","","","[541.5,581.5]","./assets/img/ocean/memory/36.jpg","[""ArrowDown"",""ArrowRight""]","value training","ocean","30","{""ArrowUp,ArrowLeft"":23,""ArrowUp,ArrowRight"":10,""ArrowDown,ArrowLeft"":8,""ArrowDown,ArrowRight"":30}","true","ArrowDown,ArrowRight","false","original","1","74","","",""
"html-keyboard-response","194","849445","0.0-4.0-2.0-1.37","spark_pilot_norest","8654","3","15","Female","","","","","","","null","<div style=""font-size:60px;"">+</div>","null","fixation","","","","","","","","","75","","",""
"revaluation","195","855467","0.0-4.0-2.0-0.38","spark_pilot_norest","8654","3","15","Female","","","false","","","","[634.5,574.5999999977648]","./assets/img/ocean/memory/15.jpg","[""ArrowDown"",""ArrowRight""]","value training","ocean","30","{""ArrowUp,ArrowLeft"":23,""ArrowUp,ArrowRight"":10,""ArrowDown,ArrowLeft"":8,""ArrowDown,ArrowRight"":30}","true","ArrowDown,ArrowRight","false","original","1","76","","",""
"html-keyboard-response","196","855978","0.0-4.0-2.0-1.38","spark_pilot_norest","8654","3","15","Female","","","","","","","null","<div style=""font-size:60px;"">+</div>","null","fixation","","","","","","","","","77","","",""
"revaluation","197","862000","0.0-4.0-2.0-0.39","spark_pilot_norest","8654","3","15","Female","","","false","","","","[465,502.20000000298023]","./assets/img/ocean/memory/40.jpg","[""ArrowDown"",""ArrowRight""]","value training","ocean","30","{""ArrowUp,ArrowLeft"":23,""ArrowUp,ArrowRight"":10,""ArrowDown,ArrowLeft"":8,""ArrowDown,ArrowRight"":30}","true","ArrowDown,ArrowRight","false","original","1","78","","",""
"html-keyboard-response","198","862506","0.0-4.0-2.0-1.39","spark_pilot_norest","8654","3","15","Female","","","","","","","null","<div style=""font-size:60px;"">+</div>","null","fixation","","","","","","","","","79","","",""
"revaluation","199","868522","0.0-4.0-2.0-0.40","spark_pilot_norest","8654","3","15","Female","","","false","","","","[613.6999999992549,679.1000000014901]","./assets/img/ocean/memory/21.jpg","[""ArrowDown"",""ArrowRight""]","value training","ocean","30","{""ArrowUp,ArrowLeft"":23,""ArrowUp,ArrowRight"":10,""ArrowDown,ArrowLeft"":8,""ArrowDown,ArrowRight"":30}","true","ArrowDown,ArrowRight","false","original","1","80","","",""
"html-keyboard-response","200","869030","0.0-4.0-2.0-1.40","spark_pilot_norest","8654","3","15","Female","","","","","","","null","<div style=""font-size:60px;"">+</div>","null","fixation","","","","","","","","","81","","",""
"revaluation","201","873047","0.0-4.0-2.0-0.41","spark_pilot_norest","8654","3","15","Female","","","false","","","","[394.4000000022352]","./assets/img/ocean/catch/6.jpg","[""ArrowDown""]","value training","ocean","-10","{""ArrowUp,ArrowLeft"":23,""ArrowUp,ArrowRight"":10,""ArrowDown,ArrowLeft"":8,""ArrowDown,ArrowRight"":30}","false","ArrowDown","true","original","1","82","","",""
"html-keyboard-response","202","873550","0.0-4.0-2.0-1.41","spark_pilot_norest","8654","3","15","Female","","","","","","","null","<div style=""font-size:60px;"">+</div>","null","fixation","","","","","","","","","83","","",""
"revaluation","203","879573","0.0-4.0-2.0-0.42","spark_pilot_norest","8654","3","15","Female","","","false","","","","[550.4000000022352,471.5]","./assets/img/ocean/memory/28.jpg","[""ArrowDown"",""ArrowRight""]","value training","ocean","30","{""ArrowUp,ArrowLeft"":23,""ArrowUp,ArrowRight"":10,""ArrowDown,ArrowLeft"":8,""ArrowDown,ArrowRight"":30}","true","ArrowDown,ArrowRight","false","original","1","84","","",""
"html-keyboard-response","204","880083","0.0-4.0-2.0-1.42","spark_pilot_norest","8654","3","15","Female","","","","","","","null","<div style=""font-size:60px;"">+</div>","null","fixation","","","","","","","","","85","","",""
"revaluation","205","886101","0.0-4.0-2.0-0.43","spark_pilot_norest","8654","3","15","Female","","","false","","","","[398.19999999925494,427.8999999985099]","./assets/img/ocean/memory/35.jpg","[""ArrowDown"",""ArrowLeft""]","value training","ocean","8","{""ArrowUp,ArrowLeft"":23,""ArrowUp,ArrowRight"":10,""ArrowDown,ArrowLeft"":8,""ArrowDown,ArrowRight"":30}","false","ArrowDown,ArrowLeft","false","original","1","86","","",""
"html-keyboard-response","206","886611","0.0-4.0-2.0-1.43","spark_pilot_norest","8654","3","15","Female","","","","","","","null","<div style=""font-size:60px;"">+</div>","null","fixation","","","","","","","","","87","","",""
"revaluation","207","892628","0.0-4.0-2.0-0.44","spark_pilot_norest","8654","3","15","Female","","","false","","","","[408.1000000014901,332.0999999977648]","./assets/img/ocean/memory/22.jpg","[""ArrowUp"",""ArrowRight""]","value training","ocean","10","{""ArrowUp,ArrowLeft"":23,""ArrowUp,ArrowRight"":10,""ArrowDown,ArrowLeft"":8,""ArrowDown,ArrowRight"":30}","false","ArrowUp,ArrowRight","false","original","1","88","","",""
"html-keyboard-response","208","893133","0.0-4.0-2.0-1.44","spark_pilot_norest","8654","3","15","Female","","","","","","","null","<div style=""font-size:60px;"">+</div>","null","fixation","","","","","","","","","89","","",""
"revaluation","209","899156","0.0-4.0-2.0-0.45","spark_pilot_norest","8654","3","15","Female","","","false","","","","[577.5,277.19999999925494]","./assets/img/ocean/memory/7.jpg","[""ArrowUp"",""ArrowLeft""]","value training","ocean","23","{""ArrowUp,ArrowLeft"":23,""ArrowUp,ArrowRight"":10,""ArrowDown,ArrowLeft"":8,""ArrowDown,ArrowRight"":30}","false","ArrowUp,ArrowLeft","false","original","1","90","","",""
"html-keyboard-response","210","899664","0.0-4.0-2.0-1.45","spark_pilot_norest","8654","3","15","Female","","","","","","","null","<div style=""font-size:60px;"">+</div>","null","fixation","","","","","","","","","91","","",""
"revaluation","211","905683","0.0-4.0-2.0-0.46","spark_pilot_norest","8654","3","15","Female","","","false","","","","[439.69999999925494,407.80000000074506]","./assets/img/ocean/memory/21.jpg","[""ArrowDown"",""ArrowRight""]","value training","ocean","30","{""ArrowUp,ArrowLeft"":23,""ArrowUp,ArrowRight"":10,""ArrowDown,ArrowLeft"":8,""ArrowDown,ArrowRight"":30}","true","ArrowDown,ArrowRight","false","original","1","92","","",""
"html-keyboard-response","212","906195","0.0-4.0-2.0-1.46","spark_pilot_norest","8654","3","15","Female","","","","","","","null","<div style=""font-size:60px;"">+</div>","null","fixation","","","","","","","","","93","","",""
"revaluation","213","910211","0.0-4.0-2.0-0.47","spark_pilot_norest","8654","3","15","Female","","","false","","","","[487]","./assets/img/ocean/catch/5.jpg","[""ArrowDown""]","value training","ocean","-10","{""ArrowUp,ArrowLeft"":23,""ArrowUp,ArrowRight"":10,""ArrowDown,ArrowLeft"":8,""ArrowDown,ArrowRight"":30}","false","ArrowDown","true","original","1","94","","",""
"html-keyboard-response","214","910717","0.0-4.0-2.0-1.47","spark_pilot_norest","8654","3","15","Female","","","","","","","null","<div style=""font-size:60px;"">+</div>","null","fixation","","","","","","","","","95","","",""
"revaluation","215","916739","0.0-4.0-2.0-0.48","spark_pilot_norest","8654","3","15","Female","","","false","","","","[580.6999999992549,373.9000000022352]","./assets/img/ocean/memory/37.jpg","[""ArrowDown"",""ArrowRight""]","value training","ocean","30","{""ArrowUp,ArrowLeft"":23,""ArrowUp,ArrowRight"":10,""ArrowDown,ArrowLeft"":8,""ArrowDown,ArrowRight"":30}","true","ArrowDown,ArrowRight","false","original","1","96","","",""
"html-keyboard-response","216","917249","0.0-4.0-2.0-1.48","spark_pilot_norest","8654","3","15","Female","","","","","","","null","<div style=""font-size:60px;"">+</div>","null","fixation","","","","","","","","","97","","",""
"revaluation","217","923272","0.0-4.0-2.0-0.49","spark_pilot_norest","8654","3","15","Female","","","false","","","","[386.5999999977648,512.6000000014901]","./assets/img/ocean/memory/18.jpg","[""ArrowDown"",""ArrowRight""]","value training","ocean","30","{""ArrowUp,ArrowLeft"":23,""ArrowUp,ArrowRight"":10,""ArrowDown,ArrowLeft"":8,""ArrowDown,ArrowRight"":30}","true","ArrowDown,ArrowRight","false","original","1","98","","",""
"html-keyboard-response","218","923783","0.0-4.0-2.0-1.49","spark_pilot_norest","8654","3","15","Female","","","","","","","null","<div style=""font-size:60px;"">+</div>","null","fixation","","","","","","","","","99","","",""
"learning-instructions","219","938041","0.0-4.0-3.0-0.0","spark_pilot_norest","8654","3","15","Female","","","","","","","1335.800000000745","<p> Now, you will travel with a friend who will choose whether you go up or down first. </p>
            <p> On these turns, you will just see the animal that they found. You will still get to choose which chest to search for treasure.</p>","","instructions","","","","","","","","","","","",""
"revaluation","220","942048","0.0-4.0-4.0-0.0","spark_pilot_norest","8654","3","15","Female","","","false","","","","[778.5]","./assets/img/ocean/animals/octopus.jpg","[""ArrowLeft""]","revaluation","ocean","23","{""ArrowUp,ArrowLeft"":23,""ArrowUp,ArrowRight"":10,""ArrowDown,ArrowLeft"":8,""ArrowDown,ArrowRight"":30}","true","ArrowUp,ArrowLeft","","original","1","0","","",""
"html-keyboard-response","221","942560","0.0-4.0-4.0-1.0","spark_pilot_norest","8654","3","15","Female","","","","","","","null","<div style=""font-size:60px;"">+</div>","null","fixation","","","","","","","","","1","","",""
"revaluation","222","946577","0.0-4.0-4.0-0.1","spark_pilot_norest","8654","3","15","Female","","","false","","","","[305.3999999985099]","./assets/img/ocean/animals/seahorse.jpg","[""ArrowRight""]","revaluation","ocean","30","{""ArrowUp,ArrowLeft"":23,""ArrowUp,ArrowRight"":10,""ArrowDown,ArrowLeft"":8,""ArrowDown,ArrowRight"":30}","true","ArrowDown,ArrowRight","","original","1","2","","",""
"html-keyboard-response","223","947081","0.0-4.0-4.0-1.1","spark_pilot_norest","8654","3","15","Female","","","","","","","null","<div style=""font-size:60px;"">+</div>","null","fixation","","","","","","","","","3","","",""
"revaluation","224","951099","0.0-4.0-4.0-0.2","spark_pilot_norest","8654","3","15","Female","","","false","","","","[485]","./assets/img/ocean/animals/seahorse.jpg","[""ArrowRight""]","revaluation","ocean","30","{""ArrowUp,ArrowLeft"":23,""ArrowUp,ArrowRight"":10,""ArrowDown,ArrowLeft"":8,""ArrowDown,ArrowRight"":30}","true","ArrowDown,ArrowRight","","original","1","4","","",""
"html-keyboard-response","225","951605","0.0-4.0-4.0-1.2","spark_pilot_norest","8654","3","15","Female","","","","","","","null","<div style=""font-size:60px;"">+</div>","null","fixation","","","","","","","","","5","","",""
"revaluation","226","955616","0.0-4.0-4.0-0.3","spark_pilot_norest","8654","3","15","Female","","","false","","","","[594.0999999977648]","./assets/img/ocean/animals/seahorse.jpg","[""ArrowRight""]","revaluation","ocean","30","{""ArrowUp,ArrowLeft"":23,""ArrowUp,ArrowRight"":10,""ArrowDown,ArrowLeft"":8,""ArrowDown,ArrowRight"":30}","true","ArrowDown,ArrowRight","","original","1","6","","",""
"html-keyboard-response","227","956126","0.0-4.0-4.0-1.3","spark_pilot_norest","8654","3","15","Female","","","","","","","null","<div style=""font-size:60px;"">+</div>","null","fixation","","","","","","","","","7","","",""
"revaluation","228","960138","0.0-4.0-4.0-0.4","spark_pilot_norest","8654","3","15","Female","","","false","","","","[465.9000000022352]","./assets/img/ocean/animals/seahorse.jpg","[""ArrowRight""]","revaluation","ocean","30","{""ArrowUp,ArrowLeft"":23,""ArrowUp,ArrowRight"":10,""ArrowDown,ArrowLeft"":8,""ArrowDown,ArrowRight"":30}","true","ArrowDown,ArrowRight","","original","1","8","","",""
"html-keyboard-response","229","960645","0.0-4.0-4.0-1.4","spark_pilot_norest","8654","3","15","Female","","","","","","","null","<div style=""font-size:60px;"">+</div>","null","fixation","","","","","","","","","9","","",""
"revaluation","230","964657","0.0-4.0-4.0-0.5","spark_pilot_norest","8654","3","15","Female","","","false","","","","[388.3999999985099]","./assets/img/ocean/animals/seahorse.jpg","[""ArrowRight""]","revaluation","ocean","30","{""ArrowUp,ArrowLeft"":23,""ArrowUp,ArrowRight"":10,""ArrowDown,ArrowLeft"":8,""ArrowDown,ArrowRight"":30}","true","ArrowDown,ArrowRight","","original","1","10","","",""
"html-keyboard-response","231","965165","0.0-4.0-4.0-1.5","spark_pilot_norest","8654","3","15","Female","","","","","","","null","<div style=""font-size:60px;"">+</div>","null","fixation","","","","","","","","","11","","",""
"revaluation","232","969180","0.0-4.0-4.0-0.6","spark_pilot_norest","8654","3","15","Female","","","false","","","","[603.7999999970198]","./assets/img/ocean/animals/octopus.jpg","[""ArrowLeft""]","revaluation","ocean","23","{""ArrowUp,ArrowLeft"":23,""ArrowUp,ArrowRight"":10,""ArrowDown,ArrowLeft"":8,""ArrowDown,ArrowRight"":30}","true","ArrowUp,ArrowLeft","","original","1","12","","",""
"html-keyboard-response","233","969683","0.0-4.0-4.0-1.6","spark_pilot_norest","8654","3","15","Female","","","","","","","null","<div style=""font-size:60px;"">+</div>","null","fixation","","","","","","","","","13","","",""
"revaluation","234","973699","0.0-4.0-4.0-0.7","spark_pilot_norest","8654","3","15","Female","","","false","","","","[446.19999999925494]","./assets/img/ocean/animals/octopus.jpg","[""ArrowRight""]","revaluation","ocean","10","{""ArrowUp,ArrowLeft"":23,""ArrowUp,ArrowRight"":10,""ArrowDown,ArrowLeft"":8,""ArrowDown,ArrowRight"":30}","false","ArrowUp,ArrowRight","","original","1","14","","",""
"html-keyboard-response","235","974208","0.0-4.0-4.0-1.7","spark_pilot_norest","8654","3","15","Female","","","","","","","null","<div style=""font-size:60px;"">+</div>","null","fixation","","","","","","","","","15","","",""
"revaluation","236","978214","0.0-4.0-4.0-0.8","spark_pilot_norest","8654","3","15","Female","","","false","","","","[592.5]","./assets/img/ocean/animals/seahorse.jpg","[""ArrowRight""]","revaluation","ocean","30","{""ArrowUp,ArrowLeft"":23,""ArrowUp,ArrowRight"":10,""ArrowDown,ArrowLeft"":8,""ArrowDown,ArrowRight"":30}","true","ArrowDown,ArrowRight","","original","1","16","","",""
"html-keyboard-response","237","978726","0.0-4.0-4.0-1.8","spark_pilot_norest","8654","3","15","Female","","","","","","","null","<div style=""font-size:60px;"">+</div>","null","fixation","","","","","","","","","17","","",""
"revaluation","238","982743","0.0-4.0-4.0-0.9","spark_pilot_norest","8654","3","15","Female","","","false","","","","[454.30000000074506]","./assets/img/ocean/animals/octopus.jpg","[""ArrowLeft""]","revaluation","ocean","23","{""ArrowUp,ArrowLeft"":23,""ArrowUp,ArrowRight"":10,""ArrowDown,ArrowLeft"":8,""ArrowDown,ArrowRight"":30}","true","ArrowUp,ArrowLeft","","original","1","18","","",""
"html-keyboard-response","239","983249","0.0-4.0-4.0-1.9","spark_pilot_norest","8654","3","15","Female","","","","","","","null","<div style=""font-size:60px;"">+</div>","null","fixation","","","","","","","","","19","","",""
"revaluation","240","987262","0.0-4.0-4.0-0.10","spark_pilot_norest","8654","3","15","Female","","","false","","","","[624.6000000014901]","./assets/img/ocean/animals/octopus.jpg","[""ArrowLeft""]","revaluation","ocean","23","{""ArrowUp,ArrowLeft"":23,""ArrowUp,ArrowRight"":10,""ArrowDown,ArrowLeft"":8,""ArrowDown,ArrowRight"":30}","true","ArrowUp,ArrowLeft","","original","1","20","","",""
"html-keyboard-response","241","987764","0.0-4.0-4.0-1.10","spark_pilot_norest","8654","3","15","Female","","","","","","","null","<div style=""font-size:60px;"">+</div>","null","fixation","","","","","","","","","21","","",""
"revaluation","242","991782","0.0-4.0-4.0-0.11","spark_pilot_norest","8654","3","15","Female","","","false","","","","[721.6000000014901]","./assets/img/ocean/animals/octopus.jpg","[""ArrowLeft""]","revaluation","ocean","23","{""ArrowUp,ArrowLeft"":23,""ArrowUp,ArrowRight"":10,""ArrowDown,ArrowLeft"":8,""ArrowDown,ArrowRight"":30}","true","ArrowUp,ArrowLeft","","original","1","22","","",""
"html-keyboard-response","243","992294","0.0-4.0-4.0-1.11","spark_pilot_norest","8654","3","15","Female","","","","","","","null","<div style=""font-size:60px;"">+</div>","null","fixation","","","","","","","","","23","","",""
"revaluation","244","996386","0.0-4.0-4.0-0.12","spark_pilot_norest","8654","3","15","Female","","","false","","","","[734.2000000029802]","./assets/img/ocean/animals/seahorse.jpg","[""ArrowRight""]","revaluation","ocean","30","{""ArrowUp,ArrowLeft"":23,""ArrowUp,ArrowRight"":10,""ArrowDown,ArrowLeft"":8,""ArrowDown,ArrowRight"":30}","true","ArrowDown,ArrowRight","","original","1","24","","",""
"html-keyboard-response","245","996889","0.0-4.0-4.0-1.12","spark_pilot_norest","8654","3","15","Female","","","","","","","null","<div style=""font-size:60px;"">+</div>","null","fixation","","","","","","","","","25","","",""
"revaluation","246","1000902","0.0-4.0-4.0-0.13","spark_pilot_norest","8654","3","15","Female","","","false","","","","[797.6000000014901]","./assets/img/ocean/animals/octopus.jpg","[""ArrowLeft""]","revaluation","ocean","23","{""ArrowUp,ArrowLeft"":23,""ArrowUp,ArrowRight"":10,""ArrowDown,ArrowLeft"":8,""ArrowDown,ArrowRight"":30}","true","ArrowUp,ArrowLeft","","original","1","26","","",""
"html-keyboard-response","247","1001404","0.0-4.0-4.0-1.13","spark_pilot_norest","8654","3","15","Female","","","","","","","null","<div style=""font-size:60px;"">+</div>","null","fixation","","","","","","","","","27","","",""
"revaluation","248","1005425","0.0-4.0-4.0-0.14","spark_pilot_norest","8654","3","15","Female","","","false","","","","[1374.1000000014901]","./assets/img/ocean/animals/octopus.jpg","[""ArrowLeft""]","revaluation","ocean","23","{""ArrowUp,ArrowLeft"":23,""ArrowUp,ArrowRight"":10,""ArrowDown,ArrowLeft"":8,""ArrowDown,ArrowRight"":30}","true","ArrowUp,ArrowLeft","","original","1","28","","",""
"html-keyboard-response","249","1005934","0.0-4.0-4.0-1.14","spark_pilot_norest","8654","3","15","Female","","","","","","","null","<div style=""font-size:60px;"">+</div>","null","fixation","","","","","","","","","29","","",""
"revaluation","250","1009940","0.0-4.0-4.0-0.15","spark_pilot_norest","8654","3","15","Female","","","false","","","","[1343.800000000745]","./assets/img/ocean/animals/octopus.jpg","[""ArrowLeft""]","revaluation","ocean","23","{""ArrowUp,ArrowLeft"":23,""ArrowUp,ArrowRight"":10,""ArrowDown,ArrowLeft"":8,""ArrowDown,ArrowRight"":30}","true","ArrowUp,ArrowLeft","","original","1","30","","",""
"html-keyboard-response","251","1010447","0.0-4.0-4.0-1.15","spark_pilot_norest","8654","3","15","Female","","","","","","","null","<div style=""font-size:60px;"">+</div>","null","fixation","","","","","","","","","31","","",""
"revaluation","252","1014457","0.0-4.0-4.0-0.16","spark_pilot_norest","8654","3","15","Female","","","false","","","","[579.5999999977648]","./assets/img/ocean/animals/seahorse.jpg","[""ArrowLeft""]","revaluation","ocean","8","{""ArrowUp,ArrowLeft"":23,""ArrowUp,ArrowRight"":10,""ArrowDown,ArrowLeft"":8,""ArrowDown,ArrowRight"":30}","false","ArrowDown,ArrowLeft","","original","1","32","","",""
"html-keyboard-response","253","1014967","0.0-4.0-4.0-1.16","spark_pilot_norest","8654","3","15","Female","","","","","","","null","<div style=""font-size:60px;"">+</div>","null","fixation","","","","","","","","","33","","",""
"revaluation","254","1018984","0.0-4.0-4.0-0.17","spark_pilot_norest","8654","3","15","Female","","","false","","","","[523.0999999977648]","./assets/img/ocean/animals/seahorse.jpg","[""ArrowRight""]","revaluation","ocean","30","{""ArrowUp,ArrowLeft"":23,""ArrowUp,ArrowRight"":10,""ArrowDown,ArrowLeft"":8,""ArrowDown,ArrowRight"":30}","true","ArrowDown,ArrowRight","","original","1","34","","",""
"html-keyboard-response","255","1019490","0.0-4.0-4.0-1.17","spark_pilot_norest","8654","3","15","Female","","","","","","","null","<div style=""font-size:60px;"">+</div>","null","fixation","","","","","","","","","35","","",""
"learning-instructions","256","1027633","0.0-4.0-5.0-0.0","spark_pilot_norest","8654","3","15","Female","","","","","","","null","<p> You have almost finished this part of the game! </p>
            <p> We are going to ask you to make a few more choices. </p>","","instructions","","","","","","","","","","","",""
"learning-instructions","257","1043617","0.0-4.0-5.0-0.1","spark_pilot_norest","8654","3","15","Female","","","","","","","null","<p> First, you need to decide whether to go up or down. When you see each picture, use the arrow keys to make your choice. </p>
            <p><b>You will not see which animal you found, but try to get to the one that will give you the most treasure.</b></p>","","instructions","","","","","","","","","","","",""
"html-keyboard-response","258","1044622","0.0-4.0-6.0-0.0","spark_pilot_norest","8654","3","15","Female","","","","","","","null","<div style=""font-size:100px;color:red;"">Starting in...</div>","null","","","","","","","","","","","","",""
"html-keyboard-response","259","1045633","0.0-4.0-6.0-1.0","spark_pilot_norest","8654","3","15","Female","","","","","","","null","<div style=""font-size:200px;color:red;"">3</div>","null","","","","","","","","","","","","",""
"html-keyboard-response","260","1046639","0.0-4.0-6.0-2.0","spark_pilot_norest","8654","3","15","Female","","","","","","","null","<div style=""font-size:200px;color:red;"">2</div>","null","","","","","","","","","","","","",""
"html-keyboard-response","261","1047649","0.0-4.0-6.0-3.0","spark_pilot_norest","8654","3","15","Female","","","","","","","null","<div style=""font-size:200px;color:red;"">1</div>","null","","","","","","","","","","","","",""
"revaluation","262","1048364","0.0-4.0-7.0-0.0","spark_pilot_norest","8654","3","15","Female","","","false","","","","[711.4000000022352]","./assets/img/ocean/test/2.jpg","[""ArrowDown""]","first stage test","ocean","0","{""ArrowUp,ArrowLeft"":23,""ArrowUp,ArrowRight"":10,""ArrowDown,ArrowLeft"":8,""ArrowDown,ArrowRight"":30}","true","ArrowDown","false","original","1","","","",""
"html-keyboard-response","263","1048869","0.0-4.0-7.0-1.0","spark_pilot_norest","8654","3","15","Female","","","","","","","null","<div style=""font-size:60px;"">+</div>","null","fixation","","","","","","","","","","","",""
"revaluation","264","1049542","0.0-4.0-7.0-0.1","spark_pilot_norest","8654","3","15","Female","","","false","","","","[667.2999999970198]","./assets/img/ocean/test/3.jpg","[""ArrowDown""]","first stage test","ocean","0","{""ArrowUp,ArrowLeft"":23,""ArrowUp,ArrowRight"":10,""ArrowDown,ArrowLeft"":8,""ArrowDown,ArrowRight"":30}","true","ArrowDown","false","original","1","","","",""
"html-keyboard-response","265","1050049","0.0-4.0-7.0-1.1","spark_pilot_norest","8654","3","15","Female","","","","","","","null","<div style=""font-size:60px;"">+</div>","null","fixation","","","","","","","","","","","",""
"revaluation","266","1050530","0.0-4.0-7.0-0.2","spark_pilot_norest","8654","3","15","Female","","","false","","","","[477.0999999977648]","./assets/img/ocean/test/0.jpg","[""ArrowDown""]","first stage test","ocean","0","{""ArrowUp,ArrowLeft"":23,""ArrowUp,ArrowRight"":10,""ArrowDown,ArrowLeft"":8,""ArrowDown,ArrowRight"":30}","true","ArrowDown","false","original","1","","","",""
"html-keyboard-response","267","1051040","0.0-4.0-7.0-1.2","spark_pilot_norest","8654","3","15","Female","","","","","","","null","<div style=""font-size:60px;"">+</div>","null","fixation","","","","","","","","","","","",""
"revaluation","268","1051670","0.0-4.0-7.0-0.3","spark_pilot_norest","8654","3","15","Female","","","false","","","","[626.3999999985099]","./assets/img/ocean/test/1.jpg","[""ArrowDown""]","first stage test","ocean","0","{""ArrowUp,ArrowLeft"":23,""ArrowUp,ArrowRight"":10,""ArrowDown,ArrowLeft"":8,""ArrowDown,ArrowRight"":30}","true","ArrowDown","false","original","1","","","",""
"html-keyboard-response","269","1052172","0.0-4.0-7.0-1.3","spark_pilot_norest","8654","3","15","Female","","","","","","","null","<div style=""font-size:60px;"">+</div>","null","fixation","","","","","","","","","","","",""
"learning-instructions","270","1065521","0.0-4.0-8.0-0.0","spark_pilot_norest","8654","3","15","Female","","","","","","","null","<p> Now you will see the animals again and can search their chests for treasure. </p>
            <p> This time, you will not see how much treasure you earned, but you will earn more bonus money for making better choices. </p>","","instructions","","","","","","","","","","","",""
"html-keyboard-response","271","1066523","0.0-4.0-9.0-0.0","spark_pilot_norest","8654","3","15","Female","","","","","","","null","<div style=""font-size:100px;color:red;"">Starting in...</div>","null","","","","","","","","","","","","",""
"html-keyboard-response","272","1067534","0.0-4.0-9.0-1.0","spark_pilot_norest","8654","3","15","Female","","","","","","","null","<div style=""font-size:200px;color:red;"">3</div>","null","","","","","","","","","","","","",""
"html-keyboard-response","273","1068540","0.0-4.0-9.0-2.0","spark_pilot_norest","8654","3","15","Female","","","","","","","null","<div style=""font-size:200px;color:red;"">2</div>","null","","","","","","","","","","","","",""
"html-keyboard-response","274","1069551","0.0-4.0-9.0-3.0","spark_pilot_norest","8654","3","15","Female","","","","","","","null","<div style=""font-size:200px;color:red;"">1</div>","null","","","","","","","","","","","","",""
"revaluation","275","1070343","0.0-4.0-10.0-0.0","spark_pilot_norest","8654","3","15","Female","","","false","","","","[789.4000000022352]","./assets/img/ocean/animals/octopus.jpg","[""ArrowLeft""]","second stage test","ocean","0","{""ArrowUp,ArrowLeft"":23,""ArrowUp,ArrowRight"":10,""ArrowDown,ArrowLeft"":8,""ArrowDown,ArrowRight"":30}","true","ArrowUp,ArrowLeft","","original","1","","","",""
"html-keyboard-response","276","1070853","0.0-4.0-10.0-1.0","spark_pilot_norest","8654","3","15","Female","","","","","","","null","<div style=""font-size:60px;"">+</div>","null","fixation","","","","","","","","","","","",""
"revaluation","277","1071495","0.0-4.0-10.0-0.1","spark_pilot_norest","8654","3","15","Female","","","false","","","","[638]","./assets/img/ocean/animals/octopus.jpg","[""ArrowLeft""]","second stage test","ocean","0","{""ArrowUp,ArrowLeft"":23,""ArrowUp,ArrowRight"":10,""ArrowDown,ArrowLeft"":8,""ArrowDown,ArrowRight"":30}","true","ArrowUp,ArrowLeft","","original","1","","","",""
"html-keyboard-response","278","1072005","0.0-4.0-10.0-1.1","spark_pilot_norest","8654","3","15","Female","","","","","","","null","<div style=""font-size:60px;"">+</div>","null","fixation","","","","","","","","","","","",""
"revaluation","279","1072542","0.0-4.0-10.0-0.2","spark_pilot_norest","8654","3","15","Female","","","false","","","","[532.6000000014901]","./assets/img/ocean/animals/octopus.jpg","[""ArrowLeft""]","second stage test","ocean","0","{""ArrowUp,ArrowLeft"":23,""ArrowUp,ArrowRight"":10,""ArrowDown,ArrowLeft"":8,""ArrowDown,ArrowRight"":30}","true","ArrowUp,ArrowLeft","","original","1","","","",""
"html-keyboard-response","280","1073048","0.0-4.0-10.0-1.2","spark_pilot_norest","8654","3","15","Female","","","","","","","null","<div style=""font-size:60px;"">+</div>","null","fixation","","","","","","","","","","","",""
"revaluation","281","1073584","0.0-4.0-10.0-0.3","spark_pilot_norest","8654","3","15","Female","","","false","","","","[532.8999999985099]","./assets/img/ocean/animals/octopus.jpg","[""ArrowLeft""]","second stage test","ocean","0","{""ArrowUp,ArrowLeft"":23,""ArrowUp,ArrowRight"":10,""ArrowDown,ArrowLeft"":8,""ArrowDown,ArrowRight"":30}","true","ArrowUp,ArrowLeft","","original","1","","","",""
"html-keyboard-response","282","1074087","0.0-4.0-10.0-1.3","spark_pilot_norest","8654","3","15","Female","","","","","","","null","<div style=""font-size:60px;"">+</div>","null","fixation","","","","","","","","","","","",""
"revaluation","283","1074516","0.0-4.0-10.0-0.4","spark_pilot_norest","8654","3","15","Female","","","false","","","","[425]","./assets/img/ocean/animals/seahorse.jpg","[""ArrowRight""]","second stage test","ocean","0","{""ArrowUp,ArrowLeft"":23,""ArrowUp,ArrowRight"":10,""ArrowDown,ArrowLeft"":8,""ArrowDown,ArrowRight"":30}","true","ArrowDown,ArrowRight","","original","1","","","",""
"html-keyboard-response","284","1075020","0.0-4.0-10.0-1.4","spark_pilot_norest","8654","3","15","Female","","","","","","","null","<div style=""font-size:60px;"">+</div>","null","fixation","","","","","","","","","","","",""
"revaluation","285","1075447","0.0-4.0-10.0-0.5","spark_pilot_norest","8654","3","15","Female","","","false","","","","[423.5]","./assets/img/ocean/animals/seahorse.jpg","[""ArrowRight""]","second stage test","ocean","0","{""ArrowUp,ArrowLeft"":23,""ArrowUp,ArrowRight"":10,""ArrowDown,ArrowLeft"":8,""ArrowDown,ArrowRight"":30}","true","ArrowDown,ArrowRight","","original","1","","","",""
"html-keyboard-response","286","1075950","0.0-4.0-10.0-1.5","spark_pilot_norest","8654","3","15","Female","","","","","","","null","<div style=""font-size:60px;"">+</div>","null","fixation","","","","","","","","","","","",""
"revaluation","287","1076389","0.0-4.0-10.0-0.6","spark_pilot_norest","8654","3","15","Female","","","false","","","","[434.80000000074506]","./assets/img/ocean/animals/seahorse.jpg","[""ArrowRight""]","second stage test","ocean","0","{""ArrowUp,ArrowLeft"":23,""ArrowUp,ArrowRight"":10,""ArrowDown,ArrowLeft"":8,""ArrowDown,ArrowRight"":30}","true","ArrowDown,ArrowRight","","original","1","","","",""
"html-keyboard-response","288","1076896","0.0-4.0-10.0-1.6","spark_pilot_norest","8654","3","15","Female","","","","","","","null","<div style=""font-size:60px;"">+</div>","null","fixation","","","","","","","","","","","",""
"revaluation","289","1077428","0.0-4.0-10.0-0.7","spark_pilot_norest","8654","3","15","Female","","","false","","","","[528]","./assets/img/ocean/animals/seahorse.jpg","[""ArrowRight""]","second stage test","ocean","0","{""ArrowUp,ArrowLeft"":23,""ArrowUp,ArrowRight"":10,""ArrowDown,ArrowLeft"":8,""ArrowDown,ArrowRight"":30}","true","ArrowDown,ArrowRight","","original","1","","","",""
"html-keyboard-response","290","1077934","0.0-4.0-10.0-1.7","spark_pilot_norest","8654","3","15","Female","","","","","","","null","<div style=""font-size:60px;"">+</div>","null","fixation","","","","","","","","","","","",""
"learning-instructions","291","1152230","0.0-4.0-0.1-0.2","spark_pilot_norest","8654","3","15","Female","","","","","","","71531","<p> This time you are searching for treasure in the <b>canyon</b>.</p>","","instructions","","","","","","","","","","","",""
"learning-instructions","292","1172844","0.0-4.0-0.1-0.3","spark_pilot_norest","8654","3","15","Female","","","","","","","3321","<p><b>New</b> animals with <b>new</b> treasure chests live here. You need to explore to discover where the animal with the best treasure chest is.</p>
                    <p> Like before, once you figure out which animal has the chest with the most treasure, you should try to get to that animal and select that chest! </p>","","instructions","","","","","","","","","","","",""
"learning-instructions","293","1189211","0.0-4.0-1.1-0.1","spark_pilot_norest","8654","3","15","Female","","","","","","","1635.5","<p> Remember, when you see a picture of the place, use the up and down keys to <b>find an animal</b>.</p>
            <p> When you encounter an animal, you should use the left and right keys to <b>select a treasure chest</b>.</p>
            <p> Don't forget to look out for the robber! </p>","","instructions","","","","","","","","","","","",""
"revaluation","294","1195224","0.0-4.0-2.1-0.50","spark_pilot_norest","8654","3","15","Female","","","false","","","","[914.6000000014901,538]","./assets/img/canyon/memory/27.jpg","[""ArrowDown"",""ArrowRight""]","value training","canyon","17","{""ArrowUp,ArrowLeft"":26,""ArrowUp,ArrowRight"":10,""ArrowDown,ArrowLeft"":5,""ArrowDown,ArrowRight"":17}","false","ArrowDown,ArrowRight","false","revaluation","2","0","","",""
"html-keyboard-response","295","1195729","0.0-4.0-2.1-1.50","spark_pilot_norest","8654","3","15","Female","","","","","","","null","<div style=""font-size:60px;"">+</div>","null","fixation","","","","","","","","","1","","",""
"revaluation","296","1201750","0.0-4.0-2.1-0.51","spark_pilot_norest","8654","3","15","Female","","","false","","","","[587.8000000007451,286.9000000022352]","./assets/img/canyon/memory/1.jpg","[""ArrowDown"",""ArrowLeft""]","value training","canyon","5","{""ArrowUp,ArrowLeft"":26,""ArrowUp,ArrowRight"":10,""ArrowDown,ArrowLeft"":5,""ArrowDown,ArrowRight"":17}","false","ArrowDown,ArrowLeft","false","revaluation","2","2","","",""
"html-keyboard-response","297","1202258","0.0-4.0-2.1-1.51","spark_pilot_norest","8654","3","15","Female","","","","","","","null","<div style=""font-size:60px;"">+</div>","null","fixation","","","","","","","","","3","","",""
"revaluation","298","1208274","0.0-4.0-2.1-0.52","spark_pilot_norest","8654","3","15","Female","","","false","","","","[326.30000000074506,281.79999999701977]","./assets/img/canyon/memory/12.jpg","[""ArrowUp"",""ArrowRight""]","value training","canyon","10","{""ArrowUp,ArrowLeft"":26,""ArrowUp,ArrowRight"":10,""ArrowDown,ArrowLeft"":5,""ArrowDown,ArrowRight"":17}","false","ArrowUp,ArrowRight","false","revaluation","2","4","","",""
"html-keyboard-response","299","1208787","0.0-4.0-2.1-1.52","spark_pilot_norest","8654","3","15","Female","","","","","","","null","<div style=""font-size:60px;"">+</div>","null","fixation","","","","","","","","","5","","",""
"revaluation","300","1214804","0.0-4.0-2.1-0.53","spark_pilot_norest","8654","3","15","Female","","","false","","","","[358.3999999985099,284]","./assets/img/canyon/memory/36.jpg","[""ArrowUp"",""ArrowLeft""]","value training","canyon","26","{""ArrowUp,ArrowLeft"":26,""ArrowUp,ArrowRight"":10,""ArrowDown,ArrowLeft"":5,""ArrowDown,ArrowRight"":17}","true","ArrowUp,ArrowLeft","false","revaluation","2","6","","",""
"html-keyboard-response","301","1215306","0.0-4.0-2.1-1.53","spark_pilot_norest","8654","3","15","Female","","","","","","","null","<div style=""font-size:60px;"">+</div>","null","fixation","","","","","","","","","7","","",""
"revaluation","302","1221324","0.0-4.0-2.1-0.54","spark_pilot_norest","8654","3","15","Female","","","false","","","","[394.1000000014901,272.19999999925494]","./assets/img/canyon/memory/35.jpg","[""ArrowUp"",""ArrowLeft""]","value training","canyon","26","{""ArrowUp,ArrowLeft"":26,""ArrowUp,ArrowRight"":10,""ArrowDown,ArrowLeft"":5,""ArrowDown,ArrowRight"":17}","true","ArrowUp,ArrowLeft","false","revaluation","2","8","","",""
"html-keyboard-response","303","1221837","0.0-4.0-2.1-1.54","spark_pilot_norest","8654","3","15","Female","","","","","","","null","<div style=""font-size:60px;"">+</div>","null","fixation","","","","","","","","","9","","",""
"revaluation","304","1225854","0.0-4.0-2.1-0.55","spark_pilot_norest","8654","3","15","Female","","","false","","","","[311.79999999701977]","./assets/img/canyon/catch/6.jpg","[""ArrowUp""]","value training","canyon","-10","{""ArrowUp,ArrowLeft"":26,""ArrowUp,ArrowRight"":10,""ArrowDown,ArrowLeft"":5,""ArrowDown,ArrowRight"":17}","false","ArrowUp","true","revaluation","2","10","","",""
"html-keyboard-response","305","1226365","0.0-4.0-2.1-1.55","spark_pilot_norest","8654","3","15","Female","","","","","","","null","<div style=""font-size:60px;"">+</div>","null","fixation","","","","","","","","","11","","",""
"revaluation","306","1230375","0.0-4.0-2.1-0.56","spark_pilot_norest","8654","3","15","Female","","","false","","","","[651.8999999985099]","./assets/img/canyon/catch/3.jpg","[""spaceBar""]","value training","canyon","0","{""ArrowUp,ArrowLeft"":26,""ArrowUp,ArrowRight"":10,""ArrowDown,ArrowLeft"":5,""ArrowDown,ArrowRight"":17}","true","spaceBar","true","revaluation","2","12","","",""
"html-keyboard-response","307","1230882","0.0-4.0-2.1-1.56","spark_pilot_norest","8654","3","15","Female","","","","","","","null","<div style=""font-size:60px;"">+</div>","null","fixation","","","","","","","","","13","","",""
"revaluation","308","1236899","0.0-4.0-2.1-0.57","spark_pilot_norest","8654","3","15","Female","","","false","","","","[590.2000000029802,398.29999999701977]","./assets/img/canyon/memory/8.jpg","[""ArrowUp"",""ArrowLeft""]","value training","canyon","26","{""ArrowUp,ArrowLeft"":26,""ArrowUp,ArrowRight"":10,""ArrowDown,ArrowLeft"":5,""ArrowDown,ArrowRight"":17}","true","ArrowUp,ArrowLeft","false","revaluation","2","14","","",""
"html-keyboard-response","309","1237408","0.0-4.0-2.1-1.57","spark_pilot_norest","8654","3","15","Female","","","","","","","null","<div style=""font-size:60px;"">+</div>","null","fixation","","","","","","","","","15","","",""
"revaluation","310","1243436","0.0-4.0-2.1-0.58","spark_pilot_norest","8654","3","15","Female","","","false","","","","[615.1999999992549,454.80000000074506]","./assets/img/canyon/memory/21.jpg","[""ArrowUp"",""ArrowLeft""]","value training","canyon","26","{""ArrowUp,ArrowLeft"":26,""ArrowUp,ArrowRight"":10,""ArrowDown,ArrowLeft"":5,""ArrowDown,ArrowRight"":17}","true","ArrowUp,ArrowLeft","false","revaluation","2","16","","",""
"html-keyboard-response","311","1243941","0.0-4.0-2.1-1.58","spark_pilot_norest","8654","3","15","Female","","","","","","","null","<div style=""font-size:60px;"">+</div>","null","fixation","","","","","","","","","17","","",""
