"trial_type","trial_index","time_elapsed","internal_node_id","task_version","subject_id","assigned_condition","age","gender","success","timeout","failed_images","failed_audio","failed_video","browser_interaction","rt","stimulus","response","task_part","environment","score","rewardMap","correct","fullState","isCatch","condition","order","trial_num","key_press","ground_truth","bonus"
"pavlovia","0","4662","0.0-0.0","spark_pilot_norest","8730","3","23","Female","","","","","","","","","","","","","","","","","","","","","",""
"preload","1","69240","0.0-1.0","spark_pilot_norest","8730","3","23","Female","true","false","[]","[]","[]","[{""event"":""fullscreenenter"",""trial"":2,""time"":93494}]","","","","","","","","","","","","","","","",""
"fullscreen","2","94375","0.0-2.0","spark_pilot_norest","8730","3","23","Female","true","","","","","","","","","","","","","","","","","","","","",""
"audio-button-response","3","96007","0.0-3.0-0.0-0.0","spark_pilot_norest","8730","3","23","Female","","","","","","","1469","./assets/audio/audiotest/turtle.mp3","2","audio_test","","","","","","","","","","","",""
"learning-instructions","4","106263","0.0-3.0-1.0-0.0","spark_pilot_norest","8730","3","23","Female","","","","","","","3238.4000000059605","<p> Welcome! Please remember to stay in fullscreen mode and don't click away from the experiment. </p>","","instructions","","","","","","","","","","","",""
"learning-instructions","5","116444","0.0-3.0-1.0-0.1","spark_pilot_norest","8730","3","23","Female","","","","","","","1503","<p> Today you will be playing a game to earn treasure. </p>
            <p> At the end of the experiment, you will earn a bonus based on how much treasure you find. </p>
            <img src='./assets/img/instructions/treasure.jpg' class='instructions-image'>","","instructions","","","","","","","","","","","",""
"learning-instructions","6","125743","0.0-3.0-1.0-0.2","spark_pilot_norest","8730","3","23","Female","","","","","","","950.6999999880791","<p> Animals have hidden treasure in treasure chests. </p>
            <p> You need to first find an animal and then choose which of their treasure chests to search. </p>
            <img src='./assets/img/space/animals/cat.jpg' class='instructions-image'>","","instructions","","","","","","","","","","","",""
"learning-instructions","7","139928","0.0-3.0-1.0-0.3","spark_pilot_norest","8730","3","23","Female","","","","","","","942.7999999970198","<p> In each round, you will search for treasure in a different place. In the real game, there will be two rounds. </p>
            <p> You will begin with a separate, practice round where you will search for treasure in outer space. </p>
            <img src='./assets/img/space/0.jpg' class='instructions-image'>","","instructions","","","","","","","","","","","",""
"learning-instructions","8","152908","0.0-3.0-1.0-0.4","spark_pilot_norest","8730","3","23","Female","","","","","","","1488.199999988079","<p> On every turn, you will see a picture of the place that you are in, but the specific image may be different each time. </p>
            <p> For example, both of these images mean you are in outer space. </p>
            <img src='./assets/img/instructions/outerspace.jpg' class='instructions-image'>","","instructions","","","","","","","","","","","",""
"learning-instructions","9","161600","0.0-3.0-1.0-0.5","spark_pilot_norest","8730","3","23","Female","","","","","","","801.1000000089407","<p> You need to decide which direction to travel in. </p>
            <p> You can choose between going <b>up or down</b> by using the arrow keys. </p>
            <img src='./assets/img/instructions/updown.jpg' class='instructions-image'>","","instructions","","","","","","","","","","","",""
"learning-instructions","10","172832","0.0-3.0-1.0-0.6","spark_pilot_norest","8730","3","23","Female","","","","","","","2372","<p> You will have <b>2 seconds</b> to make your choice. </p>
            <p> If you do not make a choice within 2 seconds, you will not find an animal or earn treasure. </p>
            <img src='./assets/img/instructions/2seconds.jpg' class='instructions-image'>","","instructions","","","","","","","","","","","",""
"learning-instructions","11","181234","0.0-3.0-1.0-0.7","spark_pilot_norest","8730","3","23","Female","","","","","","","1318.2000000029802","<p> Let’s try practicing that now! </p>
            <p> When you see a picture of the place you are in, press the <b>up</b> key to travel up. </p>
            <img src='./assets/img/instructions/pressUp.jpg' class='instructions-image'>","","instructions","","","","","","","","","","","",""
"revaluation","12","185276","0.0-3.0-2.0-0.0","spark_pilot_norest","8730","3","23","Female","","true","","","","","[]","./assets/img/space/0.jpg","[]","first stage practice","space","-5","null","null","","false","","","","","",""
"html-keyboard-response","13","185779","0.0-3.0-2.0-1.0","spark_pilot_norest","8730","3","23","Female","","","","","","","null","<div style=""font-size:60px;"">+</div>","null","fixation","","","","","","","","","","","",""
"revaluation","14","189796","0.0-3.0-2.0-0.1","spark_pilot_norest","8730","3","23","Female","","false","","","","","[1251.4000000059605]","./assets/img/space/1.jpg","[""ArrowUp""]","first stage practice","space","0","null","null","ArrowUp","false","","","","","",""
"html-keyboard-response","15","190300","0.0-3.0-2.0-1.1","spark_pilot_norest","8730","3","23","Female","","","","","","","null","<div style=""font-size:60px;"">+</div>","null","fixation","","","","","","","","","","","",""
"revaluation","16","194316","0.0-3.0-2.0-0.2","spark_pilot_norest","8730","3","23","Female","","false","","","","","[1645.7999999970198]","./assets/img/space/2.jpg","[""ArrowUp""]","first stage practice","space","0","null","null","ArrowUp","false","","","","","",""
"html-keyboard-response","17","194819","0.0-3.0-2.0-1.2","spark_pilot_norest","8730","3","23","Female","","","","","","","null","<div style=""font-size:60px;"">+</div>","null","fixation","","","","","","","","","","","",""
"learning-instructions","18","200358","0.0-3.0-3.0-0.0","spark_pilot_norest","8730","3","23","Female","","","","","","","803.5","<p> Great job! Now try pressing the <b>down</b> key to travel down. </p>
            <img src='./assets/img/instructions/pressDown.jpg' class='instructions-image'>","","instructions","","","","","","","","","","","",""
"revaluation","19","204372","0.0-3.0-4.0-0.0","spark_pilot_norest","8730","3","23","Female","","false","","","","","[684.5]","./assets/img/space/3.jpg","[""ArrowDown""]","first stage practice","space","0","null","null","ArrowDown","false","","","","","",""
"html-keyboard-response","20","204876","0.0-3.0-4.0-1.0","spark_pilot_norest","8730","3","23","Female","","","","","","","null","<div style=""font-size:60px;"">+</div>","null","fixation","","","","","","","","","","","",""
"revaluation","21","208894","0.0-3.0-4.0-0.1","spark_pilot_norest","8730","3","23","Female","","false","","","","","[29.400000005960464]","./assets/img/space/4.jpg","[""ArrowDown""]","first stage practice","space","0","null","null","ArrowDown","false","","","","","",""
"html-keyboard-response","22","209404","0.0-3.0-4.0-1.1","spark_pilot_norest","8730","3","23","Female","","","","","","","null","<div style=""font-size:60px;"">+</div>","null","fixation","","","","","","","","","","","",""
"revaluation","23","213422","0.0-3.0-4.0-0.2","spark_pilot_norest","8730","3","23","Female","","false","","","","","[11.299999997019768]","./assets/img/space/5.jpg","[""ArrowDown""]","first stage practice","space","0","null","null","ArrowDown","false","","","","","",""
"html-keyboard-response","24","213933","0.0-3.0-4.0-1.2","spark_pilot_norest","8730","3","23","Female","","","","","","","null","<div style=""font-size:60px;"">+</div>","null","fixation","","","","","","","","","","","",""
"learning-instructions","25","228828","0.0-3.0-5.0-0.0","spark_pilot_norest","8730","3","23","Female","","","","","","","4972.399999991059","<p> The animals don’t move, so the animal in the upper part of a place will stay in the upper part of a place, and the animal in the lower part of a place will stay in the lower part of a place. </p>","","instructions","","","","","","","","","","","",""
"learning-instructions","26","239170","0.0-3.0-5.0-0.1","spark_pilot_norest","8730","3","23","Female","","","","","","","1157.5999999940395","<p> Each animal has two treasure chests for you to choose from. </p>
            <p> The amount of treasure in each chest can range from <b> 0 to 40 pieces.</b></p>","","instructions","","","","","","","","","","","",""
"learning-instructions","27","253045","0.0-3.0-5.0-0.2","spark_pilot_norest","8730","3","23","Female","","","","","","","2621.1000000089407","<p> You should decide which chest to search for treasure by using the <b>left</b> and <b>right</b> arrow keys. </p>
            <p><b> Pay attention to which animal is on the screen, as the animals have different treasure chests. </b></p>
            <img src='./assets/img/instructions/leftright.jpg' class='instructions-image'>","","instructions","","","","","","","","","","","",""
"learning-instructions","28","260533","0.0-3.0-5.0-0.3","spark_pilot_norest","8730","3","23","Female","","","","","","","1076.7000000029802","<p> Let’s try practicing that now. </p>
            <p> When you see an animal, choose which chest to search for treasure. </p>
            <img src='./assets/img/instructions/chooseChest.jpg' class='instructions-image'>","","instructions","","","","","","","","","","","",""
"revaluation","29","264557","0.0-3.0-6.0-0.0","spark_pilot_norest","8730","3","23","Female","","false","","","","","[685.7000000029802]","./assets/img/space/animals/rabbit.jpg","[""ArrowRight""]","second stage practice","space","23","{""ArrowUp,ArrowLeft"":3,""ArrowUp,ArrowRight"":36,""ArrowDown,ArrowLeft"":15,""ArrowDown,ArrowRight"":23}","true","ArrowDown,ArrowRight","","","","","","",""
"html-keyboard-response","30","265063","0.0-3.0-6.0-1.0","spark_pilot_norest","8730","3","23","Female","","","","","","","null","<div style=""font-size:60px;"">+</div>","null","fixation","","","","","","","","","","","",""
"revaluation","31","269075","0.0-3.0-6.0-0.1","spark_pilot_norest","8730","3","23","Female","","false","","","","","[779.8999999910593]","./assets/img/space/animals/rabbit.jpg","[""ArrowRight""]","second stage practice","space","23","{""ArrowUp,ArrowLeft"":3,""ArrowUp,ArrowRight"":36,""ArrowDown,ArrowLeft"":15,""ArrowDown,ArrowRight"":23}","true","ArrowDown,ArrowRight","","","","","","",""
"html-keyboard-response","32","269580","0.0-3.0-6.0-1.1","spark_pilot_norest","8730","3","23","Female","","","","","","","null","<div style=""font-size:60px;"">+</div>","null","fixation","","","","","","","","","","","",""
"revaluation","33","273597","0.0-3.0-6.0-0.2","spark_pilot_norest","8730","3","23","Female","","false","","","","","[399]","./assets/img/space/animals/cat.jpg","[""ArrowRight""]","second stage practice","space","36","{""ArrowUp,ArrowLeft"":3,""ArrowUp,ArrowRight"":36,""ArrowDown,ArrowLeft"":15,""ArrowDown,ArrowRight"":23}","true","ArrowUp,ArrowRight","","","","","","",""
"html-keyboard-response","34","274100","0.0-3.0-6.0-1.2","spark_pilot_norest","8730","3","23","Female","","","","","","","null","<div style=""font-size:60px;"">+</div>","null","fixation","","","","","","","","","","","",""
"revaluation","35","278119","0.0-3.0-6.0-0.3","spark_pilot_norest","8730","3","23","Female","","false","","","","","[287]","./assets/img/space/animals/cat.jpg","[""ArrowRight""]","second stage practice","space","36","{""ArrowUp,ArrowLeft"":3,""ArrowUp,ArrowRight"":36,""ArrowDown,ArrowLeft"":15,""ArrowDown,ArrowRight"":23}","true","ArrowUp,ArrowRight","","","","","","",""
"html-keyboard-response","36","278627","0.0-3.0-6.0-1.3","spark_pilot_norest","8730","3","23","Female","","","","","","","null","<div style=""font-size:60px;"">+</div>","null","fixation","","","","","","","","","","","",""
"learning-instructions","37","298654","0.0-3.0-7.0-0.0","spark_pilot_norest","8730","3","23","Female","","","","","","","3132.2000000029802","<p> Great job. Now let’s try putting it together. </p>
            <p> On each turn, you will first see a picture to remind you of the place you are in, and you need to choose whether to go up or down. </p>
            <p> Then you will see an animal and choose which of its chests to search for treasure. </p>","","instructions","","","","","","","","","","","",""
"learning-instructions","38","308679","0.0-3.0-7.0-0.1","spark_pilot_norest","8730","3","23","Female","","","","","","","1709.5999999940395","<p> When you choose whether to go up or down, try to go to the animal with the chest with the most treasure. </p>
            <p> Try practicing that now! </p>","","instructions","","","","","","","","","","","",""
"revaluation","39","314700","0.0-3.0-8.0-0.0","spark_pilot_norest","8730","3","23","Female","","false","","","","","[1678.5,618.3999999910593]","./assets/img/space/6.jpg","[""ArrowUp"",""ArrowRight""]","full practice","space","36","{""ArrowUp,ArrowLeft"":3,""ArrowUp,ArrowRight"":36,""ArrowDown,ArrowLeft"":15,""ArrowDown,ArrowRight"":23}","true","ArrowUp,ArrowRight","false","","","","","",""
"html-keyboard-response","40","315203","0.0-3.0-8.0-1.0","spark_pilot_norest","8730","3","23","Female","","","","","","","null","<div style=""font-size:60px;"">+</div>","null","fixation","","","","","","","","","","","",""
"revaluation","41","321228","0.0-3.0-8.0-0.1","spark_pilot_norest","8730","3","23","Female","","false","","","","","[689.7999999970198,544.4000000059605]","./assets/img/space/7.jpg","[""ArrowDown"",""ArrowRight""]","full practice","space","23","{""ArrowUp,ArrowLeft"":3,""ArrowUp,ArrowRight"":36,""ArrowDown,ArrowLeft"":15,""ArrowDown,ArrowRight"":23}","false","ArrowDown,ArrowRight","false","","","","","",""
"html-keyboard-response","42","321731","0.0-3.0-8.0-1.1","spark_pilot_norest","8730","3","23","Female","","","","","","","null","<div style=""font-size:60px;"">+</div>","null","fixation","","","","","","","","","","","",""
"revaluation","43","327755","0.0-3.0-8.0-0.2","spark_pilot_norest","8730","3","23","Female","","false","","","","","[442.59999999403954,563.5]","./assets/img/space/8.jpg","[""ArrowUp"",""ArrowRight""]","full practice","space","36","{""ArrowUp,ArrowLeft"":3,""ArrowUp,ArrowRight"":36,""ArrowDown,ArrowLeft"":15,""ArrowDown,ArrowRight"":23}","true","ArrowUp,ArrowRight","false","","","","","",""
"html-keyboard-response","44","328262","0.0-3.0-8.0-1.2","spark_pilot_norest","8730","3","23","Female","","","","","","","null","<div style=""font-size:60px;"">+</div>","null","fixation","","","","","","","","","","","",""
"revaluation","45","334284","0.0-3.0-8.0-0.3","spark_pilot_norest","8730","3","23","Female","","false","","","","","[191.69999998807907,1519.7000000029802]","./assets/img/space/9.jpg","[""ArrowDown"",""ArrowRight""]","full practice","space","23","{""ArrowUp,ArrowLeft"":3,""ArrowUp,ArrowRight"":36,""ArrowDown,ArrowLeft"":15,""ArrowDown,ArrowRight"":23}","false","ArrowDown,ArrowRight","false","","","","","",""
"html-keyboard-response","46","334787","0.0-3.0-8.0-1.3","spark_pilot_norest","8730","3","23","Female","","","","","","","null","<div style=""font-size:60px;"">+</div>","null","fixation","","","","","","","","","","","",""
"revaluation","47","338803","0.0-3.0-8.0-0.4","spark_pilot_norest","8730","3","23","Female","","true","","","","","[]","./assets/img/space/10.jpg","[]","full practice","space","-5","{""ArrowUp,ArrowLeft"":3,""ArrowUp,ArrowRight"":36,""ArrowDown,ArrowLeft"":15,""ArrowDown,ArrowRight"":23}","false","","false","","","","","",""
"html-keyboard-response","48","339306","0.0-3.0-8.0-1.4","spark_pilot_norest","8730","3","23","Female","","","","","","","null","<div style=""font-size:60px;"">+</div>","null","fixation","","","","","","","","","","","",""
"learning-instructions","49","351875","0.0-3.0-9.0-0.0","spark_pilot_norest","8730","3","23","Female","","","","","","","2195.7000000029802","<p> One last thing: sometimes, you will see a robber. The robber can be anywhere in the picture. </p>
            <p> If you do not stop them, you will lose treasure. </p>
            <img src='./assets/img/instructions/robber.jpg' class='instructions-image'>","","instructions","","","","","","","","","","","",""
"learning-instructions","50","360323","0.0-3.0-9.0-0.1","spark_pilot_norest","8730","3","23","Female","","","","","","","1233.6000000089407","<p> If you see the robber, you should <b>press the space bar</b> rather than using the arrow keys. </p>
            <p> Try practicing that now! </p>","","instructions","","","","","","","","","","","",""
"revaluation","51","364342","0.0-3.0-10.0-0.0","spark_pilot_norest","8730","3","23","Female","","false","","","","","[1183.5]","./assets/img/space/catch/0.jpg","[""ArrowDown""]","catch practice","space","-10","{""ArrowUp,ArrowLeft"":3,""ArrowUp,ArrowRight"":36,""ArrowDown,ArrowLeft"":15,""ArrowDown,ArrowRight"":23}","false","ArrowDown","true","","","","","",""
"html-keyboard-response","52","364853","0.0-3.0-10.0-1.0","spark_pilot_norest","8730","3","23","Female","","","","","","","null","<div style=""font-size:60px;"">+</div>","null","fixation","","","","","","","","","","","",""
"revaluation","53","368867","0.0-3.0-10.0-0.1","spark_pilot_norest","8730","3","23","Female","","false","","","","","[805.3999999910593]","./assets/img/space/catch/1.jpg","[""ArrowUp""]","catch practice","space","-10","{""ArrowUp,ArrowLeft"":3,""ArrowUp,ArrowRight"":36,""ArrowDown,ArrowLeft"":15,""ArrowDown,ArrowRight"":23}","false","ArrowUp","true","","","","","",""
"html-keyboard-response","54","369375","0.0-3.0-10.0-1.1","spark_pilot_norest","8730","3","23","Female","","","","","","","null","<div style=""font-size:60px;"">+</div>","null","fixation","","","","","","","","","","","",""
"revaluation","55","373387","0.0-3.0-10.0-0.2","spark_pilot_norest","8730","3","23","Female","","false","","","","","[721]","./assets/img/space/catch/2.jpg","[""ArrowDown""]","catch practice","space","-10","{""ArrowUp,ArrowLeft"":3,""ArrowUp,ArrowRight"":36,""ArrowDown,ArrowLeft"":15,""ArrowDown,ArrowRight"":23}","false","ArrowDown","true","","","","","",""
"html-keyboard-response","56","373891","0.0-3.0-10.0-1.2","spark_pilot_norest","8730","3","23","Female","","","","","","","null","<div style=""font-size:60px;"">+</div>","null","fixation","","","","","","","","","","","",""
"learning-instructions","57","380806","0.0-3.0-11.0-0.0-0.0","spark_pilot_norest","8730","3","23","Female","","","","","","","1654.6000000089407","<p> Now, you will practice a shortened version of the game to get a sense of how it all fits together. </p>","","instructions","","","","","","","","","","","",""
"learning-instructions","58","385672","0.0-3.0-11.0-0.0-0.1","spark_pilot_norest","8730","3","23","Female","","","","","","","1643.199999988079","<p>This time you are searching for treasure in outer space.</p>","","instructions","","","","","","","","","","","",""
"learning-instructions","59","407217","0.0-3.0-11.0-1.0-0.0","spark_pilot_norest","8730","3","23","Female","","","","","","","6691.9000000059605","<p> Remember, when you see a picture of the place, use the up and down keys to <b>find an animal</b>.</p>
            <p> When you encounter an animal, you should use the left and right keys to <b>select a treasure chest</b>.</p>
            <p> Don't forget to look out for the robber! </p>","","instructions","","","","","","","","","","","",""
"revaluation","60","411235","0.0-3.0-11.0-2.0-0.0","spark_pilot_norest","8730","3","23","Female","","true","","","","","[]","./assets/img/space/11.jpg","[]","practice block","space","-5","{""ArrowUp,ArrowLeft"":3,""ArrowUp,ArrowRight"":36,""ArrowDown,ArrowLeft"":15,""ArrowDown,ArrowRight"":23}","false","","false","","","","","",""
"html-keyboard-response","61","411739","0.0-3.0-11.0-2.0-1.0","spark_pilot_norest","8730","3","23","Female","","","","","","","null","<div style=""font-size:60px;"">+</div>","null","fixation","","","","","","","","","","","",""
"revaluation","62","417764","0.0-3.0-11.0-2.0-0.1","spark_pilot_norest","8730","3","23","Female","","true","","","","","[1064.2999999970198]","./assets/img/space/12.jpg","[""ArrowDown""]","practice block","space","-5","{""ArrowUp,ArrowLeft"":3,""ArrowUp,ArrowRight"":36,""ArrowDown,ArrowLeft"":15,""ArrowDown,ArrowRight"":23}","false","ArrowDown","false","","","","","",""
"html-keyboard-response","63","418268","0.0-3.0-11.0-2.0-1.1","spark_pilot_norest","8730","3","23","Female","","","","","","","null","<div style=""font-size:60px;"">+</div>","null","fixation","","","","","","","","","","","",""
"revaluation","64","424293","0.0-3.0-11.0-2.0-0.2","spark_pilot_norest","8730","3","23","Female","","false","","","","","[65.5,694.5999999940395]","./assets/img/space/13.jpg","[""ArrowUp"",""ArrowRight""]","practice block","space","36","{""ArrowUp,ArrowLeft"":3,""ArrowUp,ArrowRight"":36,""ArrowDown,ArrowLeft"":15,""ArrowDown,ArrowRight"":23}","true","ArrowUp,ArrowRight","false","","","","","",""
"html-keyboard-response","65","424798","0.0-3.0-11.0-2.0-1.2","spark_pilot_norest","8730","3","23","Female","","","","","","","null","<div style=""font-size:60px;"">+</div>","null","fixation","","","","","","","","","","","",""
"revaluation","66","430811","0.0-3.0-11.0-2.0-0.3","spark_pilot_norest","8730","3","23","Female","","true","","","","","[85.5]","./assets/img/space/14.jpg","[""ArrowUp""]","practice block","space","-5","{""ArrowUp,ArrowLeft"":3,""ArrowUp,ArrowRight"":36,""ArrowDown,ArrowLeft"":15,""ArrowDown,ArrowRight"":23}","false","ArrowUp","false","","","","","",""
"html-keyboard-response","67","431315","0.0-3.0-11.0-2.0-1.3","spark_pilot_norest","8730","3","23","Female","","","","","","","null","<div style=""font-size:60px;"">+</div>","null","fixation","","","","","","","","","","","",""
"revaluation","68","437341","0.0-3.0-11.0-2.0-0.4","spark_pilot_norest","8730","3","23","Female","","false","","","","","[417.40000000596046,1216]","./assets/img/space/11.jpg","[""ArrowDown"",""ArrowRight""]","practice block","space","23","{""ArrowUp,ArrowLeft"":3,""ArrowUp,ArrowRight"":36,""ArrowDown,ArrowLeft"":15,""ArrowDown,ArrowRight"":23}","false","ArrowDown,ArrowRight","false","","","","","",""
"html-keyboard-response","69","437846","0.0-3.0-11.0-2.0-1.4","spark_pilot_norest","8730","3","23","Female","","","","","","","null","<div style=""font-size:60px;"">+</div>","null","fixation","","","","","","","","","","","",""
"revaluation","70","443867","0.0-3.0-11.0-2.0-0.5","spark_pilot_norest","8730","3","23","Female","","false","","","","","[453.59999999403954,1598.7000000029802]","./assets/img/space/12.jpg","[""ArrowDown"",""ArrowRight""]","practice block","space","23","{""ArrowUp,ArrowLeft"":3,""ArrowUp,ArrowRight"":36,""ArrowDown,ArrowLeft"":15,""ArrowDown,ArrowRight"":23}","false","ArrowDown,ArrowRight","false","","","","","",""
"html-keyboard-response","71","444371","0.0-3.0-11.0-2.0-1.5","spark_pilot_norest","8730","3","23","Female","","","","","","","null","<div style=""font-size:60px;"">+</div>","null","fixation","","","","","","","","","","","",""
"revaluation","72","448390","0.0-3.0-11.0-2.0-0.6","spark_pilot_norest","8730","3","23","Female","","true","","","","","[]","./assets/img/space/13.jpg","[]","practice block","space","-5","{""ArrowUp,ArrowLeft"":3,""ArrowUp,ArrowRight"":36,""ArrowDown,ArrowLeft"":15,""ArrowDown,ArrowRight"":23}","false","","false","","","","","",""
"html-keyboard-response","73","448901","0.0-3.0-11.0-2.0-1.6","spark_pilot_norest","8730","3","23","Female","","","","","","","null","<div style=""font-size:60px;"">+</div>","null","fixation","","","","","","","","","","","",""
"revaluation","74","453037","0.0-3.0-11.0-2.0-0.7","spark_pilot_norest","8730","3","23","Female","","true","","","","","[]","./assets/img/space/14.jpg","[]","practice block","space","-5","{""ArrowUp,ArrowLeft"":3,""ArrowUp,ArrowRight"":36,""ArrowDown,ArrowLeft"":15,""ArrowDown,ArrowRight"":23}","false","","false","","","","","",""
"html-keyboard-response","75","453548","0.0-3.0-11.0-2.0-1.7","spark_pilot_norest","8730","3","23","Female","","","","","","","null","<div style=""font-size:60px;"">+</div>","null","fixation","","","","","","","","","","","",""
"revaluation","76","457566","0.0-3.0-11.0-2.0-0.8","spark_pilot_norest","8730","3","23","Female","","false","","","","","[1342.2999999970198]","./assets/img/space/catch/3.jpg","[""ArrowDown""]","practice block","space","-10","{""ArrowUp,ArrowLeft"":3,""ArrowUp,ArrowRight"":36,""ArrowDown,ArrowLeft"":15,""ArrowDown,ArrowRight"":23}","false","ArrowDown","true","","","","","",""
"html-keyboard-response","77","458070","0.0-3.0-11.0-2.0-1.8","spark_pilot_norest","8730","3","23","Female","","","","","","","null","<div style=""font-size:60px;"">+</div>","null","fixation","","","","","","","","","","","",""
"learning-instructions","78","475405","0.0-3.0-11.0-3.0-0.0","spark_pilot_norest","8730","3","23","Female","","","","","","","4311.699999988079","<p> Now, you will travel with a friend who will choose whether you go up or down first. </p>
            <p> On these turns, you will just see the animal that they found. You will still get to choose which chest to search for treasure.</p>","","instructions","","","","","","","","","","","",""
"revaluation","79","479420","0.0-3.0-11.0-4.0-0.0","spark_pilot_norest","8730","3","23","Female","","true","","","","","[]","./assets/img/space/animals/rabbit.jpg","[]","practice block","space","-5","{""ArrowUp,ArrowLeft"":3,""ArrowUp,ArrowRight"":36,""ArrowDown,ArrowLeft"":15,""ArrowDown,ArrowRight"":23}","false","ArrowDown","","","","","","",""
"html-keyboard-response","80","479925","0.0-3.0-11.0-4.0-1.0","spark_pilot_norest","8730","3","23","Female","","","","","","","null","<div style=""font-size:60px;"">+</div>","null","fixation","","","","","","","","","","","",""
"revaluation","81","483942","0.0-3.0-11.0-4.0-0.1","spark_pilot_norest","8730","3","23","Female","","true","","","","","[]","./assets/img/space/animals/cat.jpg","[]","practice block","space","-5","{""ArrowUp,ArrowLeft"":3,""ArrowUp,ArrowRight"":36,""ArrowDown,ArrowLeft"":15,""ArrowDown,ArrowRight"":23}","false","ArrowUp","","","","","","",""
"html-keyboard-response","82","484446","0.0-3.0-11.0-4.0-1.1","spark_pilot_norest","8730","3","23","Female","","","","","","","null","<div style=""font-size:60px;"">+</div>","null","fixation","","","","","","","","","","","",""
"revaluation","83","488462","0.0-3.0-11.0-4.0-0.2","spark_pilot_norest","8730","3","23","Female","","false","","","","","[629.9000000059605]","./assets/img/space/animals/rabbit.jpg","[""ArrowRight""]","practice block","space","23","{""ArrowUp,ArrowLeft"":3,""ArrowUp,ArrowRight"":36,""ArrowDown,ArrowLeft"":15,""ArrowDown,ArrowRight"":23}","true","ArrowDown,ArrowRight","","","","","","",""
"html-keyboard-response","84","488963","0.0-3.0-11.0-4.0-1.2","spark_pilot_norest","8730","3","23","Female","","","","","","","null","<div style=""font-size:60px;"">+</div>","null","fixation","","","","","","","","","","","",""
"revaluation","85","492979","0.0-3.0-11.0-4.0-0.3","spark_pilot_norest","8730","3","23","Female","","false","","","","","[449.3999999910593]","./assets/img/space/animals/cat.jpg","[""ArrowRight""]","practice block","space","36","{""ArrowUp,ArrowLeft"":3,""ArrowUp,ArrowRight"":36,""ArrowDown,ArrowLeft"":15,""ArrowDown,ArrowRight"":23}","true","ArrowUp,ArrowRight","","","","","","",""
"html-keyboard-response","86","493485","0.0-3.0-11.0-4.0-1.3","spark_pilot_norest","8730","3","23","Female","","","","","","","null","<div style=""font-size:60px;"">+</div>","null","fixation","","","","","","","","","","","",""
"learning-instructions","87","501653","0.0-3.0-11.0-5.0-0.0","spark_pilot_norest","8730","3","23","Female","","","","","","","null","<p> You have almost finished this part of the game! </p>
            <p> We are going to ask you to make a few more choices. </p>","","instructions","","","","","","","","","","","",""
"learning-instructions","88","517732","0.0-3.0-11.0-5.0-0.1","spark_pilot_norest","8730","3","23","Female","","","","","","","null","<p> First, you need to decide whether to go up or down. When you see each picture, use the arrow keys to make your choice. </p>
            <p><b>You will not see which animal you found, but try to get to the one that will give you the most treasure.</b></p>","","instructions","","","","","","","","","","","",""
"html-keyboard-response","89","518743","0.0-3.0-11.0-6.0-0.0","spark_pilot_norest","8730","3","23","Female","","","","","","","null","<div style=""font-size:100px;color:red;"">Starting in...</div>","null","","","","","","","","","","","","",""
"html-keyboard-response","90","519747","0.0-3.0-11.0-6.0-1.0","spark_pilot_norest","8730","3","23","Female","","","","","","","null","<div style=""font-size:200px;color:red;"">3</div>","null","","","","","","","","","","","","",""
"html-keyboard-response","91","520759","0.0-3.0-11.0-6.0-2.0","spark_pilot_norest","8730","3","23","Female","","","","","","","null","<div style=""font-size:200px;color:red;"">2</div>","null","","","","","","","","","","","","",""
"html-keyboard-response","92","521772","0.0-3.0-11.0-6.0-3.0","spark_pilot_norest","8730","3","23","Female","","","","","","","null","<div style=""font-size:200px;color:red;"">1</div>","null","","","","","","","","","","","","",""
"revaluation","93","522363","0.0-3.0-11.0-7.0","spark_pilot_norest","8730","3","23","Female","","false","","","","","[589.2999999970198]","./assets/img/space/15.jpg","[""ArrowUp""]","practice block","space","0","{""ArrowUp,ArrowLeft"":3,""ArrowUp,ArrowRight"":36,""ArrowDown,ArrowLeft"":15,""ArrowDown,ArrowRight"":23}","true","ArrowUp","false","","","","","",""
"html-keyboard-response","94","522867","0.0-3.0-11.0-8.0","spark_pilot_norest","8730","3","23","Female","","","","","","","null","<div style=""font-size:60px;"">+</div>","null","fixation","","","","","","","","","","","",""
"learning-instructions","95","536309","0.0-3.0-11.0-9.0-0.0","spark_pilot_norest","8730","3","23","Female","","","","","","","null","<p> Now you will see the animals again and can search their chests for treasure. </p>
            <p> This time, you will not see how much treasure you earned, but you will earn more bonus money for making better choices. </p>","","instructions","","","","","","","","","","","",""
"html-keyboard-response","96","537319","0.0-3.0-11.0-10.0-0.0","spark_pilot_norest","8730","3","23","Female","","","","","","","null","<div style=""font-size:100px;color:red;"">Starting in...</div>","null","","","","","","","","","","","","",""
"html-keyboard-response","97","538323","0.0-3.0-11.0-10.0-1.0","spark_pilot_norest","8730","3","23","Female","","","","","","","null","<div style=""font-size:200px;color:red;"">3</div>","null","","","","","","","","","","","","",""
"html-keyboard-response","98","539331","0.0-3.0-11.0-10.0-2.0","spark_pilot_norest","8730","3","23","Female","","","","","","","null","<div style=""font-size:200px;color:red;"">2</div>","null","","","","","","","","","","","","",""
"html-keyboard-response","99","540343","0.0-3.0-11.0-10.0-3.0","spark_pilot_norest","8730","3","23","Female","","","","","","","null","<div style=""font-size:200px;color:red;"">1</div>","null","","","","","","","","","","","","",""
"revaluation","100","540965","0.0-3.0-11.0-11.0-0.0","spark_pilot_norest","8730","3","23","Female","","false","","","","","[620.6000000089407]","./assets/img/space/animals/cat.jpg","[""ArrowRight""]","practice block","space","0","{""ArrowUp,ArrowLeft"":3,""ArrowUp,ArrowRight"":36,""ArrowDown,ArrowLeft"":15,""ArrowDown,ArrowRight"":23}","true","ArrowUp,ArrowRight","","","","","","",""
"html-keyboard-response","101","541469","0.0-3.0-11.0-11.0-1.0","spark_pilot_norest","8730","3","23","Female","","","","","","","null","<div style=""font-size:60px;"">+</div>","null","fixation","","","","","","","","","","","",""
"revaluation","102","543204","0.0-3.0-11.0-11.0-0.1","spark_pilot_norest","8730","3","23","Female","","false","","","","","[1733.2999999970198]","./assets/img/space/animals/rabbit.jpg","[""ArrowRight""]","practice block","space","0","{""ArrowUp,ArrowLeft"":3,""ArrowUp,ArrowRight"":36,""ArrowDown,ArrowLeft"":15,""ArrowDown,ArrowRight"":23}","true","ArrowDown,ArrowRight","","","","","","",""
"html-keyboard-response","103","543710","0.0-3.0-11.0-11.0-1.1","spark_pilot_norest","8730","3","23","Female","","","","","","","null","<div style=""font-size:60px;"">+</div>","null","fixation","","","","","","","","","","","",""
"learning-instructions","104","552193","0.0-3.0-12.0-0.0","spark_pilot_norest","8730","3","23","Female","","","","","","","3873.8999999910593","<p> Before you start, we're going to ask you a few questions about how the game works. </p>","","instructions","","","","","","","","","","","",""
"comp-q","105","562201","0.0-3.0-13.0-0.0-0.0","spark_pilot_norest","8730","3","23","Female","","","","","","","4359.5","<p> <b> True or False? </b> </p>
            <p> There can be 50 pieces of treasure in a given animal's chest. </p>","0","comp_question","","","","false","","","","","","","",""
"comp-q","106","570857","0.0-3.0-13.0-0.0-1.0","spark_pilot_norest","8730","3","23","Female","","","","","","","2092.4000000059605","<p> <b>Incorrect.</b> The amount of treasure in each chest can range from 0 to 40 pieces. </p>","0","comp_answer","","","","","","","","","","","",""
"comp-q","107","579842","0.0-3.0-13.0-0.1-0.1","spark_pilot_norest","8730","3","23","Female","","","","","","","3420.699999988079","<p> <b> True or False? </b> </p>
            <p> There can be 50 pieces of treasure in a given animal's chest. </p>","1","comp_question","","","","true","","","","","","","",""
"comp-q","108","589107","0.0-3.0-13.0-0.1-1.1","spark_pilot_norest","8730","3","23","Female","","","","","","","2561.3999999910593","<p> <b> That's right! </b> The amount of treasure in each chest can range from 0 to 40 pieces. </p>","0","comp_answer","","","","","","","","","","","",""
"comp-q","109","600814","0.0-3.0-13.0-0.2-0.2","spark_pilot_norest","8730","3","23","Female","","","","","","","4539.5999999940395","<p> <b> True or False? </b> </p><p> In this game, all animals have the same amount of treasure in their left and right chests. </p>","0","comp_question","","","","false","","","","","","","",""
"comp-q","110","610673","0.0-3.0-13.0-0.2-1.2","spark_pilot_norest","8730","3","23","Female","","","","","","","4715.5999999940395","<p> <b>Incorrect.</b> Animals have different amounts of treasure in their treasure chests. </p>","0","comp_answer","","","","","","","","","","","",""
"comp-q","111","620026","0.0-3.0-13.0-0.3-0.3","spark_pilot_norest","8730","3","23","Female","","","","","","","2261.4000000059605","<p> <b> True or False? </b> </p><p> In this game, all animals have the same amount of treasure in their left and right chests. </p>","1","comp_question","","","","true","","","","","","","",""
"comp-q","112","626943","0.0-3.0-13.0-0.3-1.3","spark_pilot_norest","8730","3","23","Female","","","","","","","1649.800000011921","<p> <b> That's right! </b> Animals have different amounts of treasure in their treasure chests. </p>","0","comp_answer","","","","","","","","","","","",""
"comp-q","113","633606","0.0-3.0-13.0-0.4-0.4","spark_pilot_norest","8730","3","23","Female","","","","","","","769.5","<p> <b> True or False? </b> </p><p> The same animal will always be there if you go up in the same place. </p>","1","comp_question","","","","false","","","","","","","",""
"comp-q","114","641890","0.0-3.0-13.0-0.4-1.4","spark_pilot_norest","8730","3","23","Female","","","","","","","1944.7000000029802","<p> <b>Incorrect.</b> One animal lives in the upper part and one lives in the lower part of every place. </p>","0","comp_answer","","","","","","","","","","","",""
"comp-q","115","648372","0.0-3.0-13.0-0.5-0.5","spark_pilot_norest","8730","3","23","Female","","","","","","","659.2999999970198","<p> <b> True or False? </b> </p><p> The same animal will always be there if you go up in the same place. </p>","1","comp_question","","","","false","","","","","","","",""
"comp-q","116","656371","0.0-3.0-13.0-0.5-1.5","spark_pilot_norest","8730","3","23","Female","","","","","","","1427.5","<p> <b>Incorrect.</b> One animal lives in the upper part and one lives in the lower part of every place. </p>","0","comp_answer","","","","","","","","","","","",""
"comp-q","117","663803","0.0-3.0-13.0-0.6-0.6","spark_pilot_norest","8730","3","23","Female","","","","","","","1575.5","<p> <b> True or False? </b> </p><p> The same animal will always be there if you go up in the same place. </p>","0","comp_question","","","","true","","","","","","","",""
"comp-q","118","672420","0.0-3.0-13.0-0.6-1.6","spark_pilot_norest","8730","3","23","Female","","","","","","","2099.2000000029802","<p> <b> That's right! </b> One animal lives in the upper part and one lives in the lower part of every place. </p>","0","comp_answer","","","","","","","","","","","",""
"comp-q","119","678716","0.0-3.0-13.0-0.7-0.7","spark_pilot_norest","8730","3","23","Female","","","","","","","739.2000000029802","<p> <b> True or False? </b> </p><p> If you see a different picture, it means you are in a new place. </p>","0","comp_question","","","","false","","","","","","","",""
"comp-q","120","691898","0.0-3.0-13.0-0.7-1.7","spark_pilot_norest","8730","3","23","Female","","","","","","","2020.7999999970198","<p> <b>Incorrect.</b> Lots of different images may show the same place. For example,  you may see three different images that all remind you that you are in outer space. </p>","0","comp_answer","","","","","","","","","","","",""
"comp-q","121","698194","0.0-3.0-13.0-0.8-0.8","spark_pilot_norest","8730","3","23","Female","","","","","","","793.2999999970198","<p> <b> True or False? </b> </p><p> If you see a different picture, it means you are in a new place. </p>","1","comp_question","","","","true","","","","","","","",""
"comp-q","122","711638","0.0-3.0-13.0-0.8-1.8","spark_pilot_norest","8730","3","23","Female","","","","","","","2156.7999999970198","<p> <b> That's right! </b> Lots of different images may show the same place. For example,  you may see three different images that all remind you that you are in outer space. </p>","0","comp_answer","","","","","","","","","","","",""
"learning-instructions","123","723563","0.0-3.0-14.0-0.0","spark_pilot_norest","8730","3","23","Female","","","","","","","2014.2000000029802","<p> Good job. Remember to do your best because the amount of treasure you earn will be converted into bonus money. </p>
            <p> It’s time to start the real game! </p>","","instructions","","","","","","","","","","","",""
"learning-instructions","124","727767","0.0-4.0-0.0-0.0","spark_pilot_norest","8730","3","23","Female","","","","","","","1463.7000000029802","<p> This time you are searching for treasure in the <b>ocean</b>.</p>","","instructions","","","","","","","","","","","",""
"learning-instructions","125","746679","0.0-4.0-0.0-0.1","spark_pilot_norest","8730","3","23","Female","","","","","","","1520.3999999910593","<p><b>New</b> animals with <b>new</b> treasure chests live here. You need to explore to discover where the animal with the best treasure chest is.</p>
                    <p> Like before, once you figure out which animal has the chest with the most treasure, you should try to get to that animal and select that chest! </p>","","instructions","","","","","","","","","","","",""
"learning-instructions","126","765955","0.0-4.0-1.0-0.0","spark_pilot_norest","8730","3","23","Female","","","","","","","4542.600000008941","<p> Remember, when you see a picture of the place, use the up and down keys to <b>find an animal</b>.</p>
            <p> When you encounter an animal, you should use the left and right keys to <b>select a treasure chest</b>.</p>
            <p> Don't forget to look out for the robber! </p>","","instructions","","","","","","","","","","","",""
"revaluation","127","771983","0.0-4.0-2.0-0.0","spark_pilot_norest","8730","3","23","Female","","false","","","","","[1240.7000000029802,690.2000000029802]","./assets/img/ocean/memory/21.jpg","[""ArrowUp"",""ArrowRight""]","value training","ocean","10","{""ArrowUp,ArrowLeft"":23,""ArrowUp,ArrowRight"":10,""ArrowDown,ArrowLeft"":8,""ArrowDown,ArrowRight"":30}","false","ArrowUp,ArrowRight","false","original","1","0","","",""
"html-keyboard-response","128","772499","0.0-4.0-2.0-1.0","spark_pilot_norest","8730","3","23","Female","","","","","","","null","<div style=""font-size:60px;"">+</div>","null","fixation","","","","","","","","","1","","",""
"revaluation","129","778519","0.0-4.0-2.0-0.1","spark_pilot_norest","8730","3","23","Female","","false","","","","","[29.19999998807907,914.5]","./assets/img/ocean/memory/23.jpg","[""ArrowDown"",""ArrowRight""]","value training","ocean","30","{""ArrowUp,ArrowLeft"":23,""ArrowUp,ArrowRight"":10,""ArrowDown,ArrowLeft"":8,""ArrowDown,ArrowRight"":30}","true","ArrowDown,ArrowRight","false","original","1","2","","",""
"html-keyboard-response","130","779030","0.0-4.0-2.0-1.1","spark_pilot_norest","8730","3","23","Female","","","","","","","null","<div style=""font-size:60px;"">+</div>","null","fixation","","","","","","","","","3","","",""
"revaluation","131","787016","0.0-4.0-2.0-0.2","spark_pilot_norest","8730","3","23","Female","","true","","","","","[230.5]","./assets/img/ocean/memory/23.jpg","[""ArrowDown""]","value training","ocean","-5","{""ArrowUp,ArrowLeft"":23,""ArrowUp,ArrowRight"":10,""ArrowDown,ArrowLeft"":8,""ArrowDown,ArrowRight"":30}","false","ArrowDown","false","original","1","4","","",""
"html-keyboard-response","132","787520","0.0-4.0-2.0-1.2","spark_pilot_norest","8730","3","23","Female","","","","","","","null","<div style=""font-size:60px;"">+</div>","null","fixation","","","","","","","","","5","","",""
"revaluation","133","793548","0.0-4.0-2.0-0.3","spark_pilot_norest","8730","3","23","Female","","true","","","","","[657.1999999880791]","./assets/img/ocean/memory/39.jpg","[""ArrowDown""]","value training","ocean","-5","{""ArrowUp,ArrowLeft"":23,""ArrowUp,ArrowRight"":10,""ArrowDown,ArrowLeft"":8,""ArrowDown,ArrowRight"":30}","false","ArrowDown","false","original","1","6","","",""
"html-keyboard-response","134","794057","0.0-4.0-2.0-1.3","spark_pilot_norest","8730","3","23","Female","","","","","","","null","<div style=""font-size:60px;"">+</div>","null","fixation","","","","","","","","","7","","",""
"revaluation","135","800083","0.0-4.0-2.0-0.4","spark_pilot_norest","8730","3","23","Female","","true","","","","","[344.29999999701977]","./assets/img/ocean/memory/5.jpg","[""ArrowUp""]","value training","ocean","-5","{""ArrowUp,ArrowLeft"":23,""ArrowUp,ArrowRight"":10,""ArrowDown,ArrowLeft"":8,""ArrowDown,ArrowRight"":30}","false","ArrowUp","false","original","1","8","","",""
"html-keyboard-response","136","800585","0.0-4.0-2.0-1.4","spark_pilot_norest","8730","3","23","Female","","","","","","","null","<div style=""font-size:60px;"">+</div>","null","fixation","","","","","","","","","9","","",""
"revaluation","137","806610","0.0-4.0-2.0-0.5","spark_pilot_norest","8730","3","23","Female","","true","","","","","[0.5999999940395355]","./assets/img/ocean/memory/12.jpg","[""ArrowDown""]","value training","ocean","-5","{""ArrowUp,ArrowLeft"":23,""ArrowUp,ArrowRight"":10,""ArrowDown,ArrowLeft"":8,""ArrowDown,ArrowRight"":30}","false","ArrowDown","false","original","1","10","","",""
"html-keyboard-response","138","807114","0.0-4.0-2.0-1.5","spark_pilot_norest","8730","3","23","Female","","","","","","","null","<div style=""font-size:60px;"">+</div>","null","fixation","","","","","","","","","11","","",""
"revaluation","139","813138","0.0-4.0-2.0-0.6","spark_pilot_norest","8730","3","23","Female","","false","","","","","[1136.4000000059605,570.4000000059605]","./assets/img/ocean/memory/13.jpg","[""ArrowDown"",""ArrowRight""]","value training","ocean","30","{""ArrowUp,ArrowLeft"":23,""ArrowUp,ArrowRight"":10,""ArrowDown,ArrowLeft"":8,""ArrowDown,ArrowRight"":30}","true","ArrowDown,ArrowRight","false","original","1","12","","",""
"html-keyboard-response","140","813643","0.0-4.0-2.0-1.6","spark_pilot_norest","8730","3","23","Female","","","","","","","null","<div style=""font-size:60px;"">+</div>","null","fixation","","","","","","","","","13","","",""
"revaluation","141","819668","0.0-4.0-2.0-0.7","spark_pilot_norest","8730","3","23","Female","","true","","","","","[1306.8999999910593]","./assets/img/ocean/memory/17.jpg","[""ArrowDown""]","value training","ocean","-5","{""ArrowUp,ArrowLeft"":23,""ArrowUp,ArrowRight"":10,""ArrowDown,ArrowLeft"":8,""ArrowDown,ArrowRight"":30}","false","ArrowDown","false","original","1","14","","",""
"html-keyboard-response","142","820177","0.0-4.0-2.0-1.7","spark_pilot_norest","8730","3","23","Female","","","","","","","null","<div style=""font-size:60px;"">+</div>","null","fixation","","","","","","","","","15","","",""
"revaluation","143","826201","0.0-4.0-2.0-0.8","spark_pilot_norest","8730","3","23","Female","","true","","","","","[606.3999999910593]","./assets/img/ocean/memory/2.jpg","[""ArrowDown""]","value training","ocean","-5","{""ArrowUp,ArrowLeft"":23,""ArrowUp,ArrowRight"":10,""ArrowDown,ArrowLeft"":8,""ArrowDown,ArrowRight"":30}","false","ArrowDown","false","original","1","16","","",""
"html-keyboard-response","144","826705","0.0-4.0-2.0-1.8","spark_pilot_norest","8730","3","23","Female","","","","","","","null","<div style=""font-size:60px;"">+</div>","null","fixation","","","","","","","","","17","","",""
"revaluation","145","830722","0.0-4.0-2.0-0.9","spark_pilot_norest","8730","3","23","Female","","true","","","","","[]","./assets/img/ocean/memory/19.jpg","[]","value training","ocean","-5","{""ArrowUp,ArrowLeft"":23,""ArrowUp,ArrowRight"":10,""ArrowDown,ArrowLeft"":8,""ArrowDown,ArrowRight"":30}","false","","false","original","1","18","","",""
"html-keyboard-response","146","831227","0.0-4.0-2.0-1.9","spark_pilot_norest","8730","3","23","Female","","","","","","","null","<div style=""font-size:60px;"">+</div>","null","fixation","","","","","","","","","19","","",""
"revaluation","147","835243","0.0-4.0-2.0-0.10","spark_pilot_norest","8730","3","23","Female","","true","","","","","[]","./assets/img/ocean/catch/3.jpg","[]","value training","ocean","-5","{""ArrowUp,ArrowLeft"":23,""ArrowUp,ArrowRight"":10,""ArrowDown,ArrowLeft"":8,""ArrowDown,ArrowRight"":30}","false","","true","original","1","20","","",""
"html-keyboard-response","148","835744","0.0-4.0-2.0-1.10","spark_pilot_norest","8730","3","23","Female","","","","","","","null","<div style=""font-size:60px;"">+</div>","null","fixation","","","","","","","","","21","","",""
"revaluation","149","841769","0.0-4.0-2.0-0.11","spark_pilot_norest","8730","3","23","Female","","false","","","","","[429.5,494.5]","./assets/img/ocean/memory/17.jpg","[""ArrowUp"",""ArrowRight""]","value training","ocean","10","{""ArrowUp,ArrowLeft"":23,""ArrowUp,ArrowRight"":10,""ArrowDown,ArrowLeft"":8,""ArrowDown,ArrowRight"":30}","false","ArrowUp,ArrowRight","false","original","1","22","","",""
"html-keyboard-response","150","842274","0.0-4.0-2.0-1.11","spark_pilot_norest","8730","3","23","Female","","","","","","","null","<div style=""font-size:60px;"">+</div>","null","fixation","","","","","","","","","23","","",""
"revaluation","151","848300","0.0-4.0-2.0-0.12","spark_pilot_norest","8730","3","23","Female","","false","","","","","[505.70000000298023,417.90000000596046]","./assets/img/ocean/memory/38.jpg","[""ArrowUp"",""ArrowRight""]","value training","ocean","10","{""ArrowUp,ArrowLeft"":23,""ArrowUp,ArrowRight"":10,""ArrowDown,ArrowLeft"":8,""ArrowDown,ArrowRight"":30}","false","ArrowUp,ArrowRight","false","original","1","24","","",""
"html-keyboard-response","152","848810","0.0-4.0-2.0-1.12","spark_pilot_norest","8730","3","23","Female","","","","","","","null","<div style=""font-size:60px;"">+</div>","null","fixation","","","","","","","","","25","","",""
"revaluation","153","854835","0.0-4.0-2.0-0.13","spark_pilot_norest","8730","3","23","Female","","false","","","","","[51.20000000298023,419.70000000298023]","./assets/img/ocean/memory/5.jpg","[""ArrowDown"",""ArrowLeft""]","value training","ocean","8","{""ArrowUp,ArrowLeft"":23,""ArrowUp,ArrowRight"":10,""ArrowDown,ArrowLeft"":8,""ArrowDown,ArrowRight"":30}","false","ArrowDown,ArrowLeft","false","original","1","26","","",""
"html-keyboard-response","154","855336","0.0-4.0-2.0-1.13","spark_pilot_norest","8730","3","23","Female","","","","","","","null","<div style=""font-size:60px;"">+</div>","null","fixation","","","","","","","","","27","","",""
"revaluation","155","859353","0.0-4.0-2.0-0.14","spark_pilot_norest","8730","3","23","Female","","false","","","","","[498.80000001192093]","./assets/img/ocean/catch/4.jpg","[""ArrowUp""]","value training","ocean","-10","{""ArrowUp,ArrowLeft"":23,""ArrowUp,ArrowRight"":10,""ArrowDown,ArrowLeft"":8,""ArrowDown,ArrowRight"":30}","false","ArrowUp","true","original","1","28","","",""
"html-keyboard-response","156","859857","0.0-4.0-2.0-1.14","spark_pilot_norest","8730","3","23","Female","","","","","","","null","<div style=""font-size:60px;"">+</div>","null","fixation","","","","","","","","","29","","",""
"revaluation","157","865884","0.0-4.0-2.0-0.15","spark_pilot_norest","8730","3","23","Female","","false","","","","","[421.30000001192093,517.5]","./assets/img/ocean/memory/34.jpg","[""ArrowDown"",""ArrowRight""]","value training","ocean","30","{""ArrowUp,ArrowLeft"":23,""ArrowUp,ArrowRight"":10,""ArrowDown,ArrowLeft"":8,""ArrowDown,ArrowRight"":30}","true","ArrowDown,ArrowRight","false","original","1","30","","",""
"html-keyboard-response","158","866393","0.0-4.0-2.0-1.15","spark_pilot_norest","8730","3","23","Female","","","","","","","null","<div style=""font-size:60px;"">+</div>","null","fixation","","","","","","","","","31","","",""
"revaluation","159","872419","0.0-4.0-2.0-0.16","spark_pilot_norest","8730","3","23","Female","","false","","","","","[515,571.3999999910593]","./assets/img/ocean/memory/7.jpg","[""ArrowDown"",""ArrowRight""]","value training","ocean","30","{""ArrowUp,ArrowLeft"":23,""ArrowUp,ArrowRight"":10,""ArrowDown,ArrowLeft"":8,""ArrowDown,ArrowRight"":30}","true","ArrowDown,ArrowRight","false","original","1","32","","",""
"html-keyboard-response","160","872931","0.0-4.0-2.0-1.16","spark_pilot_norest","8730","3","23","Female","","","","","","","null","<div style=""font-size:60px;"">+</div>","null","fixation","","","","","","","","","33","","",""
"revaluation","161","878957","0.0-4.0-2.0-0.17","spark_pilot_norest","8730","3","23","Female","","false","","","","","[531.1000000089407,348.1000000089407]","./assets/img/ocean/memory/11.jpg","[""ArrowUp"",""ArrowRight""]","value training","ocean","10","{""ArrowUp,ArrowLeft"":23,""ArrowUp,ArrowRight"":10,""ArrowDown,ArrowLeft"":8,""ArrowDown,ArrowRight"":30}","false","ArrowUp,ArrowRight","false","original","1","34","","",""
"html-keyboard-response","162","879467","0.0-4.0-2.0-1.17","spark_pilot_norest","8730","3","23","Female","","","","","","","null","<div style=""font-size:60px;"">+</div>","null","fixation","","","","","","","","","35","","",""
"revaluation","163","885493","0.0-4.0-2.0-0.18","spark_pilot_norest","8730","3","23","Female","","false","","","","","[448.90000000596046,401.70000000298023]","./assets/img/ocean/memory/12.jpg","[""ArrowDown"",""ArrowRight""]","value training","ocean","30","{""ArrowUp,ArrowLeft"":23,""ArrowUp,ArrowRight"":10,""ArrowDown,ArrowLeft"":8,""ArrowDown,ArrowRight"":30}","true","ArrowDown,ArrowRight","false","original","1","36","","",""
"html-keyboard-response","164","886004","0.0-4.0-2.0-1.18","spark_pilot_norest","8730","3","23","Female","","","","","","","null","<div style=""font-size:60px;"">+</div>","null","fixation","","","","","","","","","37","","",""
"revaluation","165","890017","0.0-4.0-2.0-0.19","spark_pilot_norest","8730","3","23","Female","","false","","","","","[671.5999999940395]","./assets/img/ocean/catch/1.jpg","[""ArrowUp""]","value training","ocean","-10","{""ArrowUp,ArrowLeft"":23,""ArrowUp,ArrowRight"":10,""ArrowDown,ArrowLeft"":8,""ArrowDown,ArrowRight"":30}","false","ArrowUp","true","original","1","38","","",""
"html-keyboard-response","166","890520","0.0-4.0-2.0-1.19","spark_pilot_norest","8730","3","23","Female","","","","","","","null","<div style=""font-size:60px;"">+</div>","null","fixation","","","","","","","","","39","","",""
"revaluation","167","896545","0.0-4.0-2.0-0.20","spark_pilot_norest","8730","3","23","Female","","false","","","","","[672.7999999970198,513.8999999910593]","./assets/img/ocean/memory/39.jpg","[""ArrowUp"",""ArrowRight""]","value training","ocean","10","{""ArrowUp,ArrowLeft"":23,""ArrowUp,ArrowRight"":10,""ArrowDown,ArrowLeft"":8,""ArrowDown,ArrowRight"":30}","false","ArrowUp,ArrowRight","false","original","1","40","","",""
"html-keyboard-response","168","897051","0.0-4.0-2.0-1.20","spark_pilot_norest","8730","3","23","Female","","","","","","","null","<div style=""font-size:60px;"">+</div>","null","fixation","","","","","","","","","41","","",""
"revaluation","169","901068","0.0-4.0-2.0-0.21","spark_pilot_norest","8730","3","23","Female","","false","","","","","[481]","./assets/img/ocean/catch/6.jpg","[""ArrowDown""]","value training","ocean","-10","{""ArrowUp,ArrowLeft"":23,""ArrowUp,ArrowRight"":10,""ArrowDown,ArrowLeft"":8,""ArrowDown,ArrowRight"":30}","false","ArrowDown","true","original","1","42","","",""
"html-keyboard-response","170","901578","0.0-4.0-2.0-1.21","spark_pilot_norest","8730","3","23","Female","","","","","","","null","<div style=""font-size:60px;"">+</div>","null","fixation","","","","","","","","","43","","",""
"revaluation","171","907604","0.0-4.0-2.0-0.22","spark_pilot_norest","8730","3","23","Female","","false","","","","","[799.5,535.8999999910593]","./assets/img/ocean/memory/30.jpg","[""ArrowUp"",""ArrowRight""]","value training","ocean","10","{""ArrowUp,ArrowLeft"":23,""ArrowUp,ArrowRight"":10,""ArrowDown,ArrowLeft"":8,""ArrowDown,ArrowRight"":30}","false","ArrowUp,ArrowRight","false","original","1","44","","",""
"html-keyboard-response","172","908115","0.0-4.0-2.0-1.22","spark_pilot_norest","8730","3","23","Female","","","","","","","null","<div style=""font-size:60px;"">+</div>","null","fixation","","","","","","","","","45","","",""
"revaluation","173","914141","0.0-4.0-2.0-0.23","spark_pilot_norest","8730","3","23","Female","","false","","","","","[667.2999999970198,444.5]","./assets/img/ocean/memory/38.jpg","[""ArrowDown"",""ArrowRight""]","value training","ocean","30","{""ArrowUp,ArrowLeft"":23,""ArrowUp,ArrowRight"":10,""ArrowDown,ArrowLeft"":8,""ArrowDown,ArrowRight"":30}","true","ArrowDown,ArrowRight","false","original","1","46","","",""
"html-keyboard-response","174","914651","0.0-4.0-2.0-1.23","spark_pilot_norest","8730","3","23","Female","","","","","","","null","<div style=""font-size:60px;"">+</div>","null","fixation","","","","","","","","","47","","",""
"revaluation","175","920673","0.0-4.0-2.0-0.24","spark_pilot_norest","8730","3","23","Female","","false","","","","","[368.3999999910593,338.40000000596046]","./assets/img/ocean/memory/30.jpg","[""ArrowUp"",""ArrowRight""]","value training","ocean","10","{""ArrowUp,ArrowLeft"":23,""ArrowUp,ArrowRight"":10,""ArrowDown,ArrowLeft"":8,""ArrowDown,ArrowRight"":30}","false","ArrowUp,ArrowRight","false","original","1","48","","",""
"html-keyboard-response","176","921176","0.0-4.0-2.0-1.24","spark_pilot_norest","8730","3","23","Female","","","","","","","null","<div style=""font-size:60px;"">+</div>","null","fixation","","","","","","","","","49","","",""
"revaluation","177","927202","0.0-4.0-2.0-0.25","spark_pilot_norest","8730","3","23","Female","","false","","","","","[356.29999999701977,604.3000000119209]","./assets/img/ocean/memory/10.jpg","[""ArrowDown"",""ArrowRight""]","value training","ocean","30","{""ArrowUp,ArrowLeft"":23,""ArrowUp,ArrowRight"":10,""ArrowDown,ArrowLeft"":8,""ArrowDown,ArrowRight"":30}","true","ArrowDown,ArrowRight","false","original","1","50","","",""
"html-keyboard-response","178","927707","0.0-4.0-2.0-1.25","spark_pilot_norest","8730","3","23","Female","","","","","","","null","<div style=""font-size:60px;"">+</div>","null","fixation","","","","","","","","","51","","",""
"revaluation","179","933733","0.0-4.0-2.0-0.26","spark_pilot_norest","8730","3","23","Female","","false","","","","","[492.8999999910593,950.7000000029802]","./assets/img/ocean/memory/33.jpg","[""ArrowUp"",""ArrowRight""]","value training","ocean","10","{""ArrowUp,ArrowLeft"":23,""ArrowUp,ArrowRight"":10,""ArrowDown,ArrowLeft"":8,""ArrowDown,ArrowRight"":30}","false","ArrowUp,ArrowRight","false","original","1","52","","",""
"html-keyboard-response","180","934243","0.0-4.0-2.0-1.26","spark_pilot_norest","8730","3","23","Female","","","","","","","null","<div style=""font-size:60px;"">+</div>","null","fixation","","","","","","","","","53","","",""
"revaluation","181","940265","0.0-4.0-2.0-0.27","spark_pilot_norest","8730","3","23","Female","","false","","","","","[573.5,517.7000000029802]","./assets/img/ocean/memory/8.jpg","[""ArrowDown"",""ArrowRight""]","value training","ocean","30","{""ArrowUp,ArrowLeft"":23,""ArrowUp,ArrowRight"":10,""ArrowDown,ArrowLeft"":8,""ArrowDown,ArrowRight"":30}","true","ArrowDown,ArrowRight","false","original","1","54","","",""
"html-keyboard-response","182","940770","0.0-4.0-2.0-1.27","spark_pilot_norest","8730","3","23","Female","","","","","","","null","<div style=""font-size:60px;"">+</div>","null","fixation","","","","","","","","","55","","",""
"revaluation","183","946793","0.0-4.0-2.0-0.28","spark_pilot_norest","8730","3","23","Female","","false","","","","","[366,465]","./assets/img/ocean/memory/2.jpg","[""ArrowDown"",""ArrowRight""]","value training","ocean","30","{""ArrowUp,ArrowLeft"":23,""ArrowUp,ArrowRight"":10,""ArrowDown,ArrowLeft"":8,""ArrowDown,ArrowRight"":30}","true","ArrowDown,ArrowRight","false","original","1","56","","",""
"html-keyboard-response","184","947299","0.0-4.0-2.0-1.28","spark_pilot_norest","8730","3","23","Female","","","","","","","null","<div style=""font-size:60px;"">+</div>","null","fixation","","","","","","","","","57","","",""
"revaluation","185","953324","0.0-4.0-2.0-0.29","spark_pilot_norest","8730","3","23","Female","","true","","","","","[1268]","./assets/img/ocean/memory/8.jpg","[""ArrowDown""]","value training","ocean","-5","{""ArrowUp,ArrowLeft"":23,""ArrowUp,ArrowRight"":10,""ArrowDown,ArrowLeft"":8,""ArrowDown,ArrowRight"":30}","false","ArrowDown","false","original","1","58","","",""
"html-keyboard-response","186","953835","0.0-4.0-2.0-1.29","spark_pilot_norest","8730","3","23","Female","","","","","","","null","<div style=""font-size:60px;"">+</div>","null","fixation","","","","","","","","","59","","",""
"revaluation","187","957856","0.0-4.0-2.0-0.30","spark_pilot_norest","8730","3","23","Female","","true","","","","","[]","./assets/img/ocean/memory/41.jpg","[]","value training","ocean","-5","{""ArrowUp,ArrowLeft"":23,""ArrowUp,ArrowRight"":10,""ArrowDown,ArrowLeft"":8,""ArrowDown,ArrowRight"":30}","false","","false","original","1","60","","",""
"html-keyboard-response","188","958400","0.0-4.0-2.0-1.30","spark_pilot_norest","8730","3","23","Female","","","","","","","null","<div style=""font-size:60px;"">+</div>","null","fixation","","","","","","","","","61","","",""
"revaluation","189","964453","0.0-4.0-2.0-0.31","spark_pilot_norest","8730","3","23","Female","","true","","","","","[789.5]","./assets/img/ocean/memory/10.jpg","[""ArrowDown""]","value training","ocean","-5","{""ArrowUp,ArrowLeft"":23,""ArrowUp,ArrowRight"":10,""ArrowDown,ArrowLeft"":8,""ArrowDown,ArrowRight"":30}","false","ArrowDown","false","original","1","62","","",""
"html-keyboard-response","190","964963","0.0-4.0-2.0-1.31","spark_pilot_norest","8730","3","23","Female","","","","","","","null","<div style=""font-size:60px;"">+</div>","null","fixation","","","","","","","","","63","","",""
"revaluation","191","968981","0.0-4.0-2.0-0.32","spark_pilot_norest","8730","3","23","Female","","true","","","","","[]","./assets/img/ocean/memory/41.jpg","[]","value training","ocean","-5","{""ArrowUp,ArrowLeft"":23,""ArrowUp,ArrowRight"":10,""ArrowDown,ArrowLeft"":8,""ArrowDown,ArrowRight"":30}","false","","false","original","1","64","","",""
"html-keyboard-response","192","969491","0.0-4.0-2.0-1.32","spark_pilot_norest","8730","3","23","Female","","","","","","","null","<div style=""font-size:60px;"">+</div>","null","fixation","","","","","","","","","65","","",""
"revaluation","193","975522","0.0-4.0-2.0-0.33","spark_pilot_norest","8730","3","23","Female","","false","","","","","[538.9000000059605,1708.5999999940395]","./assets/img/ocean/memory/4.jpg","[""ArrowDown"",""ArrowRight""]","value training","ocean","30","{""ArrowUp,ArrowLeft"":23,""ArrowUp,ArrowRight"":10,""ArrowDown,ArrowLeft"":8,""ArrowDown,ArrowRight"":30}","true","ArrowDown,ArrowRight","false","original","1","66","","",""
"html-keyboard-response","194","976027","0.0-4.0-2.0-1.33","spark_pilot_norest","8730","3","23","Female","","","","","","","null","<div style=""font-size:60px;"">+</div>","null","fixation","","","","","","","","","67","","",""
"revaluation","195","982053","0.0-4.0-2.0-0.34","spark_pilot_norest","8730","3","23","Female","","false","","","","","[490.69999998807907,498.20000000298023]","./assets/img/ocean/memory/21.jpg","[""ArrowDown"",""ArrowRight""]","value training","ocean","30","{""ArrowUp,ArrowLeft"":23,""ArrowUp,ArrowRight"":10,""ArrowDown,ArrowLeft"":8,""ArrowDown,ArrowRight"":30}","true","ArrowDown,ArrowRight","false","original","1","68","","",""
"html-keyboard-response","196","982564","0.0-4.0-2.0-1.34","spark_pilot_norest","8730","3","23","Female","","","","","","","null","<div style=""font-size:60px;"">+</div>","null","fixation","","","","","","","","","69","","",""
"revaluation","197","986577","0.0-4.0-2.0-0.35","spark_pilot_norest","8730","3","23","Female","","false","","","","","[185.20000000298023]","./assets/img/ocean/catch/0.jpg","[""ArrowDown""]","value training","ocean","-10","{""ArrowUp,ArrowLeft"":23,""ArrowUp,ArrowRight"":10,""ArrowDown,ArrowLeft"":8,""ArrowDown,ArrowRight"":30}","false","ArrowDown","true","original","1","70","","",""
"html-keyboard-response","198","987081","0.0-4.0-2.0-1.35","spark_pilot_norest","8730","3","23","Female","","","","","","","null","<div style=""font-size:60px;"">+</div>","null","fixation","","","","","","","","","71","","",""
"revaluation","199","993106","0.0-4.0-2.0-0.36","spark_pilot_norest","8730","3","23","Female","","true","","","","","[671.9000000059605]","./assets/img/ocean/memory/34.jpg","[""ArrowDown""]","value training","ocean","-5","{""ArrowUp,ArrowLeft"":23,""ArrowUp,ArrowRight"":10,""ArrowDown,ArrowLeft"":8,""ArrowDown,ArrowRight"":30}","false","ArrowDown","false","original","1","72","","",""
"html-keyboard-response","200","993611","0.0-4.0-2.0-1.36","spark_pilot_norest","8730","3","23","Female","","","","","","","null","<div style=""font-size:60px;"">+</div>","null","fixation","","","","","","","","","73","","",""
"revaluation","201","997628","0.0-4.0-2.0-0.37","spark_pilot_norest","8730","3","23","Female","","true","","","","","[]","./assets/img/ocean/catch/5.jpg","[]","value training","ocean","-5","{""ArrowUp,ArrowLeft"":23,""ArrowUp,ArrowRight"":10,""ArrowDown,ArrowLeft"":8,""ArrowDown,ArrowRight"":30}","false","","true","original","1","74","","",""
"html-keyboard-response","202","998138","0.0-4.0-2.0-1.37","spark_pilot_norest","8730","3","23","Female","","","","","","","null","<div style=""font-size:60px;"">+</div>","null","fixation","","","","","","","","","75","","",""
"revaluation","203","1004164","0.0-4.0-2.0-0.38","spark_pilot_norest","8730","3","23","Female","","false","","","","","[726.7999999970198,584.2000000029802]","./assets/img/ocean/memory/35.jpg","[""ArrowDown"",""ArrowRight""]","value training","ocean","30","{""ArrowUp,ArrowLeft"":23,""ArrowUp,ArrowRight"":10,""ArrowDown,ArrowLeft"":8,""ArrowDown,ArrowRight"":30}","true","ArrowDown,ArrowRight","false","original","1","76","","",""
"html-keyboard-response","204","1004675","0.0-4.0-2.0-1.38","spark_pilot_norest","8730","3","23","Female","","","","","","","null","<div style=""font-size:60px;"">+</div>","null","fixation","","","","","","","","","77","","",""
"revaluation","205","1010697","0.0-4.0-2.0-0.39","spark_pilot_norest","8730","3","23","Female","","false","","","","","[305.3999999910593,1512.2000000029802]","./assets/img/ocean/memory/35.jpg","[""ArrowDown"",""ArrowRight""]","value training","ocean","30","{""ArrowUp,ArrowLeft"":23,""ArrowUp,ArrowRight"":10,""ArrowDown,ArrowLeft"":8,""ArrowDown,ArrowRight"":30}","true","ArrowDown,ArrowRight","false","original","1","78","","",""
"html-keyboard-response","206","1011200","0.0-4.0-2.0-1.39","spark_pilot_norest","8730","3","23","Female","","","","","","","null","<div style=""font-size:60px;"">+</div>","null","fixation","","","","","","","","","79","","",""
"revaluation","207","1017226","0.0-4.0-2.0-0.40","spark_pilot_norest","8730","3","23","Female","","true","","","","","[835]","./assets/img/ocean/memory/9.jpg","[""ArrowDown""]","value training","ocean","-5","{""ArrowUp,ArrowLeft"":23,""ArrowUp,ArrowRight"":10,""ArrowDown,ArrowLeft"":8,""ArrowDown,ArrowRight"":30}","false","ArrowDown","false","original","1","80","","",""
"html-keyboard-response","208","1017731","0.0-4.0-2.0-1.40","spark_pilot_norest","8730","3","23","Female","","","","","","","null","<div style=""font-size:60px;"">+</div>","null","fixation","","","","","","","","","81","","",""
"revaluation","209","1023762","0.0-4.0-2.0-0.41","spark_pilot_norest","8730","3","23","Female","","true","","","","","[1802.4000000059605]","./assets/img/ocean/memory/11.jpg","[""ArrowDown""]","value training","ocean","-5","{""ArrowUp,ArrowLeft"":23,""ArrowUp,ArrowRight"":10,""ArrowDown,ArrowLeft"":8,""ArrowDown,ArrowRight"":30}","false","ArrowDown","false","original","1","82","","",""
"html-keyboard-response","210","1024268","0.0-4.0-2.0-1.41","spark_pilot_norest","8730","3","23","Female","","","","","","","null","<div style=""font-size:60px;"">+</div>","null","fixation","","","","","","","","","83","","",""
"revaluation","211","1030293","0.0-4.0-2.0-0.42","spark_pilot_norest","8730","3","23","Female","","false","","","","","[401.40000000596046,763.2000000029802]","./assets/img/ocean/memory/9.jpg","[""ArrowDown"",""ArrowRight""]","value training","ocean","30","{""ArrowUp,ArrowLeft"":23,""ArrowUp,ArrowRight"":10,""ArrowDown,ArrowLeft"":8,""ArrowDown,ArrowRight"":30}","true","ArrowDown,ArrowRight","false","original","1","84","","",""
"html-keyboard-response","212","1030805","0.0-4.0-2.0-1.42","spark_pilot_norest","8730","3","23","Female","","","","","","","null","<div style=""font-size:60px;"">+</div>","null","fixation","","","","","","","","","85","","",""
"revaluation","213","1036825","0.0-4.0-2.0-0.43","spark_pilot_norest","8730","3","23","Female","","false","","","","","[1268.4000000059605,1356.8999999910593]","./assets/img/ocean/memory/4.jpg","[""ArrowDown"",""ArrowRight""]","value training","ocean","30","{""ArrowUp,ArrowLeft"":23,""ArrowUp,ArrowRight"":10,""ArrowDown,ArrowLeft"":8,""ArrowDown,ArrowRight"":30}","true","ArrowDown,ArrowRight","false","original","1","86","","",""
"html-keyboard-response","214","1037329","0.0-4.0-2.0-1.43","spark_pilot_norest","8730","3","23","Female","","","","","","","null","<div style=""font-size:60px;"">+</div>","null","fixation","","","","","","","","","87","","",""
"revaluation","215","1043354","0.0-4.0-2.0-0.44","spark_pilot_norest","8730","3","23","Female","","true","","","","","[527.2999999970198]","./assets/img/ocean/memory/19.jpg","[""ArrowDown""]","value training","ocean","-5","{""ArrowUp,ArrowLeft"":23,""ArrowUp,ArrowRight"":10,""ArrowDown,ArrowLeft"":8,""ArrowDown,ArrowRight"":30}","false","ArrowDown","false","original","1","88","","",""
"html-keyboard-response","216","1043859","0.0-4.0-2.0-1.44","spark_pilot_norest","8730","3","23","Female","","","","","","","null","<div style=""font-size:60px;"">+</div>","null","fixation","","","","","","","","","89","","",""
"revaluation","217","1047877","0.0-4.0-2.0-0.45","spark_pilot_norest","8730","3","23","Female","","false","","","","","[413.20000000298023]","./assets/img/ocean/catch/2.jpg","[""ArrowDown""]","value training","ocean","-10","{""ArrowUp,ArrowLeft"":23,""ArrowUp,ArrowRight"":10,""ArrowDown,ArrowLeft"":8,""ArrowDown,ArrowRight"":30}","false","ArrowDown","true","original","1","90","","",""
"html-keyboard-response","218","1048387","0.0-4.0-2.0-1.45","spark_pilot_norest","8730","3","23","Female","","","","","","","null","<div style=""font-size:60px;"">+</div>","null","fixation","","","","","","","","","91","","",""
"revaluation","219","1052403","0.0-4.0-2.0-0.46","spark_pilot_norest","8730","3","23","Female","","false","","","","","[382]","./assets/img/ocean/catch/7.jpg","[""ArrowDown""]","value training","ocean","-10","{""ArrowUp,ArrowLeft"":23,""ArrowUp,ArrowRight"":10,""ArrowDown,ArrowLeft"":8,""ArrowDown,ArrowRight"":30}","false","ArrowDown","true","original","1","92","","",""
"html-keyboard-response","220","1052906","0.0-4.0-2.0-1.46","spark_pilot_norest","8730","3","23","Female","","","","","","","null","<div style=""font-size:60px;"">+</div>","null","fixation","","","","","","","","","93","","",""
"revaluation","221","1058933","0.0-4.0-2.0-0.47","spark_pilot_norest","8730","3","23","Female","","false","","","","","[550.3999999910593,729.5]","./assets/img/ocean/memory/7.jpg","[""ArrowDown"",""ArrowRight""]","value training","ocean","30","{""ArrowUp,ArrowLeft"":23,""ArrowUp,ArrowRight"":10,""ArrowDown,ArrowLeft"":8,""ArrowDown,ArrowRight"":30}","true","ArrowDown,ArrowRight","false","original","1","94","","",""
"html-keyboard-response","222","1059442","0.0-4.0-2.0-1.47","spark_pilot_norest","8730","3","23","Female","","","","","","","null","<div style=""font-size:60px;"">+</div>","null","fixation","","","","","","","","","95","","",""
"revaluation","223","1065469","0.0-4.0-2.0-0.48","spark_pilot_norest","8730","3","23","Female","","true","","","","","[849.7999999970198]","./assets/img/ocean/memory/33.jpg","[""ArrowDown""]","value training","ocean","-5","{""ArrowUp,ArrowLeft"":23,""ArrowUp,ArrowRight"":10,""ArrowDown,ArrowLeft"":8,""ArrowDown,ArrowRight"":30}","false","ArrowDown","false","original","1","96","","",""
"html-keyboard-response","224","1065978","0.0-4.0-2.0-1.48","spark_pilot_norest","8730","3","23","Female","","","","","","","null","<div style=""font-size:60px;"">+</div>","null","fixation","","","","","","","","","97","","",""
"revaluation","225","1072002","0.0-4.0-2.0-0.49","spark_pilot_norest","8730","3","23","Female","","false","","","","","[450.59999999403954,1356.2999999970198]","./assets/img/ocean/memory/13.jpg","[""ArrowDown"",""ArrowRight""]","value training","ocean","30","{""ArrowUp,ArrowLeft"":23,""ArrowUp,ArrowRight"":10,""ArrowDown,ArrowLeft"":8,""ArrowDown,ArrowRight"":30}","true","ArrowDown,ArrowRight","false","original","1","98","","",""
"html-keyboard-response","226","1072506","0.0-4.0-2.0-1.49","spark_pilot_norest","8730","3","23","Female","","","","","","","null","<div style=""font-size:60px;"">+</div>","null","fixation","","","","","","","","","99","","",""
"learning-instructions","227","1090586","0.0-4.0-3.0-0.0","spark_pilot_norest","8730","3","23","Female","","","","","","","5061.70000000298","<p> Now, you will travel with a friend who will choose whether you go up or down first. </p>
            <p> On these turns, you will just see the animal that they found. You will still get to choose which chest to search for treasure.</p>","","instructions","","","","","","","","","","","",""
"revaluation","228","1094601","0.0-4.0-4.0-0.0","spark_pilot_norest","8730","3","23","Female","","true","","","","","[]","./assets/img/ocean/animals/octopus.jpg","[]","revaluation","ocean","-5","{""ArrowUp,ArrowLeft"":23,""ArrowUp,ArrowRight"":10,""ArrowDown,ArrowLeft"":8,""ArrowDown,ArrowRight"":30}","false","ArrowDown","","original","1","0","","",""
"html-keyboard-response","229","1095114","0.0-4.0-4.0-1.0","spark_pilot_norest","8730","3","23","Female","","","","","","","null","<div style=""font-size:60px;"">+</div>","null","fixation","","","","","","","","","1","","",""
"revaluation","230","1099134","0.0-4.0-4.0-0.1","spark_pilot_norest","8730","3","23","Female","","false","","","","","[525.2000000029802]","./assets/img/ocean/animals/seahorse.jpg","[""ArrowRight""]","revaluation","ocean","10","{""ArrowUp,ArrowLeft"":23,""ArrowUp,ArrowRight"":10,""ArrowDown,ArrowLeft"":8,""ArrowDown,ArrowRight"":30}","false","ArrowUp,ArrowRight","","original","1","2","","",""
"html-keyboard-response","231","1099641","0.0-4.0-4.0-1.1","spark_pilot_norest","8730","3","23","Female","","","","","","","null","<div style=""font-size:60px;"">+</div>","null","fixation","","","","","","","","","3","","",""
"revaluation","232","1103662","0.0-4.0-4.0-0.2","spark_pilot_norest","8730","3","23","Female","","false","","","","","[482.70000000298023]","./assets/img/ocean/animals/seahorse.jpg","[""ArrowRight""]","revaluation","ocean","10","{""ArrowUp,ArrowLeft"":23,""ArrowUp,ArrowRight"":10,""ArrowDown,ArrowLeft"":8,""ArrowDown,ArrowRight"":30}","false","ArrowUp,ArrowRight","","original","1","4","","",""
"html-keyboard-response","233","1104173","0.0-4.0-4.0-1.2","spark_pilot_norest","8730","3","23","Female","","","","","","","null","<div style=""font-size:60px;"">+</div>","null","fixation","","","","","","","","","5","","",""
"revaluation","234","1108190","0.0-4.0-4.0-0.3","spark_pilot_norest","8730","3","23","Female","","false","","","","","[529.5]","./assets/img/ocean/animals/seahorse.jpg","[""ArrowRight""]","revaluation","ocean","10","{""ArrowUp,ArrowLeft"":23,""ArrowUp,ArrowRight"":10,""ArrowDown,ArrowLeft"":8,""ArrowDown,ArrowRight"":30}","false","ArrowUp,ArrowRight","","original","1","6","","",""
"html-keyboard-response","235","1108700","0.0-4.0-4.0-1.3","spark_pilot_norest","8730","3","23","Female","","","","","","","null","<div style=""font-size:60px;"">+</div>","null","fixation","","","","","","","","","7","","",""
"revaluation","236","1112718","0.0-4.0-4.0-0.4","spark_pilot_norest","8730","3","23","Female","","false","","","","","[459.20000000298023]","./assets/img/ocean/animals/seahorse.jpg","[""ArrowRight""]","revaluation","ocean","10","{""ArrowUp,ArrowLeft"":23,""ArrowUp,ArrowRight"":10,""ArrowDown,ArrowLeft"":8,""ArrowDown,ArrowRight"":30}","false","ArrowUp,ArrowRight","","original","1","8","","",""
"html-keyboard-response","237","1113228","0.0-4.0-4.0-1.4","spark_pilot_norest","8730","3","23","Female","","","","","","","null","<div style=""font-size:60px;"">+</div>","null","fixation","","","","","","","","","9","","",""
"revaluation","238","1117241","0.0-4.0-4.0-0.5","spark_pilot_norest","8730","3","23","Female","","false","","","","","[507.19999998807907]","./assets/img/ocean/animals/seahorse.jpg","[""ArrowRight""]","revaluation","ocean","10","{""ArrowUp,ArrowLeft"":23,""ArrowUp,ArrowRight"":10,""ArrowDown,ArrowLeft"":8,""ArrowDown,ArrowRight"":30}","false","ArrowUp,ArrowRight","","original","1","10","","",""
"html-keyboard-response","239","1117746","0.0-4.0-4.0-1.5","spark_pilot_norest","8730","3","23","Female","","","","","","","null","<div style=""font-size:60px;"">+</div>","null","fixation","","","","","","","","","11","","",""
"revaluation","240","1121763","0.0-4.0-4.0-0.6","spark_pilot_norest","8730","3","23","Female","","false","","","","","[616.2999999970198]","./assets/img/ocean/animals/seahorse.jpg","[""ArrowRight""]","revaluation","ocean","10","{""ArrowUp,ArrowLeft"":23,""ArrowUp,ArrowRight"":10,""ArrowDown,ArrowLeft"":8,""ArrowDown,ArrowRight"":30}","false","ArrowUp,ArrowRight","","original","1","12","","",""
"html-keyboard-response","241","1122267","0.0-4.0-4.0-1.6","spark_pilot_norest","8730","3","23","Female","","","","","","","null","<div style=""font-size:60px;"">+</div>","null","fixation","","","","","","","","","13","","",""
"revaluation","242","1126285","0.0-4.0-4.0-0.7","spark_pilot_norest","8730","3","23","Female","","false","","","","","[1613]","./assets/img/ocean/animals/octopus.jpg","[""ArrowRight""]","revaluation","ocean","30","{""ArrowUp,ArrowLeft"":23,""ArrowUp,ArrowRight"":10,""ArrowDown,ArrowLeft"":8,""ArrowDown,ArrowRight"":30}","true","ArrowDown,ArrowRight","","original","1","14","","",""
"html-keyboard-response","243","1126796","0.0-4.0-4.0-1.7","spark_pilot_norest","8730","3","23","Female","","","","","","","null","<div style=""font-size:60px;"">+</div>","null","fixation","","","","","","","","","15","","",""
"revaluation","244","1130814","0.0-4.0-4.0-0.8","spark_pilot_norest","8730","3","23","Female","","true","","","","","[]","./assets/img/ocean/animals/octopus.jpg","[]","revaluation","ocean","-5","{""ArrowUp,ArrowLeft"":23,""ArrowUp,ArrowRight"":10,""ArrowDown,ArrowLeft"":8,""ArrowDown,ArrowRight"":30}","false","ArrowDown","","original","1","16","","",""
"html-keyboard-response","245","1131324","0.0-4.0-4.0-1.8","spark_pilot_norest","8730","3","23","Female","","","","","","","null","<div style=""font-size:60px;"">+</div>","null","fixation","","","","","","","","","17","","",""
"revaluation","246","1135340","0.0-4.0-4.0-0.9","spark_pilot_norest","8730","3","23","Female","","false","","","","","[322.70000000298023]","./assets/img/ocean/animals/octopus.jpg","[""ArrowRight""]","revaluation","ocean","30","{""ArrowUp,ArrowLeft"":23,""ArrowUp,ArrowRight"":10,""ArrowDown,ArrowLeft"":8,""ArrowDown,ArrowRight"":30}","true","ArrowDown,ArrowRight","","original","1","18","","",""
"html-keyboard-response","247","1135851","0.0-4.0-4.0-1.9","spark_pilot_norest","8730","3","23","Female","","","","","","","null","<div style=""font-size:60px;"">+</div>","null","fixation","","","","","","","","","19","","",""
"revaluation","248","1139869","0.0-4.0-4.0-0.10","spark_pilot_norest","8730","3","23","Female","","false","","","","","[44.1000000089407]","./assets/img/ocean/animals/seahorse.jpg","[""ArrowRight""]","revaluation","ocean","10","{""ArrowUp,ArrowLeft"":23,""ArrowUp,ArrowRight"":10,""ArrowDown,ArrowLeft"":8,""ArrowDown,ArrowRight"":30}","false","ArrowUp,ArrowRight","","original","1","20","","",""
"html-keyboard-response","249","1140380","0.0-4.0-4.0-1.10","spark_pilot_norest","8730","3","23","Female","","","","","","","null","<div style=""font-size:60px;"">+</div>","null","fixation","","","","","","","","","21","","",""
"revaluation","250","1144396","0.0-4.0-4.0-0.11","spark_pilot_norest","8730","3","23","Female","","false","","","","","[370.70000000298023]","./assets/img/ocean/animals/octopus.jpg","[""ArrowRight""]","revaluation","ocean","30","{""ArrowUp,ArrowLeft"":23,""ArrowUp,ArrowRight"":10,""ArrowDown,ArrowLeft"":8,""ArrowDown,ArrowRight"":30}","true","ArrowDown,ArrowRight","","original","1","22","","",""
"html-keyboard-response","251","1144907","0.0-4.0-4.0-1.11","spark_pilot_norest","8730","3","23","Female","","","","","","","null","<div style=""font-size:60px;"">+</div>","null","fixation","","","","","","","","","23","","",""
"revaluation","252","1148924","0.0-4.0-4.0-0.12","spark_pilot_norest","8730","3","23","Female","","false","","","","","[555.1999999880791]","./assets/img/ocean/animals/octopus.jpg","[""ArrowRight""]","revaluation","ocean","30","{""ArrowUp,ArrowLeft"":23,""ArrowUp,ArrowRight"":10,""ArrowDown,ArrowLeft"":8,""ArrowDown,ArrowRight"":30}","true","ArrowDown,ArrowRight","","original","1","24","","",""
"html-keyboard-response","253","1149426","0.0-4.0-4.0-1.12","spark_pilot_norest","8730","3","23","Female","","","","","","","null","<div style=""font-size:60px;"">+</div>","null","fixation","","","","","","","","","25","","",""
"revaluation","254","1153442","0.0-4.0-4.0-0.13","spark_pilot_norest","8730","3","23","Female","","true","","","","","[]","./assets/img/ocean/animals/octopus.jpg","[]","revaluation","ocean","-5","{""ArrowUp,ArrowLeft"":23,""ArrowUp,ArrowRight"":10,""ArrowDown,ArrowLeft"":8,""ArrowDown,ArrowRight"":30}","false","ArrowDown","","original","1","26","","",""
"html-keyboard-response","255","1153945","0.0-4.0-4.0-1.13","spark_pilot_norest","8730","3","23","Female","","","","","","","null","<div style=""font-size:60px;"">+</div>","null","fixation","","","","","","","","","27","","",""
"revaluation","256","1157963","0.0-4.0-4.0-0.14","spark_pilot_norest","8730","3","23","Female","","false","","","","","[528.5]","./assets/img/ocean/animals/octopus.jpg","[""ArrowRight""]","revaluation","ocean","30","{""ArrowUp,ArrowLeft"":23,""ArrowUp,ArrowRight"":10,""ArrowDown,ArrowLeft"":8,""ArrowDown,ArrowRight"":30}","true","ArrowDown,ArrowRight","","original","1","28","","",""
"html-keyboard-response","257","1158468","0.0-4.0-4.0-1.14","spark_pilot_norest","8730","3","23","Female","","","","","","","null","<div style=""font-size:60px;"">+</div>","null","fixation","","","","","","","","","29","","",""
"revaluation","258","1162484","0.0-4.0-4.0-0.15","spark_pilot_norest","8730","3","23","Female","","false","","","","","[645.6999999880791]","./assets/img/ocean/animals/seahorse.jpg","[""ArrowRight""]","revaluation","ocean","10","{""ArrowUp,ArrowLeft"":23,""ArrowUp,ArrowRight"":10,""ArrowDown,ArrowLeft"":8,""ArrowDown,ArrowRight"":30}","false","ArrowUp,ArrowRight","","original","1","30","","",""
"html-keyboard-response","259","1162995","0.0-4.0-4.0-1.15","spark_pilot_norest","8730","3","23","Female","","","","","","","null","<div style=""font-size:60px;"">+</div>","null","fixation","","","","","","","","","31","","",""
"revaluation","260","1167012","0.0-4.0-4.0-0.16","spark_pilot_norest","8730","3","23","Female","","false","","","","","[454.90000000596046]","./assets/img/ocean/animals/octopus.jpg","[""ArrowRight""]","revaluation","ocean","30","{""ArrowUp,ArrowLeft"":23,""ArrowUp,ArrowRight"":10,""ArrowDown,ArrowLeft"":8,""ArrowDown,ArrowRight"":30}","true","ArrowDown,ArrowRight","","original","1","32","","",""
"html-keyboard-response","261","1167525","0.0-4.0-4.0-1.16","spark_pilot_norest","8730","3","23","Female","","","","","","","null","<div style=""font-size:60px;"">+</div>","null","fixation","","","","","","","","","33","","",""
"revaluation","262","1171541","0.0-4.0-4.0-0.17","spark_pilot_norest","8730","3","23","Female","","false","","","","","[384.79999999701977]","./assets/img/ocean/animals/seahorse.jpg","[""ArrowRight""]","revaluation","ocean","10","{""ArrowUp,ArrowLeft"":23,""ArrowUp,ArrowRight"":10,""ArrowDown,ArrowLeft"":8,""ArrowDown,ArrowRight"":30}","false","ArrowUp,ArrowRight","","original","1","34","","",""
"html-keyboard-response","263","1172051","0.0-4.0-4.0-1.17","spark_pilot_norest","8730","3","23","Female","","","","","","","null","<div style=""font-size:60px;"">+</div>","null","fixation","","","","","","","","","35","","",""
"learning-instructions","264","1180265","0.0-4.0-5.0-0.0","spark_pilot_norest","8730","3","23","Female","","","","","","","null","<p> You have almost finished this part of the game! </p>
            <p> We are going to ask you to make a few more choices. </p>","","instructions","","","","","","","","","","","",""
"learning-instructions","265","1196243","0.0-4.0-5.0-0.1","spark_pilot_norest","8730","3","23","Female","","","","","","","null","<p> First, you need to decide whether to go up or down. When you see each picture, use the arrow keys to make your choice. </p>
            <p><b>You will not see which animal you found, but try to get to the one that will give you the most treasure.</b></p>","","instructions","","","","","","","","","","","",""
"html-keyboard-response","266","1197253","0.0-4.0-6.0-0.0","spark_pilot_norest","8730","3","23","Female","","","","","","","null","<div style=""font-size:100px;color:red;"">Starting in...</div>","null","","","","","","","","","","","","",""
"html-keyboard-response","267","1198258","0.0-4.0-6.0-1.0","spark_pilot_norest","8730","3","23","Female","","","","","","","null","<div style=""font-size:200px;color:red;"">3</div>","null","","","","","","","","","","","","",""
"html-keyboard-response","268","1199265","0.0-4.0-6.0-2.0","spark_pilot_norest","8730","3","23","Female","","","","","","","null","<div style=""font-size:200px;color:red;"">2</div>","null","","","","","","","","","","","","",""
"html-keyboard-response","269","1200277","0.0-4.0-6.0-3.0","spark_pilot_norest","8730","3","23","Female","","","","","","","null","<div style=""font-size:200px;color:red;"">1</div>","null","","","","","","","","","","","","",""
"revaluation","270","1201082","0.0-4.0-7.0-0.0","spark_pilot_norest","8730","3","23","Female","","false","","","","","[803.3000000119209]","./assets/img/ocean/test/3.jpg","[""ArrowUp""]","first stage test","ocean","0","{""ArrowUp,ArrowLeft"":23,""ArrowUp,ArrowRight"":10,""ArrowDown,ArrowLeft"":8,""ArrowDown,ArrowRight"":30}","false","ArrowUp","false","original","1","","","",""
"html-keyboard-response","271","1201590","0.0-4.0-7.0-1.0","spark_pilot_norest","8730","3","23","Female","","","","","","","null","<div style=""font-size:60px;"">+</div>","null","fixation","","","","","","","","","","","",""
"revaluation","272","1202226","0.0-4.0-7.0-0.1","spark_pilot_norest","8730","3","23","Female","","false","","","","","[635.2000000029802]","./assets/img/ocean/test/0.jpg","[""ArrowUp""]","first stage test","ocean","0","{""ArrowUp,ArrowLeft"":23,""ArrowUp,ArrowRight"":10,""ArrowDown,ArrowLeft"":8,""ArrowDown,ArrowRight"":30}","false","ArrowUp","false","original","1","","","",""
"html-keyboard-response","273","1202733","0.0-4.0-7.0-1.1","spark_pilot_norest","8730","3","23","Female","","","","","","","null","<div style=""font-size:60px;"">+</div>","null","fixation","","","","","","","","","","","",""
"revaluation","274","1203113","0.0-4.0-7.0-0.2","spark_pilot_norest","8730","3","23","Female","","false","","","","","[377.8999999910593]","./assets/img/ocean/test/1.jpg","[""ArrowDown""]","first stage test","ocean","0","{""ArrowUp,ArrowLeft"":23,""ArrowUp,ArrowRight"":10,""ArrowDown,ArrowLeft"":8,""ArrowDown,ArrowRight"":30}","true","ArrowDown","false","original","1","","","",""
"html-keyboard-response","275","1203621","0.0-4.0-7.0-1.2","spark_pilot_norest","8730","3","23","Female","","","","","","","null","<div style=""font-size:60px;"">+</div>","null","fixation","","","","","","","","","","","",""
"revaluation","276","1204097","0.0-4.0-7.0-0.3","spark_pilot_norest","8730","3","23","Female","","false","","","","","[473.59999999403954]","./assets/img/ocean/test/2.jpg","[""ArrowUp""]","first stage test","ocean","0","{""ArrowUp,ArrowLeft"":23,""ArrowUp,ArrowRight"":10,""ArrowDown,ArrowLeft"":8,""ArrowDown,ArrowRight"":30}","false","ArrowUp","false","original","1","","","",""
"html-keyboard-response","277","1204602","0.0-4.0-7.0-1.3","spark_pilot_norest","8730","3","23","Female","","","","","","","null","<div style=""font-size:60px;"">+</div>","null","fixation","","","","","","","","","","","",""
"learning-instructions","278","1217954","0.0-4.0-8.0-0.0","spark_pilot_norest","8730","3","23","Female","","","","","","","null","<p> Now you will see the animals again and can search their chests for treasure. </p>
            <p> This time, you will not see how much treasure you earned, but you will earn more bonus money for making better choices. </p>","","instructions","","","","","","","","","","","",""
"html-keyboard-response","279","1218963","0.0-4.0-9.0-0.0","spark_pilot_norest","8730","3","23","Female","","","","","","","null","<div style=""font-size:100px;color:red;"">Starting in...</div>","null","","","","","","","","","","","","",""
"html-keyboard-response","280","1219974","0.0-4.0-9.0-1.0","spark_pilot_norest","8730","3","23","Female","","","","","","","null","<div style=""font-size:200px;color:red;"">3</div>","null","","","","","","","","","","","","",""
"html-keyboard-response","281","1220978","0.0-4.0-9.0-2.0","spark_pilot_norest","8730","3","23","Female","","","","","","","null","<div style=""font-size:200px;color:red;"">2</div>","null","","","","","","","","","","","","",""
"html-keyboard-response","282","1221988","0.0-4.0-9.0-3.0","spark_pilot_norest","8730","3","23","Female","","","","","","","null","<div style=""font-size:200px;color:red;"">1</div>","null","","","","","","","","","","","","",""
"revaluation","283","1222496","0.0-4.0-10.0-0.0","spark_pilot_norest","8730","3","23","Female","","false","","","","","[505.90000000596046]","./assets/img/ocean/animals/seahorse.jpg","[""ArrowRight""]","second stage test","ocean","0","{""ArrowUp,ArrowLeft"":23,""ArrowUp,ArrowRight"":10,""ArrowDown,ArrowLeft"":8,""ArrowDown,ArrowRight"":30}","false","ArrowUp,ArrowRight","","original","1","","","",""
"html-keyboard-response","284","1223002","0.0-4.0-10.0-1.0","spark_pilot_norest","8730","3","23","Female","","","","","","","null","<div style=""font-size:60px;"">+</div>","null","fixation","","","","","","","","","","","",""
"revaluation","285","1223495","0.0-4.0-10.0-0.1","spark_pilot_norest","8730","3","23","Female","","false","","","","","[491.70000000298023]","./assets/img/ocean/animals/seahorse.jpg","[""ArrowRight""]","second stage test","ocean","0","{""ArrowUp,ArrowLeft"":23,""ArrowUp,ArrowRight"":10,""ArrowDown,ArrowLeft"":8,""ArrowDown,ArrowRight"":30}","false","ArrowUp,ArrowRight","","original","1","","","",""
"html-keyboard-response","286","1224002","0.0-4.0-10.0-1.1","spark_pilot_norest","8730","3","23","Female","","","","","","","null","<div style=""font-size:60px;"">+</div>","null","fixation","","","","","","","","","","","",""
"revaluation","287","1224383","0.0-4.0-10.0-0.2","spark_pilot_norest","8730","3","23","Female","","false","","","","","[379.79999999701977]","./assets/img/ocean/animals/seahorse.jpg","[""ArrowRight""]","second stage test","ocean","0","{""ArrowUp,ArrowLeft"":23,""ArrowUp,ArrowRight"":10,""ArrowDown,ArrowLeft"":8,""ArrowDown,ArrowRight"":30}","false","ArrowUp,ArrowRight","","original","1","","","",""
"html-keyboard-response","288","1224891","0.0-4.0-10.0-1.2","spark_pilot_norest","8730","3","23","Female","","","","","","","null","<div style=""font-size:60px;"">+</div>","null","fixation","","","","","","","","","","","",""
"revaluation","289","1225463","0.0-4.0-10.0-0.3","spark_pilot_norest","8730","3","23","Female","","false","","","","","[570.5]","./assets/img/ocean/animals/seahorse.jpg","[""ArrowLeft""]","second stage test","ocean","0","{""ArrowUp,ArrowLeft"":23,""ArrowUp,ArrowRight"":10,""ArrowDown,ArrowLeft"":8,""ArrowDown,ArrowRight"":30}","true","ArrowUp,ArrowLeft","","original","1","","","",""
"html-keyboard-response","290","1225971","0.0-4.0-10.0-1.3","spark_pilot_norest","8730","3","23","Female","","","","","","","null","<div style=""font-size:60px;"">+</div>","null","fixation","","","","","","","","","","","",""
"revaluation","291","1226415","0.0-4.0-10.0-0.4","spark_pilot_norest","8730","3","23","Female","","false","","","","","[443.3999999910593]","./assets/img/ocean/animals/octopus.jpg","[""ArrowLeft""]","second stage test","ocean","0","{""ArrowUp,ArrowLeft"":23,""ArrowUp,ArrowRight"":10,""ArrowDown,ArrowLeft"":8,""ArrowDown,ArrowRight"":30}","false","ArrowDown,ArrowLeft","","original","1","","","",""
"html-keyboard-response","292","1226923","0.0-4.0-10.0-1.4","spark_pilot_norest","8730","3","23","Female","","","","","","","null","<div style=""font-size:60px;"">+</div>","null","fixation","","","","","","","","","","","",""
"revaluation","293","1227415","0.0-4.0-10.0-0.5","spark_pilot_norest","8730","3","23","Female","","false","","","","","[490.09999999403954]","./assets/img/ocean/animals/octopus.jpg","[""ArrowRight""]","second stage test","ocean","0","{""ArrowUp,ArrowLeft"":23,""ArrowUp,ArrowRight"":10,""ArrowDown,ArrowLeft"":8,""ArrowDown,ArrowRight"":30}","true","ArrowDown,ArrowRight","","original","1","","","",""
"html-keyboard-response","294","1227922","0.0-4.0-10.0-1.5","spark_pilot_norest","8730","3","23","Female","","","","","","","null","<div style=""font-size:60px;"">+</div>","null","fixation","","","","","","","","","","","",""
"revaluation","295","1228575","0.0-4.0-10.0-0.6","spark_pilot_norest","8730","3","23","Female","","false","","","","","[651.1000000089407]","./assets/img/ocean/animals/octopus.jpg","[""ArrowRight""]","second stage test","ocean","0","{""ArrowUp,ArrowLeft"":23,""ArrowUp,ArrowRight"":10,""ArrowDown,ArrowLeft"":8,""ArrowDown,ArrowRight"":30}","true","ArrowDown,ArrowRight","","original","1","","","",""
"html-keyboard-response","296","1229082","0.0-4.0-10.0-1.6","spark_pilot_norest","8730","3","23","Female","","","","","","","null","<div style=""font-size:60px;"">+</div>","null","fixation","","","","","","","","","","","",""
"revaluation","297","1229712","0.0-4.0-10.0-0.7","spark_pilot_norest","8730","3","23","Female","","false","","","","","[627.7000000029802]","./assets/img/ocean/animals/octopus.jpg","[""ArrowRight""]","second stage test","ocean","0","{""ArrowUp,ArrowLeft"":23,""ArrowUp,ArrowRight"":10,""ArrowDown,ArrowLeft"":8,""ArrowDown,ArrowRight"":30}","true","ArrowDown,ArrowRight","","original","1","","","",""
"html-keyboard-response","298","1230220","0.0-4.0-10.0-1.7","spark_pilot_norest","8730","3","23","Female","","","","","","","null","<div style=""font-size:60px;"">+</div>","null","fixation","","","","","","","","","","","",""
"learning-instructions","299","1237226","0.0-4.0-0.1-0.2","spark_pilot_norest","8730","3","23","Female","","","","","","","4196.300000011921","<p> This time you are searching for treasure in the <b>canyon</b>.</p>","","instructions","","","","","","","","","","","",""
"learning-instructions","300","1256563","0.0-4.0-0.1-0.3","spark_pilot_norest","8730","3","23","Female","","","","","","","1847.5","<p><b>New</b> animals with <b>new</b> treasure chests live here. You need to explore to discover where the animal with the best treasure chest is.</p>
                    <p> Like before, once you figure out which animal has the chest with the most treasure, you should try to get to that animal and select that chest! </p>","","instructions","","","","","","","","","","","",""
"learning-instructions","301","1273667","0.0-4.0-1.1-0.1","spark_pilot_norest","8730","3","23","Female","","","","","","","2328.7999999970198","<p> Remember, when you see a picture of the place, use the up and down keys to <b>find an animal</b>.</p>
            <p> When you encounter an animal, you should use the left and right keys to <b>select a treasure chest</b>.</p>
            <p> Don't forget to look out for the robber! </p>","","instructions","","","","","","","","","","","",""
"revaluation","302","1279708","0.0-4.0-2.1-0.50","spark_pilot_norest","8730","3","23","Female","","false","","","","","[1074.8999999910593,652.5]","./assets/img/canyon/memory/35.jpg","[""ArrowDown"",""ArrowRight""]","value training","canyon","17","{""ArrowUp,ArrowLeft"":26,""ArrowUp,ArrowRight"":10,""ArrowDown,ArrowLeft"":5,""ArrowDown,ArrowRight"":17}","false","ArrowDown,ArrowRight","false","revaluation","2","0","","",""
"html-keyboard-response","303","1280213","0.0-4.0-2.1-1.50","spark_pilot_norest","8730","3","23","Female","","","","","","","null","<div style=""font-size:60px;"">+</div>","null","fixation","","","","","","","","","1","","",""
"revaluation","304","1286253","0.0-4.0-2.1-0.51","spark_pilot_norest","8730","3","23","Female","","false","","","","","[1260.300000011921,861.6999999880791]","./assets/img/canyon/memory/33.jpg","[""ArrowUp"",""ArrowRight""]","value training","canyon","10","{""ArrowUp,ArrowLeft"":26,""ArrowUp,ArrowRight"":10,""ArrowDown,ArrowLeft"":5,""ArrowDown,ArrowRight"":17}","false","ArrowUp,ArrowRight","false","revaluation","2","2","","",""
"html-keyboard-response","305","1286789","0.0-4.0-2.1-1.51","spark_pilot_norest","8730","3","23","Female","","","","","","","null","<div style=""font-size:60px;"">+</div>","null","fixation","","","","","","","","","3","","",""
"revaluation","306","1290830","0.0-4.0-2.1-0.52","spark_pilot_norest","8730","3","23","Female","","false","","","","","[715]","./assets/img/canyon/catch/2.jpg","[""ArrowUp""]","value training","canyon","-10","{""ArrowUp,ArrowLeft"":26,""ArrowUp,ArrowRight"":10,""ArrowDown,ArrowLeft"":5,""ArrowDown,ArrowRight"":17}","false","ArrowUp","true","revaluation","2","4","","",""
"html-keyboard-response","307","1291339","0.0-4.0-2.1-1.52","spark_pilot_norest","8730","3","23","Female","","","","","","","null","<div style=""font-size:60px;"">+</div>","null","fixation","","","","","","","","","5","","",""
"revaluation","308","1297366","0.0-4.0-2.1-0.53","spark_pilot_norest","8730","3","23","Female","","false","","","","","[764.5,580.0999999940395]","./assets/img/canyon/memory/9.jpg","[""ArrowUp"",""ArrowRight""]","value training","canyon","10","{""ArrowUp,ArrowLeft"":26,""ArrowUp,ArrowRight"":10,""ArrowDown,ArrowLeft"":5,""ArrowDown,ArrowRight"":17}","false","ArrowUp,ArrowRight","false","revaluation","2","6","","",""
"html-keyboard-response","309","1297877","0.0-4.0-2.1-1.53","spark_pilot_norest","8730","3","23","Female","","","","","","","null","<div style=""font-size:60px;"">+</div>","null","fixation","","","","","","","","","7","","",""
"revaluation","310","1303899","0.0-4.0-2.1-0.54","spark_pilot_norest","8730","3","23","Female","","false","","","","","[545.5,433.59999999403954]","./assets/img/canyon/memory/30.jpg","[""ArrowUp"",""ArrowRight""]","value training","canyon","10","{""ArrowUp,ArrowLeft"":26,""ArrowUp,ArrowRight"":10,""ArrowDown,ArrowLeft"":5,""ArrowDown,ArrowRight"":17}","false","ArrowUp,ArrowRight","false","revaluation","2","8","","",""
"html-keyboard-response","311","1304405","0.0-4.0-2.1-1.54","spark_pilot_norest","8730","3","23","Female","","","","","","","null","<div style=""font-size:60px;"">+</div>","null","fixation","","","","","","","","","9","","",""
"revaluation","312","1310427","0.0-4.0-2.1-0.55","spark_pilot_norest","8730","3","23","Female","","false","","","","","[532.1000000089407,522.1000000089407]","./assets/img/canyon/memory/38.jpg","[""ArrowUp"",""ArrowRight""]","value training","canyon","10","{""ArrowUp,ArrowLeft"":26,""ArrowUp,ArrowRight"":10,""ArrowDown,ArrowLeft"":5,""ArrowDown,ArrowRight"":17}","false","ArrowUp,ArrowRight","false","revaluation","2","10","","",""
"html-keyboard-response","313","1310932","0.0-4.0-2.1-1.55","spark_pilot_norest","8730","3","23","Female","","","","","","","null","<div style=""font-size:60px;"">+</div>","null","fixation","","","","","","","","","11","","",""
"revaluation","314","1316955","0.0-4.0-2.1-0.56","spark_pilot_norest","8730","3","23","Female","","true","","","","","[493.79999999701977]","./assets/img/canyon/memory/34.jpg","[""ArrowUp""]","value training","canyon","-5","{""ArrowUp,ArrowLeft"":26,""ArrowUp,ArrowRight"":10,""ArrowDown,ArrowLeft"":5,""ArrowDown,ArrowRight"":17}","false","ArrowUp","false","revaluation","2","12","","",""
"html-keyboard-response","315","1317460","0.0-4.0-2.1-1.56","spark_pilot_norest","8730","3","23","Female","","","","","","","null","<div style=""font-size:60px;"">+</div>","null","fixation","","","","","","","","","13","","",""
"revaluation","316","1321477","0.0-4.0-2.1-0.57","spark_pilot_norest","8730","3","23","Female","","false","","","","","[1302.4000000059605]","./assets/img/canyon/catch/5.jpg","[""ArrowUp""]","value training","canyon","-10","{""ArrowUp,ArrowLeft"":26,""ArrowUp,ArrowRight"":10,""ArrowDown,ArrowLeft"":5,""ArrowDown,ArrowRight"":17}","false","ArrowUp","true","revaluation","2","14","","",""
