"trial_type","trial_index","time_elapsed","internal_node_id","task_version","subject_id","assigned_condition","age","gender","success","timeout","failed_images","failed_audio","failed_video","browser_interaction","rt","stimulus","response","task_part","environment","score","rewardMap","correct","fullState","isCatch","condition","order","trial_num","key_press","ground_truth","bonus"
"pavlovia","0","1565","0.0-0.0","spark_pilot_norest","8732","4","23","Female","","","","","","","","","","","","","","","","","","","","","",""
"preload","1","14420","0.0-1.0","spark_pilot_norest","8732","4","23","Female","true","false","[]","[]","[]","[{""event"":""fullscreenenter"",""trial"":2,""time"":16218}]","","","","","","","","","","","","","","","",""
"fullscreen","2","17130","0.0-2.0","spark_pilot_norest","8732","4","23","Female","true","","","","","","","","","","","","","","","","","","","","",""
"audio-button-response","3","18563","0.0-3.0-0.0-0.0","spark_pilot_norest","8732","4","23","Female","","","","","","","1419","./assets/audio/audiotest/turtle.mp3","2","audio_test","","","","","","","","","","","",""
"learning-instructions","4","27755","0.0-3.0-1.0-0.0","spark_pilot_norest","8732","4","23","Female","","","","","","","2185.0999999940395","<p> Welcome! Please remember to stay in fullscreen mode and don't click away from the experiment. </p>","","instructions","","","","","","","","","","","",""
"learning-instructions","5","37863","0.0-3.0-1.0-0.1","spark_pilot_norest","8732","4","23","Female","","","","","","","1695.0999999940395","<p> Today you will be playing a game to earn treasure. </p>
            <p> At the end of the experiment, you will earn a bonus based on how much treasure you find. </p>
            <img src='./assets/img/instructions/treasure.jpg' class='instructions-image'>","","instructions","","","","","","","","","","","",""
"learning-instructions","6","47052","0.0-3.0-1.0-0.2","spark_pilot_norest","8732","4","23","Female","","","","","","","920.9000000059605","<p> Animals have hidden treasure in treasure chests. </p>
            <p> You need to first find an animal and then choose which of their treasure chests to search. </p>
            <img src='./assets/img/space/animals/cat.jpg' class='instructions-image'>","","instructions","","","","","","","","","","","",""
"learning-instructions","7","60811","0.0-3.0-1.0-0.3","spark_pilot_norest","8732","4","23","Female","","","","","","","604","<p> In each round, you will search for treasure in a different place. In the real game, there will be two rounds. </p>
            <p> You will begin with a separate, practice round where you will search for treasure in outer space. </p>
            <img src='./assets/img/space/0.jpg' class='instructions-image'>","","instructions","","","","","","","","","","","",""
"learning-instructions","8","73387","0.0-3.0-1.0-0.4","spark_pilot_norest","8732","4","23","Female","","","","","","","1146","<p> On every turn, you will see a picture of the place that you are in, but the specific image may be different each time. </p>
            <p> For example, both of these images mean you are in outer space. </p>
            <img src='./assets/img/instructions/outerspace.jpg' class='instructions-image'>","","instructions","","","","","","","","","","","",""
"learning-instructions","9","82132","0.0-3.0-1.0-0.5","spark_pilot_norest","8732","4","23","Female","","","","","","","912.7999999821186","<p> You need to decide which direction to travel in. </p>
            <p> You can choose between going <b>up or down</b> by using the arrow keys. </p>
            <img src='./assets/img/instructions/updown.jpg' class='instructions-image'>","","instructions","","","","","","","","","","","",""
"learning-instructions","10","92363","0.0-3.0-1.0-0.6","spark_pilot_norest","8732","4","23","Female","","","","","","","1422.800000011921","<p> You will have <b>2 seconds</b> to make your choice. </p>
            <p> If you do not make a choice within 2 seconds, you will not find an animal or earn treasure. </p>
            <img src='./assets/img/instructions/2seconds.jpg' class='instructions-image'>","","instructions","","","","","","","","","","","",""
"learning-instructions","11","100959","0.0-3.0-1.0-0.7","spark_pilot_norest","8732","4","23","Female","","","","","","","1561","<p> Let’s try practicing that now! </p>
            <p> When you see a picture of the place you are in, press the <b>up</b> key to travel up. </p>
            <img src='./assets/img/instructions/pressUp.jpg' class='instructions-image'>","","instructions","","","","","","","","","","","",""
"revaluation","12","104986","0.0-3.0-2.0-0.0","spark_pilot_norest","8732","4","23","Female","","false","","","","","[1260.3999999761581]","./assets/img/space/0.jpg","[""ArrowUp""]","first stage practice","space","0","null","null","ArrowUp","false","","","","","",""
"html-keyboard-response","13","105499","0.0-3.0-2.0-1.0","spark_pilot_norest","8732","4","23","Female","","","","","","","null","<div style=""font-size:60px;"">+</div>","null","fixation","","","","","","","","","","","",""
"revaluation","14","109516","0.0-3.0-2.0-0.1","spark_pilot_norest","8732","4","23","Female","","true","","","","","[]","./assets/img/space/1.jpg","[]","first stage practice","space","-5","null","null","","false","","","","","",""
"html-keyboard-response","15","110029","0.0-3.0-2.0-1.1","spark_pilot_norest","8732","4","23","Female","","","","","","","null","<div style=""font-size:60px;"">+</div>","null","fixation","","","","","","","","","","","",""
"revaluation","16","114053","0.0-3.0-2.0-0.2","spark_pilot_norest","8732","4","23","Female","","false","","","","","[1527.5]","./assets/img/space/2.jpg","[""ArrowUp""]","first stage practice","space","0","null","null","ArrowUp","false","","","","","",""
"html-keyboard-response","17","114568","0.0-3.0-2.0-1.2","spark_pilot_norest","8732","4","23","Female","","","","","","","null","<div style=""font-size:60px;"">+</div>","null","fixation","","","","","","","","","","","",""
"learning-instructions","18","120931","0.0-3.0-3.0-0.0","spark_pilot_norest","8732","4","23","Female","","","","","","","1662.9000000059605","<p> Great job! Now try pressing the <b>down</b> key to travel down. </p>
            <img src='./assets/img/instructions/pressDown.jpg' class='instructions-image'>","","instructions","","","","","","","","","","","",""
"revaluation","19","124946","0.0-3.0-4.0-0.0","spark_pilot_norest","8732","4","23","Female","","false","","","","","[753.8000000119209]","./assets/img/space/3.jpg","[""ArrowDown""]","first stage practice","space","0","null","null","ArrowDown","false","","","","","",""
"html-keyboard-response","20","125459","0.0-3.0-4.0-1.0","spark_pilot_norest","8732","4","23","Female","","","","","","","null","<div style=""font-size:60px;"">+</div>","null","fixation","","","","","","","","","","","",""
"revaluation","21","129476","0.0-3.0-4.0-0.1","spark_pilot_norest","8732","4","23","Female","","false","","","","","[290.59999999403954]","./assets/img/space/4.jpg","[""ArrowDown""]","first stage practice","space","0","null","null","ArrowDown","false","","","","","",""
"html-keyboard-response","22","129992","0.0-3.0-4.0-1.1","spark_pilot_norest","8732","4","23","Female","","","","","","","null","<div style=""font-size:60px;"">+</div>","null","fixation","","","","","","","","","","","",""
"revaluation","23","134024","0.0-3.0-4.0-0.2","spark_pilot_norest","8732","4","23","Female","","false","","","","","[345.30000001192093]","./assets/img/space/5.jpg","[""ArrowDown""]","first stage practice","space","0","null","null","ArrowDown","false","","","","","",""
"html-keyboard-response","24","134535","0.0-3.0-4.0-1.2","spark_pilot_norest","8732","4","23","Female","","","","","","","null","<div style=""font-size:60px;"">+</div>","null","fixation","","","","","","","","","","","",""
"learning-instructions","25","164207","0.0-3.0-5.0-0.0","spark_pilot_norest","8732","4","23","Female","","","","","","","19808.30000001192","<p> The animals don’t move, so the animal in the upper part of a place will stay in the upper part of a place, and the animal in the lower part of a place will stay in the lower part of a place. </p>","","instructions","","","","","","","","","","","",""
"learning-instructions","26","177811","0.0-3.0-5.0-0.1","spark_pilot_norest","8732","4","23","Female","","","","","","","4471.9000000059605","<p> Each animal has two treasure chests for you to choose from. </p>
            <p> The amount of treasure in each chest can range from <b> 0 to 40 pieces.</b></p>","","instructions","","","","","","","","","","","",""
"learning-instructions","27","192671","0.0-3.0-5.0-0.2","spark_pilot_norest","8732","4","23","Female","","","","","","","3659.800000011921","<p> You should decide which chest to search for treasure by using the <b>left</b> and <b>right</b> arrow keys. </p>
            <p><b> Pay attention to which animal is on the screen, as the animals have different treasure chests. </b></p>
            <img src='./assets/img/instructions/leftright.jpg' class='instructions-image'>","","instructions","","","","","","","","","","","",""
"learning-instructions","28","201463","0.0-3.0-5.0-0.3","spark_pilot_norest","8732","4","23","Female","","","","","","","2423.7999999821186","<p> Let’s try practicing that now. </p>
            <p> When you see an animal, choose which chest to search for treasure. </p>
            <img src='./assets/img/instructions/chooseChest.jpg' class='instructions-image'>","","instructions","","","","","","","","","","","",""
"revaluation","29","205488","0.0-3.0-6.0-0.0","spark_pilot_norest","8732","4","23","Female","","false","","","","","[1159.9000000059605]","./assets/img/space/animals/rabbit.jpg","[""ArrowLeft""]","second stage practice","space","15","{""ArrowUp,ArrowLeft"":3,""ArrowUp,ArrowRight"":36,""ArrowDown,ArrowLeft"":15,""ArrowDown,ArrowRight"":23}","false","ArrowDown,ArrowLeft","","","","","","",""
"html-keyboard-response","30","205991","0.0-3.0-6.0-1.0","spark_pilot_norest","8732","4","23","Female","","","","","","","null","<div style=""font-size:60px;"">+</div>","null","fixation","","","","","","","","","","","",""
"revaluation","31","210018","0.0-3.0-6.0-0.1","spark_pilot_norest","8732","4","23","Female","","false","","","","","[417.30000001192093]","./assets/img/space/animals/rabbit.jpg","[""ArrowRight""]","second stage practice","space","23","{""ArrowUp,ArrowLeft"":3,""ArrowUp,ArrowRight"":36,""ArrowDown,ArrowLeft"":15,""ArrowDown,ArrowRight"":23}","true","ArrowDown,ArrowRight","","","","","","",""
"html-keyboard-response","32","210529","0.0-3.0-6.0-1.1","spark_pilot_norest","8732","4","23","Female","","","","","","","null","<div style=""font-size:60px;"">+</div>","null","fixation","","","","","","","","","","","",""
"revaluation","33","214557","0.0-3.0-6.0-0.2","spark_pilot_norest","8732","4","23","Female","","false","","","","","[269.59999999403954]","./assets/img/space/animals/cat.jpg","[""ArrowRight""]","second stage practice","space","36","{""ArrowUp,ArrowLeft"":3,""ArrowUp,ArrowRight"":36,""ArrowDown,ArrowLeft"":15,""ArrowDown,ArrowRight"":23}","true","ArrowUp,ArrowRight","","","","","","",""
"html-keyboard-response","34","215068","0.0-3.0-6.0-1.2","spark_pilot_norest","8732","4","23","Female","","","","","","","null","<div style=""font-size:60px;"">+</div>","null","fixation","","","","","","","","","","","",""
"revaluation","35","219088","0.0-3.0-6.0-0.3","spark_pilot_norest","8732","4","23","Female","","false","","","","","[272.10000002384186]","./assets/img/space/animals/cat.jpg","[""ArrowLeft""]","second stage practice","space","3","{""ArrowUp,ArrowLeft"":3,""ArrowUp,ArrowRight"":36,""ArrowDown,ArrowLeft"":15,""ArrowDown,ArrowRight"":23}","false","ArrowUp,ArrowLeft","","","","","","",""
"html-keyboard-response","36","219602","0.0-3.0-6.0-1.3","spark_pilot_norest","8732","4","23","Female","","","","","","","null","<div style=""font-size:60px;"">+</div>","null","fixation","","","","","","","","","","","",""
"learning-instructions","37","237691","0.0-3.0-7.0-0.0","spark_pilot_norest","8732","4","23","Female","","","","","","","1213","<p> Great job. Now let’s try putting it together. </p>
            <p> On each turn, you will first see a picture to remind you of the place you are in, and you need to choose whether to go up or down. </p>
            <p> Then you will see an animal and choose which of its chests to search for treasure. </p>","","instructions","","","","","","","","","","","",""
"learning-instructions","38","247051","0.0-3.0-7.0-0.1","spark_pilot_norest","8732","4","23","Female","","","","","","","1093.5","<p> When you choose whether to go up or down, try to go to the animal with the chest with the most treasure. </p>
            <p> Try practicing that now! </p>","","instructions","","","","","","","","","","","",""
"revaluation","39","253093","0.0-3.0-8.0-0.0","spark_pilot_norest","8732","4","23","Female","","false","","","","","[1067.5,723.0999999940395]","./assets/img/space/6.jpg","[""ArrowUp"",""ArrowRight""]","full practice","space","36","{""ArrowUp,ArrowLeft"":3,""ArrowUp,ArrowRight"":36,""ArrowDown,ArrowLeft"":15,""ArrowDown,ArrowRight"":23}","true","ArrowUp,ArrowRight","false","","","","","",""
"html-keyboard-response","40","253604","0.0-3.0-8.0-1.0","spark_pilot_norest","8732","4","23","Female","","","","","","","null","<div style=""font-size:60px;"">+</div>","null","fixation","","","","","","","","","","","",""
"revaluation","41","259639","0.0-3.0-8.0-0.1","spark_pilot_norest","8732","4","23","Female","","false","","","","","[830.7000000178814,442.80000001192093]","./assets/img/space/7.jpg","[""ArrowUp"",""ArrowRight""]","full practice","space","36","{""ArrowUp,ArrowLeft"":3,""ArrowUp,ArrowRight"":36,""ArrowDown,ArrowLeft"":15,""ArrowDown,ArrowRight"":23}","true","ArrowUp,ArrowRight","false","","","","","",""
"html-keyboard-response","42","260149","0.0-3.0-8.0-1.1","spark_pilot_norest","8732","4","23","Female","","","","","","","null","<div style=""font-size:60px;"">+</div>","null","fixation","","","","","","","","","","","",""
"revaluation","43","266171","0.0-3.0-8.0-0.2","spark_pilot_norest","8732","4","23","Female","","false","","","","","[623,369.80000001192093]","./assets/img/space/8.jpg","[""ArrowUp"",""ArrowRight""]","full practice","space","36","{""ArrowUp,ArrowLeft"":3,""ArrowUp,ArrowRight"":36,""ArrowDown,ArrowLeft"":15,""ArrowDown,ArrowRight"":23}","true","ArrowUp,ArrowRight","false","","","","","",""
"html-keyboard-response","44","266685","0.0-3.0-8.0-1.2","spark_pilot_norest","8732","4","23","Female","","","","","","","null","<div style=""font-size:60px;"">+</div>","null","fixation","","","","","","","","","","","",""
"revaluation","45","272726","0.0-3.0-8.0-0.3","spark_pilot_norest","8732","4","23","Female","","false","","","","","[295.89999997615814,330.80000001192093]","./assets/img/space/9.jpg","[""ArrowUp"",""ArrowRight""]","full practice","space","36","{""ArrowUp,ArrowLeft"":3,""ArrowUp,ArrowRight"":36,""ArrowDown,ArrowLeft"":15,""ArrowDown,ArrowRight"":23}","true","ArrowUp,ArrowRight","false","","","","","",""
"html-keyboard-response","46","273238","0.0-3.0-8.0-1.3","spark_pilot_norest","8732","4","23","Female","","","","","","","null","<div style=""font-size:60px;"">+</div>","null","fixation","","","","","","","","","","","",""
"revaluation","47","279256","0.0-3.0-8.0-0.4","spark_pilot_norest","8732","4","23","Female","","false","","","","","[472.2000000178814,273]","./assets/img/space/10.jpg","[""ArrowUp"",""ArrowRight""]","full practice","space","36","{""ArrowUp,ArrowLeft"":3,""ArrowUp,ArrowRight"":36,""ArrowDown,ArrowLeft"":15,""ArrowDown,ArrowRight"":23}","true","ArrowUp,ArrowRight","false","","","","","",""
"html-keyboard-response","48","279757","0.0-3.0-8.0-1.4","spark_pilot_norest","8732","4","23","Female","","","","","","","null","<div style=""font-size:60px;"">+</div>","null","fixation","","","","","","","","","","","",""
"learning-instructions","49","316315","0.0-3.0-9.0-0.0","spark_pilot_norest","8732","4","23","Female","","","","","","","26227.19999998808","<p> One last thing: sometimes, you will see a robber. The robber can be anywhere in the picture. </p>
            <p> If you do not stop them, you will lose treasure. </p>
            <img src='./assets/img/instructions/robber.jpg' class='instructions-image'>","","instructions","","","","","","","","","","","",""
"learning-instructions","50","326463","0.0-3.0-9.0-0.1","spark_pilot_norest","8732","4","23","Female","","","","","","","2984","<p> If you see the robber, you should <b>press the space bar</b> rather than using the arrow keys. </p>
            <p> Try practicing that now! </p>","","instructions","","","","","","","","","","","",""
"revaluation","51","330473","0.0-3.0-10.0-0.0","spark_pilot_norest","8732","4","23","Female","","false","","","","","[1239]","./assets/img/space/catch/0.jpg","[""ArrowUp""]","catch practice","space","-10","{""ArrowUp,ArrowLeft"":3,""ArrowUp,ArrowRight"":36,""ArrowDown,ArrowLeft"":15,""ArrowDown,ArrowRight"":23}","false","ArrowUp","true","","","","","",""
"html-keyboard-response","52","330987","0.0-3.0-10.0-1.0","spark_pilot_norest","8732","4","23","Female","","","","","","","null","<div style=""font-size:60px;"">+</div>","null","fixation","","","","","","","","","","","",""
"revaluation","53","335003","0.0-3.0-10.0-0.1","spark_pilot_norest","8732","4","23","Female","","false","","","","","[425.5]","./assets/img/space/catch/1.jpg","[""spaceBar""]","catch practice","space","0","{""ArrowUp,ArrowLeft"":3,""ArrowUp,ArrowRight"":36,""ArrowDown,ArrowLeft"":15,""ArrowDown,ArrowRight"":23}","true","spaceBar","true","","","","","",""
"html-keyboard-response","54","335519","0.0-3.0-10.0-1.1","spark_pilot_norest","8732","4","23","Female","","","","","","","null","<div style=""font-size:60px;"">+</div>","null","fixation","","","","","","","","","","","",""
"revaluation","55","339535","0.0-3.0-10.0-0.2","spark_pilot_norest","8732","4","23","Female","","false","","","","","[442.5]","./assets/img/space/catch/2.jpg","[""spaceBar""]","catch practice","space","0","{""ArrowUp,ArrowLeft"":3,""ArrowUp,ArrowRight"":36,""ArrowDown,ArrowLeft"":15,""ArrowDown,ArrowRight"":23}","true","spaceBar","true","","","","","",""
"html-keyboard-response","56","340044","0.0-3.0-10.0-1.2","spark_pilot_norest","8732","4","23","Female","","","","","","","null","<div style=""font-size:60px;"">+</div>","null","fixation","","","","","","","","","","","",""
"learning-instructions","57","347140","0.0-3.0-11.0-0.0-0.0","spark_pilot_norest","8732","4","23","Female","","","","","","","1810.5999999940395","<p> Now, you will practice a shortened version of the game to get a sense of how it all fits together. </p>","","instructions","","","","","","","","","","","",""
"learning-instructions","58","351071","0.0-3.0-11.0-0.0-0.1","spark_pilot_norest","8732","4","23","Female","","","","","","","743.8000000119209","<p>This time you are searching for treasure in outer space.</p>","","instructions","","","","","","","","","","","",""
"learning-instructions","59","372467","0.0-3.0-11.0-1.0-0.0","spark_pilot_norest","8732","4","23","Female","","","","","","","6629.300000011921","<p> Remember, when you see a picture of the place, use the up and down keys to <b>find an animal</b>.</p>
            <p> When you encounter an animal, you should use the left and right keys to <b>select a treasure chest</b>.</p>
            <p> Don't forget to look out for the robber! </p>","","instructions","","","","","","","","","","","",""
"revaluation","60","378498","0.0-3.0-11.0-2.0-0.0","spark_pilot_norest","8732","4","23","Female","","false","","","","","[1140,589.4000000059605]","./assets/img/space/11.jpg","[""ArrowUp"",""ArrowRight""]","practice block","space","36","{""ArrowUp,ArrowLeft"":3,""ArrowUp,ArrowRight"":36,""ArrowDown,ArrowLeft"":15,""ArrowDown,ArrowRight"":23}","true","ArrowUp,ArrowRight","false","","","","","",""
"html-keyboard-response","61","379010","0.0-3.0-11.0-2.0-1.0","spark_pilot_norest","8732","4","23","Female","","","","","","","null","<div style=""font-size:60px;"">+</div>","null","fixation","","","","","","","","","","","",""
"revaluation","62","385052","0.0-3.0-11.0-2.0-0.1","spark_pilot_norest","8732","4","23","Female","","false","","","","","[623.2000000178814,536.5999999940395]","./assets/img/space/12.jpg","[""ArrowUp"",""ArrowRight""]","practice block","space","36","{""ArrowUp,ArrowLeft"":3,""ArrowUp,ArrowRight"":36,""ArrowDown,ArrowLeft"":15,""ArrowDown,ArrowRight"":23}","true","ArrowUp,ArrowRight","false","","","","","",""
"html-keyboard-response","63","385564","0.0-3.0-11.0-2.0-1.1","spark_pilot_norest","8732","4","23","Female","","","","","","","null","<div style=""font-size:60px;"">+</div>","null","fixation","","","","","","","","","","","",""
"revaluation","64","391604","0.0-3.0-11.0-2.0-0.2","spark_pilot_norest","8732","4","23","Female","","false","","","","","[814.2999999821186,409.90000000596046]","./assets/img/space/13.jpg","[""ArrowUp"",""ArrowRight""]","practice block","space","36","{""ArrowUp,ArrowLeft"":3,""ArrowUp,ArrowRight"":36,""ArrowDown,ArrowLeft"":15,""ArrowDown,ArrowRight"":23}","true","ArrowUp,ArrowRight","false","","","","","",""
"html-keyboard-response","65","392119","0.0-3.0-11.0-2.0-1.2","spark_pilot_norest","8732","4","23","Female","","","","","","","null","<div style=""font-size:60px;"">+</div>","null","fixation","","","","","","","","","","","",""
"revaluation","66","398132","0.0-3.0-11.0-2.0-0.3","spark_pilot_norest","8732","4","23","Female","","false","","","","","[668.0999999940395,270.39999997615814]","./assets/img/space/14.jpg","[""ArrowDown"",""ArrowRight""]","practice block","space","23","{""ArrowUp,ArrowLeft"":3,""ArrowUp,ArrowRight"":36,""ArrowDown,ArrowLeft"":15,""ArrowDown,ArrowRight"":23}","false","ArrowDown,ArrowRight","false","","","","","",""
"html-keyboard-response","67","398634","0.0-3.0-11.0-2.0-1.3","spark_pilot_norest","8732","4","23","Female","","","","","","","null","<div style=""font-size:60px;"">+</div>","null","fixation","","","","","","","","","","","",""
"revaluation","68","404643","0.0-3.0-11.0-2.0-0.4","spark_pilot_norest","8732","4","23","Female","","false","","","","","[865.5,431]","./assets/img/space/11.jpg","[""ArrowDown"",""ArrowLeft""]","practice block","space","15","{""ArrowUp,ArrowLeft"":3,""ArrowUp,ArrowRight"":36,""ArrowDown,ArrowLeft"":15,""ArrowDown,ArrowRight"":23}","false","ArrowDown,ArrowLeft","false","","","","","",""
"html-keyboard-response","69","405147","0.0-3.0-11.0-2.0-1.4","spark_pilot_norest","8732","4","23","Female","","","","","","","null","<div style=""font-size:60px;"">+</div>","null","fixation","","","","","","","","","","","",""
"revaluation","70","411157","0.0-3.0-11.0-2.0-0.5","spark_pilot_norest","8732","4","23","Female","","false","","","","","[558.8000000119209,477.5]","./assets/img/space/12.jpg","[""ArrowUp"",""ArrowRight""]","practice block","space","36","{""ArrowUp,ArrowLeft"":3,""ArrowUp,ArrowRight"":36,""ArrowDown,ArrowLeft"":15,""ArrowDown,ArrowRight"":23}","true","ArrowUp,ArrowRight","false","","","","","",""
"html-keyboard-response","71","411659","0.0-3.0-11.0-2.0-1.5","spark_pilot_norest","8732","4","23","Female","","","","","","","null","<div style=""font-size:60px;"">+</div>","null","fixation","","","","","","","","","","","",""
"revaluation","72","417668","0.0-3.0-11.0-2.0-0.6","spark_pilot_norest","8732","4","23","Female","","false","","","","","[639,246.40000000596046]","./assets/img/space/13.jpg","[""ArrowUp"",""ArrowRight""]","practice block","space","36","{""ArrowUp,ArrowLeft"":3,""ArrowUp,ArrowRight"":36,""ArrowDown,ArrowLeft"":15,""ArrowDown,ArrowRight"":23}","true","ArrowUp,ArrowRight","false","","","","","",""
"html-keyboard-response","73","418170","0.0-3.0-11.0-2.0-1.6","spark_pilot_norest","8732","4","23","Female","","","","","","","null","<div style=""font-size:60px;"">+</div>","null","fixation","","","","","","","","","","","",""
"revaluation","74","424176","0.0-3.0-11.0-2.0-0.7","spark_pilot_norest","8732","4","23","Female","","false","","","","","[569.5,264.80000001192093]","./assets/img/space/14.jpg","[""ArrowUp"",""ArrowRight""]","practice block","space","36","{""ArrowUp,ArrowLeft"":3,""ArrowUp,ArrowRight"":36,""ArrowDown,ArrowLeft"":15,""ArrowDown,ArrowRight"":23}","true","ArrowUp,ArrowRight","false","","","","","",""
"html-keyboard-response","75","424679","0.0-3.0-11.0-2.0-1.7","spark_pilot_norest","8732","4","23","Female","","","","","","","null","<div style=""font-size:60px;"">+</div>","null","fixation","","","","","","","","","","","",""
"revaluation","76","428693","0.0-3.0-11.0-2.0-0.8","spark_pilot_norest","8732","4","23","Female","","false","","","","","[621]","./assets/img/space/catch/3.jpg","[""spaceBar""]","practice block","space","0","{""ArrowUp,ArrowLeft"":3,""ArrowUp,ArrowRight"":36,""ArrowDown,ArrowLeft"":15,""ArrowDown,ArrowRight"":23}","true","spaceBar","true","","","","","",""
"html-keyboard-response","77","429196","0.0-3.0-11.0-2.0-1.8","spark_pilot_norest","8732","4","23","Female","","","","","","","null","<div style=""font-size:60px;"">+</div>","null","fixation","","","","","","","","","","","",""
"learning-instructions","78","446811","0.0-3.0-11.0-3.0-0.0","spark_pilot_norest","8732","4","23","Female","","","","","","","4661.5","<p> Now, you will travel with a friend who will choose whether you go up or down first. </p>
            <p> On these turns, you will just see the animal that they found. You will still get to choose which chest to search for treasure.</p>","","instructions","","","","","","","","","","","",""
"revaluation","79","450832","0.0-3.0-11.0-4.0-0.0","spark_pilot_norest","8732","4","23","Female","","false","","","","","[1129]","./assets/img/space/animals/cat.jpg","[""ArrowRight""]","practice block","space","36","{""ArrowUp,ArrowLeft"":3,""ArrowUp,ArrowRight"":36,""ArrowDown,ArrowLeft"":15,""ArrowDown,ArrowRight"":23}","true","ArrowUp,ArrowRight","","","","","","",""
"html-keyboard-response","80","451344","0.0-3.0-11.0-4.0-1.0","spark_pilot_norest","8732","4","23","Female","","","","","","","null","<div style=""font-size:60px;"">+</div>","null","fixation","","","","","","","","","","","",""
"revaluation","81","455388","0.0-3.0-11.0-4.0-0.1","spark_pilot_norest","8732","4","23","Female","","false","","","","","[363.89999997615814]","./assets/img/space/animals/cat.jpg","[""ArrowRight""]","practice block","space","36","{""ArrowUp,ArrowLeft"":3,""ArrowUp,ArrowRight"":36,""ArrowDown,ArrowLeft"":15,""ArrowDown,ArrowRight"":23}","true","ArrowUp,ArrowRight","","","","","","",""
"html-keyboard-response","82","455899","0.0-3.0-11.0-4.0-1.1","spark_pilot_norest","8732","4","23","Female","","","","","","","null","<div style=""font-size:60px;"">+</div>","null","fixation","","","","","","","","","","","",""
"revaluation","83","459929","0.0-3.0-11.0-4.0-0.2","spark_pilot_norest","8732","4","23","Female","","false","","","","","[394.5]","./assets/img/space/animals/rabbit.jpg","[""ArrowRight""]","practice block","space","23","{""ArrowUp,ArrowLeft"":3,""ArrowUp,ArrowRight"":36,""ArrowDown,ArrowLeft"":15,""ArrowDown,ArrowRight"":23}","true","ArrowDown,ArrowRight","","","","","","",""
"html-keyboard-response","84","460440","0.0-3.0-11.0-4.0-1.2","spark_pilot_norest","8732","4","23","Female","","","","","","","null","<div style=""font-size:60px;"">+</div>","null","fixation","","","","","","","","","","","",""
"revaluation","85","464463","0.0-3.0-11.0-4.0-0.3","spark_pilot_norest","8732","4","23","Female","","false","","","","","[548.7000000178814]","./assets/img/space/animals/rabbit.jpg","[""ArrowLeft""]","practice block","space","15","{""ArrowUp,ArrowLeft"":3,""ArrowUp,ArrowRight"":36,""ArrowDown,ArrowLeft"":15,""ArrowDown,ArrowRight"":23}","false","ArrowDown,ArrowLeft","","","","","","",""
"html-keyboard-response","86","464974","0.0-3.0-11.0-4.0-1.3","spark_pilot_norest","8732","4","23","Female","","","","","","","null","<div style=""font-size:60px;"">+</div>","null","fixation","","","","","","","","","","","",""
"learning-instructions","87","473142","0.0-3.0-11.0-5.0-0.0","spark_pilot_norest","8732","4","23","Female","","","","","","","null","<p> You have almost finished this part of the game! </p>
            <p> We are going to ask you to make a few more choices. </p>","","instructions","","","","","","","","","","","",""
"learning-instructions","88","489178","0.0-3.0-11.0-5.0-0.1","spark_pilot_norest","8732","4","23","Female","","","","","","","null","<p> First, you need to decide whether to go up or down. When you see each picture, use the arrow keys to make your choice. </p>
            <p><b>You will not see which animal you found, but try to get to the one that will give you the most treasure.</b></p>","","instructions","","","","","","","","","","","",""
"html-keyboard-response","89","490188","0.0-3.0-11.0-6.0-0.0","spark_pilot_norest","8732","4","23","Female","","","","","","","null","<div style=""font-size:100px;color:red;"">Starting in...</div>","null","","","","","","","","","","","","",""
"html-keyboard-response","90","491201","0.0-3.0-11.0-6.0-1.0","spark_pilot_norest","8732","4","23","Female","","","","","","","null","<div style=""font-size:200px;color:red;"">3</div>","null","","","","","","","","","","","","",""
"html-keyboard-response","91","492213","0.0-3.0-11.0-6.0-2.0","spark_pilot_norest","8732","4","23","Female","","","","","","","null","<div style=""font-size:200px;color:red;"">2</div>","null","","","","","","","","","","","","",""
"html-keyboard-response","92","493227","0.0-3.0-11.0-6.0-3.0","spark_pilot_norest","8732","4","23","Female","","","","","","","null","<div style=""font-size:200px;color:red;"">1</div>","null","","","","","","","","","","","","",""
"revaluation","93","493785","0.0-3.0-11.0-7.0","spark_pilot_norest","8732","4","23","Female","","false","","","","","[555]","./assets/img/space/15.jpg","[""ArrowUp""]","practice block","space","0","{""ArrowUp,ArrowLeft"":3,""ArrowUp,ArrowRight"":36,""ArrowDown,ArrowLeft"":15,""ArrowDown,ArrowRight"":23}","true","ArrowUp","false","","","","","",""
"html-keyboard-response","94","494299","0.0-3.0-11.0-8.0","spark_pilot_norest","8732","4","23","Female","","","","","","","null","<div style=""font-size:60px;"">+</div>","null","fixation","","","","","","","","","","","",""
"learning-instructions","95","507714","0.0-3.0-11.0-9.0-0.0","spark_pilot_norest","8732","4","23","Female","","","","","","","null","<p> Now you will see the animals again and can search their chests for treasure. </p>
            <p> This time, you will not see how much treasure you earned, but you will earn more bonus money for making better choices. </p>","","instructions","","","","","","","","","","","",""
"html-keyboard-response","96","508728","0.0-3.0-11.0-10.0-0.0","spark_pilot_norest","8732","4","23","Female","","","","","","","null","<div style=""font-size:100px;color:red;"">Starting in...</div>","null","","","","","","","","","","","","",""
"html-keyboard-response","97","509735","0.0-3.0-11.0-10.0-1.0","spark_pilot_norest","8732","4","23","Female","","","","","","","null","<div style=""font-size:200px;color:red;"">3</div>","null","","","","","","","","","","","","",""
"html-keyboard-response","98","510751","0.0-3.0-11.0-10.0-2.0","spark_pilot_norest","8732","4","23","Female","","","","","","","null","<div style=""font-size:200px;color:red;"">2</div>","null","","","","","","","","","","","","",""
"html-keyboard-response","99","511759","0.0-3.0-11.0-10.0-3.0","spark_pilot_norest","8732","4","23","Female","","","","","","","null","<div style=""font-size:200px;color:red;"">1</div>","null","","","","","","","","","","","","",""
"revaluation","100","512370","0.0-3.0-11.0-11.0-0.0","spark_pilot_norest","8732","4","23","Female","","false","","","","","[605.9000000059605]","./assets/img/space/animals/cat.jpg","[""ArrowRight""]","practice block","space","0","{""ArrowUp,ArrowLeft"":3,""ArrowUp,ArrowRight"":36,""ArrowDown,ArrowLeft"":15,""ArrowDown,ArrowRight"":23}","true","ArrowUp,ArrowRight","","","","","","",""
"html-keyboard-response","101","512875","0.0-3.0-11.0-11.0-1.0","spark_pilot_norest","8732","4","23","Female","","","","","","","null","<div style=""font-size:60px;"">+</div>","null","fixation","","","","","","","","","","","",""
"revaluation","102","513628","0.0-3.0-11.0-11.0-0.1","spark_pilot_norest","8732","4","23","Female","","false","","","","","[747.9000000059605]","./assets/img/space/animals/rabbit.jpg","[""ArrowLeft""]","practice block","space","0","{""ArrowUp,ArrowLeft"":3,""ArrowUp,ArrowRight"":36,""ArrowDown,ArrowLeft"":15,""ArrowDown,ArrowRight"":23}","false","ArrowDown,ArrowLeft","","","","","","",""
"html-keyboard-response","103","514134","0.0-3.0-11.0-11.0-1.1","spark_pilot_norest","8732","4","23","Female","","","","","","","null","<div style=""font-size:60px;"">+</div>","null","fixation","","","","","","","","","","","",""
"learning-instructions","104","520654","0.0-3.0-12.0-0.0","spark_pilot_norest","8732","4","23","Female","","","","","","","1908","<p> Before you start, we're going to ask you a few questions about how the game works. </p>","","instructions","","","","","","","","","","","",""
"comp-q","105","527167","0.0-3.0-13.0-0.0-0.0","spark_pilot_norest","8732","4","23","Female","","","","","","","928.5","<p> <b> True or False? </b> </p>
            <p> There can be 50 pieces of treasure in a given animal's chest. </p>","1","comp_question","","","","true","","","","","","","",""
"comp-q","106","536474","0.0-3.0-13.0-0.0-1.0","spark_pilot_norest","8732","4","23","Female","","","","","","","2648.199999988079","<p> <b> That's right! </b> The amount of treasure in each chest can range from 0 to 40 pieces. </p>","0","comp_answer","","","","","","","","","","","",""
"comp-q","107","547750","0.0-3.0-13.0-0.1-0.1","spark_pilot_norest","8732","4","23","Female","","","","","","","4161.0999999940395","<p> <b> True or False? </b> </p><p> In this game, all animals have the same amount of treasure in their left and right chests. </p>","1","comp_question","","","","true","","","","","","","",""
"comp-q","108","553958","0.0-3.0-13.0-0.1-1.1","spark_pilot_norest","8732","4","23","Female","","","","","","","981.5","<p> <b> That's right! </b> Animals have different amounts of treasure in their treasure chests. </p>","0","comp_answer","","","","","","","","","","","",""
"comp-q","109","560482","0.0-3.0-13.0-0.2-0.2","spark_pilot_norest","8732","4","23","Female","","","","","","","675.5","<p> <b> True or False? </b> </p><p> The same animal will always be there if you go up in the same place. </p>","1","comp_question","","","","false","","","","","","","",""
"comp-q","110","569003","0.0-3.0-13.0-0.2-1.2","spark_pilot_norest","8732","4","23","Female","","","","","","","2224.300000011921","<p> <b>Incorrect.</b> One animal lives in the upper part and one lives in the lower part of every place. </p>","0","comp_answer","","","","","","","","","","","",""
"comp-q","111","576515","0.0-3.0-13.0-0.3-0.3","spark_pilot_norest","8732","4","23","Female","","","","","","","1698.5","<p> <b> True or False? </b> </p><p> The same animal will always be there if you go up in the same place. </p>","0","comp_question","","","","true","","","","","","","",""
"comp-q","112","583611","0.0-3.0-13.0-0.3-1.3","spark_pilot_norest","8732","4","23","Female","","","","","","","642.3000000119209","<p> <b> That's right! </b> One animal lives in the upper part and one lives in the lower part of every place. </p>","0","comp_answer","","","","","","","","","","","",""
"comp-q","113","589650","0.0-3.0-13.0-0.4-0.4","spark_pilot_norest","8732","4","23","Female","","","","","","","513.6999999880791","<p> <b> True or False? </b> </p><p> If you see a different picture, it means you are in a new place. </p>","1","comp_question","","","","true","","","","","","","",""
"comp-q","114","812954","0.0-3.0-13.0-0.4-1.4","spark_pilot_norest","8732","4","23","Female","","","","","","","212066.5","<p> <b> That's right! </b> Lots of different images may show the same place. For example,  you may see three different images that all remind you that you are in outer space. </p>","0","comp_answer","","","","","","","","","","","",""
"learning-instructions","115","829377","0.0-3.0-14.0-0.0","spark_pilot_norest","8732","4","23","Female","","","","","","","6541.299999982119","<p> Good job. Remember to do your best because the amount of treasure you earn will be converted into bonus money. </p>
            <p> It’s time to start the real game! </p>","","instructions","","","","","","","","","","","",""
"learning-instructions","116","836446","0.0-4.0-0.0-0.0","spark_pilot_norest","8732","4","23","Female","","","","","","","4358.800000011921","<p> This time you are searching for treasure in the <b>ocean</b>.</p>","","instructions","","","","","","","","","","","",""
"learning-instructions","117","883789","0.0-4.0-0.0-0.1","spark_pilot_norest","8732","4","23","Female","","","","","","","30042.100000023842","<p><b>New</b> animals with <b>new</b> treasure chests live here. You need to explore to discover where the animal with the best treasure chest is.</p>
                    <p> Like before, once you figure out which animal has the chest with the most treasure, you should try to get to that animal and select that chest! </p>","","instructions","","","","","","","","","","","",""
"learning-instructions","118","899334","0.0-4.0-1.0-0.0","spark_pilot_norest","8732","4","23","Female","","","","","","","816.6999999880791","<p> Remember, when you see a picture of the place, use the up and down keys to <b>find an animal</b>.</p>
            <p> When you encounter an animal, you should use the left and right keys to <b>select a treasure chest</b>.</p>
            <p> Don't forget to look out for the robber! </p>","","instructions","","","","","","","","","","","",""
"revaluation","119","903351","0.0-4.0-2.0-0.0","spark_pilot_norest","8732","4","23","Female","","false","","","","","[1245.5]","./assets/img/ocean/catch/5.jpg","[""ArrowUp""]","value training","ocean","-10","{""ArrowUp,ArrowLeft"":26,""ArrowUp,ArrowRight"":10,""ArrowDown,ArrowLeft"":5,""ArrowDown,ArrowRight"":17}","false","ArrowUp","true","revaluation","1","0","","",""
"html-keyboard-response","120","903865","0.0-4.0-2.0-1.0","spark_pilot_norest","8732","4","23","Female","","","","","","","null","<div style=""font-size:60px;"">+</div>","null","fixation","","","","","","","","","1","","",""
"revaluation","121","909887","0.0-4.0-2.0-0.1","spark_pilot_norest","8732","4","23","Female","","false","","","","","[934,691.7999999821186]","./assets/img/ocean/memory/4.jpg","[""ArrowUp"",""ArrowRight""]","value training","ocean","10","{""ArrowUp,ArrowLeft"":26,""ArrowUp,ArrowRight"":10,""ArrowDown,ArrowLeft"":5,""ArrowDown,ArrowRight"":17}","false","ArrowUp,ArrowRight","false","revaluation","1","2","","",""
"html-keyboard-response","122","910399","0.0-4.0-2.0-1.1","spark_pilot_norest","8732","4","23","Female","","","","","","","null","<div style=""font-size:60px;"">+</div>","null","fixation","","","","","","","","","3","","",""
"revaluation","123","916430","0.0-4.0-2.0-0.2","spark_pilot_norest","8732","4","23","Female","","false","","","","","[671.6999999880791,767.9000000059605]","./assets/img/ocean/memory/11.jpg","[""ArrowUp"",""ArrowLeft""]","value training","ocean","26","{""ArrowUp,ArrowLeft"":26,""ArrowUp,ArrowRight"":10,""ArrowDown,ArrowLeft"":5,""ArrowDown,ArrowRight"":17}","true","ArrowUp,ArrowLeft","false","revaluation","1","4","","",""
"html-keyboard-response","124","916944","0.0-4.0-2.0-1.2","spark_pilot_norest","8732","4","23","Female","","","","","","","null","<div style=""font-size:60px;"">+</div>","null","fixation","","","","","","","","","5","","",""
"revaluation","125","922977","0.0-4.0-2.0-0.3","spark_pilot_norest","8732","4","23","Female","","false","","","","","[900.5,420.09999999403954]","./assets/img/ocean/memory/22.jpg","[""ArrowDown"",""ArrowRight""]","value training","ocean","17","{""ArrowUp,ArrowLeft"":26,""ArrowUp,ArrowRight"":10,""ArrowDown,ArrowLeft"":5,""ArrowDown,ArrowRight"":17}","false","ArrowDown,ArrowRight","false","revaluation","1","6","","",""
"html-keyboard-response","126","923491","0.0-4.0-2.0-1.3","spark_pilot_norest","8732","4","23","Female","","","","","","","null","<div style=""font-size:60px;"">+</div>","null","fixation","","","","","","","","","7","","",""
"revaluation","127","929518","0.0-4.0-2.0-0.4","spark_pilot_norest","8732","4","23","Female","","false","","","","","[675.5,417.5]","./assets/img/ocean/memory/10.jpg","[""ArrowDown"",""ArrowLeft""]","value training","ocean","5","{""ArrowUp,ArrowLeft"":26,""ArrowUp,ArrowRight"":10,""ArrowDown,ArrowLeft"":5,""ArrowDown,ArrowRight"":17}","false","ArrowDown,ArrowLeft","false","revaluation","1","8","","",""
"html-keyboard-response","128","930019","0.0-4.0-2.0-1.4","spark_pilot_norest","8732","4","23","Female","","","","","","","null","<div style=""font-size:60px;"">+</div>","null","fixation","","","","","","","","","9","","",""
"revaluation","129","936027","0.0-4.0-2.0-0.5","spark_pilot_norest","8732","4","23","Female","","false","","","","","[751.5999999940395,391.5]","./assets/img/ocean/memory/1.jpg","[""ArrowUp"",""ArrowLeft""]","value training","ocean","26","{""ArrowUp,ArrowLeft"":26,""ArrowUp,ArrowRight"":10,""ArrowDown,ArrowLeft"":5,""ArrowDown,ArrowRight"":17}","true","ArrowUp,ArrowLeft","false","revaluation","1","10","","",""
"html-keyboard-response","130","936532","0.0-4.0-2.0-1.5","spark_pilot_norest","8732","4","23","Female","","","","","","","null","<div style=""font-size:60px;"">+</div>","null","fixation","","","","","","","","","11","","",""
"revaluation","131","942539","0.0-4.0-2.0-0.6","spark_pilot_norest","8732","4","23","Female","","false","","","","","[566.5999999940395,318.80000001192093]","./assets/img/ocean/memory/34.jpg","[""ArrowUp"",""ArrowLeft""]","value training","ocean","26","{""ArrowUp,ArrowLeft"":26,""ArrowUp,ArrowRight"":10,""ArrowDown,ArrowLeft"":5,""ArrowDown,ArrowRight"":17}","true","ArrowUp,ArrowLeft","false","revaluation","1","12","","",""
"html-keyboard-response","132","943041","0.0-4.0-2.0-1.6","spark_pilot_norest","8732","4","23","Female","","","","","","","null","<div style=""font-size:60px;"">+</div>","null","fixation","","","","","","","","","13","","",""
"revaluation","133","949049","0.0-4.0-2.0-0.7","spark_pilot_norest","8732","4","23","Female","","false","","","","","[800.0999999940395,327]","./assets/img/ocean/memory/4.jpg","[""ArrowUp"",""ArrowLeft""]","value training","ocean","26","{""ArrowUp,ArrowLeft"":26,""ArrowUp,ArrowRight"":10,""ArrowDown,ArrowLeft"":5,""ArrowDown,ArrowRight"":17}","true","ArrowUp,ArrowLeft","false","revaluation","1","14","","",""
"html-keyboard-response","134","949551","0.0-4.0-2.0-1.7","spark_pilot_norest","8732","4","23","Female","","","","","","","null","<div style=""font-size:60px;"">+</div>","null","fixation","","","","","","","","","15","","",""
"revaluation","135","955566","0.0-4.0-2.0-0.8","spark_pilot_norest","8732","4","23","Female","","false","","","","","[788.5999999940395,386.59999999403954]","./assets/img/ocean/memory/27.jpg","[""ArrowUp"",""ArrowLeft""]","value training","ocean","26","{""ArrowUp,ArrowLeft"":26,""ArrowUp,ArrowRight"":10,""ArrowDown,ArrowLeft"":5,""ArrowDown,ArrowRight"":17}","true","ArrowUp,ArrowLeft","false","revaluation","1","16","","",""
"html-keyboard-response","136","956067","0.0-4.0-2.0-1.8","spark_pilot_norest","8732","4","23","Female","","","","","","","null","<div style=""font-size:60px;"">+</div>","null","fixation","","","","","","","","","17","","",""
"revaluation","137","960075","0.0-4.0-2.0-0.9","spark_pilot_norest","8732","4","23","Female","","false","","","","","[648.0999999940395]","./assets/img/ocean/catch/3.jpg","[""spaceBar""]","value training","ocean","0","{""ArrowUp,ArrowLeft"":26,""ArrowUp,ArrowRight"":10,""ArrowDown,ArrowLeft"":5,""ArrowDown,ArrowRight"":17}","true","spaceBar","true","revaluation","1","18","","",""
"html-keyboard-response","138","960587","0.0-4.0-2.0-1.9","spark_pilot_norest","8732","4","23","Female","","","","","","","null","<div style=""font-size:60px;"">+</div>","null","fixation","","","","","","","","","19","","",""
"revaluation","139","966596","0.0-4.0-2.0-0.10","spark_pilot_norest","8732","4","23","Female","","false","","","","","[743.7999999821186,358.09999999403954]","./assets/img/ocean/memory/0.jpg","[""ArrowUp"",""ArrowRight""]","value training","ocean","10","{""ArrowUp,ArrowLeft"":26,""ArrowUp,ArrowRight"":10,""ArrowDown,ArrowLeft"":5,""ArrowDown,ArrowRight"":17}","false","ArrowUp,ArrowRight","false","revaluation","1","20","","",""
"html-keyboard-response","140","967099","0.0-4.0-2.0-1.10","spark_pilot_norest","8732","4","23","Female","","","","","","","null","<div style=""font-size:60px;"">+</div>","null","fixation","","","","","","","","","21","","",""
"revaluation","141","973109","0.0-4.0-2.0-0.11","spark_pilot_norest","8732","4","23","Female","","false","","","","","[973.2999999821186,370.19999998807907]","./assets/img/ocean/memory/0.jpg","[""ArrowUp"",""ArrowLeft""]","value training","ocean","26","{""ArrowUp,ArrowLeft"":26,""ArrowUp,ArrowRight"":10,""ArrowDown,ArrowLeft"":5,""ArrowDown,ArrowRight"":17}","true","ArrowUp,ArrowLeft","false","revaluation","1","22","","",""
"html-keyboard-response","142","973612","0.0-4.0-2.0-1.11","spark_pilot_norest","8732","4","23","Female","","","","","","","null","<div style=""font-size:60px;"">+</div>","null","fixation","","","","","","","","","23","","",""
"revaluation","143","979621","0.0-4.0-2.0-0.12","spark_pilot_norest","8732","4","23","Female","","false","","","","","[607.0999999940395,282.69999998807907]","./assets/img/ocean/memory/40.jpg","[""ArrowUp"",""ArrowLeft""]","value training","ocean","26","{""ArrowUp,ArrowLeft"":26,""ArrowUp,ArrowRight"":10,""ArrowDown,ArrowLeft"":5,""ArrowDown,ArrowRight"":17}","true","ArrowUp,ArrowLeft","false","revaluation","1","24","","",""
"html-keyboard-response","144","980124","0.0-4.0-2.0-1.12","spark_pilot_norest","8732","4","23","Female","","","","","","","null","<div style=""font-size:60px;"">+</div>","null","fixation","","","","","","","","","25","","",""
"revaluation","145","986133","0.0-4.0-2.0-0.13","spark_pilot_norest","8732","4","23","Female","","false","","","","","[670.4000000059605,437.30000001192093]","./assets/img/ocean/memory/41.jpg","[""ArrowUp"",""ArrowLeft""]","value training","ocean","26","{""ArrowUp,ArrowLeft"":26,""ArrowUp,ArrowRight"":10,""ArrowDown,ArrowLeft"":5,""ArrowDown,ArrowRight"":17}","true","ArrowUp,ArrowLeft","false","revaluation","1","26","","",""
"html-keyboard-response","146","986636","0.0-4.0-2.0-1.13","spark_pilot_norest","8732","4","23","Female","","","","","","","null","<div style=""font-size:60px;"">+</div>","null","fixation","","","","","","","","","27","","",""
"revaluation","147","992644","0.0-4.0-2.0-0.14","spark_pilot_norest","8732","4","23","Female","","false","","","","","[839.1999999880791,299.19999998807907]","./assets/img/ocean/memory/11.jpg","[""ArrowUp"",""ArrowLeft""]","value training","ocean","26","{""ArrowUp,ArrowLeft"":26,""ArrowUp,ArrowRight"":10,""ArrowDown,ArrowLeft"":5,""ArrowDown,ArrowRight"":17}","true","ArrowUp,ArrowLeft","false","revaluation","1","28","","",""
"html-keyboard-response","148","993146","0.0-4.0-2.0-1.14","spark_pilot_norest","8732","4","23","Female","","","","","","","null","<div style=""font-size:60px;"">+</div>","null","fixation","","","","","","","","","29","","",""
"revaluation","149","999158","0.0-4.0-2.0-0.15","spark_pilot_norest","8732","4","23","Female","","false","","","","","[789.3000000119209,273.89999997615814]","./assets/img/ocean/memory/24.jpg","[""ArrowDown"",""ArrowRight""]","value training","ocean","17","{""ArrowUp,ArrowLeft"":26,""ArrowUp,ArrowRight"":10,""ArrowDown,ArrowLeft"":5,""ArrowDown,ArrowRight"":17}","false","ArrowDown,ArrowRight","false","revaluation","1","30","","",""
"html-keyboard-response","150","999661","0.0-4.0-2.0-1.15","spark_pilot_norest","8732","4","23","Female","","","","","","","null","<div style=""font-size:60px;"">+</div>","null","fixation","","","","","","","","","31","","",""
"revaluation","151","1005667","0.0-4.0-2.0-0.16","spark_pilot_norest","8732","4","23","Female","","false","","","","","[725.5,205.69999998807907]","./assets/img/ocean/memory/13.jpg","[""ArrowDown"",""ArrowLeft""]","value training","ocean","5","{""ArrowUp,ArrowLeft"":26,""ArrowUp,ArrowRight"":10,""ArrowDown,ArrowLeft"":5,""ArrowDown,ArrowRight"":17}","false","ArrowDown,ArrowLeft","false","revaluation","1","32","","",""
"html-keyboard-response","152","1006169","0.0-4.0-2.0-1.16","spark_pilot_norest","8732","4","23","Female","","","","","","","null","<div style=""font-size:60px;"">+</div>","null","fixation","","","","","","","","","33","","",""
"revaluation","153","1010174","0.0-4.0-2.0-0.17","spark_pilot_norest","8732","4","23","Female","","false","","","","","[699.3000000119209]","./assets/img/ocean/catch/6.jpg","[""spaceBar""]","value training","ocean","0","{""ArrowUp,ArrowLeft"":26,""ArrowUp,ArrowRight"":10,""ArrowDown,ArrowLeft"":5,""ArrowDown,ArrowRight"":17}","true","spaceBar","true","revaluation","1","34","","",""
"html-keyboard-response","154","1010677","0.0-4.0-2.0-1.17","spark_pilot_norest","8732","4","23","Female","","","","","","","null","<div style=""font-size:60px;"">+</div>","null","fixation","","","","","","","","","35","","",""
"revaluation","155","1016696","0.0-4.0-2.0-0.18","spark_pilot_norest","8732","4","23","Female","","false","","","","","[412.2999999821186,328]","./assets/img/ocean/memory/20.jpg","[""ArrowUp"",""ArrowLeft""]","value training","ocean","26","{""ArrowUp,ArrowLeft"":26,""ArrowUp,ArrowRight"":10,""ArrowDown,ArrowLeft"":5,""ArrowDown,ArrowRight"":17}","true","ArrowUp,ArrowLeft","false","revaluation","1","36","","",""
"html-keyboard-response","156","1017198","0.0-4.0-2.0-1.18","spark_pilot_norest","8732","4","23","Female","","","","","","","null","<div style=""font-size:60px;"">+</div>","null","fixation","","","","","","","","","37","","",""
"revaluation","157","1021207","0.0-4.0-2.0-0.19","spark_pilot_norest","8732","4","23","Female","","false","","","","","[746.5]","./assets/img/ocean/catch/7.jpg","[""spaceBar""]","value training","ocean","0","{""ArrowUp,ArrowLeft"":26,""ArrowUp,ArrowRight"":10,""ArrowDown,ArrowLeft"":5,""ArrowDown,ArrowRight"":17}","true","spaceBar","true","revaluation","1","38","","",""
"html-keyboard-response","158","1021709","0.0-4.0-2.0-1.19","spark_pilot_norest","8732","4","23","Female","","","","","","","null","<div style=""font-size:60px;"">+</div>","null","fixation","","","","","","","","","39","","",""
"revaluation","159","1027721","0.0-4.0-2.0-0.20","spark_pilot_norest","8732","4","23","Female","","false","","","","","[505,526.2000000178814]","./assets/img/ocean/memory/23.jpg","[""ArrowUp"",""ArrowLeft""]","value training","ocean","26","{""ArrowUp,ArrowLeft"":26,""ArrowUp,ArrowRight"":10,""ArrowDown,ArrowLeft"":5,""ArrowDown,ArrowRight"":17}","true","ArrowUp,ArrowLeft","false","revaluation","1","40","","",""
"html-keyboard-response","160","1028226","0.0-4.0-2.0-1.20","spark_pilot_norest","8732","4","23","Female","","","","","","","null","<div style=""font-size:60px;"">+</div>","null","fixation","","","","","","","","","41","","",""
"revaluation","161","1034237","0.0-4.0-2.0-0.21","spark_pilot_norest","8732","4","23","Female","","false","","","","","[795.4000000059605,419.39999997615814]","./assets/img/ocean/memory/29.jpg","[""ArrowUp"",""ArrowLeft""]","value training","ocean","26","{""ArrowUp,ArrowLeft"":26,""ArrowUp,ArrowRight"":10,""ArrowDown,ArrowLeft"":5,""ArrowDown,ArrowRight"":17}","true","ArrowUp,ArrowLeft","false","revaluation","1","42","","",""
"html-keyboard-response","162","1034738","0.0-4.0-2.0-1.21","spark_pilot_norest","8732","4","23","Female","","","","","","","null","<div style=""font-size:60px;"">+</div>","null","fixation","","","","","","","","","43","","",""
"revaluation","163","1040743","0.0-4.0-2.0-0.22","spark_pilot_norest","8732","4","23","Female","","false","","","","","[898,535.0999999940395]","./assets/img/ocean/memory/24.jpg","[""ArrowUp"",""ArrowLeft""]","value training","ocean","26","{""ArrowUp,ArrowLeft"":26,""ArrowUp,ArrowRight"":10,""ArrowDown,ArrowLeft"":5,""ArrowDown,ArrowRight"":17}","true","ArrowUp,ArrowLeft","false","revaluation","1","44","","",""
"html-keyboard-response","164","1041245","0.0-4.0-2.0-1.22","spark_pilot_norest","8732","4","23","Female","","","","","","","null","<div style=""font-size:60px;"">+</div>","null","fixation","","","","","","","","","45","","",""
"revaluation","165","1047254","0.0-4.0-2.0-0.23","spark_pilot_norest","8732","4","23","Female","","false","","","","","[603.7999999821186,212.40000000596046]","./assets/img/ocean/memory/39.jpg","[""ArrowUp"",""ArrowLeft""]","value training","ocean","26","{""ArrowUp,ArrowLeft"":26,""ArrowUp,ArrowRight"":10,""ArrowDown,ArrowLeft"":5,""ArrowDown,ArrowRight"":17}","true","ArrowUp,ArrowLeft","false","revaluation","1","46","","",""
"html-keyboard-response","166","1047759","0.0-4.0-2.0-1.23","spark_pilot_norest","8732","4","23","Female","","","","","","","null","<div style=""font-size:60px;"">+</div>","null","fixation","","","","","","","","","47","","",""
"revaluation","167","1051768","0.0-4.0-2.0-0.24","spark_pilot_norest","8732","4","23","Female","","false","","","","","[663.5999999940395]","./assets/img/ocean/catch/2.jpg","[""spaceBar""]","value training","ocean","0","{""ArrowUp,ArrowLeft"":26,""ArrowUp,ArrowRight"":10,""ArrowDown,ArrowLeft"":5,""ArrowDown,ArrowRight"":17}","true","spaceBar","true","revaluation","1","48","","",""
"html-keyboard-response","168","1052270","0.0-4.0-2.0-1.24","spark_pilot_norest","8732","4","23","Female","","","","","","","null","<div style=""font-size:60px;"">+</div>","null","fixation","","","","","","","","","49","","",""
"revaluation","169","1056286","0.0-4.0-2.0-0.25","spark_pilot_norest","8732","4","23","Female","","false","","","","","[659.5]","./assets/img/ocean/catch/0.jpg","[""spaceBar""]","value training","ocean","0","{""ArrowUp,ArrowLeft"":26,""ArrowUp,ArrowRight"":10,""ArrowDown,ArrowLeft"":5,""ArrowDown,ArrowRight"":17}","true","spaceBar","true","revaluation","1","50","","",""
"html-keyboard-response","170","1056799","0.0-4.0-2.0-1.25","spark_pilot_norest","8732","4","23","Female","","","","","","","null","<div style=""font-size:60px;"">+</div>","null","fixation","","","","","","","","","51","","",""
"revaluation","171","1062807","0.0-4.0-2.0-0.26","spark_pilot_norest","8732","4","23","Female","","false","","","","","[802.5,330.30000001192093]","./assets/img/ocean/memory/35.jpg","[""ArrowUp"",""ArrowLeft""]","value training","ocean","26","{""ArrowUp,ArrowLeft"":26,""ArrowUp,ArrowRight"":10,""ArrowDown,ArrowLeft"":5,""ArrowDown,ArrowRight"":17}","true","ArrowUp,ArrowLeft","false","revaluation","1","52","","",""
"html-keyboard-response","172","1063310","0.0-4.0-2.0-1.26","spark_pilot_norest","8732","4","23","Female","","","","","","","null","<div style=""font-size:60px;"">+</div>","null","fixation","","","","","","","","","53","","",""
"revaluation","173","1069319","0.0-4.0-2.0-0.27","spark_pilot_norest","8732","4","23","Female","","false","","","","","[681.4000000059605,361.5]","./assets/img/ocean/memory/7.jpg","[""ArrowUp"",""ArrowLeft""]","value training","ocean","26","{""ArrowUp,ArrowLeft"":26,""ArrowUp,ArrowRight"":10,""ArrowDown,ArrowLeft"":5,""ArrowDown,ArrowRight"":17}","true","ArrowUp,ArrowLeft","false","revaluation","1","54","","",""
"html-keyboard-response","174","1069822","0.0-4.0-2.0-1.27","spark_pilot_norest","8732","4","23","Female","","","","","","","null","<div style=""font-size:60px;"">+</div>","null","fixation","","","","","","","","","55","","",""
"revaluation","175","1075833","0.0-4.0-2.0-0.28","spark_pilot_norest","8732","4","23","Female","","false","","","","","[553.4000000059605,360.5]","./assets/img/ocean/memory/39.jpg","[""ArrowUp"",""ArrowLeft""]","value training","ocean","26","{""ArrowUp,ArrowLeft"":26,""ArrowUp,ArrowRight"":10,""ArrowDown,ArrowLeft"":5,""ArrowDown,ArrowRight"":17}","true","ArrowUp,ArrowLeft","false","revaluation","1","56","","",""
"html-keyboard-response","176","1076334","0.0-4.0-2.0-1.28","spark_pilot_norest","8732","4","23","Female","","","","","","","null","<div style=""font-size:60px;"">+</div>","null","fixation","","","","","","","","","57","","",""
"revaluation","177","1082345","0.0-4.0-2.0-0.29","spark_pilot_norest","8732","4","23","Female","","false","","","","","[513.2000000178814,264.59999999403954]","./assets/img/ocean/memory/12.jpg","[""ArrowUp"",""ArrowLeft""]","value training","ocean","26","{""ArrowUp,ArrowLeft"":26,""ArrowUp,ArrowRight"":10,""ArrowDown,ArrowLeft"":5,""ArrowDown,ArrowRight"":17}","true","ArrowUp,ArrowLeft","false","revaluation","1","58","","",""
"html-keyboard-response","178","1082847","0.0-4.0-2.0-1.29","spark_pilot_norest","8732","4","23","Female","","","","","","","null","<div style=""font-size:60px;"">+</div>","null","fixation","","","","","","","","","59","","",""
"revaluation","179","1088858","0.0-4.0-2.0-0.30","spark_pilot_norest","8732","4","23","Female","","false","","","","","[576,389.59999999403954]","./assets/img/ocean/memory/40.jpg","[""ArrowUp"",""ArrowLeft""]","value training","ocean","26","{""ArrowUp,ArrowLeft"":26,""ArrowUp,ArrowRight"":10,""ArrowDown,ArrowLeft"":5,""ArrowDown,ArrowRight"":17}","true","ArrowUp,ArrowLeft","false","revaluation","1","60","","",""
"html-keyboard-response","180","1089361","0.0-4.0-2.0-1.30","spark_pilot_norest","8732","4","23","Female","","","","","","","null","<div style=""font-size:60px;"">+</div>","null","fixation","","","","","","","","","61","","",""
"revaluation","181","1095371","0.0-4.0-2.0-0.31","spark_pilot_norest","8732","4","23","Female","","false","","","","","[407.90000000596046,380.89999997615814]","./assets/img/ocean/memory/29.jpg","[""ArrowUp"",""ArrowLeft""]","value training","ocean","26","{""ArrowUp,ArrowLeft"":26,""ArrowUp,ArrowRight"":10,""ArrowDown,ArrowLeft"":5,""ArrowDown,ArrowRight"":17}","true","ArrowUp,ArrowLeft","false","revaluation","1","62","","",""
"html-keyboard-response","182","1095874","0.0-4.0-2.0-1.31","spark_pilot_norest","8732","4","23","Female","","","","","","","null","<div style=""font-size:60px;"">+</div>","null","fixation","","","","","","","","","63","","",""
"revaluation","183","1101893","0.0-4.0-2.0-0.32","spark_pilot_norest","8732","4","23","Female","","false","","","","","[529.1999999880791,483.09999999403954]","./assets/img/ocean/memory/12.jpg","[""ArrowUp"",""ArrowLeft""]","value training","ocean","26","{""ArrowUp,ArrowLeft"":26,""ArrowUp,ArrowRight"":10,""ArrowDown,ArrowLeft"":5,""ArrowDown,ArrowRight"":17}","true","ArrowUp,ArrowLeft","false","revaluation","1","64","","",""
"html-keyboard-response","184","1102396","0.0-4.0-2.0-1.32","spark_pilot_norest","8732","4","23","Female","","","","","","","null","<div style=""font-size:60px;"">+</div>","null","fixation","","","","","","","","","65","","",""
"revaluation","185","1108403","0.0-4.0-2.0-0.33","spark_pilot_norest","8732","4","23","Female","","false","","","","","[403.2999999821186,571.1000000238419]","./assets/img/ocean/memory/17.jpg","[""ArrowUp"",""ArrowLeft""]","value training","ocean","26","{""ArrowUp,ArrowLeft"":26,""ArrowUp,ArrowRight"":10,""ArrowDown,ArrowLeft"":5,""ArrowDown,ArrowRight"":17}","true","ArrowUp,ArrowLeft","false","revaluation","1","66","","",""
"html-keyboard-response","186","1108905","0.0-4.0-2.0-1.33","spark_pilot_norest","8732","4","23","Female","","","","","","","null","<div style=""font-size:60px;"">+</div>","null","fixation","","","","","","","","","67","","",""
"revaluation","187","1114911","0.0-4.0-2.0-0.34","spark_pilot_norest","8732","4","23","Female","","false","","","","","[363.59999999403954,384.19999998807907]","./assets/img/ocean/memory/23.jpg","[""ArrowUp"",""ArrowLeft""]","value training","ocean","26","{""ArrowUp,ArrowLeft"":26,""ArrowUp,ArrowRight"":10,""ArrowDown,ArrowLeft"":5,""ArrowDown,ArrowRight"":17}","true","ArrowUp,ArrowLeft","false","revaluation","1","68","","",""
"html-keyboard-response","188","1115413","0.0-4.0-2.0-1.34","spark_pilot_norest","8732","4","23","Female","","","","","","","null","<div style=""font-size:60px;"">+</div>","null","fixation","","","","","","","","","69","","",""
"revaluation","189","1121420","0.0-4.0-2.0-0.35","spark_pilot_norest","8732","4","23","Female","","false","","","","","[342.7999999821186,420.09999999403954]","./assets/img/ocean/memory/31.jpg","[""ArrowUp"",""ArrowLeft""]","value training","ocean","26","{""ArrowUp,ArrowLeft"":26,""ArrowUp,ArrowRight"":10,""ArrowDown,ArrowLeft"":5,""ArrowDown,ArrowRight"":17}","true","ArrowUp,ArrowLeft","false","revaluation","1","70","","",""
"html-keyboard-response","190","1121921","0.0-4.0-2.0-1.35","spark_pilot_norest","8732","4","23","Female","","","","","","","null","<div style=""font-size:60px;"">+</div>","null","fixation","","","","","","","","","71","","",""
"revaluation","191","1127930","0.0-4.0-2.0-0.36","spark_pilot_norest","8732","4","23","Female","","false","","","","","[541.6000000238419,397.59999999403954]","./assets/img/ocean/memory/31.jpg","[""ArrowUp"",""ArrowLeft""]","value training","ocean","26","{""ArrowUp,ArrowLeft"":26,""ArrowUp,ArrowRight"":10,""ArrowDown,ArrowLeft"":5,""ArrowDown,ArrowRight"":17}","true","ArrowUp,ArrowLeft","false","revaluation","1","72","","",""
"html-keyboard-response","192","1128433","0.0-4.0-2.0-1.36","spark_pilot_norest","8732","4","23","Female","","","","","","","null","<div style=""font-size:60px;"">+</div>","null","fixation","","","","","","","","","73","","",""
"revaluation","193","1134440","0.0-4.0-2.0-0.37","spark_pilot_norest","8732","4","23","Female","","false","","","","","[738,319.80000001192093]","./assets/img/ocean/memory/13.jpg","[""ArrowUp"",""ArrowLeft""]","value training","ocean","26","{""ArrowUp,ArrowLeft"":26,""ArrowUp,ArrowRight"":10,""ArrowDown,ArrowLeft"":5,""ArrowDown,ArrowRight"":17}","true","ArrowUp,ArrowLeft","false","revaluation","1","74","","",""
"html-keyboard-response","194","1134943","0.0-4.0-2.0-1.37","spark_pilot_norest","8732","4","23","Female","","","","","","","null","<div style=""font-size:60px;"">+</div>","null","fixation","","","","","","","","","75","","",""
"revaluation","195","1138953","0.0-4.0-2.0-0.38","spark_pilot_norest","8732","4","23","Female","","false","","","","","[785.1999999880791]","./assets/img/ocean/catch/1.jpg","[""spaceBar""]","value training","ocean","0","{""ArrowUp,ArrowLeft"":26,""ArrowUp,ArrowRight"":10,""ArrowDown,ArrowLeft"":5,""ArrowDown,ArrowRight"":17}","true","spaceBar","true","revaluation","1","76","","",""
"html-keyboard-response","196","1139458","0.0-4.0-2.0-1.38","spark_pilot_norest","8732","4","23","Female","","","","","","","null","<div style=""font-size:60px;"">+</div>","null","fixation","","","","","","","","","77","","",""
"revaluation","197","1145476","0.0-4.0-2.0-0.39","spark_pilot_norest","8732","4","23","Female","","false","","","","","[692.4000000059605,314.89999997615814]","./assets/img/ocean/memory/22.jpg","[""ArrowUp"",""ArrowLeft""]","value training","ocean","26","{""ArrowUp,ArrowLeft"":26,""ArrowUp,ArrowRight"":10,""ArrowDown,ArrowLeft"":5,""ArrowDown,ArrowRight"":17}","true","ArrowUp,ArrowLeft","false","revaluation","1","78","","",""
"html-keyboard-response","198","1145979","0.0-4.0-2.0-1.39","spark_pilot_norest","8732","4","23","Female","","","","","","","null","<div style=""font-size:60px;"">+</div>","null","fixation","","","","","","","","","79","","",""
"revaluation","199","1151995","0.0-4.0-2.0-0.40","spark_pilot_norest","8732","4","23","Female","","false","","","","","[742,228.5]","./assets/img/ocean/memory/35.jpg","[""ArrowUp"",""ArrowLeft""]","value training","ocean","26","{""ArrowUp,ArrowLeft"":26,""ArrowUp,ArrowRight"":10,""ArrowDown,ArrowLeft"":5,""ArrowDown,ArrowRight"":17}","true","ArrowUp,ArrowLeft","false","revaluation","1","80","","",""
"html-keyboard-response","200","1152499","0.0-4.0-2.0-1.40","spark_pilot_norest","8732","4","23","Female","","","","","","","null","<div style=""font-size:60px;"">+</div>","null","fixation","","","","","","","","","81","","",""
"revaluation","201","1158506","0.0-4.0-2.0-0.41","spark_pilot_norest","8732","4","23","Female","","false","","","","","[487.69999998807907,358.09999999403954]","./assets/img/ocean/memory/1.jpg","[""ArrowUp"",""ArrowLeft""]","value training","ocean","26","{""ArrowUp,ArrowLeft"":26,""ArrowUp,ArrowRight"":10,""ArrowDown,ArrowLeft"":5,""ArrowDown,ArrowRight"":17}","true","ArrowUp,ArrowLeft","false","revaluation","1","82","","",""
"html-keyboard-response","202","1159009","0.0-4.0-2.0-1.41","spark_pilot_norest","8732","4","23","Female","","","","","","","null","<div style=""font-size:60px;"">+</div>","null","fixation","","","","","","","","","83","","",""
"revaluation","203","1165016","0.0-4.0-2.0-0.42","spark_pilot_norest","8732","4","23","Female","","false","","","","","[563.2000000178814,288.40000000596046]","./assets/img/ocean/memory/17.jpg","[""ArrowUp"",""ArrowLeft""]","value training","ocean","26","{""ArrowUp,ArrowLeft"":26,""ArrowUp,ArrowRight"":10,""ArrowDown,ArrowLeft"":5,""ArrowDown,ArrowRight"":17}","true","ArrowUp,ArrowLeft","false","revaluation","1","84","","",""
"html-keyboard-response","204","1165519","0.0-4.0-2.0-1.42","spark_pilot_norest","8732","4","23","Female","","","","","","","null","<div style=""font-size:60px;"">+</div>","null","fixation","","","","","","","","","85","","",""
"revaluation","205","1171529","0.0-4.0-2.0-0.43","spark_pilot_norest","8732","4","23","Female","","false","","","","","[552.6999999880791,224.30000001192093]","./assets/img/ocean/memory/7.jpg","[""ArrowUp"",""ArrowLeft""]","value training","ocean","26","{""ArrowUp,ArrowLeft"":26,""ArrowUp,ArrowRight"":10,""ArrowDown,ArrowLeft"":5,""ArrowDown,ArrowRight"":17}","true","ArrowUp,ArrowLeft","false","revaluation","1","86","","",""
"html-keyboard-response","206","1172031","0.0-4.0-2.0-1.43","spark_pilot_norest","8732","4","23","Female","","","","","","","null","<div style=""font-size:60px;"">+</div>","null","fixation","","","","","","","","","87","","",""
"revaluation","207","1178045","0.0-4.0-2.0-0.44","spark_pilot_norest","8732","4","23","Female","","false","","","","","[678.4000000059605,252.2000000178814]","./assets/img/ocean/memory/27.jpg","[""ArrowUp"",""ArrowLeft""]","value training","ocean","26","{""ArrowUp,ArrowLeft"":26,""ArrowUp,ArrowRight"":10,""ArrowDown,ArrowLeft"":5,""ArrowDown,ArrowRight"":17}","true","ArrowUp,ArrowLeft","false","revaluation","1","88","","",""
"html-keyboard-response","208","1178549","0.0-4.0-2.0-1.44","spark_pilot_norest","8732","4","23","Female","","","","","","","null","<div style=""font-size:60px;"">+</div>","null","fixation","","","","","","","","","89","","",""
"revaluation","209","1184558","0.0-4.0-2.0-0.45","spark_pilot_norest","8732","4","23","Female","","false","","","","","[800.8000000119209,337.60000002384186]","./assets/img/ocean/memory/41.jpg","[""ArrowUp"",""ArrowLeft""]","value training","ocean","26","{""ArrowUp,ArrowLeft"":26,""ArrowUp,ArrowRight"":10,""ArrowDown,ArrowLeft"":5,""ArrowDown,ArrowRight"":17}","true","ArrowUp,ArrowLeft","false","revaluation","1","90","","",""
"html-keyboard-response","210","1185059","0.0-4.0-2.0-1.45","spark_pilot_norest","8732","4","23","Female","","","","","","","null","<div style=""font-size:60px;"">+</div>","null","fixation","","","","","","","","","91","","",""
"revaluation","211","1191070","0.0-4.0-2.0-0.46","spark_pilot_norest","8732","4","23","Female","","false","","","","","[524.8000000119209,321.59999999403954]","./assets/img/ocean/memory/34.jpg","[""ArrowUp"",""ArrowLeft""]","value training","ocean","26","{""ArrowUp,ArrowLeft"":26,""ArrowUp,ArrowRight"":10,""ArrowDown,ArrowLeft"":5,""ArrowDown,ArrowRight"":17}","true","ArrowUp,ArrowLeft","false","revaluation","1","92","","",""
"html-keyboard-response","212","1191572","0.0-4.0-2.0-1.46","spark_pilot_norest","8732","4","23","Female","","","","","","","null","<div style=""font-size:60px;"">+</div>","null","fixation","","","","","","","","","93","","",""
"revaluation","213","1195577","0.0-4.0-2.0-0.47","spark_pilot_norest","8732","4","23","Female","","false","","","","","[797.5]","./assets/img/ocean/catch/4.jpg","[""spaceBar""]","value training","ocean","0","{""ArrowUp,ArrowLeft"":26,""ArrowUp,ArrowRight"":10,""ArrowDown,ArrowLeft"":5,""ArrowDown,ArrowRight"":17}","true","spaceBar","true","revaluation","1","94","","",""
"html-keyboard-response","214","1196080","0.0-4.0-2.0-1.47","spark_pilot_norest","8732","4","23","Female","","","","","","","null","<div style=""font-size:60px;"">+</div>","null","fixation","","","","","","","","","95","","",""
"revaluation","215","1202092","0.0-4.0-2.0-0.48","spark_pilot_norest","8732","4","23","Female","","false","","","","","[806.7999999821186,349.2999999821186]","./assets/img/ocean/memory/20.jpg","[""ArrowUp"",""ArrowLeft""]","value training","ocean","26","{""ArrowUp,ArrowLeft"":26,""ArrowUp,ArrowRight"":10,""ArrowDown,ArrowLeft"":5,""ArrowDown,ArrowRight"":17}","true","ArrowUp,ArrowLeft","false","revaluation","1","96","","",""
"html-keyboard-response","216","1202594","0.0-4.0-2.0-1.48","spark_pilot_norest","8732","4","23","Female","","","","","","","null","<div style=""font-size:60px;"">+</div>","null","fixation","","","","","","","","","97","","",""
"revaluation","217","1208603","0.0-4.0-2.0-0.49","spark_pilot_norest","8732","4","23","Female","","false","","","","","[821.6999999880791,259.40000000596046]","./assets/img/ocean/memory/10.jpg","[""ArrowUp"",""ArrowLeft""]","value training","ocean","26","{""ArrowUp,ArrowLeft"":26,""ArrowUp,ArrowRight"":10,""ArrowDown,ArrowLeft"":5,""ArrowDown,ArrowRight"":17}","true","ArrowUp,ArrowLeft","false","revaluation","1","98","","",""
"html-keyboard-response","218","1209107","0.0-4.0-2.0-1.49","spark_pilot_norest","8732","4","23","Female","","","","","","","null","<div style=""font-size:60px;"">+</div>","null","fixation","","","","","","","","","99","","",""
"learning-instructions","219","1232298","0.0-4.0-3.0-0.0","spark_pilot_norest","8732","4","23","Female","","","","","","","10260.5","<p> Now, you will travel with a friend who will choose whether you go up or down first. </p>
            <p> On these turns, you will just see the animal that they found. You will still get to choose which chest to search for treasure.</p>","","instructions","","","","","","","","","","","",""
"revaluation","220","1236317","0.0-4.0-4.0-0.0","spark_pilot_norest","8732","4","23","Female","","false","","","","","[850.2000000178814]","./assets/img/ocean/animals/seahorse.jpg","[""ArrowLeft""]","revaluation","ocean","2","{""ArrowUp,ArrowLeft"":2,""ArrowUp,ArrowRight"":11,""ArrowDown,ArrowLeft"":8,""ArrowDown,ArrowRight"":27}","false","ArrowUp,ArrowLeft","","revaluation","1","0","","",""
"html-keyboard-response","221","1236832","0.0-4.0-4.0-1.0","spark_pilot_norest","8732","4","23","Female","","","","","","","null","<div style=""font-size:60px;"">+</div>","null","fixation","","","","","","","","","1","","",""
"revaluation","222","1240848","0.0-4.0-4.0-0.1","spark_pilot_norest","8732","4","23","Female","","false","","","","","[643.0999999940395]","./assets/img/ocean/animals/seahorse.jpg","[""ArrowRight""]","revaluation","ocean","11","{""ArrowUp,ArrowLeft"":2,""ArrowUp,ArrowRight"":11,""ArrowDown,ArrowLeft"":8,""ArrowDown,ArrowRight"":27}","true","ArrowUp,ArrowRight","","revaluation","1","2","","",""
"html-keyboard-response","223","1241361","0.0-4.0-4.0-1.1","spark_pilot_norest","8732","4","23","Female","","","","","","","null","<div style=""font-size:60px;"">+</div>","null","fixation","","","","","","","","","3","","",""
"revaluation","224","1245394","0.0-4.0-4.0-0.2","spark_pilot_norest","8732","4","23","Female","","false","","","","","[469.90000000596046]","./assets/img/ocean/animals/seahorse.jpg","[""ArrowRight""]","revaluation","ocean","11","{""ArrowUp,ArrowLeft"":2,""ArrowUp,ArrowRight"":11,""ArrowDown,ArrowLeft"":8,""ArrowDown,ArrowRight"":27}","true","ArrowUp,ArrowRight","","revaluation","1","4","","",""
"html-keyboard-response","225","1245909","0.0-4.0-4.0-1.2","spark_pilot_norest","8732","4","23","Female","","","","","","","null","<div style=""font-size:60px;"">+</div>","null","fixation","","","","","","","","","5","","",""
"revaluation","226","1249939","0.0-4.0-4.0-0.3","spark_pilot_norest","8732","4","23","Female","","false","","","","","[608.2999999821186]","./assets/img/ocean/animals/octopus.jpg","[""ArrowRight""]","revaluation","ocean","27","{""ArrowUp,ArrowLeft"":2,""ArrowUp,ArrowRight"":11,""ArrowDown,ArrowLeft"":8,""ArrowDown,ArrowRight"":27}","true","ArrowDown,ArrowRight","","revaluation","1","6","","",""
"html-keyboard-response","227","1250453","0.0-4.0-4.0-1.3","spark_pilot_norest","8732","4","23","Female","","","","","","","null","<div style=""font-size:60px;"">+</div>","null","fixation","","","","","","","","","7","","",""
"revaluation","228","1254459","0.0-4.0-4.0-0.4","spark_pilot_norest","8732","4","23","Female","","false","","","","","[758.2000000178814]","./assets/img/ocean/animals/seahorse.jpg","[""ArrowRight""]","revaluation","ocean","11","{""ArrowUp,ArrowLeft"":2,""ArrowUp,ArrowRight"":11,""ArrowDown,ArrowLeft"":8,""ArrowDown,ArrowRight"":27}","true","ArrowUp,ArrowRight","","revaluation","1","8","","",""
"html-keyboard-response","229","1254960","0.0-4.0-4.0-1.4","spark_pilot_norest","8732","4","23","Female","","","","","","","null","<div style=""font-size:60px;"">+</div>","null","fixation","","","","","","","","","9","","",""
"revaluation","230","1258968","0.0-4.0-4.0-0.5","spark_pilot_norest","8732","4","23","Female","","false","","","","","[623.2000000178814]","./assets/img/ocean/animals/seahorse.jpg","[""ArrowRight""]","revaluation","ocean","11","{""ArrowUp,ArrowLeft"":2,""ArrowUp,ArrowRight"":11,""ArrowDown,ArrowLeft"":8,""ArrowDown,ArrowRight"":27}","true","ArrowUp,ArrowRight","","revaluation","1","10","","",""
"html-keyboard-response","231","1259471","0.0-4.0-4.0-1.5","spark_pilot_norest","8732","4","23","Female","","","","","","","null","<div style=""font-size:60px;"">+</div>","null","fixation","","","","","","","","","11","","",""
"revaluation","232","1263479","0.0-4.0-4.0-0.6","spark_pilot_norest","8732","4","23","Female","","false","","","","","[584.2000000178814]","./assets/img/ocean/animals/octopus.jpg","[""ArrowLeft""]","revaluation","ocean","8","{""ArrowUp,ArrowLeft"":2,""ArrowUp,ArrowRight"":11,""ArrowDown,ArrowLeft"":8,""ArrowDown,ArrowRight"":27}","false","ArrowDown,ArrowLeft","","revaluation","1","12","","",""
"html-keyboard-response","233","1263981","0.0-4.0-4.0-1.6","spark_pilot_norest","8732","4","23","Female","","","","","","","null","<div style=""font-size:60px;"">+</div>","null","fixation","","","","","","","","","13","","",""
"revaluation","234","1267991","0.0-4.0-4.0-0.7","spark_pilot_norest","8732","4","23","Female","","false","","","","","[511.40000000596046]","./assets/img/ocean/animals/octopus.jpg","[""ArrowRight""]","revaluation","ocean","27","{""ArrowUp,ArrowLeft"":2,""ArrowUp,ArrowRight"":11,""ArrowDown,ArrowLeft"":8,""ArrowDown,ArrowRight"":27}","true","ArrowDown,ArrowRight","","revaluation","1","14","","",""
"html-keyboard-response","235","1268493","0.0-4.0-4.0-1.7","spark_pilot_norest","8732","4","23","Female","","","","","","","null","<div style=""font-size:60px;"">+</div>","null","fixation","","","","","","","","","15","","",""
"revaluation","236","1272505","0.0-4.0-4.0-0.8","spark_pilot_norest","8732","4","23","Female","","false","","","","","[342.5]","./assets/img/ocean/animals/seahorse.jpg","[""ArrowRight""]","revaluation","ocean","11","{""ArrowUp,ArrowLeft"":2,""ArrowUp,ArrowRight"":11,""ArrowDown,ArrowLeft"":8,""ArrowDown,ArrowRight"":27}","true","ArrowUp,ArrowRight","","revaluation","1","16","","",""
"html-keyboard-response","237","1273009","0.0-4.0-4.0-1.8","spark_pilot_norest","8732","4","23","Female","","","","","","","null","<div style=""font-size:60px;"">+</div>","null","fixation","","","","","","","","","17","","",""
"revaluation","238","1277014","0.0-4.0-4.0-0.9","spark_pilot_norest","8732","4","23","Female","","false","","","","","[628.3000000119209]","./assets/img/ocean/animals/octopus.jpg","[""ArrowRight""]","revaluation","ocean","27","{""ArrowUp,ArrowLeft"":2,""ArrowUp,ArrowRight"":11,""ArrowDown,ArrowLeft"":8,""ArrowDown,ArrowRight"":27}","true","ArrowDown,ArrowRight","","revaluation","1","18","","",""
"html-keyboard-response","239","1277517","0.0-4.0-4.0-1.9","spark_pilot_norest","8732","4","23","Female","","","","","","","null","<div style=""font-size:60px;"">+</div>","null","fixation","","","","","","","","","19","","",""
"revaluation","240","1281522","0.0-4.0-4.0-0.10","spark_pilot_norest","8732","4","23","Female","","false","","","","","[469.30000001192093]","./assets/img/ocean/animals/seahorse.jpg","[""ArrowLeft""]","revaluation","ocean","2","{""ArrowUp,ArrowLeft"":2,""ArrowUp,ArrowRight"":11,""ArrowDown,ArrowLeft"":8,""ArrowDown,ArrowRight"":27}","false","ArrowUp,ArrowLeft","","revaluation","1","20","","",""
"html-keyboard-response","241","1282025","0.0-4.0-4.0-1.10","spark_pilot_norest","8732","4","23","Female","","","","","","","null","<div style=""font-size:60px;"">+</div>","null","fixation","","","","","","","","","21","","",""
"revaluation","242","1286032","0.0-4.0-4.0-0.11","spark_pilot_norest","8732","4","23","Female","","false","","","","","[381.09999999403954]","./assets/img/ocean/animals/seahorse.jpg","[""ArrowRight""]","revaluation","ocean","11","{""ArrowUp,ArrowLeft"":2,""ArrowUp,ArrowRight"":11,""ArrowDown,ArrowLeft"":8,""ArrowDown,ArrowRight"":27}","true","ArrowUp,ArrowRight","","revaluation","1","22","","",""
"html-keyboard-response","243","1286534","0.0-4.0-4.0-1.11","spark_pilot_norest","8732","4","23","Female","","","","","","","null","<div style=""font-size:60px;"">+</div>","null","fixation","","","","","","","","","23","","",""
"revaluation","244","1290552","0.0-4.0-4.0-0.12","spark_pilot_norest","8732","4","23","Female","","false","","","","","[247.09999999403954]","./assets/img/ocean/animals/octopus.jpg","[""ArrowRight""]","revaluation","ocean","27","{""ArrowUp,ArrowLeft"":2,""ArrowUp,ArrowRight"":11,""ArrowDown,ArrowLeft"":8,""ArrowDown,ArrowRight"":27}","true","ArrowDown,ArrowRight","","revaluation","1","24","","",""
"html-keyboard-response","245","1291055","0.0-4.0-4.0-1.12","spark_pilot_norest","8732","4","23","Female","","","","","","","null","<div style=""font-size:60px;"">+</div>","null","fixation","","","","","","","","","25","","",""
"revaluation","246","1295067","0.0-4.0-4.0-0.13","spark_pilot_norest","8732","4","23","Female","","false","","","","","[288.2999999821186]","./assets/img/ocean/animals/octopus.jpg","[""ArrowRight""]","revaluation","ocean","27","{""ArrowUp,ArrowLeft"":2,""ArrowUp,ArrowRight"":11,""ArrowDown,ArrowLeft"":8,""ArrowDown,ArrowRight"":27}","true","ArrowDown,ArrowRight","","revaluation","1","26","","",""
"html-keyboard-response","247","1295570","0.0-4.0-4.0-1.13","spark_pilot_norest","8732","4","23","Female","","","","","","","null","<div style=""font-size:60px;"">+</div>","null","fixation","","","","","","","","","27","","",""
"revaluation","248","1299578","0.0-4.0-4.0-0.14","spark_pilot_norest","8732","4","23","Female","","false","","","","","[318.19999998807907]","./assets/img/ocean/animals/octopus.jpg","[""ArrowRight""]","revaluation","ocean","27","{""ArrowUp,ArrowLeft"":2,""ArrowUp,ArrowRight"":11,""ArrowDown,ArrowLeft"":8,""ArrowDown,ArrowRight"":27}","true","ArrowDown,ArrowRight","","revaluation","1","28","","",""
"html-keyboard-response","249","1300081","0.0-4.0-4.0-1.14","spark_pilot_norest","8732","4","23","Female","","","","","","","null","<div style=""font-size:60px;"">+</div>","null","fixation","","","","","","","","","29","","",""
"revaluation","250","1304091","0.0-4.0-4.0-0.15","spark_pilot_norest","8732","4","23","Female","","false","","","","","[462]","./assets/img/ocean/animals/octopus.jpg","[""ArrowRight""]","revaluation","ocean","27","{""ArrowUp,ArrowLeft"":2,""ArrowUp,ArrowRight"":11,""ArrowDown,ArrowLeft"":8,""ArrowDown,ArrowRight"":27}","true","ArrowDown,ArrowRight","","revaluation","1","30","","",""
"html-keyboard-response","251","1304593","0.0-4.0-4.0-1.15","spark_pilot_norest","8732","4","23","Female","","","","","","","null","<div style=""font-size:60px;"">+</div>","null","fixation","","","","","","","","","31","","",""
"revaluation","252","1308600","0.0-4.0-4.0-0.16","spark_pilot_norest","8732","4","23","Female","","false","","","","","[526.4000000059605]","./assets/img/ocean/animals/seahorse.jpg","[""ArrowRight""]","revaluation","ocean","11","{""ArrowUp,ArrowLeft"":2,""ArrowUp,ArrowRight"":11,""ArrowDown,ArrowLeft"":8,""ArrowDown,ArrowRight"":27}","true","ArrowUp,ArrowRight","","revaluation","1","32","","",""
"html-keyboard-response","253","1309103","0.0-4.0-4.0-1.16","spark_pilot_norest","8732","4","23","Female","","","","","","","null","<div style=""font-size:60px;"">+</div>","null","fixation","","","","","","","","","33","","",""
"revaluation","254","1313112","0.0-4.0-4.0-0.17","spark_pilot_norest","8732","4","23","Female","","false","","","","","[326.89999997615814]","./assets/img/ocean/animals/octopus.jpg","[""ArrowRight""]","revaluation","ocean","27","{""ArrowUp,ArrowLeft"":2,""ArrowUp,ArrowRight"":11,""ArrowDown,ArrowLeft"":8,""ArrowDown,ArrowRight"":27}","true","ArrowDown,ArrowRight","","revaluation","1","34","","",""
"html-keyboard-response","255","1313614","0.0-4.0-4.0-1.17","spark_pilot_norest","8732","4","23","Female","","","","","","","null","<div style=""font-size:60px;"">+</div>","null","fixation","","","","","","","","","35","","",""
"learning-instructions","256","1321772","0.0-4.0-5.0-0.0","spark_pilot_norest","8732","4","23","Female","","","","","","","null","<p> You have almost finished this part of the game! </p>
            <p> We are going to ask you to make a few more choices. </p>","","instructions","","","","","","","","","","","",""
"learning-instructions","257","1337760","0.0-4.0-5.0-0.1","spark_pilot_norest","8732","4","23","Female","","","","","","","null","<p> First, you need to decide whether to go up or down. When you see each picture, use the arrow keys to make your choice. </p>
            <p><b>You will not see which animal you found, but try to get to the one that will give you the most treasure.</b></p>","","instructions","","","","","","","","","","","",""
"html-keyboard-response","258","1338773","0.0-4.0-6.0-0.0","spark_pilot_norest","8732","4","23","Female","","","","","","","null","<div style=""font-size:100px;color:red;"">Starting in...</div>","null","","","","","","","","","","","","",""
"html-keyboard-response","259","1339783","0.0-4.0-6.0-1.0","spark_pilot_norest","8732","4","23","Female","","","","","","","null","<div style=""font-size:200px;color:red;"">3</div>","null","","","","","","","","","","","","",""
"html-keyboard-response","260","1340794","0.0-4.0-6.0-2.0","spark_pilot_norest","8732","4","23","Female","","","","","","","null","<div style=""font-size:200px;color:red;"">2</div>","null","","","","","","","","","","","","",""
"html-keyboard-response","261","1341804","0.0-4.0-6.0-3.0","spark_pilot_norest","8732","4","23","Female","","","","","","","null","<div style=""font-size:200px;color:red;"">1</div>","null","","","","","","","","","","","","",""
"revaluation","262","1342617","0.0-4.0-7.0-0.0","spark_pilot_norest","8732","4","23","Female","","false","","","","","[804.4000000059605]","./assets/img/ocean/test/0.jpg","[""ArrowUp""]","first stage test","ocean","0","{""ArrowUp,ArrowLeft"":2,""ArrowUp,ArrowRight"":11,""ArrowDown,ArrowLeft"":8,""ArrowDown,ArrowRight"":27}","false","ArrowUp","false","revaluation","1","","","",""
"html-keyboard-response","263","1343132","0.0-4.0-7.0-1.0","spark_pilot_norest","8732","4","23","Female","","","","","","","null","<div style=""font-size:60px;"">+</div>","null","fixation","","","","","","","","","","","",""
"revaluation","264","1344060","0.0-4.0-7.0-0.1","spark_pilot_norest","8732","4","23","Female","","false","","","","","[925.3999999761581]","./assets/img/ocean/test/1.jpg","[""ArrowUp""]","first stage test","ocean","0","{""ArrowUp,ArrowLeft"":2,""ArrowUp,ArrowRight"":11,""ArrowDown,ArrowLeft"":8,""ArrowDown,ArrowRight"":27}","false","ArrowUp","false","revaluation","1","","","",""
"html-keyboard-response","265","1344562","0.0-4.0-7.0-1.1","spark_pilot_norest","8732","4","23","Female","","","","","","","null","<div style=""font-size:60px;"">+</div>","null","fixation","","","","","","","","","","","",""
"revaluation","266","1346168","0.0-4.0-7.0-0.2","spark_pilot_norest","8732","4","23","Female","","false","","","","","[1597.7999999821186]","./assets/img/ocean/test/2.jpg","[""ArrowUp""]","first stage test","ocean","0","{""ArrowUp,ArrowLeft"":2,""ArrowUp,ArrowRight"":11,""ArrowDown,ArrowLeft"":8,""ArrowDown,ArrowRight"":27}","false","ArrowUp","false","revaluation","1","","","",""
"html-keyboard-response","267","1346675","0.0-4.0-7.0-1.2","spark_pilot_norest","8732","4","23","Female","","","","","","","null","<div style=""font-size:60px;"">+</div>","null","fixation","","","","","","","","","","","",""
"revaluation","268","1347508","0.0-4.0-7.0-0.3","spark_pilot_norest","8732","4","23","Female","","false","","","","","[830.2999999821186]","./assets/img/ocean/test/3.jpg","[""ArrowUp""]","first stage test","ocean","0","{""ArrowUp,ArrowLeft"":2,""ArrowUp,ArrowRight"":11,""ArrowDown,ArrowLeft"":8,""ArrowDown,ArrowRight"":27}","false","ArrowUp","false","revaluation","1","","","",""
"html-keyboard-response","269","1348021","0.0-4.0-7.0-1.3","spark_pilot_norest","8732","4","23","Female","","","","","","","null","<div style=""font-size:60px;"">+</div>","null","fixation","","","","","","","","","","","",""
"learning-instructions","270","1361357","0.0-4.0-8.0-0.0","spark_pilot_norest","8732","4","23","Female","","","","","","","null","<p> Now you will see the animals again and can search their chests for treasure. </p>
            <p> This time, you will not see how much treasure you earned, but you will earn more bonus money for making better choices. </p>","","instructions","","","","","","","","","","","",""
"html-keyboard-response","271","1362370","0.0-4.0-9.0-0.0","spark_pilot_norest","8732","4","23","Female","","","","","","","null","<div style=""font-size:100px;color:red;"">Starting in...</div>","null","","","","","","","","","","","","",""
"html-keyboard-response","272","1363377","0.0-4.0-9.0-1.0","spark_pilot_norest","8732","4","23","Female","","","","","","","null","<div style=""font-size:200px;color:red;"">3</div>","null","","","","","","","","","","","","",""
"html-keyboard-response","273","1364388","0.0-4.0-9.0-2.0","spark_pilot_norest","8732","4","23","Female","","","","","","","null","<div style=""font-size:200px;color:red;"">2</div>","null","","","","","","","","","","","","",""
"html-keyboard-response","274","1365396","0.0-4.0-9.0-3.0","spark_pilot_norest","8732","4","23","Female","","","","","","","null","<div style=""font-size:200px;color:red;"">1</div>","null","","","","","","","","","","","","",""
"revaluation","275","1365998","0.0-4.0-10.0-0.0","spark_pilot_norest","8732","4","23","Female","","false","","","","","[582.6999999880791]","./assets/img/ocean/animals/seahorse.jpg","[""ArrowRight""]","second stage test","ocean","0","{""ArrowUp,ArrowLeft"":2,""ArrowUp,ArrowRight"":11,""ArrowDown,ArrowLeft"":8,""ArrowDown,ArrowRight"":27}","true","ArrowUp,ArrowRight","","revaluation","1","","","",""
"html-keyboard-response","276","1366501","0.0-4.0-10.0-1.0","spark_pilot_norest","8732","4","23","Female","","","","","","","null","<div style=""font-size:60px;"">+</div>","null","fixation","","","","","","","","","","","",""
"revaluation","277","1367007","0.0-4.0-10.0-0.1","spark_pilot_norest","8732","4","23","Female","","false","","","","","[498.90000000596046]","./assets/img/ocean/animals/seahorse.jpg","[""ArrowRight""]","second stage test","ocean","0","{""ArrowUp,ArrowLeft"":2,""ArrowUp,ArrowRight"":11,""ArrowDown,ArrowLeft"":8,""ArrowDown,ArrowRight"":27}","true","ArrowUp,ArrowRight","","revaluation","1","","","",""
"html-keyboard-response","278","1367518","0.0-4.0-10.0-1.1","spark_pilot_norest","8732","4","23","Female","","","","","","","null","<div style=""font-size:60px;"">+</div>","null","fixation","","","","","","","","","","","",""
"revaluation","279","1368036","0.0-4.0-10.0-0.2","spark_pilot_norest","8732","4","23","Female","","false","","","","","[504.80000001192093]","./assets/img/ocean/animals/seahorse.jpg","[""ArrowRight""]","second stage test","ocean","0","{""ArrowUp,ArrowLeft"":2,""ArrowUp,ArrowRight"":11,""ArrowDown,ArrowLeft"":8,""ArrowDown,ArrowRight"":27}","true","ArrowUp,ArrowRight","","revaluation","1","","","",""
"html-keyboard-response","280","1368545","0.0-4.0-10.0-1.2","spark_pilot_norest","8732","4","23","Female","","","","","","","null","<div style=""font-size:60px;"">+</div>","null","fixation","","","","","","","","","","","",""
"revaluation","281","1368901","0.0-4.0-10.0-0.3","spark_pilot_norest","8732","4","23","Female","","false","","","","","[349.09999999403954]","./assets/img/ocean/animals/seahorse.jpg","[""ArrowRight""]","second stage test","ocean","0","{""ArrowUp,ArrowLeft"":2,""ArrowUp,ArrowRight"":11,""ArrowDown,ArrowLeft"":8,""ArrowDown,ArrowRight"":27}","true","ArrowUp,ArrowRight","","revaluation","1","","","",""
"html-keyboard-response","282","1369409","0.0-4.0-10.0-1.3","spark_pilot_norest","8732","4","23","Female","","","","","","","null","<div style=""font-size:60px;"">+</div>","null","fixation","","","","","","","","","","","",""
"revaluation","283","1370036","0.0-4.0-10.0-0.4","spark_pilot_norest","8732","4","23","Female","","false","","","","","[624.5999999940395]","./assets/img/ocean/animals/octopus.jpg","[""ArrowRight""]","second stage test","ocean","0","{""ArrowUp,ArrowLeft"":2,""ArrowUp,ArrowRight"":11,""ArrowDown,ArrowLeft"":8,""ArrowDown,ArrowRight"":27}","true","ArrowDown,ArrowRight","","revaluation","1","","","",""
"html-keyboard-response","284","1370545","0.0-4.0-10.0-1.4","spark_pilot_norest","8732","4","23","Female","","","","","","","null","<div style=""font-size:60px;"">+</div>","null","fixation","","","","","","","","","","","",""
"revaluation","285","1370885","0.0-4.0-10.0-0.5","spark_pilot_norest","8732","4","23","Female","","false","","","","","[332.89999997615814]","./assets/img/ocean/animals/octopus.jpg","[""ArrowRight""]","second stage test","ocean","0","{""ArrowUp,ArrowLeft"":2,""ArrowUp,ArrowRight"":11,""ArrowDown,ArrowLeft"":8,""ArrowDown,ArrowRight"":27}","true","ArrowDown,ArrowRight","","revaluation","1","","","",""
"html-keyboard-response","286","1371403","0.0-4.0-10.0-1.5","spark_pilot_norest","8732","4","23","Female","","","","","","","null","<div style=""font-size:60px;"">+</div>","null","fixation","","","","","","","","","","","",""
"revaluation","287","1371709","0.0-4.0-10.0-0.6","spark_pilot_norest","8732","4","23","Female","","false","","","","","[297.5]","./assets/img/ocean/animals/octopus.jpg","[""ArrowRight""]","second stage test","ocean","0","{""ArrowUp,ArrowLeft"":2,""ArrowUp,ArrowRight"":11,""ArrowDown,ArrowLeft"":8,""ArrowDown,ArrowRight"":27}","true","ArrowDown,ArrowRight","","revaluation","1","","","",""
"html-keyboard-response","288","1372227","0.0-4.0-10.0-1.6","spark_pilot_norest","8732","4","23","Female","","","","","","","null","<div style=""font-size:60px;"">+</div>","null","fixation","","","","","","","","","","","",""
"revaluation","289","1372518","0.0-4.0-10.0-0.7","spark_pilot_norest","8732","4","23","Female","","false","","","","","[285.30000001192093]","./assets/img/ocean/animals/octopus.jpg","[""ArrowRight""]","second stage test","ocean","0","{""ArrowUp,ArrowLeft"":2,""ArrowUp,ArrowRight"":11,""ArrowDown,ArrowLeft"":8,""ArrowDown,ArrowRight"":27}","true","ArrowDown,ArrowRight","","revaluation","1","","","",""
"html-keyboard-response","290","1373020","0.0-4.0-10.0-1.7","spark_pilot_norest","8732","4","23","Female","","","","","","","null","<div style=""font-size:60px;"">+</div>","null","fixation","","","","","","","","","","","",""
"learning-instructions","291","1377388","0.0-4.0-0.1-0.2","spark_pilot_norest","8732","4","23","Female","","","","","","","1591.800000011921","<p> This time you are searching for treasure in the <b>canyon</b>.</p>","","instructions","","","","","","","","","","","",""
"learning-instructions","292","1402404","0.0-4.0-0.1-0.3","spark_pilot_norest","8732","4","23","Female","","","","","","","7768.5","<p><b>New</b> animals with <b>new</b> treasure chests live here. You need to explore to discover where the animal with the best treasure chest is.</p>
                    <p> Like before, once you figure out which animal has the chest with the most treasure, you should try to get to that animal and select that chest! </p>","","instructions","","","","","","","","","","","",""
"learning-instructions","293","1441764","0.0-4.0-1.1-0.1","spark_pilot_norest","8732","4","23","Female","","","","","","","24618.90000000596","<p> Remember, when you see a picture of the place, use the up and down keys to <b>find an animal</b>.</p>
            <p> When you encounter an animal, you should use the left and right keys to <b>select a treasure chest</b>.</p>
            <p> Don't forget to look out for the robber! </p>","","instructions","","","","","","","","","","","",""
"revaluation","294","1447785","0.0-4.0-2.1-0.50","spark_pilot_norest","8732","4","23","Female","","false","","","","","[1335.800000011921,843.3000000119209]","./assets/img/canyon/memory/41.jpg","[""ArrowUp"",""ArrowRight""]","value training","canyon","10","{""ArrowUp,ArrowLeft"":23,""ArrowUp,ArrowRight"":10,""ArrowDown,ArrowLeft"":8,""ArrowDown,ArrowRight"":30}","false","ArrowUp,ArrowRight","false","original","2","0","","",""
"html-keyboard-response","295","1448286","0.0-4.0-2.1-1.50","spark_pilot_norest","8732","4","23","Female","","","","","","","null","<div style=""font-size:60px;"">+</div>","null","fixation","","","","","","","","","1","","",""
"revaluation","296","1454295","0.0-4.0-2.1-0.51","spark_pilot_norest","8732","4","23","Female","","false","","","","","[566,547.5999999940395]","./assets/img/canyon/memory/1.jpg","[""ArrowUp"",""ArrowLeft""]","value training","canyon","23","{""ArrowUp,ArrowLeft"":23,""ArrowUp,ArrowRight"":10,""ArrowDown,ArrowLeft"":8,""ArrowDown,ArrowRight"":30}","false","ArrowUp,ArrowLeft","false","original","2","2","","",""
"html-keyboard-response","297","1454797","0.0-4.0-2.1-1.51","spark_pilot_norest","8732","4","23","Female","","","","","","","null","<div style=""font-size:60px;"">+</div>","null","fixation","","","","","","","","","3","","",""
"revaluation","298","1460803","0.0-4.0-2.1-0.52","spark_pilot_norest","8732","4","23","Female","","false","","","","","[742.2999999821186,501.10000002384186]","./assets/img/canyon/memory/34.jpg","[""ArrowDown"",""ArrowLeft""]","value training","canyon","8","{""ArrowUp,ArrowLeft"":23,""ArrowUp,ArrowRight"":10,""ArrowDown,ArrowLeft"":8,""ArrowDown,ArrowRight"":30}","false","ArrowDown,ArrowLeft","false","original","2","4","","",""
"html-keyboard-response","299","1461306","0.0-4.0-2.1-1.52","spark_pilot_norest","8732","4","23","Female","","","","","","","null","<div style=""font-size:60px;"">+</div>","null","fixation","","","","","","","","","5","","",""
"revaluation","300","1467316","0.0-4.0-2.1-0.53","spark_pilot_norest","8732","4","23","Female","","false","","","","","[918.2999999821186,284.90000000596046]","./assets/img/canyon/memory/12.jpg","[""ArrowDown"",""ArrowRight""]","value training","canyon","30","{""ArrowUp,ArrowLeft"":23,""ArrowUp,ArrowRight"":10,""ArrowDown,ArrowLeft"":8,""ArrowDown,ArrowRight"":30}","true","ArrowDown,ArrowRight","false","original","2","6","","",""
"html-keyboard-response","301","1467818","0.0-4.0-2.1-1.53","spark_pilot_norest","8732","4","23","Female","","","","","","","null","<div style=""font-size:60px;"">+</div>","null","fixation","","","","","","","","","7","","",""
"revaluation","302","1473828","0.0-4.0-2.1-0.54","spark_pilot_norest","8732","4","23","Female","","false","","","","","[651.1999999880791,386]","./assets/img/canyon/memory/7.jpg","[""ArrowDown"",""ArrowRight""]","value training","canyon","30","{""ArrowUp,ArrowLeft"":23,""ArrowUp,ArrowRight"":10,""ArrowDown,ArrowLeft"":8,""ArrowDown,ArrowRight"":30}","true","ArrowDown,ArrowRight","false","original","2","8","","",""
"html-keyboard-response","303","1474329","0.0-4.0-2.1-1.54","spark_pilot_norest","8732","4","23","Female","","","","","","","null","<div style=""font-size:60px;"">+</div>","null","fixation","","","","","","","","","9","","",""
"revaluation","304","1480334","0.0-4.0-2.1-0.55","spark_pilot_norest","8732","4","23","Female","","false","","","","","[698,256.40000000596046]","./assets/img/canyon/memory/20.jpg","[""ArrowDown"",""ArrowRight""]","value training","canyon","30","{""ArrowUp,ArrowLeft"":23,""ArrowUp,ArrowRight"":10,""ArrowDown,ArrowLeft"":8,""ArrowDown,ArrowRight"":30}","true","ArrowDown,ArrowRight","false","original","2","10","","",""
"html-keyboard-response","305","1480837","0.0-4.0-2.1-1.55","spark_pilot_norest","8732","4","23","Female","","","","","","","null","<div style=""font-size:60px;"">+</div>","null","fixation","","","","","","","","","11","","",""
"revaluation","306","1486842","0.0-4.0-2.1-0.56","spark_pilot_norest","8732","4","23","Female","","false","","","","","[463.2000000178814,252.5]","./assets/img/canyon/memory/4.jpg","[""ArrowDown"",""ArrowRight""]","value training","canyon","30","{""ArrowUp,ArrowLeft"":23,""ArrowUp,ArrowRight"":10,""ArrowDown,ArrowLeft"":8,""ArrowDown,ArrowRight"":30}","true","ArrowDown,ArrowRight","false","original","2","12","","",""
"html-keyboard-response","307","1487345","0.0-4.0-2.1-1.56","spark_pilot_norest","8732","4","23","Female","","","","","","","null","<div style=""font-size:60px;"">+</div>","null","fixation","","","","","","","","","13","","",""
"revaluation","308","1493358","0.0-4.0-2.1-0.57","spark_pilot_norest","8732","4","23","Female","","false","","","","","[660.2999999821186,307.2000000178814]","./assets/img/canyon/memory/31.jpg","[""ArrowDown"",""ArrowRight""]","value training","canyon","30","{""ArrowUp,ArrowLeft"":23,""ArrowUp,ArrowRight"":10,""ArrowDown,ArrowLeft"":8,""ArrowDown,ArrowRight"":30}","true","ArrowDown,ArrowRight","false","original","2","14","","",""
"html-keyboard-response","309","1493860","0.0-4.0-2.1-1.57","spark_pilot_norest","8732","4","23","Female","","","","","","","null","<div style=""font-size:60px;"">+</div>","null","fixation","","","","","","","","","15","","",""
"revaluation","310","1499879","0.0-4.0-2.1-0.58","spark_pilot_norest","8732","4","23","Female","","false","","","","","[505.90000000596046,391.30000001192093]","./assets/img/canyon/memory/0.jpg","[""ArrowDown"",""ArrowRight""]","value training","canyon","30","{""ArrowUp,ArrowLeft"":23,""ArrowUp,ArrowRight"":10,""ArrowDown,ArrowLeft"":8,""ArrowDown,ArrowRight"":30}","true","ArrowDown,ArrowRight","false","original","2","16","","",""
"html-keyboard-response","311","1500381","0.0-4.0-2.1-1.58","spark_pilot_norest","8732","4","23","Female","","","","","","","null","<div style=""font-size:60px;"">+</div>","null","fixation","","","","","","","","","17","","",""
