"trial_type","trial_index","time_elapsed","internal_node_id","task_version","subject_id","assigned_condition","age","gender","success","timeout","failed_images","failed_audio","failed_video","browser_interaction","rt","stimulus","response","task_part","environment","score","rewardMap","correct","fullState","isCatch","condition","order","trial_num","key_press","ground_truth","bonus"
"pavlovia","0","1803","0.0-0.0","spark_pilot_norest","8676","8","18","Female","","","","","","","","","","","","","","","","","","","","","",""
"preload","1","28132","0.0-1.0","spark_pilot_norest","8676","8","18","Female","true","false","[]","[]","[]","[{""event"":""fullscreenenter"",""trial"":2,""time"":33487},{""event"":""fullscreenexit"",""trial"":5,""time"":55573},{""event"":""blur"",""trial"":5,""time"":57545},{""event"":""focus"",""trial"":5,""time"":297301},{""event"":""blur"",""trial"":6,""time"":301699},{""event"":""focus"",""trial"":6,""time"":424391}]","","","","","","","","","","","","","","","",""
"fullscreen","2","34475","0.0-2.0","spark_pilot_norest","8676","8","18","Female","true","","","","","","","","","","","","","","","","","","","","",""
"audio-button-response","3","45540","0.0-3.0-0.0-0.0","spark_pilot_norest","8676","8","18","Female","","","","","","","10629","./assets/audio/audiotest/turtle.mp3","4","audio_test","","","","","","","","","","","",""
"audio-button-response","4","52460","0.0-3.0-0.1-0.1","spark_pilot_norest","8676","8","18","Female","","","","","","[{""event"":""fullscreenenter"",""trial"":2,""time"":33487},{""event"":""fullscreenexit"",""trial"":5,""time"":55573},{""event"":""blur"",""trial"":5,""time"":57545},{""event"":""focus"",""trial"":5,""time"":297301},{""event"":""blur"",""trial"":6,""time"":301699},{""event"":""focus"",""trial"":6,""time"":424391}]","5899","./assets/audio/audiotest/turtle.mp3","4","audio_test","","","","","","","","","","","",""
"audio-button-response","5","298226","0.0-3.0-0.2-0.2","spark_pilot_norest","8676","8","18","Female","","","","","","[{""event"":""fullscreenenter"",""trial"":2,""time"":33487},{""event"":""fullscreenexit"",""trial"":5,""time"":55573},{""event"":""blur"",""trial"":5,""time"":57545},{""event"":""focus"",""trial"":5,""time"":297301},{""event"":""blur"",""trial"":6,""time"":301699},{""event"":""focus"",""trial"":6,""time"":424391}]","244771","./assets/audio/audiotest/turtle.mp3","4","audio_test","","","","","","","","","","","",""
"audio-button-response","6","425081","0.0-3.0-0.3-0.3","spark_pilot_norest","8676","8","18","Female","","","","","","","125560","./assets/audio/audiotest/turtle.mp3","4","audio_test","","","","","","","","","","","",""
"audio-button-response","7","430066","0.0-3.0-0.4-0.4","spark_pilot_norest","8676","8","18","Female","","","","","","","3819","./assets/audio/audiotest/turtle.mp3","4","audio_test","","","","","","","","","","","",""
"audio-button-response","8","432546","0.0-3.0-0.5-0.5","spark_pilot_norest","8676","8","18","Female","","","","","","","1469","./assets/audio/audiotest/turtle.mp3","2","audio_test","","","","","","","","","","","",""
"learning-instructions","9","444476","0.0-3.0-1.0-0.0","spark_pilot_norest","8676","8","18","Female","","","","","","","4934.699999809265","<p> Welcome! Please remember to stay in fullscreen mode and don't click away from the experiment. </p>","","instructions","","","","","","","","","","","",""
"learning-instructions","10","453978","0.0-3.0-1.0-0.1","spark_pilot_norest","8676","8","18","Female","","","","","","","1094.9000000953674","<p> Today you will be playing a game to earn treasure. </p>
            <p> At the end of the experiment, you will earn a bonus based on how much treasure you find. </p>
            <img src='./assets/img/instructions/treasure.jpg' class='instructions-image'>","","instructions","","","","","","","","","","","",""
"learning-instructions","11","463090","0.0-3.0-1.0-0.2","spark_pilot_norest","8676","8","18","Female","","","","","","","847.2000000476837","<p> Animals have hidden treasure in treasure chests. </p>
            <p> You need to first find an animal and then choose which of their treasure chests to search. </p>
            <img src='./assets/img/space/animals/cat.jpg' class='instructions-image'>","","instructions","","","","","","","","","","","",""
"learning-instructions","12","478042","0.0-3.0-1.0-0.3","spark_pilot_norest","8676","8","18","Female","","","","","","","1798.7999999523163","<p> In each round, you will search for treasure in a different place. In the real game, there will be two rounds. </p>
            <p> You will begin with a separate, practice round where you will search for treasure in outer space. </p>
            <img src='./assets/img/space/0.jpg' class='instructions-image'>","","instructions","","","","","","","","","","","",""
"learning-instructions","13","491458","0.0-3.0-1.0-0.4","spark_pilot_norest","8676","8","18","Female","","","","","","","2004.7000000476837","<p> On every turn, you will see a picture of the place that you are in, but the specific image may be different each time. </p>
            <p> For example, both of these images mean you are in outer space. </p>
            <img src='./assets/img/instructions/outerspace.jpg' class='instructions-image'>","","instructions","","","","","","","","","","","",""
"learning-instructions","14","500266","0.0-3.0-1.0-0.5","spark_pilot_norest","8676","8","18","Female","","","","","","","983.8999998569489","<p> You need to decide which direction to travel in. </p>
            <p> You can choose between going <b>up or down</b> by using the arrow keys. </p>
            <img src='./assets/img/instructions/updown.jpg' class='instructions-image'>","","instructions","","","","","","","","","","","",""
"learning-instructions","15","509986","0.0-3.0-1.0-0.6","spark_pilot_norest","8676","8","18","Female","","","","","","","912.7999999523163","<p> You will have <b>2 seconds</b> to make your choice. </p>
            <p> If you do not make a choice within 2 seconds, you will not find an animal or earn treasure. </p>
            <img src='./assets/img/instructions/2seconds.jpg' class='instructions-image'>","","instructions","","","","","","","","","","","",""
"learning-instructions","16","521722","0.0-3.0-1.0-0.7","spark_pilot_norest","8676","8","18","Female","","","","","","","4709","<p> Let’s try practicing that now! </p>
            <p> When you see a picture of the place you are in, press the <b>up</b> key to travel up. </p>
            <img src='./assets/img/instructions/pressUp.jpg' class='instructions-image'>","","instructions","","","","","","","","","","","",""
"revaluation","17","525736","0.0-3.0-2.0-0.0","spark_pilot_norest","8676","8","18","Female","","false","","","","","[567.8999998569489]","./assets/img/space/0.jpg","[""ArrowUp""]","first stage practice","space","0","null","null","ArrowUp","false","","","","","",""
"html-keyboard-response","18","526250","0.0-3.0-2.0-1.0","spark_pilot_norest","8676","8","18","Female","","","","","","","null","<div style=""font-size:60px;"">+</div>","null","fixation","","","","","","","","","","","",""
"revaluation","19","530284","0.0-3.0-2.0-0.1","spark_pilot_norest","8676","8","18","Female","","false","","","","","[683.2999999523163]","./assets/img/space/1.jpg","[""ArrowUp""]","first stage practice","space","0","null","null","ArrowUp","false","","","","","",""
"html-keyboard-response","20","530798","0.0-3.0-2.0-1.1","spark_pilot_norest","8676","8","18","Female","","","","","","","null","<div style=""font-size:60px;"">+</div>","null","fixation","","","","","","","","","","","",""
"revaluation","21","534822","0.0-3.0-2.0-0.2","spark_pilot_norest","8676","8","18","Female","","false","","","","","[999.5]","./assets/img/space/2.jpg","[""ArrowUp""]","first stage practice","space","0","null","null","ArrowUp","false","","","","","",""
"html-keyboard-response","22","535337","0.0-3.0-2.0-1.2","spark_pilot_norest","8676","8","18","Female","","","","","","","null","<div style=""font-size:60px;"">+</div>","null","fixation","","","","","","","","","","","",""
"learning-instructions","23","541116","0.0-3.0-3.0-0.0","spark_pilot_norest","8676","8","18","Female","","","","","","","1062.7999999523163","<p> Great job! Now try pressing the <b>down</b> key to travel down. </p>
            <img src='./assets/img/instructions/pressDown.jpg' class='instructions-image'>","","instructions","","","","","","","","","","","",""
"revaluation","24","545127","0.0-3.0-4.0-0.0","spark_pilot_norest","8676","8","18","Female","","false","","","","","[1068.5999999046326]","./assets/img/space/3.jpg","[""ArrowDown""]","first stage practice","space","0","null","null","ArrowDown","false","","","","","",""
"html-keyboard-response","25","545638","0.0-3.0-4.0-1.0","spark_pilot_norest","8676","8","18","Female","","","","","","","null","<div style=""font-size:60px;"">+</div>","null","fixation","","","","","","","","","","","",""
"revaluation","26","549665","0.0-3.0-4.0-0.1","spark_pilot_norest","8676","8","18","Female","","false","","","","","[607.5]","./assets/img/space/4.jpg","[""ArrowDown""]","first stage practice","space","0","null","null","ArrowDown","false","","","","","",""
"html-keyboard-response","27","550180","0.0-3.0-4.0-1.1","spark_pilot_norest","8676","8","18","Female","","","","","","","null","<div style=""font-size:60px;"">+</div>","null","fixation","","","","","","","","","","","",""
"revaluation","28","554202","0.0-3.0-4.0-0.2","spark_pilot_norest","8676","8","18","Female","","false","","","","","[1457.7000000476837]","./assets/img/space/5.jpg","[""ArrowDown""]","first stage practice","space","0","null","null","ArrowDown","false","","","","","",""
"html-keyboard-response","29","554716","0.0-3.0-4.0-1.2","spark_pilot_norest","8676","8","18","Female","","","","","","","null","<div style=""font-size:60px;"">+</div>","null","fixation","","","","","","","","","","","",""
"learning-instructions","30","567369","0.0-3.0-5.0-0.0","spark_pilot_norest","8676","8","18","Female","","","","","","","2776.7999999523163","<p> The animals don’t move, so the animal in the upper part of a place will stay in the upper part of a place, and the animal in the lower part of a place will stay in the lower part of a place. </p>","","instructions","","","","","","","","","","","",""
"learning-instructions","31","577441","0.0-3.0-5.0-0.1","spark_pilot_norest","8676","8","18","Female","","","","","","","948.5999999046326","<p> Each animal has two treasure chests for you to choose from. </p>
            <p> The amount of treasure in each chest can range from <b> 0 to 40 pieces.</b></p>","","instructions","","","","","","","","","","","",""
"learning-instructions","32","589497","0.0-3.0-5.0-0.2","spark_pilot_norest","8676","8","18","Female","","","","","","","884.6000001430511","<p> You should decide which chest to search for treasure by using the <b>left</b> and <b>right</b> arrow keys. </p>
            <p><b> Pay attention to which animal is on the screen, as the animals have different treasure chests. </b></p>
            <img src='./assets/img/instructions/leftright.jpg' class='instructions-image'>","","instructions","","","","","","","","","","","",""
"learning-instructions","33","596593","0.0-3.0-5.0-0.3","spark_pilot_norest","8676","8","18","Female","","","","","","","740.5","<p> Let’s try practicing that now. </p>
            <p> When you see an animal, choose which chest to search for treasure. </p>
            <img src='./assets/img/instructions/chooseChest.jpg' class='instructions-image'>","","instructions","","","","","","","","","","","",""
"revaluation","34","600606","0.0-3.0-6.0-0.0","spark_pilot_norest","8676","8","18","Female","","false","","","","","[1415.0999999046326]","./assets/img/space/animals/rabbit.jpg","[""ArrowRight""]","second stage practice","space","23","{""ArrowUp,ArrowLeft"":3,""ArrowUp,ArrowRight"":36,""ArrowDown,ArrowLeft"":15,""ArrowDown,ArrowRight"":23}","true","ArrowDown,ArrowRight","","","","","","",""
"html-keyboard-response","35","601121","0.0-3.0-6.0-1.0","spark_pilot_norest","8676","8","18","Female","","","","","","","null","<div style=""font-size:60px;"">+</div>","null","fixation","","","","","","","","","","","",""
"revaluation","36","605138","0.0-3.0-6.0-0.1","spark_pilot_norest","8676","8","18","Female","","false","","","","","[1943.5]","./assets/img/space/animals/cat.jpg","[""ArrowLeft""]","second stage practice","space","3","{""ArrowUp,ArrowLeft"":3,""ArrowUp,ArrowRight"":36,""ArrowDown,ArrowLeft"":15,""ArrowDown,ArrowRight"":23}","false","ArrowUp,ArrowLeft","","","","","","",""
"html-keyboard-response","37","605650","0.0-3.0-6.0-1.1","spark_pilot_norest","8676","8","18","Female","","","","","","","null","<div style=""font-size:60px;"">+</div>","null","fixation","","","","","","","","","","","",""
"revaluation","38","609673","0.0-3.0-6.0-0.2","spark_pilot_norest","8676","8","18","Female","","false","","","","","[1379.2000000476837]","./assets/img/space/animals/rabbit.jpg","[""ArrowLeft""]","second stage practice","space","15","{""ArrowUp,ArrowLeft"":3,""ArrowUp,ArrowRight"":36,""ArrowDown,ArrowLeft"":15,""ArrowDown,ArrowRight"":23}","false","ArrowDown,ArrowLeft","","","","","","",""
"html-keyboard-response","39","610187","0.0-3.0-6.0-1.2","spark_pilot_norest","8676","8","18","Female","","","","","","","null","<div style=""font-size:60px;"">+</div>","null","fixation","","","","","","","","","","","",""
"revaluation","40","614204","0.0-3.0-6.0-0.3","spark_pilot_norest","8676","8","18","Female","","false","","","","","[605]","./assets/img/space/animals/cat.jpg","[""ArrowRight""]","second stage practice","space","36","{""ArrowUp,ArrowLeft"":3,""ArrowUp,ArrowRight"":36,""ArrowDown,ArrowLeft"":15,""ArrowDown,ArrowRight"":23}","true","ArrowUp,ArrowRight","","","","","","",""
"html-keyboard-response","41","614714","0.0-3.0-6.0-1.3","spark_pilot_norest","8676","8","18","Female","","","","","","","null","<div style=""font-size:60px;"">+</div>","null","fixation","","","","","","","","","","","",""
"learning-instructions","42","632849","0.0-3.0-7.0-0.0","spark_pilot_norest","8676","8","18","Female","","","","","","","1327.1000001430511","<p> Great job. Now let’s try putting it together. </p>
            <p> On each turn, you will first see a picture to remind you of the place you are in, and you need to choose whether to go up or down. </p>
            <p> Then you will see an animal and choose which of its chests to search for treasure. </p>","","instructions","","","","","","","","","","","",""
"learning-instructions","43","642145","0.0-3.0-7.0-0.1","spark_pilot_norest","8676","8","18","Female","","","","","","","1034.1000001430511","<p> When you choose whether to go up or down, try to go to the animal with the chest with the most treasure. </p>
            <p> Try practicing that now! </p>","","instructions","","","","","","","","","","","",""
"revaluation","44","648168","0.0-3.0-8.0-0.0","spark_pilot_norest","8676","8","18","Female","","false","","","","","[887.8999998569489,1253.5999999046326]","./assets/img/space/6.jpg","[""ArrowDown"",""ArrowRight""]","full practice","space","23","{""ArrowUp,ArrowLeft"":3,""ArrowUp,ArrowRight"":36,""ArrowDown,ArrowLeft"":15,""ArrowDown,ArrowRight"":23}","false","ArrowDown,ArrowRight","false","","","","","",""
"html-keyboard-response","45","648681","0.0-3.0-8.0-1.0","spark_pilot_norest","8676","8","18","Female","","","","","","","null","<div style=""font-size:60px;"">+</div>","null","fixation","","","","","","","","","","","",""
"revaluation","46","654724","0.0-3.0-8.0-0.1","spark_pilot_norest","8676","8","18","Female","","false","","","","","[524.8000001907349,430.7000000476837]","./assets/img/space/7.jpg","[""ArrowUp"",""ArrowRight""]","full practice","space","36","{""ArrowUp,ArrowLeft"":3,""ArrowUp,ArrowRight"":36,""ArrowDown,ArrowLeft"":15,""ArrowDown,ArrowRight"":23}","true","ArrowUp,ArrowRight","false","","","","","",""
"html-keyboard-response","47","655228","0.0-3.0-8.0-1.1","spark_pilot_norest","8676","8","18","Female","","","","","","","null","<div style=""font-size:60px;"">+</div>","null","fixation","","","","","","","","","","","",""
"revaluation","48","661249","0.0-3.0-8.0-0.2","spark_pilot_norest","8676","8","18","Female","","false","","","","","[716.5,971.9000000953674]","./assets/img/space/8.jpg","[""ArrowUp"",""ArrowRight""]","full practice","space","36","{""ArrowUp,ArrowLeft"":3,""ArrowUp,ArrowRight"":36,""ArrowDown,ArrowLeft"":15,""ArrowDown,ArrowRight"":23}","true","ArrowUp,ArrowRight","false","","","","","",""
"html-keyboard-response","49","661762","0.0-3.0-8.0-1.2","spark_pilot_norest","8676","8","18","Female","","","","","","","null","<div style=""font-size:60px;"">+</div>","null","fixation","","","","","","","","","","","",""
"revaluation","50","667797","0.0-3.0-8.0-0.3","spark_pilot_norest","8676","8","18","Female","","false","","","","","[788.6999998092651,391.2999999523163]","./assets/img/space/9.jpg","[""ArrowUp"",""ArrowRight""]","full practice","space","36","{""ArrowUp,ArrowLeft"":3,""ArrowUp,ArrowRight"":36,""ArrowDown,ArrowLeft"":15,""ArrowDown,ArrowRight"":23}","true","ArrowUp,ArrowRight","false","","","","","",""
"html-keyboard-response","51","668310","0.0-3.0-8.0-1.3","spark_pilot_norest","8676","8","18","Female","","","","","","","null","<div style=""font-size:60px;"">+</div>","null","fixation","","","","","","","","","","","",""
"revaluation","52","674330","0.0-3.0-8.0-0.4","spark_pilot_norest","8676","8","18","Female","","false","","","","","[480.09999990463257,369.7000000476837]","./assets/img/space/10.jpg","[""ArrowUp"",""ArrowRight""]","full practice","space","36","{""ArrowUp,ArrowLeft"":3,""ArrowUp,ArrowRight"":36,""ArrowDown,ArrowLeft"":15,""ArrowDown,ArrowRight"":23}","true","ArrowUp,ArrowRight","false","","","","","",""
"html-keyboard-response","53","674831","0.0-3.0-8.0-1.4","spark_pilot_norest","8676","8","18","Female","","","","","","","null","<div style=""font-size:60px;"">+</div>","null","fixation","","","","","","","","","","","",""
"learning-instructions","54","686032","0.0-3.0-9.0-0.0","spark_pilot_norest","8676","8","18","Female","","","","","","","881.1000001430511","<p> One last thing: sometimes, you will see a robber. The robber can be anywhere in the picture. </p>
            <p> If you do not stop them, you will lose treasure. </p>
            <img src='./assets/img/instructions/robber.jpg' class='instructions-image'>","","instructions","","","","","","","","","","","",""
"learning-instructions","55","694112","0.0-3.0-9.0-0.1","spark_pilot_norest","8676","8","18","Female","","","","","","","923.0999999046326","<p> If you see the robber, you should <b>press the space bar</b> rather than using the arrow keys. </p>
            <p> Try practicing that now! </p>","","instructions","","","","","","","","","","","",""
"revaluation","56","698143","0.0-3.0-10.0-0.0","spark_pilot_norest","8676","8","18","Female","","false","","","","","[919.7999999523163]","./assets/img/space/catch/0.jpg","[""spaceBar""]","catch practice","space","0","{""ArrowUp,ArrowLeft"":3,""ArrowUp,ArrowRight"":36,""ArrowDown,ArrowLeft"":15,""ArrowDown,ArrowRight"":23}","true","spaceBar","true","","","","","",""
"html-keyboard-response","57","698657","0.0-3.0-10.0-1.0","spark_pilot_norest","8676","8","18","Female","","","","","","","null","<div style=""font-size:60px;"">+</div>","null","fixation","","","","","","","","","","","",""
"revaluation","58","702673","0.0-3.0-10.0-0.1","spark_pilot_norest","8676","8","18","Female","","false","","","","","[515.7999999523163]","./assets/img/space/catch/1.jpg","[""spaceBar""]","catch practice","space","0","{""ArrowUp,ArrowLeft"":3,""ArrowUp,ArrowRight"":36,""ArrowDown,ArrowLeft"":15,""ArrowDown,ArrowRight"":23}","true","spaceBar","true","","","","","",""
"html-keyboard-response","59","703187","0.0-3.0-10.0-1.1","spark_pilot_norest","8676","8","18","Female","","","","","","","null","<div style=""font-size:60px;"">+</div>","null","fixation","","","","","","","","","","","",""
"revaluation","60","707207","0.0-3.0-10.0-0.2","spark_pilot_norest","8676","8","18","Female","","false","","","","","[577.7999999523163]","./assets/img/space/catch/2.jpg","[""spaceBar""]","catch practice","space","0","{""ArrowUp,ArrowLeft"":3,""ArrowUp,ArrowRight"":36,""ArrowDown,ArrowLeft"":15,""ArrowDown,ArrowRight"":23}","true","spaceBar","true","","","","","",""
"html-keyboard-response","61","707716","0.0-3.0-10.0-1.2","spark_pilot_norest","8676","8","18","Female","","","","","","","null","<div style=""font-size:60px;"">+</div>","null","fixation","","","","","","","","","","","",""
"learning-instructions","62","713880","0.0-3.0-11.0-0.0-0.0","spark_pilot_norest","8676","8","18","Female","","","","","","","900.7000000476837","<p> Now, you will practice a shortened version of the game to get a sense of how it all fits together. </p>","","instructions","","","","","","","","","","","",""
"learning-instructions","63","719472","0.0-3.0-11.0-0.0-0.1","spark_pilot_norest","8676","8","18","Female","","","","","","","2412.5","<p>This time you are searching for treasure in outer space.</p>","","instructions","","","","","","","","","","","",""
"learning-instructions","64","735680","0.0-3.0-11.0-1.0-0.0","spark_pilot_norest","8676","8","18","Female","","","","","","","1429.5999999046326","<p> Remember, when you see a picture of the place, use the up and down keys to <b>find an animal</b>.</p>
            <p> When you encounter an animal, you should use the left and right keys to <b>select a treasure chest</b>.</p>
            <p> Don't forget to look out for the robber! </p>","","instructions","","","","","","","","","","","",""
"revaluation","65","741695","0.0-3.0-11.0-2.0-0.0","spark_pilot_norest","8676","8","18","Female","","false","","","","","[919.2999999523163,502]","./assets/img/space/11.jpg","[""ArrowUp"",""ArrowRight""]","practice block","space","36","{""ArrowUp,ArrowLeft"":3,""ArrowUp,ArrowRight"":36,""ArrowDown,ArrowLeft"":15,""ArrowDown,ArrowRight"":23}","true","ArrowUp,ArrowRight","false","","","","","",""
"html-keyboard-response","66","742206","0.0-3.0-11.0-2.0-1.0","spark_pilot_norest","8676","8","18","Female","","","","","","","null","<div style=""font-size:60px;"">+</div>","null","fixation","","","","","","","","","","","",""
"revaluation","67","748242","0.0-3.0-11.0-2.0-0.1","spark_pilot_norest","8676","8","18","Female","","false","","","","","[1030.2000000476837,870.8999998569489]","./assets/img/space/12.jpg","[""ArrowDown"",""ArrowRight""]","practice block","space","23","{""ArrowUp,ArrowLeft"":3,""ArrowUp,ArrowRight"":36,""ArrowDown,ArrowLeft"":15,""ArrowDown,ArrowRight"":23}","false","ArrowDown,ArrowRight","false","","","","","",""
"html-keyboard-response","68","748757","0.0-3.0-11.0-2.0-1.1","spark_pilot_norest","8676","8","18","Female","","","","","","","null","<div style=""font-size:60px;"">+</div>","null","fixation","","","","","","","","","","","",""
"revaluation","69","754777","0.0-3.0-11.0-2.0-0.2","spark_pilot_norest","8676","8","18","Female","","false","","","","","[687.7999999523163,411]","./assets/img/space/13.jpg","[""ArrowUp"",""ArrowRight""]","practice block","space","36","{""ArrowUp,ArrowLeft"":3,""ArrowUp,ArrowRight"":36,""ArrowDown,ArrowLeft"":15,""ArrowDown,ArrowRight"":23}","true","ArrowUp,ArrowRight","false","","","","","",""
"html-keyboard-response","70","755289","0.0-3.0-11.0-2.0-1.2","spark_pilot_norest","8676","8","18","Female","","","","","","","null","<div style=""font-size:60px;"">+</div>","null","fixation","","","","","","","","","","","",""
"revaluation","71","761317","0.0-3.0-11.0-2.0-0.3","spark_pilot_norest","8676","8","18","Female","","false","","","","","[1500.5,682.5999999046326]","./assets/img/space/14.jpg","[""ArrowUp"",""ArrowRight""]","practice block","space","36","{""ArrowUp,ArrowLeft"":3,""ArrowUp,ArrowRight"":36,""ArrowDown,ArrowLeft"":15,""ArrowDown,ArrowRight"":23}","true","ArrowUp,ArrowRight","false","","","","","",""
"html-keyboard-response","72","761831","0.0-3.0-11.0-2.0-1.3","spark_pilot_norest","8676","8","18","Female","","","","","","","null","<div style=""font-size:60px;"">+</div>","null","fixation","","","","","","","","","","","",""
"revaluation","73","767844","0.0-3.0-11.0-2.0-0.4","spark_pilot_norest","8676","8","18","Female","","false","","","","","[1262.0999999046326,344.40000009536743]","./assets/img/space/11.jpg","[""ArrowUp"",""ArrowRight""]","practice block","space","36","{""ArrowUp,ArrowLeft"":3,""ArrowUp,ArrowRight"":36,""ArrowDown,ArrowLeft"":15,""ArrowDown,ArrowRight"":23}","true","ArrowUp,ArrowRight","false","","","","","",""
"html-keyboard-response","74","768346","0.0-3.0-11.0-2.0-1.4","spark_pilot_norest","8676","8","18","Female","","","","","","","null","<div style=""font-size:60px;"">+</div>","null","fixation","","","","","","","","","","","",""
"revaluation","75","774349","0.0-3.0-11.0-2.0-0.5","spark_pilot_norest","8676","8","18","Female","","false","","","","","[1101.9000000953674,366.2999999523163]","./assets/img/space/12.jpg","[""ArrowUp"",""ArrowRight""]","practice block","space","36","{""ArrowUp,ArrowLeft"":3,""ArrowUp,ArrowRight"":36,""ArrowDown,ArrowLeft"":15,""ArrowDown,ArrowRight"":23}","true","ArrowUp,ArrowRight","false","","","","","",""
"html-keyboard-response","76","774851","0.0-3.0-11.0-2.0-1.5","spark_pilot_norest","8676","8","18","Female","","","","","","","null","<div style=""font-size:60px;"">+</div>","null","fixation","","","","","","","","","","","",""
"revaluation","77","780858","0.0-3.0-11.0-2.0-0.6","spark_pilot_norest","8676","8","18","Female","","false","","","","","[770.2999999523163,320.59999990463257]","./assets/img/space/13.jpg","[""ArrowUp"",""ArrowRight""]","practice block","space","36","{""ArrowUp,ArrowLeft"":3,""ArrowUp,ArrowRight"":36,""ArrowDown,ArrowLeft"":15,""ArrowDown,ArrowRight"":23}","true","ArrowUp,ArrowRight","false","","","","","",""
"html-keyboard-response","78","781360","0.0-3.0-11.0-2.0-1.6","spark_pilot_norest","8676","8","18","Female","","","","","","","null","<div style=""font-size:60px;"">+</div>","null","fixation","","","","","","","","","","","",""
"revaluation","79","787367","0.0-3.0-11.0-2.0-0.7","spark_pilot_norest","8676","8","18","Female","","false","","","","","[773.3000001907349,355.60000014305115]","./assets/img/space/14.jpg","[""ArrowUp"",""ArrowRight""]","practice block","space","36","{""ArrowUp,ArrowLeft"":3,""ArrowUp,ArrowRight"":36,""ArrowDown,ArrowLeft"":15,""ArrowDown,ArrowRight"":23}","true","ArrowUp,ArrowRight","false","","","","","",""
"html-keyboard-response","80","787869","0.0-3.0-11.0-2.0-1.7","spark_pilot_norest","8676","8","18","Female","","","","","","","null","<div style=""font-size:60px;"">+</div>","null","fixation","","","","","","","","","","","",""
"revaluation","81","791875","0.0-3.0-11.0-2.0-0.8","spark_pilot_norest","8676","8","18","Female","","false","","","","","[792.8999998569489]","./assets/img/space/catch/3.jpg","[""spaceBar""]","practice block","space","0","{""ArrowUp,ArrowLeft"":3,""ArrowUp,ArrowRight"":36,""ArrowDown,ArrowLeft"":15,""ArrowDown,ArrowRight"":23}","true","spaceBar","true","","","","","",""
"html-keyboard-response","82","792375","0.0-3.0-11.0-2.0-1.8","spark_pilot_norest","8676","8","18","Female","","","","","","","null","<div style=""font-size:60px;"">+</div>","null","fixation","","","","","","","","","","","",""
"learning-instructions","83","807079","0.0-3.0-11.0-3.0-0.0","spark_pilot_norest","8676","8","18","Female","","","","","","","1499.5999999046326","<p> Now, you will travel with a friend who will choose whether you go up or down first. </p>
            <p> On these turns, you will just see the animal that they found. You will still get to choose which chest to search for treasure.</p>","","instructions","","","","","","","","","","","",""
"revaluation","84","811099","0.0-3.0-11.0-4.0-0.0","spark_pilot_norest","8676","8","18","Female","","false","","","","","[1232.1999998092651]","./assets/img/space/animals/cat.jpg","[""ArrowRight""]","practice block","space","36","{""ArrowUp,ArrowLeft"":3,""ArrowUp,ArrowRight"":36,""ArrowDown,ArrowLeft"":15,""ArrowDown,ArrowRight"":23}","true","ArrowUp,ArrowRight","","","","","","",""
"html-keyboard-response","85","811613","0.0-3.0-11.0-4.0-1.0","spark_pilot_norest","8676","8","18","Female","","","","","","","null","<div style=""font-size:60px;"">+</div>","null","fixation","","","","","","","","","","","",""
"revaluation","86","815627","0.0-3.0-11.0-4.0-0.1","spark_pilot_norest","8676","8","18","Female","","false","","","","","[1146.4000000953674]","./assets/img/space/animals/rabbit.jpg","[""ArrowLeft""]","practice block","space","15","{""ArrowUp,ArrowLeft"":3,""ArrowUp,ArrowRight"":36,""ArrowDown,ArrowLeft"":15,""ArrowDown,ArrowRight"":23}","false","ArrowDown,ArrowLeft","","","","","","",""
"html-keyboard-response","87","816129","0.0-3.0-11.0-4.0-1.1","spark_pilot_norest","8676","8","18","Female","","","","","","","null","<div style=""font-size:60px;"">+</div>","null","fixation","","","","","","","","","","","",""
"revaluation","88","820154","0.0-3.0-11.0-4.0-0.2","spark_pilot_norest","8676","8","18","Female","","false","","","","","[772.2999999523163]","./assets/img/space/animals/rabbit.jpg","[""ArrowRight""]","practice block","space","23","{""ArrowUp,ArrowLeft"":3,""ArrowUp,ArrowRight"":36,""ArrowDown,ArrowLeft"":15,""ArrowDown,ArrowRight"":23}","true","ArrowDown,ArrowRight","","","","","","",""
"html-keyboard-response","89","820667","0.0-3.0-11.0-4.0-1.2","spark_pilot_norest","8676","8","18","Female","","","","","","","null","<div style=""font-size:60px;"">+</div>","null","fixation","","","","","","","","","","","",""
"revaluation","90","824686","0.0-3.0-11.0-4.0-0.3","spark_pilot_norest","8676","8","18","Female","","false","","","","","[408.40000009536743]","./assets/img/space/animals/cat.jpg","[""ArrowRight""]","practice block","space","36","{""ArrowUp,ArrowLeft"":3,""ArrowUp,ArrowRight"":36,""ArrowDown,ArrowLeft"":15,""ArrowDown,ArrowRight"":23}","true","ArrowUp,ArrowRight","","","","","","",""
"html-keyboard-response","91","825199","0.0-3.0-11.0-4.0-1.3","spark_pilot_norest","8676","8","18","Female","","","","","","","null","<div style=""font-size:60px;"">+</div>","null","fixation","","","","","","","","","","","",""
"learning-instructions","92","833355","0.0-3.0-11.0-5.0-0.0","spark_pilot_norest","8676","8","18","Female","","","","","","","null","<p> You have almost finished this part of the game! </p>
            <p> We are going to ask you to make a few more choices. </p>","","instructions","","","","","","","","","","","",""
"learning-instructions","93","849385","0.0-3.0-11.0-5.0-0.1","spark_pilot_norest","8676","8","18","Female","","","","","","","null","<p> First, you need to decide whether to go up or down. When you see each picture, use the arrow keys to make your choice. </p>
            <p><b>You will not see which animal you found, but try to get to the one that will give you the most treasure.</b></p>","","instructions","","","","","","","","","","","",""
"html-keyboard-response","94","850399","0.0-3.0-11.0-6.0-0.0","spark_pilot_norest","8676","8","18","Female","","","","","","","null","<div style=""font-size:100px;color:red;"">Starting in...</div>","null","","","","","","","","","","","","",""
"html-keyboard-response","95","851414","0.0-3.0-11.0-6.0-1.0","spark_pilot_norest","8676","8","18","Female","","","","","","","null","<div style=""font-size:200px;color:red;"">3</div>","null","","","","","","","","","","","","",""
"html-keyboard-response","96","852416","0.0-3.0-11.0-6.0-2.0","spark_pilot_norest","8676","8","18","Female","","","","","","","null","<div style=""font-size:200px;color:red;"">2</div>","null","","","","","","","","","","","","",""
"html-keyboard-response","97","853419","0.0-3.0-11.0-6.0-3.0","spark_pilot_norest","8676","8","18","Female","","","","","","","null","<div style=""font-size:200px;color:red;"">1</div>","null","","","","","","","","","","","","",""
"revaluation","98","854201","0.0-3.0-11.0-7.0","spark_pilot_norest","8676","8","18","Female","","false","","","","","[777.9000000953674]","./assets/img/space/15.jpg","[""ArrowUp""]","practice block","space","0","{""ArrowUp,ArrowLeft"":3,""ArrowUp,ArrowRight"":36,""ArrowDown,ArrowLeft"":15,""ArrowDown,ArrowRight"":23}","true","ArrowUp","false","","","","","",""
"html-keyboard-response","99","854711","0.0-3.0-11.0-8.0","spark_pilot_norest","8676","8","18","Female","","","","","","","null","<div style=""font-size:60px;"">+</div>","null","fixation","","","","","","","","","","","",""
"learning-instructions","100","868108","0.0-3.0-11.0-9.0-0.0","spark_pilot_norest","8676","8","18","Female","","","","","","","null","<p> Now you will see the animals again and can search their chests for treasure. </p>
            <p> This time, you will not see how much treasure you earned, but you will earn more bonus money for making better choices. </p>","","instructions","","","","","","","","","","","",""
"html-keyboard-response","101","869122","0.0-3.0-11.0-10.0-0.0","spark_pilot_norest","8676","8","18","Female","","","","","","","null","<div style=""font-size:100px;color:red;"">Starting in...</div>","null","","","","","","","","","","","","",""
"html-keyboard-response","102","870124","0.0-3.0-11.0-10.0-1.0","spark_pilot_norest","8676","8","18","Female","","","","","","","null","<div style=""font-size:200px;color:red;"">3</div>","null","","","","","","","","","","","","",""
"html-keyboard-response","103","871135","0.0-3.0-11.0-10.0-2.0","spark_pilot_norest","8676","8","18","Female","","","","","","","null","<div style=""font-size:200px;color:red;"">2</div>","null","","","","","","","","","","","","",""
"html-keyboard-response","104","872136","0.0-3.0-11.0-10.0-3.0","spark_pilot_norest","8676","8","18","Female","","","","","","","null","<div style=""font-size:200px;color:red;"">1</div>","null","","","","","","","","","","","","",""
"revaluation","105","872538","0.0-3.0-11.0-11.0-0.0","spark_pilot_norest","8676","8","18","Female","","false","","","","","[397.7999999523163]","./assets/img/space/animals/cat.jpg","[""ArrowRight""]","practice block","space","0","{""ArrowUp,ArrowLeft"":3,""ArrowUp,ArrowRight"":36,""ArrowDown,ArrowLeft"":15,""ArrowDown,ArrowRight"":23}","true","ArrowUp,ArrowRight","","","","","","",""
"html-keyboard-response","106","873053","0.0-3.0-11.0-11.0-1.0","spark_pilot_norest","8676","8","18","Female","","","","","","","null","<div style=""font-size:60px;"">+</div>","null","fixation","","","","","","","","","","","",""
"revaluation","107","873753","0.0-3.0-11.0-11.0-0.1","spark_pilot_norest","8676","8","18","Female","","false","","","","","[696.2999999523163]","./assets/img/space/animals/rabbit.jpg","[""ArrowRight""]","practice block","space","0","{""ArrowUp,ArrowLeft"":3,""ArrowUp,ArrowRight"":36,""ArrowDown,ArrowLeft"":15,""ArrowDown,ArrowRight"":23}","true","ArrowDown,ArrowRight","","","","","","",""
"html-keyboard-response","108","874269","0.0-3.0-11.0-11.0-1.1","spark_pilot_norest","8676","8","18","Female","","","","","","","null","<div style=""font-size:60px;"">+</div>","null","fixation","","","","","","","","","","","",""
"learning-instructions","109","880744","0.0-3.0-12.0-0.0","spark_pilot_norest","8676","8","18","Female","","","","","","","1883.4000000953674","<p> Before you start, we're going to ask you a few questions about how the game works. </p>","","instructions","","","","","","","","","","","",""
"comp-q","110","887416","0.0-3.0-13.0-0.0-0.0","spark_pilot_norest","8676","8","18","Female","","","","","","","1093","<p> <b> True or False? </b> </p>
            <p> There can be 50 pieces of treasure in a given animal's chest. </p>","1","comp_question","","","","true","","","","","","","",""
"comp-q","111","895016","0.0-3.0-13.0-0.0-1.0","spark_pilot_norest","8676","8","18","Female","","","","","","","946.7000000476837","<p> <b> That's right! </b> The amount of treasure in each chest can range from 0 to 40 pieces. </p>","0","comp_answer","","","","","","","","","","","",""
"comp-q","112","902688","0.0-3.0-13.0-0.1-0.1","spark_pilot_norest","8676","8","18","Female","","","","","","","558","<p> <b> True or False? </b> </p><p> In this game, all animals have the same amount of treasure in their left and right chests. </p>","1","comp_question","","","","true","","","","","","","",""
"comp-q","113","909544","0.0-3.0-13.0-0.1-1.1","spark_pilot_norest","8676","8","18","Female","","","","","","","1633.2999999523163","<p> <b> That's right! </b> Animals have different amounts of treasure in their treasure chests. </p>","0","comp_answer","","","","","","","","","","","",""
"comp-q","114","916359","0.0-3.0-13.0-0.2-0.2","spark_pilot_norest","8676","8","18","Female","","","","","","","979.6999998092651","<p> <b> True or False? </b> </p><p> The same animal will always be there if you go up in the same place. </p>","0","comp_question","","","","true","","","","","","","",""
"comp-q","115","923551","0.0-3.0-13.0-0.2-1.2","spark_pilot_norest","8676","8","18","Female","","","","","","","741.9000000953674","<p> <b> That's right! </b> One animal lives in the upper part and one lives in the lower part of every place. </p>","0","comp_answer","","","","","","","","","","","",""
"comp-q","116","930175","0.0-3.0-13.0-0.3-0.3","spark_pilot_norest","8676","8","18","Female","","","","","","","1105.4000000953674","<p> <b> True or False? </b> </p><p> If you see a different picture, it means you are in a new place. </p>","1","comp_question","","","","true","","","","","","","",""
"comp-q","117","942191","0.0-3.0-13.0-0.3-1.3","spark_pilot_norest","8676","8","18","Female","","","","","","","801.7999999523163","<p> <b> That's right! </b> Lots of different images may show the same place. For example,  you may see three different images that all remind you that you are in outer space. </p>","0","comp_answer","","","","","","","","","","","",""
"learning-instructions","118","956519","0.0-3.0-14.0-0.0","spark_pilot_norest","8676","8","18","Female","","","","","","","4469.099999904633","<p> Good job. Remember to do your best because the amount of treasure you earn will be converted into bonus money. </p>
            <p> It’s time to start the real game! </p>","","instructions","","","","","","","","","","","",""
"learning-instructions","119","961391","0.0-4.0-0.0-0.0","spark_pilot_norest","8676","8","18","Female","","","","","","","2101.899999856949","<p> This time you are searching for treasure in the <b>canyon</b>.</p>","","instructions","","","","","","","","","","","",""
"learning-instructions","120","980038","0.0-4.0-0.0-0.1","spark_pilot_norest","8676","8","18","Female","","","","","","","1349.5999999046326","<p><b>New</b> animals with <b>new</b> treasure chests live here. You need to explore to discover where the animal with the best treasure chest is.</p>
                    <p> Like before, once you figure out which animal has the chest with the most treasure, you should try to get to that animal and select that chest! </p>","","instructions","","","","","","","","","","","",""
"learning-instructions","121","995703","0.0-4.0-1.0-0.0","spark_pilot_norest","8676","8","18","Female","","","","","","","933.7000000476837","<p> Remember, when you see a picture of the place, use the up and down keys to <b>find an animal</b>.</p>
            <p> When you encounter an animal, you should use the left and right keys to <b>select a treasure chest</b>.</p>
            <p> Don't forget to look out for the robber! </p>","","instructions","","","","","","","","","","","",""
"revaluation","122","1001731","0.0-4.0-2.0-0.0","spark_pilot_norest","8676","8","18","Female","","false","","","","","[1103.4000000953674,1031.5]","./assets/img/canyon/memory/22.jpg","[""ArrowUp"",""ArrowLeft""]","value training","canyon","26","{""ArrowUp,ArrowLeft"":26,""ArrowUp,ArrowRight"":10,""ArrowDown,ArrowLeft"":5,""ArrowDown,ArrowRight"":17}","true","ArrowUp,ArrowLeft","false","revaluation","1","0","","",""
"html-keyboard-response","123","1002247","0.0-4.0-2.0-1.0","spark_pilot_norest","8676","8","18","Female","","","","","","","null","<div style=""font-size:60px;"">+</div>","null","fixation","","","","","","","","","1","","",""
"revaluation","124","1008265","0.0-4.0-2.0-0.1","spark_pilot_norest","8676","8","18","Female","","false","","","","","[460.39999985694885,715.4000000953674]","./assets/img/canyon/memory/28.jpg","[""ArrowDown"",""ArrowLeft""]","value training","canyon","5","{""ArrowUp,ArrowLeft"":26,""ArrowUp,ArrowRight"":10,""ArrowDown,ArrowLeft"":5,""ArrowDown,ArrowRight"":17}","false","ArrowDown,ArrowLeft","false","revaluation","1","2","","",""
"html-keyboard-response","125","1008779","0.0-4.0-2.0-1.1","spark_pilot_norest","8676","8","18","Female","","","","","","","null","<div style=""font-size:60px;"">+</div>","null","fixation","","","","","","","","","3","","",""
"revaluation","126","1014809","0.0-4.0-2.0-0.2","spark_pilot_norest","8676","8","18","Female","","false","","","","","[520.8000001907349,382.2999999523163]","./assets/img/canyon/memory/29.jpg","[""ArrowDown"",""ArrowRight""]","value training","canyon","17","{""ArrowUp,ArrowLeft"":26,""ArrowUp,ArrowRight"":10,""ArrowDown,ArrowLeft"":5,""ArrowDown,ArrowRight"":17}","false","ArrowDown,ArrowRight","false","revaluation","1","4","","",""
"html-keyboard-response","127","1015324","0.0-4.0-2.0-1.2","spark_pilot_norest","8676","8","18","Female","","","","","","","null","<div style=""font-size:60px;"">+</div>","null","fixation","","","","","","","","","5","","",""
"revaluation","128","1021353","0.0-4.0-2.0-0.3","spark_pilot_norest","8676","8","18","Female","","false","","","","","[679.2999999523163,416.09999990463257]","./assets/img/canyon/memory/10.jpg","[""ArrowUp"",""ArrowRight""]","value training","canyon","10","{""ArrowUp,ArrowLeft"":26,""ArrowUp,ArrowRight"":10,""ArrowDown,ArrowLeft"":5,""ArrowDown,ArrowRight"":17}","false","ArrowUp,ArrowRight","false","revaluation","1","6","","",""
"html-keyboard-response","129","1021868","0.0-4.0-2.0-1.3","spark_pilot_norest","8676","8","18","Female","","","","","","","null","<div style=""font-size:60px;"">+</div>","null","fixation","","","","","","","","","7","","",""
"revaluation","130","1027881","0.0-4.0-2.0-0.4","spark_pilot_norest","8676","8","18","Female","","false","","","","","[695,399.39999985694885]","./assets/img/canyon/memory/24.jpg","[""ArrowUp"",""ArrowLeft""]","value training","canyon","26","{""ArrowUp,ArrowLeft"":26,""ArrowUp,ArrowRight"":10,""ArrowDown,ArrowLeft"":5,""ArrowDown,ArrowRight"":17}","true","ArrowUp,ArrowLeft","false","revaluation","1","8","","",""
"html-keyboard-response","131","1028383","0.0-4.0-2.0-1.4","spark_pilot_norest","8676","8","18","Female","","","","","","","null","<div style=""font-size:60px;"">+</div>","null","fixation","","","","","","","","","9","","",""
"revaluation","132","1032389","0.0-4.0-2.0-0.5","spark_pilot_norest","8676","8","18","Female","","false","","","","","[612.5999999046326]","./assets/img/canyon/catch/3.jpg","[""spaceBar""]","value training","canyon","0","{""ArrowUp,ArrowLeft"":26,""ArrowUp,ArrowRight"":10,""ArrowDown,ArrowLeft"":5,""ArrowDown,ArrowRight"":17}","true","spaceBar","true","revaluation","1","10","","",""
"html-keyboard-response","133","1032891","0.0-4.0-2.0-1.5","spark_pilot_norest","8676","8","18","Female","","","","","","","null","<div style=""font-size:60px;"">+</div>","null","fixation","","","","","","","","","11","","",""
"revaluation","134","1038898","0.0-4.0-2.0-0.6","spark_pilot_norest","8676","8","18","Female","","false","","","","","[570.0999999046326,503.59999990463257]","./assets/img/canyon/memory/21.jpg","[""ArrowUp"",""ArrowLeft""]","value training","canyon","26","{""ArrowUp,ArrowLeft"":26,""ArrowUp,ArrowRight"":10,""ArrowDown,ArrowLeft"":5,""ArrowDown,ArrowRight"":17}","true","ArrowUp,ArrowLeft","false","revaluation","1","12","","",""
"html-keyboard-response","135","1039400","0.0-4.0-2.0-1.6","spark_pilot_norest","8676","8","18","Female","","","","","","","null","<div style=""font-size:60px;"">+</div>","null","fixation","","","","","","","","","13","","",""
"revaluation","136","1045406","0.0-4.0-2.0-0.7","spark_pilot_norest","8676","8","18","Female","","false","","","","","[763.7999999523163,315.5]","./assets/img/canyon/memory/19.jpg","[""ArrowUp"",""ArrowLeft""]","value training","canyon","26","{""ArrowUp,ArrowLeft"":26,""ArrowUp,ArrowRight"":10,""ArrowDown,ArrowLeft"":5,""ArrowDown,ArrowRight"":17}","true","ArrowUp,ArrowLeft","false","revaluation","1","14","","",""
"html-keyboard-response","137","1045922","0.0-4.0-2.0-1.7","spark_pilot_norest","8676","8","18","Female","","","","","","","null","<div style=""font-size:60px;"">+</div>","null","fixation","","","","","","","","","15","","",""
"revaluation","138","1051929","0.0-4.0-2.0-0.8","spark_pilot_norest","8676","8","18","Female","","false","","","","","[704.9000000953674,321]","./assets/img/canyon/memory/17.jpg","[""ArrowUp"",""ArrowLeft""]","value training","canyon","26","{""ArrowUp,ArrowLeft"":26,""ArrowUp,ArrowRight"":10,""ArrowDown,ArrowLeft"":5,""ArrowDown,ArrowRight"":17}","true","ArrowUp,ArrowLeft","false","revaluation","1","16","","",""
"html-keyboard-response","139","1052431","0.0-4.0-2.0-1.8","spark_pilot_norest","8676","8","18","Female","","","","","","","null","<div style=""font-size:60px;"">+</div>","null","fixation","","","","","","","","","17","","",""
"revaluation","140","1058438","0.0-4.0-2.0-0.9","spark_pilot_norest","8676","8","18","Female","","false","","","","","[709,276]","./assets/img/canyon/memory/20.jpg","[""ArrowUp"",""ArrowLeft""]","value training","canyon","26","{""ArrowUp,ArrowLeft"":26,""ArrowUp,ArrowRight"":10,""ArrowDown,ArrowLeft"":5,""ArrowDown,ArrowRight"":17}","true","ArrowUp,ArrowLeft","false","revaluation","1","18","","",""
"html-keyboard-response","141","1058939","0.0-4.0-2.0-1.9","spark_pilot_norest","8676","8","18","Female","","","","","","","null","<div style=""font-size:60px;"">+</div>","null","fixation","","","","","","","","","19","","",""
"revaluation","142","1064951","0.0-4.0-2.0-0.10","spark_pilot_norest","8676","8","18","Female","","false","","","","","[857,296.40000009536743]","./assets/img/canyon/memory/12.jpg","[""ArrowUp"",""ArrowLeft""]","value training","canyon","26","{""ArrowUp,ArrowLeft"":26,""ArrowUp,ArrowRight"":10,""ArrowDown,ArrowLeft"":5,""ArrowDown,ArrowRight"":17}","true","ArrowUp,ArrowLeft","false","revaluation","1","20","","",""
"html-keyboard-response","143","1065453","0.0-4.0-2.0-1.10","spark_pilot_norest","8676","8","18","Female","","","","","","","null","<div style=""font-size:60px;"">+</div>","null","fixation","","","","","","","","","21","","",""
"revaluation","144","1071458","0.0-4.0-2.0-0.11","spark_pilot_norest","8676","8","18","Female","","false","","","","","[681.1000001430511,391.59999990463257]","./assets/img/canyon/memory/36.jpg","[""ArrowUp"",""ArrowLeft""]","value training","canyon","26","{""ArrowUp,ArrowLeft"":26,""ArrowUp,ArrowRight"":10,""ArrowDown,ArrowLeft"":5,""ArrowDown,ArrowRight"":17}","true","ArrowUp,ArrowLeft","false","revaluation","1","22","","",""
"html-keyboard-response","145","1071973","0.0-4.0-2.0-1.11","spark_pilot_norest","8676","8","18","Female","","","","","","","null","<div style=""font-size:60px;"">+</div>","null","fixation","","","","","","","","","23","","",""
"revaluation","146","1075977","0.0-4.0-2.0-0.12","spark_pilot_norest","8676","8","18","Female","","false","","","","","[705.7000000476837]","./assets/img/canyon/catch/7.jpg","[""spaceBar""]","value training","canyon","0","{""ArrowUp,ArrowLeft"":26,""ArrowUp,ArrowRight"":10,""ArrowDown,ArrowLeft"":5,""ArrowDown,ArrowRight"":17}","true","spaceBar","true","revaluation","1","24","","",""
"html-keyboard-response","147","1076479","0.0-4.0-2.0-1.12","spark_pilot_norest","8676","8","18","Female","","","","","","","null","<div style=""font-size:60px;"">+</div>","null","fixation","","","","","","","","","25","","",""
"revaluation","148","1082485","0.0-4.0-2.0-0.13","spark_pilot_norest","8676","8","18","Female","","false","","","","","[789.2999999523163,308.59999990463257]","./assets/img/canyon/memory/36.jpg","[""ArrowUp"",""ArrowLeft""]","value training","canyon","26","{""ArrowUp,ArrowLeft"":26,""ArrowUp,ArrowRight"":10,""ArrowDown,ArrowLeft"":5,""ArrowDown,ArrowRight"":17}","true","ArrowUp,ArrowLeft","false","revaluation","1","26","","",""
"html-keyboard-response","149","1082987","0.0-4.0-2.0-1.13","spark_pilot_norest","8676","8","18","Female","","","","","","","null","<div style=""font-size:60px;"">+</div>","null","fixation","","","","","","","","","27","","",""
"revaluation","150","1088992","0.0-4.0-2.0-0.14","spark_pilot_norest","8676","8","18","Female","","false","","","","","[844.4000000953674,378.80000019073486]","./assets/img/canyon/memory/30.jpg","[""ArrowUp"",""ArrowLeft""]","value training","canyon","26","{""ArrowUp,ArrowLeft"":26,""ArrowUp,ArrowRight"":10,""ArrowDown,ArrowLeft"":5,""ArrowDown,ArrowRight"":17}","true","ArrowUp,ArrowLeft","false","revaluation","1","28","","",""
"html-keyboard-response","151","1089494","0.0-4.0-2.0-1.14","spark_pilot_norest","8676","8","18","Female","","","","","","","null","<div style=""font-size:60px;"">+</div>","null","fixation","","","","","","","","","29","","",""
"revaluation","152","1095500","0.0-4.0-2.0-0.15","spark_pilot_norest","8676","8","18","Female","","false","","","","","[879.4000000953674,316.80000019073486]","./assets/img/canyon/memory/21.jpg","[""ArrowUp"",""ArrowLeft""]","value training","canyon","26","{""ArrowUp,ArrowLeft"":26,""ArrowUp,ArrowRight"":10,""ArrowDown,ArrowLeft"":5,""ArrowDown,ArrowRight"":17}","true","ArrowUp,ArrowLeft","false","revaluation","1","30","","",""
"html-keyboard-response","153","1096002","0.0-4.0-2.0-1.15","spark_pilot_norest","8676","8","18","Female","","","","","","","null","<div style=""font-size:60px;"">+</div>","null","fixation","","","","","","","","","31","","",""
"revaluation","154","1102008","0.0-4.0-2.0-0.16","spark_pilot_norest","8676","8","18","Female","","false","","","","","[803.5999999046326,402.2000000476837]","./assets/img/canyon/memory/10.jpg","[""ArrowUp"",""ArrowLeft""]","value training","canyon","26","{""ArrowUp,ArrowLeft"":26,""ArrowUp,ArrowRight"":10,""ArrowDown,ArrowLeft"":5,""ArrowDown,ArrowRight"":17}","true","ArrowUp,ArrowLeft","false","revaluation","1","32","","",""
"html-keyboard-response","155","1102510","0.0-4.0-2.0-1.16","spark_pilot_norest","8676","8","18","Female","","","","","","","null","<div style=""font-size:60px;"">+</div>","null","fixation","","","","","","","","","33","","",""
"revaluation","156","1108517","0.0-4.0-2.0-0.17","spark_pilot_norest","8676","8","18","Female","","false","","","","","[660.8000001907349,308.2999999523163]","./assets/img/canyon/memory/3.jpg","[""ArrowUp"",""ArrowLeft""]","value training","canyon","26","{""ArrowUp,ArrowLeft"":26,""ArrowUp,ArrowRight"":10,""ArrowDown,ArrowLeft"":5,""ArrowDown,ArrowRight"":17}","true","ArrowUp,ArrowLeft","false","revaluation","1","34","","",""
"html-keyboard-response","157","1109018","0.0-4.0-2.0-1.17","spark_pilot_norest","8676","8","18","Female","","","","","","","null","<div style=""font-size:60px;"">+</div>","null","fixation","","","","","","","","","35","","",""
"revaluation","158","1115023","0.0-4.0-2.0-0.18","spark_pilot_norest","8676","8","18","Female","","false","","","","","[699.7000000476837,298.40000009536743]","./assets/img/canyon/memory/18.jpg","[""ArrowUp"",""ArrowLeft""]","value training","canyon","26","{""ArrowUp,ArrowLeft"":26,""ArrowUp,ArrowRight"":10,""ArrowDown,ArrowLeft"":5,""ArrowDown,ArrowRight"":17}","true","ArrowUp,ArrowLeft","false","revaluation","1","36","","",""
"html-keyboard-response","159","1115524","0.0-4.0-2.0-1.18","spark_pilot_norest","8676","8","18","Female","","","","","","","null","<div style=""font-size:60px;"">+</div>","null","fixation","","","","","","","","","37","","",""
"revaluation","160","1121541","0.0-4.0-2.0-0.19","spark_pilot_norest","8676","8","18","Female","","false","","","","","[638.5,276.69999980926514]","./assets/img/canyon/memory/20.jpg","[""ArrowUp"",""ArrowLeft""]","value training","canyon","26","{""ArrowUp,ArrowLeft"":26,""ArrowUp,ArrowRight"":10,""ArrowDown,ArrowLeft"":5,""ArrowDown,ArrowRight"":17}","true","ArrowUp,ArrowLeft","false","revaluation","1","38","","",""
"html-keyboard-response","161","1122043","0.0-4.0-2.0-1.19","spark_pilot_norest","8676","8","18","Female","","","","","","","null","<div style=""font-size:60px;"">+</div>","null","fixation","","","","","","","","","39","","",""
"revaluation","162","1128050","0.0-4.0-2.0-0.20","spark_pilot_norest","8676","8","18","Female","","false","","","","","[792.8999998569489,261.7000000476837]","./assets/img/canyon/memory/32.jpg","[""ArrowUp"",""ArrowLeft""]","value training","canyon","26","{""ArrowUp,ArrowLeft"":26,""ArrowUp,ArrowRight"":10,""ArrowDown,ArrowLeft"":5,""ArrowDown,ArrowRight"":17}","true","ArrowUp,ArrowLeft","false","revaluation","1","40","","",""
"html-keyboard-response","163","1128551","0.0-4.0-2.0-1.20","spark_pilot_norest","8676","8","18","Female","","","","","","","null","<div style=""font-size:60px;"">+</div>","null","fixation","","","","","","","","","41","","",""
"revaluation","164","1134557","0.0-4.0-2.0-0.21","spark_pilot_norest","8676","8","18","Female","","false","","","","","[750.5,317.7999999523163]","./assets/img/canyon/memory/0.jpg","[""ArrowUp"",""ArrowLeft""]","value training","canyon","26","{""ArrowUp,ArrowLeft"":26,""ArrowUp,ArrowRight"":10,""ArrowDown,ArrowLeft"":5,""ArrowDown,ArrowRight"":17}","true","ArrowUp,ArrowLeft","false","revaluation","1","42","","",""
"html-keyboard-response","165","1135059","0.0-4.0-2.0-1.21","spark_pilot_norest","8676","8","18","Female","","","","","","","null","<div style=""font-size:60px;"">+</div>","null","fixation","","","","","","","","","43","","",""
"revaluation","166","1141064","0.0-4.0-2.0-0.22","spark_pilot_norest","8676","8","18","Female","","false","","","","","[690.8000001907349,289.39999985694885]","./assets/img/canyon/memory/0.jpg","[""ArrowUp"",""ArrowLeft""]","value training","canyon","26","{""ArrowUp,ArrowLeft"":26,""ArrowUp,ArrowRight"":10,""ArrowDown,ArrowLeft"":5,""ArrowDown,ArrowRight"":17}","true","ArrowUp,ArrowLeft","false","revaluation","1","44","","",""
"html-keyboard-response","167","1141566","0.0-4.0-2.0-1.22","spark_pilot_norest","8676","8","18","Female","","","","","","","null","<div style=""font-size:60px;"">+</div>","null","fixation","","","","","","","","","45","","",""
"revaluation","168","1147574","0.0-4.0-2.0-0.23","spark_pilot_norest","8676","8","18","Female","","false","","","","","[693.7999999523163,324.90000009536743]","./assets/img/canyon/memory/3.jpg","[""ArrowUp"",""ArrowLeft""]","value training","canyon","26","{""ArrowUp,ArrowLeft"":26,""ArrowUp,ArrowRight"":10,""ArrowDown,ArrowLeft"":5,""ArrowDown,ArrowRight"":17}","true","ArrowUp,ArrowLeft","false","revaluation","1","46","","",""
"html-keyboard-response","169","1148076","0.0-4.0-2.0-1.23","spark_pilot_norest","8676","8","18","Female","","","","","","","null","<div style=""font-size:60px;"">+</div>","null","fixation","","","","","","","","","47","","",""
"revaluation","170","1154082","0.0-4.0-2.0-0.24","spark_pilot_norest","8676","8","18","Female","","false","","","","","[570.2000000476837,295.19999980926514]","./assets/img/canyon/memory/29.jpg","[""ArrowUp"",""ArrowLeft""]","value training","canyon","26","{""ArrowUp,ArrowLeft"":26,""ArrowUp,ArrowRight"":10,""ArrowDown,ArrowLeft"":5,""ArrowDown,ArrowRight"":17}","true","ArrowUp,ArrowLeft","false","revaluation","1","48","","",""
"html-keyboard-response","171","1154584","0.0-4.0-2.0-1.24","spark_pilot_norest","8676","8","18","Female","","","","","","","null","<div style=""font-size:60px;"">+</div>","null","fixation","","","","","","","","","49","","",""
"revaluation","172","1158589","0.0-4.0-2.0-0.25","spark_pilot_norest","8676","8","18","Female","","false","","","","","[747.9000000953674]","./assets/img/canyon/catch/0.jpg","[""spaceBar""]","value training","canyon","0","{""ArrowUp,ArrowLeft"":26,""ArrowUp,ArrowRight"":10,""ArrowDown,ArrowLeft"":5,""ArrowDown,ArrowRight"":17}","true","spaceBar","true","revaluation","1","50","","",""
"html-keyboard-response","173","1159091","0.0-4.0-2.0-1.25","spark_pilot_norest","8676","8","18","Female","","","","","","","null","<div style=""font-size:60px;"">+</div>","null","fixation","","","","","","","","","51","","",""
"revaluation","174","1165098","0.0-4.0-2.0-0.26","spark_pilot_norest","8676","8","18","Female","","false","","","","","[736.3999998569489,287.2000000476837]","./assets/img/canyon/memory/6.jpg","[""ArrowUp"",""ArrowLeft""]","value training","canyon","26","{""ArrowUp,ArrowLeft"":26,""ArrowUp,ArrowRight"":10,""ArrowDown,ArrowLeft"":5,""ArrowDown,ArrowRight"":17}","true","ArrowUp,ArrowLeft","false","revaluation","1","52","","",""
"html-keyboard-response","175","1165602","0.0-4.0-2.0-1.26","spark_pilot_norest","8676","8","18","Female","","","","","","","null","<div style=""font-size:60px;"">+</div>","null","fixation","","","","","","","","","53","","",""
"revaluation","176","1171608","0.0-4.0-2.0-0.27","spark_pilot_norest","8676","8","18","Female","","false","","","","","[786.1999998092651,290.2000000476837]","./assets/img/canyon/memory/17.jpg","[""ArrowUp"",""ArrowLeft""]","value training","canyon","26","{""ArrowUp,ArrowLeft"":26,""ArrowUp,ArrowRight"":10,""ArrowDown,ArrowLeft"":5,""ArrowDown,ArrowRight"":17}","true","ArrowUp,ArrowLeft","false","revaluation","1","54","","",""
"html-keyboard-response","177","1172111","0.0-4.0-2.0-1.27","spark_pilot_norest","8676","8","18","Female","","","","","","","null","<div style=""font-size:60px;"">+</div>","null","fixation","","","","","","","","","55","","",""
"revaluation","178","1178115","0.0-4.0-2.0-0.28","spark_pilot_norest","8676","8","18","Female","","false","","","","","[742.2000000476837,646]","./assets/img/canyon/memory/19.jpg","[""ArrowUp"",""ArrowLeft""]","value training","canyon","26","{""ArrowUp,ArrowLeft"":26,""ArrowUp,ArrowRight"":10,""ArrowDown,ArrowLeft"":5,""ArrowDown,ArrowRight"":17}","true","ArrowUp,ArrowLeft","false","revaluation","1","56","","",""
"html-keyboard-response","179","1178619","0.0-4.0-2.0-1.28","spark_pilot_norest","8676","8","18","Female","","","","","","","null","<div style=""font-size:60px;"">+</div>","null","fixation","","","","","","","","","57","","",""
"revaluation","180","1182624","0.0-4.0-2.0-0.29","spark_pilot_norest","8676","8","18","Female","","false","","","","","[584.7000000476837]","./assets/img/canyon/catch/6.jpg","[""spaceBar""]","value training","canyon","0","{""ArrowUp,ArrowLeft"":26,""ArrowUp,ArrowRight"":10,""ArrowDown,ArrowLeft"":5,""ArrowDown,ArrowRight"":17}","true","spaceBar","true","revaluation","1","58","","",""
"html-keyboard-response","181","1183125","0.0-4.0-2.0-1.29","spark_pilot_norest","8676","8","18","Female","","","","","","","null","<div style=""font-size:60px;"">+</div>","null","fixation","","","","","","","","","59","","",""
"revaluation","182","1189131","0.0-4.0-2.0-0.30","spark_pilot_norest","8676","8","18","Female","","false","","","","","[896.7999999523163,349]","./assets/img/canyon/memory/12.jpg","[""ArrowUp"",""ArrowLeft""]","value training","canyon","26","{""ArrowUp,ArrowLeft"":26,""ArrowUp,ArrowRight"":10,""ArrowDown,ArrowLeft"":5,""ArrowDown,ArrowRight"":17}","true","ArrowUp,ArrowLeft","false","revaluation","1","60","","",""
"html-keyboard-response","183","1189633","0.0-4.0-2.0-1.30","spark_pilot_norest","8676","8","18","Female","","","","","","","null","<div style=""font-size:60px;"">+</div>","null","fixation","","","","","","","","","61","","",""
"revaluation","184","1195637","0.0-4.0-2.0-0.31","spark_pilot_norest","8676","8","18","Female","","false","","","","","[595.5,291]","./assets/img/canyon/memory/14.jpg","[""ArrowUp"",""ArrowLeft""]","value training","canyon","26","{""ArrowUp,ArrowLeft"":26,""ArrowUp,ArrowRight"":10,""ArrowDown,ArrowLeft"":5,""ArrowDown,ArrowRight"":17}","true","ArrowUp,ArrowLeft","false","revaluation","1","62","","",""
"html-keyboard-response","185","1196141","0.0-4.0-2.0-1.31","spark_pilot_norest","8676","8","18","Female","","","","","","","null","<div style=""font-size:60px;"">+</div>","null","fixation","","","","","","","","","63","","",""
"revaluation","186","1200147","0.0-4.0-2.0-0.32","spark_pilot_norest","8676","8","18","Female","","false","","","","","[582.7999999523163]","./assets/img/canyon/catch/4.jpg","[""spaceBar""]","value training","canyon","0","{""ArrowUp,ArrowLeft"":26,""ArrowUp,ArrowRight"":10,""ArrowDown,ArrowLeft"":5,""ArrowDown,ArrowRight"":17}","true","spaceBar","true","revaluation","1","64","","",""
"html-keyboard-response","187","1200649","0.0-4.0-2.0-1.32","spark_pilot_norest","8676","8","18","Female","","","","","","","null","<div style=""font-size:60px;"">+</div>","null","fixation","","","","","","","","","65","","",""
"revaluation","188","1206661","0.0-4.0-2.0-0.33","spark_pilot_norest","8676","8","18","Female","","false","","","","","[842.3999998569489,378.2999999523163]","./assets/img/canyon/memory/6.jpg","[""ArrowUp"",""ArrowLeft""]","value training","canyon","26","{""ArrowUp,ArrowLeft"":26,""ArrowUp,ArrowRight"":10,""ArrowDown,ArrowLeft"":5,""ArrowDown,ArrowRight"":17}","true","ArrowUp,ArrowLeft","false","revaluation","1","66","","",""
"html-keyboard-response","189","1207164","0.0-4.0-2.0-1.33","spark_pilot_norest","8676","8","18","Female","","","","","","","null","<div style=""font-size:60px;"">+</div>","null","fixation","","","","","","","","","67","","",""
"revaluation","190","1213170","0.0-4.0-2.0-0.34","spark_pilot_norest","8676","8","18","Female","","false","","","","","[759.5,310.5]","./assets/img/canyon/memory/24.jpg","[""ArrowUp"",""ArrowLeft""]","value training","canyon","26","{""ArrowUp,ArrowLeft"":26,""ArrowUp,ArrowRight"":10,""ArrowDown,ArrowLeft"":5,""ArrowDown,ArrowRight"":17}","true","ArrowUp,ArrowLeft","false","revaluation","1","68","","",""
"html-keyboard-response","191","1213672","0.0-4.0-2.0-1.34","spark_pilot_norest","8676","8","18","Female","","","","","","","null","<div style=""font-size:60px;"">+</div>","null","fixation","","","","","","","","","69","","",""
"revaluation","192","1219679","0.0-4.0-2.0-0.35","spark_pilot_norest","8676","8","18","Female","","false","","","","","[699.2000000476837,329.2000000476837]","./assets/img/canyon/memory/32.jpg","[""ArrowUp"",""ArrowLeft""]","value training","canyon","26","{""ArrowUp,ArrowLeft"":26,""ArrowUp,ArrowRight"":10,""ArrowDown,ArrowLeft"":5,""ArrowDown,ArrowRight"":17}","true","ArrowUp,ArrowLeft","false","revaluation","1","70","","",""
"html-keyboard-response","193","1220180","0.0-4.0-2.0-1.35","spark_pilot_norest","8676","8","18","Female","","","","","","","null","<div style=""font-size:60px;"">+</div>","null","fixation","","","","","","","","","71","","",""
"revaluation","194","1226187","0.0-4.0-2.0-0.36","spark_pilot_norest","8676","8","18","Female","","false","","","","","[640.4000000953674,349.7999999523163]","./assets/img/canyon/memory/23.jpg","[""ArrowUp"",""ArrowLeft""]","value training","canyon","26","{""ArrowUp,ArrowLeft"":26,""ArrowUp,ArrowRight"":10,""ArrowDown,ArrowLeft"":5,""ArrowDown,ArrowRight"":17}","true","ArrowUp,ArrowLeft","false","revaluation","1","72","","",""
"html-keyboard-response","195","1226688","0.0-4.0-2.0-1.36","spark_pilot_norest","8676","8","18","Female","","","","","","","null","<div style=""font-size:60px;"">+</div>","null","fixation","","","","","","","","","73","","",""
"revaluation","196","1232694","0.0-4.0-2.0-0.37","spark_pilot_norest","8676","8","18","Female","","false","","","","","[724.7000000476837,546.4000000953674]","./assets/img/canyon/memory/2.jpg","[""ArrowUp"",""ArrowLeft""]","value training","canyon","26","{""ArrowUp,ArrowLeft"":26,""ArrowUp,ArrowRight"":10,""ArrowDown,ArrowLeft"":5,""ArrowDown,ArrowRight"":17}","true","ArrowUp,ArrowLeft","false","revaluation","1","74","","",""
"html-keyboard-response","197","1233195","0.0-4.0-2.0-1.37","spark_pilot_norest","8676","8","18","Female","","","","","","","null","<div style=""font-size:60px;"">+</div>","null","fixation","","","","","","","","","75","","",""
"revaluation","198","1239202","0.0-4.0-2.0-0.38","spark_pilot_norest","8676","8","18","Female","","false","","","","","[903.2999999523163,407.80000019073486]","./assets/img/canyon/memory/2.jpg","[""ArrowUp"",""ArrowLeft""]","value training","canyon","26","{""ArrowUp,ArrowLeft"":26,""ArrowUp,ArrowRight"":10,""ArrowDown,ArrowLeft"":5,""ArrowDown,ArrowRight"":17}","true","ArrowUp,ArrowLeft","false","revaluation","1","76","","",""
"html-keyboard-response","199","1239704","0.0-4.0-2.0-1.38","spark_pilot_norest","8676","8","18","Female","","","","","","","null","<div style=""font-size:60px;"">+</div>","null","fixation","","","","","","","","","77","","",""
"revaluation","200","1243710","0.0-4.0-2.0-0.39","spark_pilot_norest","8676","8","18","Female","","false","","","","","[746.6000001430511]","./assets/img/canyon/catch/1.jpg","[""spaceBar""]","value training","canyon","0","{""ArrowUp,ArrowLeft"":26,""ArrowUp,ArrowRight"":10,""ArrowDown,ArrowLeft"":5,""ArrowDown,ArrowRight"":17}","true","spaceBar","true","revaluation","1","78","","",""
"html-keyboard-response","201","1244211","0.0-4.0-2.0-1.39","spark_pilot_norest","8676","8","18","Female","","","","","","","null","<div style=""font-size:60px;"">+</div>","null","fixation","","","","","","","","","79","","",""
"revaluation","202","1250218","0.0-4.0-2.0-0.40","spark_pilot_norest","8676","8","18","Female","","false","","","","","[944.5,367.40000009536743]","./assets/img/canyon/memory/1.jpg","[""ArrowUp"",""ArrowLeft""]","value training","canyon","26","{""ArrowUp,ArrowLeft"":26,""ArrowUp,ArrowRight"":10,""ArrowDown,ArrowLeft"":5,""ArrowDown,ArrowRight"":17}","true","ArrowUp,ArrowLeft","false","revaluation","1","80","","",""
"html-keyboard-response","203","1250719","0.0-4.0-2.0-1.40","spark_pilot_norest","8676","8","18","Female","","","","","","","null","<div style=""font-size:60px;"">+</div>","null","fixation","","","","","","","","","81","","",""
"revaluation","204","1256726","0.0-4.0-2.0-0.41","spark_pilot_norest","8676","8","18","Female","","false","","","","","[675.1000001430511,514.4000000953674]","./assets/img/canyon/memory/14.jpg","[""ArrowUp"",""ArrowLeft""]","value training","canyon","26","{""ArrowUp,ArrowLeft"":26,""ArrowUp,ArrowRight"":10,""ArrowDown,ArrowLeft"":5,""ArrowDown,ArrowRight"":17}","true","ArrowUp,ArrowLeft","false","revaluation","1","82","","",""
"html-keyboard-response","205","1257226","0.0-4.0-2.0-1.41","spark_pilot_norest","8676","8","18","Female","","","","","","","null","<div style=""font-size:60px;"">+</div>","null","fixation","","","","","","","","","83","","",""
"revaluation","206","1263233","0.0-4.0-2.0-0.42","spark_pilot_norest","8676","8","18","Female","","false","","","","","[906.5999999046326,487.10000014305115]","./assets/img/canyon/memory/18.jpg","[""ArrowUp"",""ArrowLeft""]","value training","canyon","26","{""ArrowUp,ArrowLeft"":26,""ArrowUp,ArrowRight"":10,""ArrowDown,ArrowLeft"":5,""ArrowDown,ArrowRight"":17}","true","ArrowUp,ArrowLeft","false","revaluation","1","84","","",""
"html-keyboard-response","207","1263734","0.0-4.0-2.0-1.42","spark_pilot_norest","8676","8","18","Female","","","","","","","null","<div style=""font-size:60px;"">+</div>","null","fixation","","","","","","","","","85","","",""
"revaluation","208","1269741","0.0-4.0-2.0-0.43","spark_pilot_norest","8676","8","18","Female","","false","","","","","[1132.7999999523163,395.7000000476837]","./assets/img/canyon/memory/23.jpg","[""ArrowUp"",""ArrowLeft""]","value training","canyon","26","{""ArrowUp,ArrowLeft"":26,""ArrowUp,ArrowRight"":10,""ArrowDown,ArrowLeft"":5,""ArrowDown,ArrowRight"":17}","true","ArrowUp,ArrowLeft","false","revaluation","1","86","","",""
"html-keyboard-response","209","1270242","0.0-4.0-2.0-1.43","spark_pilot_norest","8676","8","18","Female","","","","","","","null","<div style=""font-size:60px;"">+</div>","null","fixation","","","","","","","","","87","","",""
"revaluation","210","1274246","0.0-4.0-2.0-0.44","spark_pilot_norest","8676","8","18","Female","","false","","","","","[833.5999999046326]","./assets/img/canyon/catch/2.jpg","[""spaceBar""]","value training","canyon","0","{""ArrowUp,ArrowLeft"":26,""ArrowUp,ArrowRight"":10,""ArrowDown,ArrowLeft"":5,""ArrowDown,ArrowRight"":17}","true","spaceBar","true","revaluation","1","88","","",""
"html-keyboard-response","211","1274761","0.0-4.0-2.0-1.44","spark_pilot_norest","8676","8","18","Female","","","","","","","null","<div style=""font-size:60px;"">+</div>","null","fixation","","","","","","","","","89","","",""
"revaluation","212","1278767","0.0-4.0-2.0-0.45","spark_pilot_norest","8676","8","18","Female","","false","","","","","[714]","./assets/img/canyon/catch/5.jpg","[""spaceBar""]","value training","canyon","0","{""ArrowUp,ArrowLeft"":26,""ArrowUp,ArrowRight"":10,""ArrowDown,ArrowLeft"":5,""ArrowDown,ArrowRight"":17}","true","spaceBar","true","revaluation","1","90","","",""
"html-keyboard-response","213","1279268","0.0-4.0-2.0-1.45","spark_pilot_norest","8676","8","18","Female","","","","","","","null","<div style=""font-size:60px;"">+</div>","null","fixation","","","","","","","","","91","","",""
"revaluation","214","1285274","0.0-4.0-2.0-0.46","spark_pilot_norest","8676","8","18","Female","","false","","","","","[621.1999998092651,366.40000009536743]","./assets/img/canyon/memory/28.jpg","[""ArrowUp"",""ArrowLeft""]","value training","canyon","26","{""ArrowUp,ArrowLeft"":26,""ArrowUp,ArrowRight"":10,""ArrowDown,ArrowLeft"":5,""ArrowDown,ArrowRight"":17}","true","ArrowUp,ArrowLeft","false","revaluation","1","92","","",""
"html-keyboard-response","215","1285775","0.0-4.0-2.0-1.46","spark_pilot_norest","8676","8","18","Female","","","","","","","null","<div style=""font-size:60px;"">+</div>","null","fixation","","","","","","","","","93","","",""
"revaluation","216","1291779","0.0-4.0-2.0-0.47","spark_pilot_norest","8676","8","18","Female","","false","","","","","[693,261.5]","./assets/img/canyon/memory/30.jpg","[""ArrowUp"",""ArrowLeft""]","value training","canyon","26","{""ArrowUp,ArrowLeft"":26,""ArrowUp,ArrowRight"":10,""ArrowDown,ArrowLeft"":5,""ArrowDown,ArrowRight"":17}","true","ArrowUp,ArrowLeft","false","revaluation","1","94","","",""
"html-keyboard-response","217","1292280","0.0-4.0-2.0-1.47","spark_pilot_norest","8676","8","18","Female","","","","","","","null","<div style=""font-size:60px;"">+</div>","null","fixation","","","","","","","","","95","","",""
"revaluation","218","1298286","0.0-4.0-2.0-0.48","spark_pilot_norest","8676","8","18","Female","","false","","","","","[604.3000001907349,281.39999985694885]","./assets/img/canyon/memory/1.jpg","[""ArrowUp"",""ArrowLeft""]","value training","canyon","26","{""ArrowUp,ArrowLeft"":26,""ArrowUp,ArrowRight"":10,""ArrowDown,ArrowLeft"":5,""ArrowDown,ArrowRight"":17}","true","ArrowUp,ArrowLeft","false","revaluation","1","96","","",""
"html-keyboard-response","219","1298796","0.0-4.0-2.0-1.48","spark_pilot_norest","8676","8","18","Female","","","","","","","null","<div style=""font-size:60px;"">+</div>","null","fixation","","","","","","","","","97","","",""
"revaluation","220","1304801","0.0-4.0-2.0-0.49","spark_pilot_norest","8676","8","18","Female","","false","","","","","[551.3999998569489,262.90000009536743]","./assets/img/canyon/memory/22.jpg","[""ArrowUp"",""ArrowLeft""]","value training","canyon","26","{""ArrowUp,ArrowLeft"":26,""ArrowUp,ArrowRight"":10,""ArrowDown,ArrowLeft"":5,""ArrowDown,ArrowRight"":17}","true","ArrowUp,ArrowLeft","false","revaluation","1","98","","",""
"html-keyboard-response","221","1305303","0.0-4.0-2.0-1.49","spark_pilot_norest","8676","8","18","Female","","","","","","","null","<div style=""font-size:60px;"">+</div>","null","fixation","","","","","","","","","99","","",""
"learning-instructions","222","1328966","0.0-4.0-3.0-0.0","spark_pilot_norest","8676","8","18","Female","","","","","","","10405","<p> Now, you will travel with a friend who will choose whether you go up or down first. </p>
            <p> On these turns, you will just see the animal that they found. You will still get to choose which chest to search for treasure.</p>","","instructions","","","","","","","","","","","",""
"revaluation","223","1332992","0.0-4.0-4.0-0.0","spark_pilot_norest","8676","8","18","Female","","false","","","","","[1535.0999999046326]","./assets/img/canyon/animals/giraffe.jpg","[""ArrowLeft""]","revaluation","canyon","8","{""ArrowUp,ArrowLeft"":2,""ArrowUp,ArrowRight"":11,""ArrowDown,ArrowLeft"":8,""ArrowDown,ArrowRight"":27}","false","ArrowDown,ArrowLeft","","revaluation","1","0","","",""
"html-keyboard-response","224","1333506","0.0-4.0-4.0-1.0","spark_pilot_norest","8676","8","18","Female","","","","","","","null","<div style=""font-size:60px;"">+</div>","null","fixation","","","","","","","","","1","","",""
"revaluation","225","1337530","0.0-4.0-4.0-0.1","spark_pilot_norest","8676","8","18","Female","","false","","","","","[943.5999999046326]","./assets/img/canyon/animals/lion.jpg","[""ArrowLeft""]","revaluation","canyon","2","{""ArrowUp,ArrowLeft"":2,""ArrowUp,ArrowRight"":11,""ArrowDown,ArrowLeft"":8,""ArrowDown,ArrowRight"":27}","false","ArrowUp,ArrowLeft","","revaluation","1","2","","",""
"html-keyboard-response","226","1338039","0.0-4.0-4.0-1.1","spark_pilot_norest","8676","8","18","Female","","","","","","","null","<div style=""font-size:60px;"">+</div>","null","fixation","","","","","","","","","3","","",""
"revaluation","227","1342059","0.0-4.0-4.0-0.2","spark_pilot_norest","8676","8","18","Female","","true","","","","","[]","./assets/img/canyon/animals/lion.jpg","[]","revaluation","canyon","-5","{""ArrowUp,ArrowLeft"":2,""ArrowUp,ArrowRight"":11,""ArrowDown,ArrowLeft"":8,""ArrowDown,ArrowRight"":27}","false","ArrowUp","","revaluation","1","4","","",""
"html-keyboard-response","228","1342571","0.0-4.0-4.0-1.2","spark_pilot_norest","8676","8","18","Female","","","","","","","null","<div style=""font-size:60px;"">+</div>","null","fixation","","","","","","","","","5","","",""
"revaluation","229","1346589","0.0-4.0-4.0-0.3","spark_pilot_norest","8676","8","18","Female","","false","","","","","[886.5999999046326]","./assets/img/canyon/animals/giraffe.jpg","[""ArrowRight""]","revaluation","canyon","27","{""ArrowUp,ArrowLeft"":2,""ArrowUp,ArrowRight"":11,""ArrowDown,ArrowLeft"":8,""ArrowDown,ArrowRight"":27}","true","ArrowDown,ArrowRight","","revaluation","1","6","","",""
"html-keyboard-response","230","1347104","0.0-4.0-4.0-1.3","spark_pilot_norest","8676","8","18","Female","","","","","","","null","<div style=""font-size:60px;"">+</div>","null","fixation","","","","","","","","","7","","",""
"revaluation","231","1351107","0.0-4.0-4.0-0.4","spark_pilot_norest","8676","8","18","Female","","false","","","","","[949.2000000476837]","./assets/img/canyon/animals/lion.jpg","[""ArrowRight""]","revaluation","canyon","11","{""ArrowUp,ArrowLeft"":2,""ArrowUp,ArrowRight"":11,""ArrowDown,ArrowLeft"":8,""ArrowDown,ArrowRight"":27}","true","ArrowUp,ArrowRight","","revaluation","1","8","","",""
"html-keyboard-response","232","1351609","0.0-4.0-4.0-1.4","spark_pilot_norest","8676","8","18","Female","","","","","","","null","<div style=""font-size:60px;"">+</div>","null","fixation","","","","","","","","","9","","",""
"revaluation","233","1355615","0.0-4.0-4.0-0.5","spark_pilot_norest","8676","8","18","Female","","false","","","","","[919.6999998092651]","./assets/img/canyon/animals/lion.jpg","[""ArrowRight""]","revaluation","canyon","11","{""ArrowUp,ArrowLeft"":2,""ArrowUp,ArrowRight"":11,""ArrowDown,ArrowLeft"":8,""ArrowDown,ArrowRight"":27}","true","ArrowUp,ArrowRight","","revaluation","1","10","","",""
"html-keyboard-response","234","1356117","0.0-4.0-4.0-1.5","spark_pilot_norest","8676","8","18","Female","","","","","","","null","<div style=""font-size:60px;"">+</div>","null","fixation","","","","","","","","","11","","",""
"revaluation","235","1360123","0.0-4.0-4.0-0.6","spark_pilot_norest","8676","8","18","Female","","false","","","","","[972.5999999046326]","./assets/img/canyon/animals/giraffe.jpg","[""ArrowRight""]","revaluation","canyon","27","{""ArrowUp,ArrowLeft"":2,""ArrowUp,ArrowRight"":11,""ArrowDown,ArrowLeft"":8,""ArrowDown,ArrowRight"":27}","true","ArrowDown,ArrowRight","","revaluation","1","12","","",""
"html-keyboard-response","236","1360624","0.0-4.0-4.0-1.6","spark_pilot_norest","8676","8","18","Female","","","","","","","null","<div style=""font-size:60px;"">+</div>","null","fixation","","","","","","","","","13","","",""
"revaluation","237","1364629","0.0-4.0-4.0-0.7","spark_pilot_norest","8676","8","18","Female","","false","","","","","[754.2000000476837]","./assets/img/canyon/animals/giraffe.jpg","[""ArrowRight""]","revaluation","canyon","27","{""ArrowUp,ArrowLeft"":2,""ArrowUp,ArrowRight"":11,""ArrowDown,ArrowLeft"":8,""ArrowDown,ArrowRight"":27}","true","ArrowDown,ArrowRight","","revaluation","1","14","","",""
"html-keyboard-response","238","1365129","0.0-4.0-4.0-1.7","spark_pilot_norest","8676","8","18","Female","","","","","","","null","<div style=""font-size:60px;"">+</div>","null","fixation","","","","","","","","","15","","",""
"revaluation","239","1369136","0.0-4.0-4.0-0.8","spark_pilot_norest","8676","8","18","Female","","false","","","","","[713.2000000476837]","./assets/img/canyon/animals/giraffe.jpg","[""ArrowRight""]","revaluation","canyon","27","{""ArrowUp,ArrowLeft"":2,""ArrowUp,ArrowRight"":11,""ArrowDown,ArrowLeft"":8,""ArrowDown,ArrowRight"":27}","true","ArrowDown,ArrowRight","","revaluation","1","16","","",""
"html-keyboard-response","240","1369638","0.0-4.0-4.0-1.8","spark_pilot_norest","8676","8","18","Female","","","","","","","null","<div style=""font-size:60px;"">+</div>","null","fixation","","","","","","","","","17","","",""
"revaluation","241","1373640","0.0-4.0-4.0-0.9","spark_pilot_norest","8676","8","18","Female","","false","","","","","[590.5999999046326]","./assets/img/canyon/animals/giraffe.jpg","[""ArrowRight""]","revaluation","canyon","27","{""ArrowUp,ArrowLeft"":2,""ArrowUp,ArrowRight"":11,""ArrowDown,ArrowLeft"":8,""ArrowDown,ArrowRight"":27}","true","ArrowDown,ArrowRight","","revaluation","1","18","","",""
"html-keyboard-response","242","1374142","0.0-4.0-4.0-1.9","spark_pilot_norest","8676","8","18","Female","","","","","","","null","<div style=""font-size:60px;"">+</div>","null","fixation","","","","","","","","","19","","",""
"revaluation","243","1378145","0.0-4.0-4.0-0.10","spark_pilot_norest","8676","8","18","Female","","false","","","","","[342.5]","./assets/img/canyon/animals/lion.jpg","[""ArrowRight""]","revaluation","canyon","11","{""ArrowUp,ArrowLeft"":2,""ArrowUp,ArrowRight"":11,""ArrowDown,ArrowLeft"":8,""ArrowDown,ArrowRight"":27}","true","ArrowUp,ArrowRight","","revaluation","1","20","","",""
"html-keyboard-response","244","1378646","0.0-4.0-4.0-1.10","spark_pilot_norest","8676","8","18","Female","","","","","","","null","<div style=""font-size:60px;"">+</div>","null","fixation","","","","","","","","","21","","",""
"revaluation","245","1382651","0.0-4.0-4.0-0.11","spark_pilot_norest","8676","8","18","Female","","false","","","","","[492.5]","./assets/img/canyon/animals/lion.jpg","[""ArrowRight""]","revaluation","canyon","11","{""ArrowUp,ArrowLeft"":2,""ArrowUp,ArrowRight"":11,""ArrowDown,ArrowLeft"":8,""ArrowDown,ArrowRight"":27}","true","ArrowUp,ArrowRight","","revaluation","1","22","","",""
"html-keyboard-response","246","1383153","0.0-4.0-4.0-1.11","spark_pilot_norest","8676","8","18","Female","","","","","","","null","<div style=""font-size:60px;"">+</div>","null","fixation","","","","","","","","","23","","",""
"revaluation","247","1387159","0.0-4.0-4.0-0.12","spark_pilot_norest","8676","8","18","Female","","false","","","","","[577]","./assets/img/canyon/animals/giraffe.jpg","[""ArrowRight""]","revaluation","canyon","27","{""ArrowUp,ArrowLeft"":2,""ArrowUp,ArrowRight"":11,""ArrowDown,ArrowLeft"":8,""ArrowDown,ArrowRight"":27}","true","ArrowDown,ArrowRight","","revaluation","1","24","","",""
"html-keyboard-response","248","1387662","0.0-4.0-4.0-1.12","spark_pilot_norest","8676","8","18","Female","","","","","","","null","<div style=""font-size:60px;"">+</div>","null","fixation","","","","","","","","","25","","",""
"revaluation","249","1391667","0.0-4.0-4.0-0.13","spark_pilot_norest","8676","8","18","Female","","false","","","","","[564.0999999046326]","./assets/img/canyon/animals/lion.jpg","[""ArrowRight""]","revaluation","canyon","11","{""ArrowUp,ArrowLeft"":2,""ArrowUp,ArrowRight"":11,""ArrowDown,ArrowLeft"":8,""ArrowDown,ArrowRight"":27}","true","ArrowUp,ArrowRight","","revaluation","1","26","","",""
"html-keyboard-response","250","1392168","0.0-4.0-4.0-1.13","spark_pilot_norest","8676","8","18","Female","","","","","","","null","<div style=""font-size:60px;"">+</div>","null","fixation","","","","","","","","","27","","",""
"revaluation","251","1396173","0.0-4.0-4.0-0.14","spark_pilot_norest","8676","8","18","Female","","false","","","","","[364]","./assets/img/canyon/animals/giraffe.jpg","[""ArrowRight""]","revaluation","canyon","27","{""ArrowUp,ArrowLeft"":2,""ArrowUp,ArrowRight"":11,""ArrowDown,ArrowLeft"":8,""ArrowDown,ArrowRight"":27}","true","ArrowDown,ArrowRight","","revaluation","1","28","","",""
"html-keyboard-response","252","1396675","0.0-4.0-4.0-1.14","spark_pilot_norest","8676","8","18","Female","","","","","","","null","<div style=""font-size:60px;"">+</div>","null","fixation","","","","","","","","","29","","",""
"revaluation","253","1400679","0.0-4.0-4.0-0.15","spark_pilot_norest","8676","8","18","Female","","false","","","","","[448.5]","./assets/img/canyon/animals/giraffe.jpg","[""ArrowRight""]","revaluation","canyon","27","{""ArrowUp,ArrowLeft"":2,""ArrowUp,ArrowRight"":11,""ArrowDown,ArrowLeft"":8,""ArrowDown,ArrowRight"":27}","true","ArrowDown,ArrowRight","","revaluation","1","30","","",""
"html-keyboard-response","254","1401181","0.0-4.0-4.0-1.15","spark_pilot_norest","8676","8","18","Female","","","","","","","null","<div style=""font-size:60px;"">+</div>","null","fixation","","","","","","","","","31","","",""
"revaluation","255","1405183","0.0-4.0-4.0-0.16","spark_pilot_norest","8676","8","18","Female","","false","","","","","[615.2999999523163]","./assets/img/canyon/animals/lion.jpg","[""ArrowRight""]","revaluation","canyon","11","{""ArrowUp,ArrowLeft"":2,""ArrowUp,ArrowRight"":11,""ArrowDown,ArrowLeft"":8,""ArrowDown,ArrowRight"":27}","true","ArrowUp,ArrowRight","","revaluation","1","32","","",""
"html-keyboard-response","256","1405684","0.0-4.0-4.0-1.16","spark_pilot_norest","8676","8","18","Female","","","","","","","null","<div style=""font-size:60px;"">+</div>","null","fixation","","","","","","","","","33","","",""
"revaluation","257","1409691","0.0-4.0-4.0-0.17","spark_pilot_norest","8676","8","18","Female","","false","","","","","[733.0999999046326]","./assets/img/canyon/animals/lion.jpg","[""ArrowRight""]","revaluation","canyon","11","{""ArrowUp,ArrowLeft"":2,""ArrowUp,ArrowRight"":11,""ArrowDown,ArrowLeft"":8,""ArrowDown,ArrowRight"":27}","true","ArrowUp,ArrowRight","","revaluation","1","34","","",""
"html-keyboard-response","258","1410193","0.0-4.0-4.0-1.17","spark_pilot_norest","8676","8","18","Female","","","","","","","null","<div style=""font-size:60px;"">+</div>","null","fixation","","","","","","","","","35","","",""
"learning-instructions","259","1418710","0.0-4.0-5.0-0.0","spark_pilot_norest","8676","8","18","Female","","","","","","","null","<p> You have almost finished this part of the game! </p>
            <p> We are going to ask you to make a few more choices. </p>","","instructions","","","","","","","","","","","",""
"learning-instructions","260","1434674","0.0-4.0-5.0-0.1","spark_pilot_norest","8676","8","18","Female","","","","","","","null","<p> First, you need to decide whether to go up or down. When you see each picture, use the arrow keys to make your choice. </p>
            <p><b>You will not see which animal you found, but try to get to the one that will give you the most treasure.</b></p>","","instructions","","","","","","","","","","","",""
"html-keyboard-response","261","1435676","0.0-4.0-6.0-0.0","spark_pilot_norest","8676","8","18","Female","","","","","","","null","<div style=""font-size:100px;color:red;"">Starting in...</div>","null","","","","","","","","","","","","",""
"html-keyboard-response","262","1436689","0.0-4.0-6.0-1.0","spark_pilot_norest","8676","8","18","Female","","","","","","","null","<div style=""font-size:200px;color:red;"">3</div>","null","","","","","","","","","","","","",""
"html-keyboard-response","263","1437699","0.0-4.0-6.0-2.0","spark_pilot_norest","8676","8","18","Female","","","","","","","null","<div style=""font-size:200px;color:red;"">2</div>","null","","","","","","","","","","","","",""
"html-keyboard-response","264","1438700","0.0-4.0-6.0-3.0","spark_pilot_norest","8676","8","18","Female","","","","","","","null","<div style=""font-size:200px;color:red;"">1</div>","null","","","","","","","","","","","","",""
"revaluation","265","1440262","0.0-4.0-7.0-0.0","spark_pilot_norest","8676","8","18","Female","","false","","","","","[1557.5999999046326]","./assets/img/canyon/test/3.jpg","[""ArrowUp""]","first stage test","canyon","0","{""ArrowUp,ArrowLeft"":2,""ArrowUp,ArrowRight"":11,""ArrowDown,ArrowLeft"":8,""ArrowDown,ArrowRight"":27}","false","ArrowUp","false","revaluation","1","","","",""
"html-keyboard-response","266","1440774","0.0-4.0-7.0-1.0","spark_pilot_norest","8676","8","18","Female","","","","","","","null","<div style=""font-size:60px;"">+</div>","null","fixation","","","","","","","","","","","",""
"revaluation","267","1441493","0.0-4.0-7.0-0.1","spark_pilot_norest","8676","8","18","Female","","false","","","","","[715.3999998569489]","./assets/img/canyon/test/2.jpg","[""ArrowUp""]","first stage test","canyon","0","{""ArrowUp,ArrowLeft"":2,""ArrowUp,ArrowRight"":11,""ArrowDown,ArrowLeft"":8,""ArrowDown,ArrowRight"":27}","false","ArrowUp","false","revaluation","1","","","",""
"html-keyboard-response","268","1442005","0.0-4.0-7.0-1.1","spark_pilot_norest","8676","8","18","Female","","","","","","","null","<div style=""font-size:60px;"">+</div>","null","fixation","","","","","","","","","","","",""
"revaluation","269","1442709","0.0-4.0-7.0-0.2","spark_pilot_norest","8676","8","18","Female","","false","","","","","[700.4000000953674]","./assets/img/canyon/test/1.jpg","[""ArrowUp""]","first stage test","canyon","0","{""ArrowUp,ArrowLeft"":2,""ArrowUp,ArrowRight"":11,""ArrowDown,ArrowLeft"":8,""ArrowDown,ArrowRight"":27}","false","ArrowUp","false","revaluation","1","","","",""
"html-keyboard-response","270","1443215","0.0-4.0-7.0-1.2","spark_pilot_norest","8676","8","18","Female","","","","","","","null","<div style=""font-size:60px;"">+</div>","null","fixation","","","","","","","","","","","",""
"revaluation","271","1444182","0.0-4.0-7.0-0.3","spark_pilot_norest","8676","8","18","Female","","false","","","","","[962.1999998092651]","./assets/img/canyon/test/0.jpg","[""ArrowUp""]","first stage test","canyon","0","{""ArrowUp,ArrowLeft"":2,""ArrowUp,ArrowRight"":11,""ArrowDown,ArrowLeft"":8,""ArrowDown,ArrowRight"":27}","false","ArrowUp","false","revaluation","1","","","",""
"html-keyboard-response","272","1444690","0.0-4.0-7.0-1.3","spark_pilot_norest","8676","8","18","Female","","","","","","","null","<div style=""font-size:60px;"">+</div>","null","fixation","","","","","","","","","","","",""
"learning-instructions","273","1458028","0.0-4.0-8.0-0.0","spark_pilot_norest","8676","8","18","Female","","","","","","","null","<p> Now you will see the animals again and can search their chests for treasure. </p>
            <p> This time, you will not see how much treasure you earned, but you will earn more bonus money for making better choices. </p>","","instructions","","","","","","","","","","","",""
"html-keyboard-response","274","1459037","0.0-4.0-9.0-0.0","spark_pilot_norest","8676","8","18","Female","","","","","","","null","<div style=""font-size:100px;color:red;"">Starting in...</div>","null","","","","","","","","","","","","",""
"html-keyboard-response","275","1460051","0.0-4.0-9.0-1.0","spark_pilot_norest","8676","8","18","Female","","","","","","","null","<div style=""font-size:200px;color:red;"">3</div>","null","","","","","","","","","","","","",""
"html-keyboard-response","276","1461064","0.0-4.0-9.0-2.0","spark_pilot_norest","8676","8","18","Female","","","","","","","null","<div style=""font-size:200px;color:red;"">2</div>","null","","","","","","","","","","","","",""
"html-keyboard-response","277","1462065","0.0-4.0-9.0-3.0","spark_pilot_norest","8676","8","18","Female","","","","","","","null","<div style=""font-size:200px;color:red;"">1</div>","null","","","","","","","","","","","","",""
"revaluation","278","1462741","0.0-4.0-10.0-0.0","spark_pilot_norest","8676","8","18","Female","","false","","","","","[671.8999998569489]","./assets/img/canyon/animals/lion.jpg","[""ArrowLeft""]","second stage test","canyon","0","{""ArrowUp,ArrowLeft"":2,""ArrowUp,ArrowRight"":11,""ArrowDown,ArrowLeft"":8,""ArrowDown,ArrowRight"":27}","false","ArrowUp,ArrowLeft","","revaluation","1","","","",""
"html-keyboard-response","279","1463246","0.0-4.0-10.0-1.0","spark_pilot_norest","8676","8","18","Female","","","","","","","null","<div style=""font-size:60px;"">+</div>","null","fixation","","","","","","","","","","","",""
"revaluation","280","1464006","0.0-4.0-10.0-0.1","spark_pilot_norest","8676","8","18","Female","","false","","","","","[755.2000000476837]","./assets/img/canyon/animals/lion.jpg","[""ArrowLeft""]","second stage test","canyon","0","{""ArrowUp,ArrowLeft"":2,""ArrowUp,ArrowRight"":11,""ArrowDown,ArrowLeft"":8,""ArrowDown,ArrowRight"":27}","false","ArrowUp,ArrowLeft","","revaluation","1","","","",""
"html-keyboard-response","281","1464520","0.0-4.0-10.0-1.1","spark_pilot_norest","8676","8","18","Female","","","","","","","null","<div style=""font-size:60px;"">+</div>","null","fixation","","","","","","","","","","","",""
"revaluation","282","1465252","0.0-4.0-10.0-0.2","spark_pilot_norest","8676","8","18","Female","","false","","","","","[728.2000000476837]","./assets/img/canyon/animals/lion.jpg","[""ArrowLeft""]","second stage test","canyon","0","{""ArrowUp,ArrowLeft"":2,""ArrowUp,ArrowRight"":11,""ArrowDown,ArrowLeft"":8,""ArrowDown,ArrowRight"":27}","false","ArrowUp,ArrowLeft","","revaluation","1","","","",""
"html-keyboard-response","283","1465767","0.0-4.0-10.0-1.2","spark_pilot_norest","8676","8","18","Female","","","","","","","null","<div style=""font-size:60px;"">+</div>","null","fixation","","","","","","","","","","","",""
"revaluation","284","1466533","0.0-4.0-10.0-0.3","spark_pilot_norest","8676","8","18","Female","","false","","","","","[762.5]","./assets/img/canyon/animals/lion.jpg","[""ArrowLeft""]","second stage test","canyon","0","{""ArrowUp,ArrowLeft"":2,""ArrowUp,ArrowRight"":11,""ArrowDown,ArrowLeft"":8,""ArrowDown,ArrowRight"":27}","false","ArrowUp,ArrowLeft","","revaluation","1","","","",""
"html-keyboard-response","285","1467043","0.0-4.0-10.0-1.3","spark_pilot_norest","8676","8","18","Female","","","","","","","null","<div style=""font-size:60px;"">+</div>","null","fixation","","","","","","","","","","","",""
"revaluation","286","1467846","0.0-4.0-10.0-0.4","spark_pilot_norest","8676","8","18","Female","","false","","","","","[798.6000001430511]","./assets/img/canyon/animals/giraffe.jpg","[""ArrowRight""]","second stage test","canyon","0","{""ArrowUp,ArrowLeft"":2,""ArrowUp,ArrowRight"":11,""ArrowDown,ArrowLeft"":8,""ArrowDown,ArrowRight"":27}","true","ArrowDown,ArrowRight","","revaluation","1","","","",""
"html-keyboard-response","287","1468348","0.0-4.0-10.0-1.4","spark_pilot_norest","8676","8","18","Female","","","","","","","null","<div style=""font-size:60px;"">+</div>","null","fixation","","","","","","","","","","","",""
"revaluation","288","1469094","0.0-4.0-10.0-0.5","spark_pilot_norest","8676","8","18","Female","","false","","","","","[741.2000000476837]","./assets/img/canyon/animals/giraffe.jpg","[""ArrowRight""]","second stage test","canyon","0","{""ArrowUp,ArrowLeft"":2,""ArrowUp,ArrowRight"":11,""ArrowDown,ArrowLeft"":8,""ArrowDown,ArrowRight"":27}","true","ArrowDown,ArrowRight","","revaluation","1","","","",""
"html-keyboard-response","289","1469606","0.0-4.0-10.0-1.5","spark_pilot_norest","8676","8","18","Female","","","","","","","null","<div style=""font-size:60px;"">+</div>","null","fixation","","","","","","","","","","","",""
"revaluation","290","1470182","0.0-4.0-10.0-0.6","spark_pilot_norest","8676","8","18","Female","","false","","","","","[572.1000001430511]","./assets/img/canyon/animals/giraffe.jpg","[""ArrowRight""]","second stage test","canyon","0","{""ArrowUp,ArrowLeft"":2,""ArrowUp,ArrowRight"":11,""ArrowDown,ArrowLeft"":8,""ArrowDown,ArrowRight"":27}","true","ArrowDown,ArrowRight","","revaluation","1","","","",""
"html-keyboard-response","291","1470698","0.0-4.0-10.0-1.6","spark_pilot_norest","8676","8","18","Female","","","","","","","null","<div style=""font-size:60px;"">+</div>","null","fixation","","","","","","","","","","","",""
"revaluation","292","1471286","0.0-4.0-10.0-0.7","spark_pilot_norest","8676","8","18","Female","","false","","","","","[582.9000000953674]","./assets/img/canyon/animals/giraffe.jpg","[""ArrowRight""]","second stage test","canyon","0","{""ArrowUp,ArrowLeft"":2,""ArrowUp,ArrowRight"":11,""ArrowDown,ArrowLeft"":8,""ArrowDown,ArrowRight"":27}","true","ArrowDown,ArrowRight","","revaluation","1","","","",""
"html-keyboard-response","293","1471801","0.0-4.0-10.0-1.7","spark_pilot_norest","8676","8","18","Female","","","","","","","null","<div style=""font-size:60px;"">+</div>","null","fixation","","","","","","","","","","","",""
"learning-instructions","294","1492221","0.0-4.0-0.1-0.2","spark_pilot_norest","8676","8","18","Female","","","","","","","17688.700000047684","<p> This time you are searching for treasure in the <b>ocean</b>.</p>","","instructions","","","","","","","","","","","",""
"learning-instructions","295","1510477","0.0-4.0-0.1-0.3","spark_pilot_norest","8676","8","18","Female","","","","","","","1014.2000000476837","<p><b>New</b> animals with <b>new</b> treasure chests live here. You need to explore to discover where the animal with the best treasure chest is.</p>
                    <p> Like before, once you figure out which animal has the chest with the most treasure, you should try to get to that animal and select that chest! </p>","","instructions","","","","","","","","","","","",""
"learning-instructions","296","1526372","0.0-4.0-1.1-0.1","spark_pilot_norest","8676","8","18","Female","","","","","","","1159.7000000476837","<p> Remember, when you see a picture of the place, use the up and down keys to <b>find an animal</b>.</p>
            <p> When you encounter an animal, you should use the left and right keys to <b>select a treasure chest</b>.</p>
            <p> Don't forget to look out for the robber! </p>","","instructions","","","","","","","","","","","",""
"revaluation","297","1532408","0.0-4.0-2.1-0.50","spark_pilot_norest","8676","8","18","Female","","false","","","","","[959.2999999523163,799.9000000953674]","./assets/img/ocean/memory/36.jpg","[""ArrowDown"",""ArrowLeft""]","value training","ocean","8","{""ArrowUp,ArrowLeft"":23,""ArrowUp,ArrowRight"":10,""ArrowDown,ArrowLeft"":8,""ArrowDown,ArrowRight"":30}","false","ArrowDown,ArrowLeft","false","original","2","0","","",""
"html-keyboard-response","298","1532924","0.0-4.0-2.1-1.50","spark_pilot_norest","8676","8","18","Female","","","","","","","null","<div style=""font-size:60px;"">+</div>","null","fixation","","","","","","","","","1","","",""
"revaluation","299","1538949","0.0-4.0-2.1-0.51","spark_pilot_norest","8676","8","18","Female","","false","","","","","[563.5999999046326,449.5]","./assets/img/ocean/memory/23.jpg","[""ArrowDown"",""ArrowRight""]","value training","ocean","30","{""ArrowUp,ArrowLeft"":23,""ArrowUp,ArrowRight"":10,""ArrowDown,ArrowLeft"":8,""ArrowDown,ArrowRight"":30}","true","ArrowDown,ArrowRight","false","original","2","2","","",""
"html-keyboard-response","300","1539462","0.0-4.0-2.1-1.51","spark_pilot_norest","8676","8","18","Female","","","","","","","null","<div style=""font-size:60px;"">+</div>","null","fixation","","","","","","","","","3","","",""
"revaluation","301","1545500","0.0-4.0-2.1-0.52","spark_pilot_norest","8676","8","18","Female","","false","","","","","[490.89999985694885,633.8999998569489]","./assets/img/ocean/memory/6.jpg","[""ArrowUp"",""ArrowRight""]","value training","ocean","10","{""ArrowUp,ArrowLeft"":23,""ArrowUp,ArrowRight"":10,""ArrowDown,ArrowLeft"":8,""ArrowDown,ArrowRight"":30}","false","ArrowUp,ArrowRight","false","original","2","4","","",""
"html-keyboard-response","302","1546011","0.0-4.0-2.1-1.52","spark_pilot_norest","8676","8","18","Female","","","","","","","null","<div style=""font-size:60px;"">+</div>","null","fixation","","","","","","","","","5","","",""
"revaluation","303","1552033","0.0-4.0-2.1-0.53","spark_pilot_norest","8676","8","18","Female","","false","","","","","[661.7000000476837,387.2000000476837]","./assets/img/ocean/memory/32.jpg","[""ArrowUp"",""ArrowLeft""]","value training","ocean","23","{""ArrowUp,ArrowLeft"":23,""ArrowUp,ArrowRight"":10,""ArrowDown,ArrowLeft"":8,""ArrowDown,ArrowRight"":30}","false","ArrowUp,ArrowLeft","false","original","2","6","","",""
"html-keyboard-response","304","1552550","0.0-4.0-2.1-1.53","spark_pilot_norest","8676","8","18","Female","","","","","","","null","<div style=""font-size:60px;"">+</div>","null","fixation","","","","","","","","","7","","",""
"revaluation","305","1556559","0.0-4.0-2.1-0.54","spark_pilot_norest","8676","8","18","Female","","false","","","","","[603.5999999046326]","./assets/img/ocean/catch/3.jpg","[""spaceBar""]","value training","ocean","0","{""ArrowUp,ArrowLeft"":23,""ArrowUp,ArrowRight"":10,""ArrowDown,ArrowLeft"":8,""ArrowDown,ArrowRight"":30}","true","spaceBar","true","original","2","8","","",""
"html-keyboard-response","306","1557060","0.0-4.0-2.1-1.54","spark_pilot_norest","8676","8","18","Female","","","","","","","null","<div style=""font-size:60px;"">+</div>","null","fixation","","","","","","","","","9","","",""
"revaluation","307","1563066","0.0-4.0-2.1-0.55","spark_pilot_norest","8676","8","18","Female","","false","","","","","[413.60000014305115,268.2999999523163]","./assets/img/ocean/memory/29.jpg","[""ArrowDown"",""ArrowRight""]","value training","ocean","30","{""ArrowUp,ArrowLeft"":23,""ArrowUp,ArrowRight"":10,""ArrowDown,ArrowLeft"":8,""ArrowDown,ArrowRight"":30}","true","ArrowDown,ArrowRight","false","original","2","10","","",""
"html-keyboard-response","308","1563569","0.0-4.0-2.1-1.55","spark_pilot_norest","8676","8","18","Female","","","","","","","null","<div style=""font-size:60px;"">+</div>","null","fixation","","","","","","","","","11","","",""
"revaluation","309","1569576","0.0-4.0-2.1-0.56","spark_pilot_norest","8676","8","18","Female","","false","","","","","[1070.9000000953674,366.2999999523163]","./assets/img/ocean/memory/0.jpg","[""ArrowDown"",""ArrowRight""]","value training","ocean","30","{""ArrowUp,ArrowLeft"":23,""ArrowUp,ArrowRight"":10,""ArrowDown,ArrowLeft"":8,""ArrowDown,ArrowRight"":30}","true","ArrowDown,ArrowRight","false","original","2","12","","",""
