"trial_type","trial_index","time_elapsed","internal_node_id","task_version","subject_id","assigned_condition","age","gender","browser_interaction","success","timeout","failed_images","failed_audio","failed_video","rt","stimulus","response","task_part","environment","score","rewardMap","correct","fullState","isCatch","condition","order","trial_num","key_press","ground_truth","bonus"
"pavlovia","0","1659","0.0-0.0","spark_pilot_norest","8553","2","8","Male","[{""event"":""focus"",""trial"":1,""time"":1988},{""event"":""fullscreenenter"",""trial"":2,""time"":34521}]","","","","","","","","","","","","","","","","","","","","",""
"preload","1","30866","0.0-1.0","spark_pilot_norest","8553","2","8","Male","[{""event"":""focus"",""trial"":1,""time"":1988},{""event"":""fullscreenenter"",""trial"":2,""time"":34521}]","true","false","[]","[]","[]","","","","","","","","","","","","","","","",""
"fullscreen","2","35481","0.0-2.0","spark_pilot_norest","8553","2","8","Male","","true","","","","","","","","","","","","","","","","","","","",""
"audio-button-response","3","37631","0.0-3.0-0.0-0.0","spark_pilot_norest","8553","2","8","Male","","","","","","","1560","./assets/audio/audiotest/turtle.mp3","2","audio_test","","","","","","","","","","","",""
"learning-instructions","4","49114","0.0-3.0-1.0-0.0","spark_pilot_norest","8553","2","8","Male","","","","","","","4464.699999809265","<p> Welcome! Please remember to stay in fullscreen mode and don't click away from the experiment. </p>","","instructions","","","","","","","","","","","",""
"learning-instructions","5","75366","0.0-3.0-1.0-0.1","spark_pilot_norest","8553","2","8","Male","","","","","","","17797.60000014305","<p> Today you will be playing a game to earn treasure. </p>
            <p> At the end of the experiment, you will earn a bonus based on how much treasure you find. </p>
            <img src='./assets/img/instructions/treasure.jpg' class='instructions-image'>","","instructions","","","","","","","","","","","",""
"learning-instructions","6","86371","0.0-3.0-1.0-0.2","spark_pilot_norest","8553","2","8","Male","","","","","","","2693.100000143051","<p> Animals have hidden treasure in treasure chests. </p>
            <p> You need to first find an animal and then choose which of their treasure chests to search. </p>
            <img src='./assets/img/space/animals/cat.jpg' class='instructions-image'>","","instructions","","","","","","","","","","","",""
"learning-instructions","7","101078","0.0-3.0-1.0-0.3","spark_pilot_norest","8553","2","8","Male","","","","","","","1479","<p> In each round, you will search for treasure in a different place. In the real game, there will be two rounds. </p>
            <p> You will begin with a separate, practice round where you will search for treasure in outer space. </p>
            <img src='./assets/img/space/0.jpg' class='instructions-image'>","","instructions","","","","","","","","","","","",""
"learning-instructions","8","115562","0.0-3.0-1.0-0.4","spark_pilot_norest","8553","2","8","Male","","","","","","","3012.9000000953674","<p> On every turn, you will see a picture of the place that you are in, but the specific image may be different each time. </p>
            <p> For example, both of these images mean you are in outer space. </p>
            <img src='./assets/img/instructions/outerspace.jpg' class='instructions-image'>","","instructions","","","","","","","","","","","",""
"learning-instructions","9","125507","0.0-3.0-1.0-0.5","spark_pilot_norest","8553","2","8","Male","","","","","","","2068","<p> You need to decide which direction to travel in. </p>
            <p> You can choose between going <b>up or down</b> by using the arrow keys. </p>
            <img src='./assets/img/instructions/updown.jpg' class='instructions-image'>","","instructions","","","","","","","","","","","",""
"learning-instructions","10","137088","0.0-3.0-1.0-0.6","spark_pilot_norest","8553","2","8","Male","","","","","","","2729.600000143051","<p> You will have <b>2 seconds</b> to make your choice. </p>
            <p> If you do not make a choice within 2 seconds, you will not find an animal or earn treasure. </p>
            <img src='./assets/img/instructions/2seconds.jpg' class='instructions-image'>","","instructions","","","","","","","","","","","",""
"learning-instructions","11","146676","0.0-3.0-1.0-0.7","spark_pilot_norest","8553","2","8","Male","","","","","","","2517.100000143051","<p> Let’s try practicing that now! </p>
            <p> When you see a picture of the place you are in, press the <b>up</b> key to travel up. </p>
            <img src='./assets/img/instructions/pressUp.jpg' class='instructions-image'>","","instructions","","","","","","","","","","","",""
"revaluation","12","150711","0.0-3.0-2.0-0.0","spark_pilot_norest","8553","2","8","Male","","","false","","","","[1602.5999999046326]","./assets/img/space/0.jpg","[""ArrowUp""]","first stage practice","space","0","null","null","ArrowUp","false","","","","","",""
"html-keyboard-response","13","151214","0.0-3.0-2.0-1.0","spark_pilot_norest","8553","2","8","Male","","","","","","","null","<div style=""font-size:60px;"">+</div>","null","fixation","","","","","","","","","","","",""
"revaluation","14","155233","0.0-3.0-2.0-0.1","spark_pilot_norest","8553","2","8","Male","","","true","","","","[]","./assets/img/space/1.jpg","[]","first stage practice","space","-5","null","null","","false","","","","","",""
"html-keyboard-response","15","155735","0.0-3.0-2.0-1.1","spark_pilot_norest","8553","2","8","Male","","","","","","","null","<div style=""font-size:60px;"">+</div>","null","fixation","","","","","","","","","","","",""
"revaluation","16","159754","0.0-3.0-2.0-0.2","spark_pilot_norest","8553","2","8","Male","","","false","","","","[528.7999999523163]","./assets/img/space/2.jpg","[""ArrowUp""]","first stage practice","space","0","null","null","ArrowUp","false","","","","","",""
"html-keyboard-response","17","160256","0.0-3.0-2.0-1.2","spark_pilot_norest","8553","2","8","Male","","","","","","","null","<div style=""font-size:60px;"">+</div>","null","fixation","","","","","","","","","","","",""
"learning-instructions","18","168710","0.0-3.0-3.0-0.0","spark_pilot_norest","8553","2","8","Male","","","","","","","3721.0999999046326","<p> Great job! Now try pressing the <b>down</b> key to travel down. </p>
            <img src='./assets/img/instructions/pressDown.jpg' class='instructions-image'>","","instructions","","","","","","","","","","","",""
"revaluation","19","172722","0.0-3.0-4.0-0.0","spark_pilot_norest","8553","2","8","Male","","","false","","","","[416.5]","./assets/img/space/3.jpg","[""ArrowDown""]","first stage practice","space","0","null","null","ArrowDown","false","","","","","",""
"html-keyboard-response","20","173235","0.0-3.0-4.0-1.0","spark_pilot_norest","8553","2","8","Male","","","","","","","null","<div style=""font-size:60px;"">+</div>","null","fixation","","","","","","","","","","","",""
"revaluation","21","177245","0.0-3.0-4.0-0.1","spark_pilot_norest","8553","2","8","Male","","","false","","","","[836.2999999523163]","./assets/img/space/4.jpg","[""ArrowDown""]","first stage practice","space","0","null","null","ArrowDown","false","","","","","",""
"html-keyboard-response","22","177747","0.0-3.0-4.0-1.1","spark_pilot_norest","8553","2","8","Male","","","","","","","null","<div style=""font-size:60px;"">+</div>","null","fixation","","","","","","","","","","","",""
"revaluation","23","181763","0.0-3.0-4.0-0.2","spark_pilot_norest","8553","2","8","Male","","","false","","","","[948.2000000476837]","./assets/img/space/5.jpg","[""ArrowDown""]","first stage practice","space","0","null","null","ArrowDown","false","","","","","",""
"html-keyboard-response","24","182266","0.0-3.0-4.0-1.2","spark_pilot_norest","8553","2","8","Male","","","","","","","null","<div style=""font-size:60px;"">+</div>","null","fixation","","","","","","","","","","","",""
"learning-instructions","25","196004","0.0-3.0-5.0-0.0","spark_pilot_norest","8553","2","8","Male","","","","","","","3835.5999999046326","<p> The animals don’t move, so the animal in the upper part of a place will stay in the upper part of a place, and the animal in the lower part of a place will stay in the lower part of a place. </p>","","instructions","","","","","","","","","","","",""
"learning-instructions","26","208885","0.0-3.0-5.0-0.1","spark_pilot_norest","8553","2","8","Male","","","","","","","3695.7000000476837","<p> Each animal has two treasure chests for you to choose from. </p>
            <p> The amount of treasure in each chest can range from <b> 0 to 40 pieces.</b></p>","","instructions","","","","","","","","","","","",""
"learning-instructions","27","221965","0.0-3.0-5.0-0.2","spark_pilot_norest","8553","2","8","Male","","","","","","","1836.2000000476837","<p> You should decide which chest to search for treasure by using the <b>left</b> and <b>right</b> arrow keys. </p>
            <p><b> Pay attention to which animal is on the screen, as the animals have different treasure chests. </b></p>
            <img src='./assets/img/instructions/leftright.jpg' class='instructions-image'>","","instructions","","","","","","","","","","","",""
"learning-instructions","28","230270","0.0-3.0-5.0-0.3","spark_pilot_norest","8553","2","8","Male","","","","","","","1901.1000001430511","<p> Let’s try practicing that now. </p>
            <p> When you see an animal, choose which chest to search for treasure. </p>
            <img src='./assets/img/instructions/chooseChest.jpg' class='instructions-image'>","","instructions","","","","","","","","","","","",""
"revaluation","29","234287","0.0-3.0-6.0-0.0","spark_pilot_norest","8553","2","8","Male","","","false","","","","[507.5]","./assets/img/space/animals/cat.jpg","[""ArrowRight""]","second stage practice","space","36","{""ArrowUp,ArrowLeft"":3,""ArrowUp,ArrowRight"":36,""ArrowDown,ArrowLeft"":15,""ArrowDown,ArrowRight"":23}","true","ArrowUp,ArrowRight","","","","","","",""
"html-keyboard-response","30","234789","0.0-3.0-6.0-1.0","spark_pilot_norest","8553","2","8","Male","","","","","","","null","<div style=""font-size:60px;"">+</div>","null","fixation","","","","","","","","","","","",""
"revaluation","31","238812","0.0-3.0-6.0-0.1","spark_pilot_norest","8553","2","8","Male","","","false","","","","[591.5999999046326]","./assets/img/space/animals/rabbit.jpg","[""ArrowLeft""]","second stage practice","space","15","{""ArrowUp,ArrowLeft"":3,""ArrowUp,ArrowRight"":36,""ArrowDown,ArrowLeft"":15,""ArrowDown,ArrowRight"":23}","false","ArrowDown,ArrowLeft","","","","","","",""
"html-keyboard-response","32","239316","0.0-3.0-6.0-1.1","spark_pilot_norest","8553","2","8","Male","","","","","","","null","<div style=""font-size:60px;"">+</div>","null","fixation","","","","","","","","","","","",""
"revaluation","33","243334","0.0-3.0-6.0-0.2","spark_pilot_norest","8553","2","8","Male","","","false","","","","[608.5]","./assets/img/space/animals/cat.jpg","[""ArrowRight""]","second stage practice","space","36","{""ArrowUp,ArrowLeft"":3,""ArrowUp,ArrowRight"":36,""ArrowDown,ArrowLeft"":15,""ArrowDown,ArrowRight"":23}","true","ArrowUp,ArrowRight","","","","","","",""
"html-keyboard-response","34","243837","0.0-3.0-6.0-1.2","spark_pilot_norest","8553","2","8","Male","","","","","","","null","<div style=""font-size:60px;"">+</div>","null","fixation","","","","","","","","","","","",""
"revaluation","35","247860","0.0-3.0-6.0-0.3","spark_pilot_norest","8553","2","8","Male","","","false","","","","[399.90000009536743]","./assets/img/space/animals/rabbit.jpg","[""ArrowRight""]","second stage practice","space","23","{""ArrowUp,ArrowLeft"":3,""ArrowUp,ArrowRight"":36,""ArrowDown,ArrowLeft"":15,""ArrowDown,ArrowRight"":23}","true","ArrowDown,ArrowRight","","","","","","",""
"html-keyboard-response","36","248374","0.0-3.0-6.0-1.3","spark_pilot_norest","8553","2","8","Male","","","","","","","null","<div style=""font-size:60px;"">+</div>","null","fixation","","","","","","","","","","","",""
"learning-instructions","37","280129","0.0-3.0-7.0-0.0","spark_pilot_norest","8553","2","8","Male","","","","","","","14860.599999904633","<p> Great job. Now let’s try putting it together. </p>
            <p> On each turn, you will first see a picture to remind you of the place you are in, and you need to choose whether to go up or down. </p>
            <p> Then you will see an animal and choose which of its chests to search for treasure. </p>","","instructions","","","","","","","","","","","",""
"learning-instructions","38","289528","0.0-3.0-7.0-0.1","spark_pilot_norest","8553","2","8","Male","","","","","","","1090.2999999523163","<p> When you choose whether to go up or down, try to go to the animal with the chest with the most treasure. </p>
            <p> Try practicing that now! </p>","","instructions","","","","","","","","","","","",""
"revaluation","39","295554","0.0-3.0-8.0-0.0","spark_pilot_norest","8553","2","8","Male","","","false","","","","[863.2999999523163,569.1000001430511]","./assets/img/space/6.jpg","[""ArrowUp"",""ArrowLeft""]","full practice","space","3","{""ArrowUp,ArrowLeft"":3,""ArrowUp,ArrowRight"":36,""ArrowDown,ArrowLeft"":15,""ArrowDown,ArrowRight"":23}","false","ArrowUp,ArrowLeft","false","","","","","",""
"html-keyboard-response","40","296064","0.0-3.0-8.0-1.0","spark_pilot_norest","8553","2","8","Male","","","","","","","null","<div style=""font-size:60px;"">+</div>","null","fixation","","","","","","","","","","","",""
"revaluation","41","302085","0.0-3.0-8.0-0.1","spark_pilot_norest","8553","2","8","Male","","","false","","","","[1515.5999999046326,768.5999999046326]","./assets/img/space/7.jpg","[""ArrowDown"",""ArrowRight""]","full practice","space","23","{""ArrowUp,ArrowLeft"":3,""ArrowUp,ArrowRight"":36,""ArrowDown,ArrowLeft"":15,""ArrowDown,ArrowRight"":23}","false","ArrowDown,ArrowRight","false","","","","","",""
"html-keyboard-response","42","302587","0.0-3.0-8.0-1.1","spark_pilot_norest","8553","2","8","Male","","","","","","","null","<div style=""font-size:60px;"">+</div>","null","fixation","","","","","","","","","","","",""
"revaluation","43","308621","0.0-3.0-8.0-0.2","spark_pilot_norest","8553","2","8","Male","","","false","","","","[1266.7000000476837,835.6000001430511]","./assets/img/space/8.jpg","[""ArrowDown"",""ArrowRight""]","full practice","space","23","{""ArrowUp,ArrowLeft"":3,""ArrowUp,ArrowRight"":36,""ArrowDown,ArrowLeft"":15,""ArrowDown,ArrowRight"":23}","false","ArrowDown,ArrowRight","false","","","","","",""
"html-keyboard-response","44","309132","0.0-3.0-8.0-1.2","spark_pilot_norest","8553","2","8","Male","","","","","","","null","<div style=""font-size:60px;"">+</div>","null","fixation","","","","","","","","","","","",""
"revaluation","45","315139","0.0-3.0-8.0-0.3","spark_pilot_norest","8553","2","8","Male","","","false","","","","[1220.2999999523163,706]","./assets/img/space/9.jpg","[""ArrowDown"",""ArrowRight""]","full practice","space","23","{""ArrowUp,ArrowLeft"":3,""ArrowUp,ArrowRight"":36,""ArrowDown,ArrowLeft"":15,""ArrowDown,ArrowRight"":23}","false","ArrowDown,ArrowRight","false","","","","","",""
"html-keyboard-response","46","315640","0.0-3.0-8.0-1.3","spark_pilot_norest","8553","2","8","Male","","","","","","","null","<div style=""font-size:60px;"">+</div>","null","fixation","","","","","","","","","","","",""
"revaluation","47","321653","0.0-3.0-8.0-0.4","spark_pilot_norest","8553","2","8","Male","","","false","","","","[636.2999999523163,582]","./assets/img/space/10.jpg","[""ArrowDown"",""ArrowRight""]","full practice","space","23","{""ArrowUp,ArrowLeft"":3,""ArrowUp,ArrowRight"":36,""ArrowDown,ArrowLeft"":15,""ArrowDown,ArrowRight"":23}","false","ArrowDown,ArrowRight","false","","","","","",""
"html-keyboard-response","48","322156","0.0-3.0-8.0-1.4","spark_pilot_norest","8553","2","8","Male","","","","","","","null","<div style=""font-size:60px;"">+</div>","null","fixation","","","","","","","","","","","",""
"learning-instructions","49","336141","0.0-3.0-9.0-0.0","spark_pilot_norest","8553","2","8","Male","","","","","","","3629.7999999523163","<p> One last thing: sometimes, you will see a robber. The robber can be anywhere in the picture. </p>
            <p> If you do not stop them, you will lose treasure. </p>
            <img src='./assets/img/instructions/robber.jpg' class='instructions-image'>","","instructions","","","","","","","","","","","",""
"learning-instructions","50","344467","0.0-3.0-9.0-0.1","spark_pilot_norest","8553","2","8","Male","","","","","","","1115.5","<p> If you see the robber, you should <b>press the space bar</b> rather than using the arrow keys. </p>
            <p> Try practicing that now! </p>","","instructions","","","","","","","","","","","",""
"revaluation","51","348491","0.0-3.0-10.0-0.0","spark_pilot_norest","8553","2","8","Male","","","false","","","","[1160.0999999046326]","./assets/img/space/catch/0.jpg","[""spaceBar""]","catch practice","space","0","{""ArrowUp,ArrowLeft"":3,""ArrowUp,ArrowRight"":36,""ArrowDown,ArrowLeft"":15,""ArrowDown,ArrowRight"":23}","true","spaceBar","true","","","","","",""
"html-keyboard-response","52","349007","0.0-3.0-10.0-1.0","spark_pilot_norest","8553","2","8","Male","","","","","","","null","<div style=""font-size:60px;"">+</div>","null","fixation","","","","","","","","","","","",""
"revaluation","53","353020","0.0-3.0-10.0-0.1","spark_pilot_norest","8553","2","8","Male","","","false","","","","[647.2000000476837]","./assets/img/space/catch/1.jpg","[""spaceBar""]","catch practice","space","0","{""ArrowUp,ArrowLeft"":3,""ArrowUp,ArrowRight"":36,""ArrowDown,ArrowLeft"":15,""ArrowDown,ArrowRight"":23}","true","spaceBar","true","","","","","",""
"html-keyboard-response","54","353536","0.0-3.0-10.0-1.1","spark_pilot_norest","8553","2","8","Male","","","","","","","null","<div style=""font-size:60px;"">+</div>","null","fixation","","","","","","","","","","","",""
"revaluation","55","357569","0.0-3.0-10.0-0.2","spark_pilot_norest","8553","2","8","Male","","","false","","","","[658.7000000476837]","./assets/img/space/catch/2.jpg","[""spaceBar""]","catch practice","space","0","{""ArrowUp,ArrowLeft"":3,""ArrowUp,ArrowRight"":36,""ArrowDown,ArrowLeft"":15,""ArrowDown,ArrowRight"":23}","true","spaceBar","true","","","","","",""
"html-keyboard-response","56","358085","0.0-3.0-10.0-1.2","spark_pilot_norest","8553","2","8","Male","","","","","","","null","<div style=""font-size:60px;"">+</div>","null","fixation","","","","","","","","","","","",""
"learning-instructions","57","365730","0.0-3.0-11.0-0.0-0.0","spark_pilot_norest","8553","2","8","Male","","","","","","","2348.7000000476837","<p> Now, you will practice a shortened version of the game to get a sense of how it all fits together. </p>","","instructions","","","","","","","","","","","",""
"learning-instructions","58","376382","0.0-3.0-11.0-0.0-0.1","spark_pilot_norest","8553","2","8","Male","","","","","","","7441","<p>This time you are searching for treasure in outer space.</p>","","instructions","","","","","","","","","","","",""
"learning-instructions","59","395051","0.0-3.0-11.0-1.0-0.0","spark_pilot_norest","8553","2","8","Male","","","","","","","3839.4000000953674","<p> Remember, when you see a picture of the place, use the up and down keys to <b>find an animal</b>.</p>
            <p> When you encounter an animal, you should use the left and right keys to <b>select a treasure chest</b>.</p>
            <p> Don't forget to look out for the robber! </p>","","instructions","","","","","","","","","","","",""
"revaluation","60","401076","0.0-3.0-11.0-2.0-0.0","spark_pilot_norest","8553","2","8","Male","","","false","","","","[1940,834.7999999523163]","./assets/img/space/11.jpg","[""ArrowDown"",""ArrowRight""]","practice block","space","23","{""ArrowUp,ArrowLeft"":3,""ArrowUp,ArrowRight"":36,""ArrowDown,ArrowLeft"":15,""ArrowDown,ArrowRight"":23}","false","ArrowDown,ArrowRight","false","","","","","",""
"html-keyboard-response","61","401592","0.0-3.0-11.0-2.0-1.0","spark_pilot_norest","8553","2","8","Male","","","","","","","null","<div style=""font-size:60px;"">+</div>","null","fixation","","","","","","","","","","","",""
"revaluation","62","407617","0.0-3.0-11.0-2.0-0.1","spark_pilot_norest","8553","2","8","Male","","","false","","","","[702,699.1999998092651]","./assets/img/space/12.jpg","[""ArrowDown"",""ArrowRight""]","practice block","space","23","{""ArrowUp,ArrowLeft"":3,""ArrowUp,ArrowRight"":36,""ArrowDown,ArrowLeft"":15,""ArrowDown,ArrowRight"":23}","false","ArrowDown,ArrowRight","false","","","","","",""
"html-keyboard-response","63","408131","0.0-3.0-11.0-2.0-1.1","spark_pilot_norest","8553","2","8","Male","","","","","","","null","<div style=""font-size:60px;"">+</div>","null","fixation","","","","","","","","","","","",""
"revaluation","64","414153","0.0-3.0-11.0-2.0-0.2","spark_pilot_norest","8553","2","8","Male","","","false","","","","[624.5,528.0999999046326]","./assets/img/space/13.jpg","[""ArrowDown"",""ArrowRight""]","practice block","space","23","{""ArrowUp,ArrowLeft"":3,""ArrowUp,ArrowRight"":36,""ArrowDown,ArrowLeft"":15,""ArrowDown,ArrowRight"":23}","false","ArrowDown,ArrowRight","false","","","","","",""
"html-keyboard-response","65","414670","0.0-3.0-11.0-2.0-1.2","spark_pilot_norest","8553","2","8","Male","","","","","","","null","<div style=""font-size:60px;"">+</div>","null","fixation","","","","","","","","","","","",""
"revaluation","66","420701","0.0-3.0-11.0-2.0-0.3","spark_pilot_norest","8553","2","8","Male","","","false","","","","[509.2999999523163,599.1999998092651]","./assets/img/space/14.jpg","[""ArrowUp"",""ArrowRight""]","practice block","space","36","{""ArrowUp,ArrowLeft"":3,""ArrowUp,ArrowRight"":36,""ArrowDown,ArrowLeft"":15,""ArrowDown,ArrowRight"":23}","true","ArrowUp,ArrowRight","false","","","","","",""
"html-keyboard-response","67","421218","0.0-3.0-11.0-2.0-1.3","spark_pilot_norest","8553","2","8","Male","","","","","","","null","<div style=""font-size:60px;"">+</div>","null","fixation","","","","","","","","","","","",""
"revaluation","68","427226","0.0-3.0-11.0-2.0-0.4","spark_pilot_norest","8553","2","8","Male","","","false","","","","[1016.3999998569489,560.8000001907349]","./assets/img/space/11.jpg","[""ArrowUp"",""ArrowLeft""]","practice block","space","3","{""ArrowUp,ArrowLeft"":3,""ArrowUp,ArrowRight"":36,""ArrowDown,ArrowLeft"":15,""ArrowDown,ArrowRight"":23}","false","ArrowUp,ArrowLeft","false","","","","","",""
"html-keyboard-response","69","427728","0.0-3.0-11.0-2.0-1.4","spark_pilot_norest","8553","2","8","Male","","","","","","","null","<div style=""font-size:60px;"">+</div>","null","fixation","","","","","","","","","","","",""
"revaluation","70","433735","0.0-3.0-11.0-2.0-0.5","spark_pilot_norest","8553","2","8","Male","","","false","","","","[741.4000000953674,864.9000000953674]","./assets/img/space/12.jpg","[""ArrowUp"",""ArrowRight""]","practice block","space","36","{""ArrowUp,ArrowLeft"":3,""ArrowUp,ArrowRight"":36,""ArrowDown,ArrowLeft"":15,""ArrowDown,ArrowRight"":23}","true","ArrowUp,ArrowRight","false","","","","","",""
"html-keyboard-response","71","434237","0.0-3.0-11.0-2.0-1.5","spark_pilot_norest","8553","2","8","Male","","","","","","","null","<div style=""font-size:60px;"">+</div>","null","fixation","","","","","","","","","","","",""
"revaluation","72","440244","0.0-3.0-11.0-2.0-0.6","spark_pilot_norest","8553","2","8","Male","","","false","","","","[272.10000014305115,470.89999985694885]","./assets/img/space/13.jpg","[""ArrowUp"",""ArrowRight""]","practice block","space","36","{""ArrowUp,ArrowLeft"":3,""ArrowUp,ArrowRight"":36,""ArrowDown,ArrowLeft"":15,""ArrowDown,ArrowRight"":23}","true","ArrowUp,ArrowRight","false","","","","","",""
"html-keyboard-response","73","440746","0.0-3.0-11.0-2.0-1.6","spark_pilot_norest","8553","2","8","Male","","","","","","","null","<div style=""font-size:60px;"">+</div>","null","fixation","","","","","","","","","","","",""
"revaluation","74","446753","0.0-3.0-11.0-2.0-0.7","spark_pilot_norest","8553","2","8","Male","","","false","","","","[661.7999999523163,885.7000000476837]","./assets/img/space/14.jpg","[""ArrowUp"",""ArrowRight""]","practice block","space","36","{""ArrowUp,ArrowLeft"":3,""ArrowUp,ArrowRight"":36,""ArrowDown,ArrowLeft"":15,""ArrowDown,ArrowRight"":23}","true","ArrowUp,ArrowRight","false","","","","","",""
"html-keyboard-response","75","447256","0.0-3.0-11.0-2.0-1.7","spark_pilot_norest","8553","2","8","Male","","","","","","","null","<div style=""font-size:60px;"">+</div>","null","fixation","","","","","","","","","","","",""
"revaluation","76","451261","0.0-3.0-11.0-2.0-0.8","spark_pilot_norest","8553","2","8","Male","","","false","","","","[700.3000001907349]","./assets/img/space/catch/3.jpg","[""ArrowUp""]","practice block","space","-10","{""ArrowUp,ArrowLeft"":3,""ArrowUp,ArrowRight"":36,""ArrowDown,ArrowLeft"":15,""ArrowDown,ArrowRight"":23}","false","ArrowUp","true","","","","","",""
"html-keyboard-response","77","451763","0.0-3.0-11.0-2.0-1.8","spark_pilot_norest","8553","2","8","Male","","","","","","","null","<div style=""font-size:60px;"">+</div>","null","fixation","","","","","","","","","","","",""
"learning-instructions","78","467640","0.0-3.0-11.0-3.0-0.0","spark_pilot_norest","8553","2","8","Male","","","","","","","2321.4000000953674","<p> Now, you will travel with a friend who will choose whether you go up or down first. </p>
            <p> On these turns, you will just see the animal that they found. You will still get to choose which chest to search for treasure.</p>","","instructions","","","","","","","","","","","",""
"revaluation","79","471651","0.0-3.0-11.0-4.0-0.0","spark_pilot_norest","8553","2","8","Male","","","false","","","","[762.8000001907349]","./assets/img/space/animals/rabbit.jpg","[""ArrowRight""]","practice block","space","23","{""ArrowUp,ArrowLeft"":3,""ArrowUp,ArrowRight"":36,""ArrowDown,ArrowLeft"":15,""ArrowDown,ArrowRight"":23}","true","ArrowDown,ArrowRight","","","","","","",""
"html-keyboard-response","80","472158","0.0-3.0-11.0-4.0-1.0","spark_pilot_norest","8553","2","8","Male","","","","","","","null","<div style=""font-size:60px;"">+</div>","null","fixation","","","","","","","","","","","",""
"revaluation","81","476173","0.0-3.0-11.0-4.0-0.1","spark_pilot_norest","8553","2","8","Male","","","false","","","","[333.2000000476837]","./assets/img/space/animals/cat.jpg","[""ArrowLeft""]","practice block","space","3","{""ArrowUp,ArrowLeft"":3,""ArrowUp,ArrowRight"":36,""ArrowDown,ArrowLeft"":15,""ArrowDown,ArrowRight"":23}","false","ArrowUp,ArrowLeft","","","","","","",""
"html-keyboard-response","82","476676","0.0-3.0-11.0-4.0-1.1","spark_pilot_norest","8553","2","8","Male","","","","","","","null","<div style=""font-size:60px;"">+</div>","null","fixation","","","","","","","","","","","",""
"revaluation","83","480690","0.0-3.0-11.0-4.0-0.2","spark_pilot_norest","8553","2","8","Male","","","false","","","","[262.2000000476837]","./assets/img/space/animals/cat.jpg","[""ArrowRight""]","practice block","space","36","{""ArrowUp,ArrowLeft"":3,""ArrowUp,ArrowRight"":36,""ArrowDown,ArrowLeft"":15,""ArrowDown,ArrowRight"":23}","true","ArrowUp,ArrowRight","","","","","","",""
"html-keyboard-response","84","481192","0.0-3.0-11.0-4.0-1.2","spark_pilot_norest","8553","2","8","Male","","","","","","","null","<div style=""font-size:60px;"">+</div>","null","fixation","","","","","","","","","","","",""
"revaluation","85","485226","0.0-3.0-11.0-4.0-0.3","spark_pilot_norest","8553","2","8","Male","","","false","","","","[518.7999999523163]","./assets/img/space/animals/rabbit.jpg","[""ArrowRight""]","practice block","space","23","{""ArrowUp,ArrowLeft"":3,""ArrowUp,ArrowRight"":36,""ArrowDown,ArrowLeft"":15,""ArrowDown,ArrowRight"":23}","true","ArrowDown,ArrowRight","","","","","","",""
"html-keyboard-response","86","485743","0.0-3.0-11.0-4.0-1.3","spark_pilot_norest","8553","2","8","Male","","","","","","","null","<div style=""font-size:60px;"">+</div>","null","fixation","","","","","","","","","","","",""
"learning-instructions","87","493900","0.0-3.0-11.0-5.0-0.0","spark_pilot_norest","8553","2","8","Male","","","","","","","null","<p> You have almost finished this part of the game! </p>
            <p> We are going to ask you to make a few more choices. </p>","","instructions","","","","","","","","","","","",""
"learning-instructions","88","509958","0.0-3.0-11.0-5.0-0.1","spark_pilot_norest","8553","2","8","Male","","","","","","","null","<p> First, you need to decide whether to go up or down. When you see each picture, use the arrow keys to make your choice. </p>
            <p><b>You will not see which animal you found, but try to get to the one that will give you the most treasure.</b></p>","","instructions","","","","","","","","","","","",""
"html-keyboard-response","89","510959","0.0-3.0-11.0-6.0-0.0","spark_pilot_norest","8553","2","8","Male","","","","","","","null","<div style=""font-size:100px;color:red;"">Starting in...</div>","null","","","","","","","","","","","","",""
"html-keyboard-response","90","511961","0.0-3.0-11.0-6.0-1.0","spark_pilot_norest","8553","2","8","Male","","","","","","","null","<div style=""font-size:200px;color:red;"">3</div>","null","","","","","","","","","","","","",""
"html-keyboard-response","91","512963","0.0-3.0-11.0-6.0-2.0","spark_pilot_norest","8553","2","8","Male","","","","","","","null","<div style=""font-size:200px;color:red;"">2</div>","null","","","","","","","","","","","","",""
"html-keyboard-response","92","513965","0.0-3.0-11.0-6.0-3.0","spark_pilot_norest","8553","2","8","Male","","","","","","","null","<div style=""font-size:200px;color:red;"">1</div>","null","","","","","","","","","","","","",""
"revaluation","93","515018","0.0-3.0-11.0-7.0","spark_pilot_norest","8553","2","8","Male","","","false","","","","[1048.4000000953674]","./assets/img/space/15.jpg","[""ArrowDown""]","practice block","space","0","{""ArrowUp,ArrowLeft"":3,""ArrowUp,ArrowRight"":36,""ArrowDown,ArrowLeft"":15,""ArrowDown,ArrowRight"":23}","false","ArrowDown","false","","","","","",""
"html-keyboard-response","94","515519","0.0-3.0-11.0-8.0","spark_pilot_norest","8553","2","8","Male","","","","","","","null","<div style=""font-size:60px;"">+</div>","null","fixation","","","","","","","","","","","",""
"learning-instructions","95","528941","0.0-3.0-11.0-9.0-0.0","spark_pilot_norest","8553","2","8","Male","","","","","","","null","<p> Now you will see the animals again and can search their chests for treasure. </p>
            <p> This time, you will not see how much treasure you earned, but you will earn more bonus money for making better choices. </p>","","instructions","","","","","","","","","","","",""
"html-keyboard-response","96","529956","0.0-3.0-11.0-10.0-0.0","spark_pilot_norest","8553","2","8","Male","","","","","","","null","<div style=""font-size:100px;color:red;"">Starting in...</div>","null","","","","","","","","","","","","",""
"html-keyboard-response","97","530962","0.0-3.0-11.0-10.0-1.0","spark_pilot_norest","8553","2","8","Male","","","","","","","null","<div style=""font-size:200px;color:red;"">3</div>","null","","","","","","","","","","","","",""
"html-keyboard-response","98","531965","0.0-3.0-11.0-10.0-2.0","spark_pilot_norest","8553","2","8","Male","","","","","","","null","<div style=""font-size:200px;color:red;"">2</div>","null","","","","","","","","","","","","",""
"html-keyboard-response","99","532966","0.0-3.0-11.0-10.0-3.0","spark_pilot_norest","8553","2","8","Male","","","","","","","null","<div style=""font-size:200px;color:red;"">1</div>","null","","","","","","","","","","","","",""
"revaluation","100","533300","0.0-3.0-11.0-11.0-0.0","spark_pilot_norest","8553","2","8","Male","","","false","","","","[329.7000000476837]","./assets/img/space/animals/cat.jpg","[""ArrowLeft""]","practice block","space","0","{""ArrowUp,ArrowLeft"":3,""ArrowUp,ArrowRight"":36,""ArrowDown,ArrowLeft"":15,""ArrowDown,ArrowRight"":23}","false","ArrowUp,ArrowLeft","","","","","","",""
"html-keyboard-response","101","533803","0.0-3.0-11.0-11.0-1.0","spark_pilot_norest","8553","2","8","Male","","","","","","","null","<div style=""font-size:60px;"">+</div>","null","fixation","","","","","","","","","","","",""
"revaluation","102","534693","0.0-3.0-11.0-11.0-0.1","spark_pilot_norest","8553","2","8","Male","","","false","","","","[885.6999998092651]","./assets/img/space/animals/rabbit.jpg","[""ArrowRight""]","practice block","space","0","{""ArrowUp,ArrowLeft"":3,""ArrowUp,ArrowRight"":36,""ArrowDown,ArrowLeft"":15,""ArrowDown,ArrowRight"":23}","true","ArrowDown,ArrowRight","","","","","","",""
"html-keyboard-response","103","535197","0.0-3.0-11.0-11.0-1.1","spark_pilot_norest","8553","2","8","Male","","","","","","","null","<div style=""font-size:60px;"">+</div>","null","fixation","","","","","","","","","","","",""
"learning-instructions","104","543487","0.0-3.0-12.0-0.0","spark_pilot_norest","8553","2","8","Male","","","","","","","3688.5999999046326","<p> Before you start, we're going to ask you a few questions about how the game works. </p>","","instructions","","","","","","","","","","","",""
"comp-q","105","550666","0.0-3.0-13.0-0.0-0.0","spark_pilot_norest","8553","2","8","Male","","","","","","","1550.5","<p> <b> True or False? </b> </p>
            <p> There can be 50 pieces of treasure in a given animal's chest. </p>","1","comp_question","","","","true","","","","","","","",""
"comp-q","106","559410","0.0-3.0-13.0-0.0-1.0","spark_pilot_norest","8553","2","8","Male","","","","","","","2041.3999998569489","<p> <b> That's right! </b> The amount of treasure in each chest can range from 0 to 40 pieces. </p>","0","comp_answer","","","","","","","","","","","",""
"comp-q","107","567645","0.0-3.0-13.0-0.1-0.1","spark_pilot_norest","8553","2","8","Male","","","","","","","1075.4000000953674","<p> <b> True or False? </b> </p><p> In this game, all animals have the same amount of treasure in their left and right chests. </p>","1","comp_question","","","","true","","","","","","","",""
"comp-q","108","574678","0.0-3.0-13.0-0.1-1.1","spark_pilot_norest","8553","2","8","Male","","","","","","","1759.3999998569489","<p> <b> That's right! </b> Animals have different amounts of treasure in their treasure chests. </p>","0","comp_answer","","","","","","","","","","","",""
"comp-q","109","587191","0.0-3.0-13.0-0.2-0.2","spark_pilot_norest","8553","2","8","Male","","","","","","","6662.200000047684","<p> <b> True or False? </b> </p><p> The same animal will always be there if you go up in the same place. </p>","0","comp_question","","","","true","","","","","","","",""
"comp-q","110","596085","0.0-3.0-13.0-0.2-1.2","spark_pilot_norest","8553","2","8","Male","","","","","","","2396","<p> <b> That's right! </b> One animal lives in the upper part and one lives in the lower part of every place. </p>","0","comp_answer","","","","","","","","","","","",""
"comp-q","111","607033","0.0-3.0-13.0-0.3-0.3","spark_pilot_norest","8553","2","8","Male","","","","","","","5384.699999809265","<p> <b> True or False? </b> </p><p> If you see a different picture, it means you are in a new place. </p>","0","comp_question","","","","false","","","","","","","",""
"comp-q","112","623344","0.0-3.0-13.0-0.3-1.3","spark_pilot_norest","8553","2","8","Male","","","","","","","5165.099999904633","<p> <b>Incorrect.</b> Lots of different images may show the same place. For example,  you may see three different images that all remind you that you are in outer space. </p>","0","comp_answer","","","","","","","","","","","",""
"comp-q","113","630042","0.0-3.0-13.0-0.4-0.4","spark_pilot_norest","8553","2","8","Male","","","","","","","1193.5","<p> <b> True or False? </b> </p><p> If you see a different picture, it means you are in a new place. </p>","1","comp_question","","","","true","","","","","","","",""
"comp-q","114","645247","0.0-3.0-13.0-0.4-1.4","spark_pilot_norest","8553","2","8","Male","","","","","","","3918.7999999523163","<p> <b> That's right! </b> Lots of different images may show the same place. For example,  you may see three different images that all remind you that you are in outer space. </p>","0","comp_answer","","","","","","","","","","","",""
"learning-instructions","115","658134","0.0-3.0-14.0-0.0","spark_pilot_norest","8553","2","8","Male","","","","","","","2975.800000190735","<p> Good job. Remember to do your best because the amount of treasure you earn will be converted into bonus money. </p>
            <p> It’s time to start the real game! </p>","","instructions","","","","","","","","","","","",""
"learning-instructions","116","663867","0.0-4.0-0.0-0.0","spark_pilot_norest","8553","2","8","Male","","","","","","","3008.5","<p> This time you are searching for treasure in the <b>ocean</b>.</p>","","instructions","","","","","","","","","","","",""
"learning-instructions","117","684379","0.0-4.0-0.0-0.1","spark_pilot_norest","8553","2","8","Male","","","","","","","3141","<p><b>New</b> animals with <b>new</b> treasure chests live here. You need to explore to discover where the animal with the best treasure chest is.</p>
                    <p> Like before, once you figure out which animal has the chest with the most treasure, you should try to get to that animal and select that chest! </p>","","instructions","","","","","","","","","","","",""
"learning-instructions","118","703238","0.0-4.0-1.0-0.0","spark_pilot_norest","8553","2","8","Male","","","","","","","4119.299999952316","<p> Remember, when you see a picture of the place, use the up and down keys to <b>find an animal</b>.</p>
            <p> When you encounter an animal, you should use the left and right keys to <b>select a treasure chest</b>.</p>
            <p> Don't forget to look out for the robber! </p>","","instructions","","","","","","","","","","","",""
"revaluation","119","709264","0.0-4.0-2.0-0.0","spark_pilot_norest","8553","2","8","Male","","","false","","","","[1045.4000000953674,1456.7000000476837]","./assets/img/ocean/memory/40.jpg","[""ArrowDown"",""ArrowRight""]","value training","ocean","30","{""ArrowUp,ArrowLeft"":23,""ArrowUp,ArrowRight"":10,""ArrowDown,ArrowLeft"":8,""ArrowDown,ArrowRight"":30}","true","ArrowDown,ArrowRight","false","revaluation","1","0","","",""
"html-keyboard-response","120","709780","0.0-4.0-2.0-1.0","spark_pilot_norest","8553","2","8","Male","","","","","","","null","<div style=""font-size:60px;"">+</div>","null","fixation","","","","","","","","","1","","",""
"revaluation","121","715816","0.0-4.0-2.0-0.1","spark_pilot_norest","8553","2","8","Male","","","false","","","","[594.8000001907349,824.8000001907349]","./assets/img/ocean/memory/3.jpg","[""ArrowUp"",""ArrowRight""]","value training","ocean","10","{""ArrowUp,ArrowLeft"":23,""ArrowUp,ArrowRight"":10,""ArrowDown,ArrowLeft"":8,""ArrowDown,ArrowRight"":30}","false","ArrowUp,ArrowRight","false","revaluation","1","2","","",""
"html-keyboard-response","122","716319","0.0-4.0-2.0-1.1","spark_pilot_norest","8553","2","8","Male","","","","","","","null","<div style=""font-size:60px;"">+</div>","null","fixation","","","","","","","","","3","","",""
"revaluation","123","722343","0.0-4.0-2.0-0.2","spark_pilot_norest","8553","2","8","Male","","","false","","","","[1063.4000000953674,836.7000000476837]","./assets/img/ocean/memory/28.jpg","[""ArrowUp"",""ArrowLeft""]","value training","ocean","23","{""ArrowUp,ArrowLeft"":23,""ArrowUp,ArrowRight"":10,""ArrowDown,ArrowLeft"":8,""ArrowDown,ArrowRight"":30}","false","ArrowUp,ArrowLeft","false","revaluation","1","4","","",""
"html-keyboard-response","124","722846","0.0-4.0-2.0-1.2","spark_pilot_norest","8553","2","8","Male","","","","","","","null","<div style=""font-size:60px;"">+</div>","null","fixation","","","","","","","","","5","","",""
"revaluation","125","728874","0.0-4.0-2.0-0.3","spark_pilot_norest","8553","2","8","Male","","","false","","","","[445.2000000476837,849.8999998569489]","./assets/img/ocean/memory/23.jpg","[""ArrowDown"",""ArrowRight""]","value training","ocean","30","{""ArrowUp,ArrowLeft"":23,""ArrowUp,ArrowRight"":10,""ArrowDown,ArrowLeft"":8,""ArrowDown,ArrowRight"":30}","true","ArrowDown,ArrowRight","false","revaluation","1","6","","",""
"html-keyboard-response","126","729376","0.0-4.0-2.0-1.3","spark_pilot_norest","8553","2","8","Male","","","","","","","null","<div style=""font-size:60px;"">+</div>","null","fixation","","","","","","","","","7","","",""
"revaluation","127","735383","0.0-4.0-2.0-0.4","spark_pilot_norest","8553","2","8","Male","","","false","","","","[900.8999998569489,940.1000001430511]","./assets/img/ocean/memory/18.jpg","[""ArrowDown"",""ArrowRight""]","value training","ocean","30","{""ArrowUp,ArrowLeft"":23,""ArrowUp,ArrowRight"":10,""ArrowDown,ArrowLeft"":8,""ArrowDown,ArrowRight"":30}","true","ArrowDown,ArrowRight","false","revaluation","1","8","","",""
"html-keyboard-response","128","735884","0.0-4.0-2.0-1.4","spark_pilot_norest","8553","2","8","Male","","","","","","","null","<div style=""font-size:60px;"">+</div>","null","fixation","","","","","","","","","9","","",""
"revaluation","129","741893","0.0-4.0-2.0-0.5","spark_pilot_norest","8553","2","8","Male","","","false","","","","[1074.0999999046326,737.0999999046326]","./assets/img/ocean/memory/23.jpg","[""ArrowDown"",""ArrowLeft""]","value training","ocean","8","{""ArrowUp,ArrowLeft"":23,""ArrowUp,ArrowRight"":10,""ArrowDown,ArrowLeft"":8,""ArrowDown,ArrowRight"":30}","false","ArrowDown,ArrowLeft","false","revaluation","1","10","","",""
"html-keyboard-response","130","742395","0.0-4.0-2.0-1.5","spark_pilot_norest","8553","2","8","Male","","","","","","","null","<div style=""font-size:60px;"">+</div>","null","fixation","","","","","","","","","11","","",""
"revaluation","131","748409","0.0-4.0-2.0-0.6","spark_pilot_norest","8553","2","8","Male","","","false","","","","[1292.6000001430511,747.4000000953674]","./assets/img/ocean/memory/29.jpg","[""ArrowDown"",""ArrowRight""]","value training","ocean","30","{""ArrowUp,ArrowLeft"":23,""ArrowUp,ArrowRight"":10,""ArrowDown,ArrowLeft"":8,""ArrowDown,ArrowRight"":30}","true","ArrowDown,ArrowRight","false","revaluation","1","12","","",""
"html-keyboard-response","132","748911","0.0-4.0-2.0-1.6","spark_pilot_norest","8553","2","8","Male","","","","","","","null","<div style=""font-size:60px;"">+</div>","null","fixation","","","","","","","","","13","","",""
"revaluation","133","754917","0.0-4.0-2.0-0.7","spark_pilot_norest","8553","2","8","Male","","","false","","","","[351.89999985694885,664.9000000953674]","./assets/img/ocean/memory/31.jpg","[""ArrowUp"",""ArrowRight""]","value training","ocean","10","{""ArrowUp,ArrowLeft"":23,""ArrowUp,ArrowRight"":10,""ArrowDown,ArrowLeft"":8,""ArrowDown,ArrowRight"":30}","false","ArrowUp,ArrowRight","false","revaluation","1","14","","",""
"html-keyboard-response","134","755420","0.0-4.0-2.0-1.7","spark_pilot_norest","8553","2","8","Male","","","","","","","null","<div style=""font-size:60px;"">+</div>","null","fixation","","","","","","","","","15","","",""
"revaluation","135","759439","0.0-4.0-2.0-0.8","spark_pilot_norest","8553","2","8","Male","","","false","","","","[364.09999990463257]","./assets/img/ocean/catch/0.jpg","[""ArrowUp""]","value training","ocean","-10","{""ArrowUp,ArrowLeft"":23,""ArrowUp,ArrowRight"":10,""ArrowDown,ArrowLeft"":8,""ArrowDown,ArrowRight"":30}","false","ArrowUp","true","revaluation","1","16","","",""
"html-keyboard-response","136","759942","0.0-4.0-2.0-1.8","spark_pilot_norest","8553","2","8","Male","","","","","","","null","<div style=""font-size:60px;"">+</div>","null","fixation","","","","","","","","","17","","",""
"revaluation","137","765948","0.0-4.0-2.0-0.9","spark_pilot_norest","8553","2","8","Male","","","false","","","","[806,820.5999999046326]","./assets/img/ocean/memory/6.jpg","[""ArrowDown"",""ArrowLeft""]","value training","ocean","8","{""ArrowUp,ArrowLeft"":23,""ArrowUp,ArrowRight"":10,""ArrowDown,ArrowLeft"":8,""ArrowDown,ArrowRight"":30}","false","ArrowDown,ArrowLeft","false","revaluation","1","18","","",""
"html-keyboard-response","138","766450","0.0-4.0-2.0-1.9","spark_pilot_norest","8553","2","8","Male","","","","","","","null","<div style=""font-size:60px;"">+</div>","null","fixation","","","","","","","","","19","","",""
"revaluation","139","772457","0.0-4.0-2.0-0.10","spark_pilot_norest","8553","2","8","Male","","","false","","","","[658.4000000953674,1655.5999999046326]","./assets/img/ocean/memory/40.jpg","[""ArrowUp"",""ArrowRight""]","value training","ocean","10","{""ArrowUp,ArrowLeft"":23,""ArrowUp,ArrowRight"":10,""ArrowDown,ArrowLeft"":8,""ArrowDown,ArrowRight"":30}","false","ArrowUp,ArrowRight","false","revaluation","1","20","","",""
"html-keyboard-response","140","772959","0.0-4.0-2.0-1.10","spark_pilot_norest","8553","2","8","Male","","","","","","","null","<div style=""font-size:60px;"">+</div>","null","fixation","","","","","","","","","21","","",""
"revaluation","141","778966","0.0-4.0-2.0-0.11","spark_pilot_norest","8553","2","8","Male","","","false","","","","[916.2000000476837,863.3000001907349]","./assets/img/ocean/memory/27.jpg","[""ArrowUp"",""ArrowLeft""]","value training","ocean","23","{""ArrowUp,ArrowLeft"":23,""ArrowUp,ArrowRight"":10,""ArrowDown,ArrowLeft"":8,""ArrowDown,ArrowRight"":30}","false","ArrowUp,ArrowLeft","false","revaluation","1","22","","",""
"html-keyboard-response","142","779468","0.0-4.0-2.0-1.11","spark_pilot_norest","8553","2","8","Male","","","","","","","null","<div style=""font-size:60px;"">+</div>","null","fixation","","","","","","","","","23","","",""
"revaluation","143","785489","0.0-4.0-2.0-0.12","spark_pilot_norest","8553","2","8","Male","","","false","","","","[1136.2999999523163,763.8999998569489]","./assets/img/ocean/memory/36.jpg","[""ArrowDown"",""ArrowRight""]","value training","ocean","30","{""ArrowUp,ArrowLeft"":23,""ArrowUp,ArrowRight"":10,""ArrowDown,ArrowLeft"":8,""ArrowDown,ArrowRight"":30}","true","ArrowDown,ArrowRight","false","revaluation","1","24","","",""
"html-keyboard-response","144","785990","0.0-4.0-2.0-1.12","spark_pilot_norest","8553","2","8","Male","","","","","","","null","<div style=""font-size:60px;"">+</div>","null","fixation","","","","","","","","","25","","",""
"revaluation","145","791996","0.0-4.0-2.0-0.13","spark_pilot_norest","8553","2","8","Male","","","false","","","","[758,835]","./assets/img/ocean/memory/27.jpg","[""ArrowDown"",""ArrowRight""]","value training","ocean","30","{""ArrowUp,ArrowLeft"":23,""ArrowUp,ArrowRight"":10,""ArrowDown,ArrowLeft"":8,""ArrowDown,ArrowRight"":30}","true","ArrowDown,ArrowRight","false","revaluation","1","26","","",""
"html-keyboard-response","146","792507","0.0-4.0-2.0-1.13","spark_pilot_norest","8553","2","8","Male","","","","","","","null","<div style=""font-size:60px;"">+</div>","null","fixation","","","","","","","","","27","","",""
"revaluation","147","798514","0.0-4.0-2.0-0.14","spark_pilot_norest","8553","2","8","Male","","","false","","","","[909,1898]","./assets/img/ocean/memory/20.jpg","[""ArrowUp"",""ArrowRight""]","value training","ocean","10","{""ArrowUp,ArrowLeft"":23,""ArrowUp,ArrowRight"":10,""ArrowDown,ArrowLeft"":8,""ArrowDown,ArrowRight"":30}","false","ArrowUp,ArrowRight","false","revaluation","1","28","","",""
"html-keyboard-response","148","799016","0.0-4.0-2.0-1.14","spark_pilot_norest","8553","2","8","Male","","","","","","","null","<div style=""font-size:60px;"">+</div>","null","fixation","","","","","","","","","29","","",""
"revaluation","149","803037","0.0-4.0-2.0-0.15","spark_pilot_norest","8553","2","8","Male","","","false","","","","[871]","./assets/img/ocean/catch/2.jpg","[""spaceBar""]","value training","ocean","0","{""ArrowUp,ArrowLeft"":23,""ArrowUp,ArrowRight"":10,""ArrowDown,ArrowLeft"":8,""ArrowDown,ArrowRight"":30}","true","spaceBar","true","revaluation","1","30","","",""
"html-keyboard-response","150","803539","0.0-4.0-2.0-1.15","spark_pilot_norest","8553","2","8","Male","","","","","","","null","<div style=""font-size:60px;"">+</div>","null","fixation","","","","","","","","","31","","",""
"revaluation","151","809546","0.0-4.0-2.0-0.16","spark_pilot_norest","8553","2","8","Male","","","false","","","","[1147.5,845]","./assets/img/ocean/memory/0.jpg","[""ArrowDown"",""ArrowRight""]","value training","ocean","30","{""ArrowUp,ArrowLeft"":23,""ArrowUp,ArrowRight"":10,""ArrowDown,ArrowLeft"":8,""ArrowDown,ArrowRight"":30}","true","ArrowDown,ArrowRight","false","revaluation","1","32","","",""
"html-keyboard-response","152","810062","0.0-4.0-2.0-1.16","spark_pilot_norest","8553","2","8","Male","","","","","","","null","<div style=""font-size:60px;"">+</div>","null","fixation","","","","","","","","","33","","",""
"revaluation","153","814067","0.0-4.0-2.0-0.17","spark_pilot_norest","8553","2","8","Male","","","false","","","","[707.4000000953674]","./assets/img/ocean/catch/6.jpg","[""ArrowDown""]","value training","ocean","-10","{""ArrowUp,ArrowLeft"":23,""ArrowUp,ArrowRight"":10,""ArrowDown,ArrowLeft"":8,""ArrowDown,ArrowRight"":30}","false","ArrowDown","true","revaluation","1","34","","",""
"html-keyboard-response","154","814570","0.0-4.0-2.0-1.17","spark_pilot_norest","8553","2","8","Male","","","","","","","null","<div style=""font-size:60px;"">+</div>","null","fixation","","","","","","","","","35","","",""
"revaluation","155","820577","0.0-4.0-2.0-0.18","spark_pilot_norest","8553","2","8","Male","","","false","","","","[787,786.8999998569489]","./assets/img/ocean/memory/12.jpg","[""ArrowDown"",""ArrowRight""]","value training","ocean","30","{""ArrowUp,ArrowLeft"":23,""ArrowUp,ArrowRight"":10,""ArrowDown,ArrowLeft"":8,""ArrowDown,ArrowRight"":30}","true","ArrowDown,ArrowRight","false","revaluation","1","36","","",""
"html-keyboard-response","156","821078","0.0-4.0-2.0-1.18","spark_pilot_norest","8553","2","8","Male","","","","","","","null","<div style=""font-size:60px;"">+</div>","null","fixation","","","","","","","","","37","","",""
"revaluation","157","827085","0.0-4.0-2.0-0.19","spark_pilot_norest","8553","2","8","Male","","","false","","","","[736.8000001907349,1323.7999999523163]","./assets/img/ocean/memory/33.jpg","[""ArrowDown"",""ArrowRight""]","value training","ocean","30","{""ArrowUp,ArrowLeft"":23,""ArrowUp,ArrowRight"":10,""ArrowDown,ArrowLeft"":8,""ArrowDown,ArrowRight"":30}","true","ArrowDown,ArrowRight","false","revaluation","1","38","","",""
"html-keyboard-response","158","827587","0.0-4.0-2.0-1.19","spark_pilot_norest","8553","2","8","Male","","","","","","","null","<div style=""font-size:60px;"">+</div>","null","fixation","","","","","","","","","39","","",""
"revaluation","159","833594","0.0-4.0-2.0-0.20","spark_pilot_norest","8553","2","8","Male","","","false","","","","[618.2999999523163,719.8000001907349]","./assets/img/ocean/memory/18.jpg","[""ArrowDown"",""ArrowRight""]","value training","ocean","30","{""ArrowUp,ArrowLeft"":23,""ArrowUp,ArrowRight"":10,""ArrowDown,ArrowLeft"":8,""ArrowDown,ArrowRight"":30}","true","ArrowDown,ArrowRight","false","revaluation","1","40","","",""
"html-keyboard-response","160","834096","0.0-4.0-2.0-1.20","spark_pilot_norest","8553","2","8","Male","","","","","","","null","<div style=""font-size:60px;"">+</div>","null","fixation","","","","","","","","","41","","",""
"revaluation","161","838102","0.0-4.0-2.0-0.21","spark_pilot_norest","8553","2","8","Male","","","false","","","","[779.3999998569489]","./assets/img/ocean/catch/1.jpg","[""ArrowDown""]","value training","ocean","-10","{""ArrowUp,ArrowLeft"":23,""ArrowUp,ArrowRight"":10,""ArrowDown,ArrowLeft"":8,""ArrowDown,ArrowRight"":30}","false","ArrowDown","true","revaluation","1","42","","",""
"html-keyboard-response","162","838604","0.0-4.0-2.0-1.21","spark_pilot_norest","8553","2","8","Male","","","","","","","null","<div style=""font-size:60px;"">+</div>","null","fixation","","","","","","","","","43","","",""
"revaluation","163","844611","0.0-4.0-2.0-0.22","spark_pilot_norest","8553","2","8","Male","","","false","","","","[882.4000000953674,766]","./assets/img/ocean/memory/41.jpg","[""ArrowUp"",""ArrowRight""]","value training","ocean","10","{""ArrowUp,ArrowLeft"":23,""ArrowUp,ArrowRight"":10,""ArrowDown,ArrowLeft"":8,""ArrowDown,ArrowRight"":30}","false","ArrowUp,ArrowRight","false","revaluation","1","44","","",""
"html-keyboard-response","164","845112","0.0-4.0-2.0-1.22","spark_pilot_norest","8553","2","8","Male","","","","","","","null","<div style=""font-size:60px;"">+</div>","null","fixation","","","","","","","","","45","","",""
"revaluation","165","851118","0.0-4.0-2.0-0.23","spark_pilot_norest","8553","2","8","Male","","","false","","","","[782.0999999046326,747.9000000953674]","./assets/img/ocean/memory/10.jpg","[""ArrowDown"",""ArrowRight""]","value training","ocean","30","{""ArrowUp,ArrowLeft"":23,""ArrowUp,ArrowRight"":10,""ArrowDown,ArrowLeft"":8,""ArrowDown,ArrowRight"":30}","true","ArrowDown,ArrowRight","false","revaluation","1","46","","",""
"html-keyboard-response","166","851620","0.0-4.0-2.0-1.23","spark_pilot_norest","8553","2","8","Male","","","","","","","null","<div style=""font-size:60px;"">+</div>","null","fixation","","","","","","","","","47","","",""
"revaluation","167","855627","0.0-4.0-2.0-0.24","spark_pilot_norest","8553","2","8","Male","","","false","","","","[782.6999998092651]","./assets/img/ocean/catch/3.jpg","[""spaceBar""]","value training","ocean","0","{""ArrowUp,ArrowLeft"":23,""ArrowUp,ArrowRight"":10,""ArrowDown,ArrowLeft"":8,""ArrowDown,ArrowRight"":30}","true","spaceBar","true","revaluation","1","48","","",""
"html-keyboard-response","168","856129","0.0-4.0-2.0-1.24","spark_pilot_norest","8553","2","8","Male","","","","","","","null","<div style=""font-size:60px;"">+</div>","null","fixation","","","","","","","","","49","","",""
"revaluation","169","862136","0.0-4.0-2.0-0.25","spark_pilot_norest","8553","2","8","Male","","","false","","","","[746.4000000953674,502.2999999523163]","./assets/img/ocean/memory/16.jpg","[""ArrowDown"",""ArrowRight""]","value training","ocean","30","{""ArrowUp,ArrowLeft"":23,""ArrowUp,ArrowRight"":10,""ArrowDown,ArrowLeft"":8,""ArrowDown,ArrowRight"":30}","true","ArrowDown,ArrowRight","false","revaluation","1","50","","",""
"html-keyboard-response","170","862638","0.0-4.0-2.0-1.25","spark_pilot_norest","8553","2","8","Male","","","","","","","null","<div style=""font-size:60px;"">+</div>","null","fixation","","","","","","","","","51","","",""
"revaluation","171","868645","0.0-4.0-2.0-0.26","spark_pilot_norest","8553","2","8","Male","","","false","","","","[563.6000001430511,681.0999999046326]","./assets/img/ocean/memory/10.jpg","[""ArrowUp"",""ArrowRight""]","value training","ocean","10","{""ArrowUp,ArrowLeft"":23,""ArrowUp,ArrowRight"":10,""ArrowDown,ArrowLeft"":8,""ArrowDown,ArrowRight"":30}","false","ArrowUp,ArrowRight","false","revaluation","1","52","","",""
"html-keyboard-response","172","869146","0.0-4.0-2.0-1.26","spark_pilot_norest","8553","2","8","Male","","","","","","","null","<div style=""font-size:60px;"">+</div>","null","fixation","","","","","","","","","53","","",""
"revaluation","173","875153","0.0-4.0-2.0-0.27","spark_pilot_norest","8553","2","8","Male","","","false","","","","[924.6999998092651,967.8999998569489]","./assets/img/ocean/memory/36.jpg","[""ArrowDown"",""ArrowLeft""]","value training","ocean","8","{""ArrowUp,ArrowLeft"":23,""ArrowUp,ArrowRight"":10,""ArrowDown,ArrowLeft"":8,""ArrowDown,ArrowRight"":30}","false","ArrowDown,ArrowLeft","false","revaluation","1","54","","",""
"html-keyboard-response","174","875655","0.0-4.0-2.0-1.27","spark_pilot_norest","8553","2","8","Male","","","","","","","null","<div style=""font-size:60px;"">+</div>","null","fixation","","","","","","","","","55","","",""
"revaluation","175","881661","0.0-4.0-2.0-0.28","spark_pilot_norest","8553","2","8","Male","","","false","","","","[706,780]","./assets/img/ocean/memory/3.jpg","[""ArrowDown"",""ArrowRight""]","value training","ocean","30","{""ArrowUp,ArrowLeft"":23,""ArrowUp,ArrowRight"":10,""ArrowDown,ArrowLeft"":8,""ArrowDown,ArrowRight"":30}","true","ArrowDown,ArrowRight","false","revaluation","1","56","","",""
"html-keyboard-response","176","882163","0.0-4.0-2.0-1.28","spark_pilot_norest","8553","2","8","Male","","","","","","","null","<div style=""font-size:60px;"">+</div>","null","fixation","","","","","","","","","57","","",""
"revaluation","177","888178","0.0-4.0-2.0-0.29","spark_pilot_norest","8553","2","8","Male","","","false","","","","[704.0999999046326,759.4000000953674]","./assets/img/ocean/memory/29.jpg","[""ArrowDown"",""ArrowRight""]","value training","ocean","30","{""ArrowUp,ArrowLeft"":23,""ArrowUp,ArrowRight"":10,""ArrowDown,ArrowLeft"":8,""ArrowDown,ArrowRight"":30}","true","ArrowDown,ArrowRight","false","revaluation","1","58","","",""
"html-keyboard-response","178","888681","0.0-4.0-2.0-1.29","spark_pilot_norest","8553","2","8","Male","","","","","","","null","<div style=""font-size:60px;"">+</div>","null","fixation","","","","","","","","","59","","",""
"revaluation","179","894689","0.0-4.0-2.0-0.30","spark_pilot_norest","8553","2","8","Male","","","false","","","","[734.0999999046326,694.1000001430511]","./assets/img/ocean/memory/21.jpg","[""ArrowDown"",""ArrowRight""]","value training","ocean","30","{""ArrowUp,ArrowLeft"":23,""ArrowUp,ArrowRight"":10,""ArrowDown,ArrowLeft"":8,""ArrowDown,ArrowRight"":30}","true","ArrowDown,ArrowRight","false","revaluation","1","60","","",""
"html-keyboard-response","180","895191","0.0-4.0-2.0-1.30","spark_pilot_norest","8553","2","8","Male","","","","","","","null","<div style=""font-size:60px;"">+</div>","null","fixation","","","","","","","","","61","","",""
"revaluation","181","899197","0.0-4.0-2.0-0.31","spark_pilot_norest","8553","2","8","Male","","","false","","","","[873.7999999523163]","./assets/img/ocean/catch/7.jpg","[""spaceBar""]","value training","ocean","0","{""ArrowUp,ArrowLeft"":23,""ArrowUp,ArrowRight"":10,""ArrowDown,ArrowLeft"":8,""ArrowDown,ArrowRight"":30}","true","spaceBar","true","revaluation","1","62","","",""
"html-keyboard-response","182","899698","0.0-4.0-2.0-1.31","spark_pilot_norest","8553","2","8","Male","","","","","","","null","<div style=""font-size:60px;"">+</div>","null","fixation","","","","","","","","","63","","",""
"revaluation","183","905705","0.0-4.0-2.0-0.32","spark_pilot_norest","8553","2","8","Male","","","false","","","","[1178.4000000953674,856.8999998569489]","./assets/img/ocean/memory/33.jpg","[""ArrowUp"",""ArrowRight""]","value training","ocean","10","{""ArrowUp,ArrowLeft"":23,""ArrowUp,ArrowRight"":10,""ArrowDown,ArrowLeft"":8,""ArrowDown,ArrowRight"":30}","false","ArrowUp,ArrowRight","false","revaluation","1","64","","",""
"html-keyboard-response","184","906207","0.0-4.0-2.0-1.32","spark_pilot_norest","8553","2","8","Male","","","","","","","null","<div style=""font-size:60px;"">+</div>","null","fixation","","","","","","","","","65","","",""
"revaluation","185","912214","0.0-4.0-2.0-0.33","spark_pilot_norest","8553","2","8","Male","","","false","","","","[553,778.7999999523163]","./assets/img/ocean/memory/19.jpg","[""ArrowDown"",""ArrowRight""]","value training","ocean","30","{""ArrowUp,ArrowLeft"":23,""ArrowUp,ArrowRight"":10,""ArrowDown,ArrowLeft"":8,""ArrowDown,ArrowRight"":30}","true","ArrowDown,ArrowRight","false","revaluation","1","66","","",""
"html-keyboard-response","186","912715","0.0-4.0-2.0-1.33","spark_pilot_norest","8553","2","8","Male","","","","","","","null","<div style=""font-size:60px;"">+</div>","null","fixation","","","","","","","","","67","","",""
"revaluation","187","916721","0.0-4.0-2.0-0.34","spark_pilot_norest","8553","2","8","Male","","","true","","","","[]","./assets/img/ocean/memory/21.jpg","[]","value training","ocean","-5","{""ArrowUp,ArrowLeft"":23,""ArrowUp,ArrowRight"":10,""ArrowDown,ArrowLeft"":8,""ArrowDown,ArrowRight"":30}","false","","false","revaluation","1","68","","",""
"html-keyboard-response","188","917222","0.0-4.0-2.0-1.34","spark_pilot_norest","8553","2","8","Male","","","","","","","null","<div style=""font-size:60px;"">+</div>","null","fixation","","","","","","","","","69","","",""
"revaluation","189","923229","0.0-4.0-2.0-0.35","spark_pilot_norest","8553","2","8","Male","","","false","","","","[537.5,771.8999998569489]","./assets/img/ocean/memory/0.jpg","[""ArrowDown"",""ArrowRight""]","value training","ocean","30","{""ArrowUp,ArrowLeft"":23,""ArrowUp,ArrowRight"":10,""ArrowDown,ArrowLeft"":8,""ArrowDown,ArrowRight"":30}","true","ArrowDown,ArrowRight","false","revaluation","1","70","","",""
"html-keyboard-response","190","923731","0.0-4.0-2.0-1.35","spark_pilot_norest","8553","2","8","Male","","","","","","","null","<div style=""font-size:60px;"">+</div>","null","fixation","","","","","","","","","71","","",""
"revaluation","191","929738","0.0-4.0-2.0-0.36","spark_pilot_norest","8553","2","8","Male","","","false","","","","[645.7999999523163,945.8000001907349]","./assets/img/ocean/memory/28.jpg","[""ArrowDown"",""ArrowRight""]","value training","ocean","30","{""ArrowUp,ArrowLeft"":23,""ArrowUp,ArrowRight"":10,""ArrowDown,ArrowLeft"":8,""ArrowDown,ArrowRight"":30}","true","ArrowDown,ArrowRight","false","revaluation","1","72","","",""
"html-keyboard-response","192","930240","0.0-4.0-2.0-1.36","spark_pilot_norest","8553","2","8","Male","","","","","","","null","<div style=""font-size:60px;"">+</div>","null","fixation","","","","","","","","","73","","",""
"revaluation","193","934245","0.0-4.0-2.0-0.37","spark_pilot_norest","8553","2","8","Male","","","false","","","","[852.8999998569489]","./assets/img/ocean/catch/4.jpg","[""spaceBar""]","value training","ocean","0","{""ArrowUp,ArrowLeft"":23,""ArrowUp,ArrowRight"":10,""ArrowDown,ArrowLeft"":8,""ArrowDown,ArrowRight"":30}","true","spaceBar","true","revaluation","1","74","","",""
"html-keyboard-response","194","934746","0.0-4.0-2.0-1.37","spark_pilot_norest","8553","2","8","Male","","","","","","","null","<div style=""font-size:60px;"">+</div>","null","fixation","","","","","","","","","75","","",""
"revaluation","195","940752","0.0-4.0-2.0-0.38","spark_pilot_norest","8553","2","8","Male","","","false","","","","[827.2000000476837,544.7999999523163]","./assets/img/ocean/memory/16.jpg","[""ArrowDown"",""ArrowRight""]","value training","ocean","30","{""ArrowUp,ArrowLeft"":23,""ArrowUp,ArrowRight"":10,""ArrowDown,ArrowLeft"":8,""ArrowDown,ArrowRight"":30}","true","ArrowDown,ArrowRight","false","revaluation","1","76","","",""
"html-keyboard-response","196","941253","0.0-4.0-2.0-1.38","spark_pilot_norest","8553","2","8","Male","","","","","","","null","<div style=""font-size:60px;"">+</div>","null","fixation","","","","","","","","","77","","",""
"revaluation","197","947262","0.0-4.0-2.0-0.39","spark_pilot_norest","8553","2","8","Male","","","false","","","","[611.0999999046326,750.5999999046326]","./assets/img/ocean/memory/26.jpg","[""ArrowDown"",""ArrowRight""]","value training","ocean","30","{""ArrowUp,ArrowLeft"":23,""ArrowUp,ArrowRight"":10,""ArrowDown,ArrowLeft"":8,""ArrowDown,ArrowRight"":30}","true","ArrowDown,ArrowRight","false","revaluation","1","78","","",""
"html-keyboard-response","198","947764","0.0-4.0-2.0-1.39","spark_pilot_norest","8553","2","8","Male","","","","","","","null","<div style=""font-size:60px;"">+</div>","null","fixation","","","","","","","","","79","","",""
"revaluation","199","953771","0.0-4.0-2.0-0.40","spark_pilot_norest","8553","2","8","Male","","","false","","","","[693.2999999523163,1046.4000000953674]","./assets/img/ocean/memory/19.jpg","[""ArrowDown"",""ArrowRight""]","value training","ocean","30","{""ArrowUp,ArrowLeft"":23,""ArrowUp,ArrowRight"":10,""ArrowDown,ArrowLeft"":8,""ArrowDown,ArrowRight"":30}","true","ArrowDown,ArrowRight","false","revaluation","1","80","","",""
"html-keyboard-response","200","954273","0.0-4.0-2.0-1.40","spark_pilot_norest","8553","2","8","Male","","","","","","","null","<div style=""font-size:60px;"">+</div>","null","fixation","","","","","","","","","81","","",""
"revaluation","201","960281","0.0-4.0-2.0-0.41","spark_pilot_norest","8553","2","8","Male","","","false","","","","[1037.9000000953674,1570.2000000476837]","./assets/img/ocean/memory/41.jpg","[""ArrowDown"",""ArrowRight""]","value training","ocean","30","{""ArrowUp,ArrowLeft"":23,""ArrowUp,ArrowRight"":10,""ArrowDown,ArrowLeft"":8,""ArrowDown,ArrowRight"":30}","true","ArrowDown,ArrowRight","false","revaluation","1","82","","",""
"html-keyboard-response","202","960783","0.0-4.0-2.0-1.41","spark_pilot_norest","8553","2","8","Male","","","","","","","null","<div style=""font-size:60px;"">+</div>","null","fixation","","","","","","","","","83","","",""
"revaluation","203","966791","0.0-4.0-2.0-0.42","spark_pilot_norest","8553","2","8","Male","","","false","","","","[540.0999999046326,719]","./assets/img/ocean/memory/25.jpg","[""ArrowDown"",""ArrowRight""]","value training","ocean","30","{""ArrowUp,ArrowLeft"":23,""ArrowUp,ArrowRight"":10,""ArrowDown,ArrowLeft"":8,""ArrowDown,ArrowRight"":30}","true","ArrowDown,ArrowRight","false","revaluation","1","84","","",""
"html-keyboard-response","204","967294","0.0-4.0-2.0-1.42","spark_pilot_norest","8553","2","8","Male","","","","","","","null","<div style=""font-size:60px;"">+</div>","null","fixation","","","","","","","","","85","","",""
"revaluation","205","971300","0.0-4.0-2.0-0.43","spark_pilot_norest","8553","2","8","Male","","","false","","","","[782.0999999046326]","./assets/img/ocean/catch/5.jpg","[""ArrowDown""]","value training","ocean","-10","{""ArrowUp,ArrowLeft"":23,""ArrowUp,ArrowRight"":10,""ArrowDown,ArrowLeft"":8,""ArrowDown,ArrowRight"":30}","false","ArrowDown","true","revaluation","1","86","","",""
"html-keyboard-response","206","971802","0.0-4.0-2.0-1.43","spark_pilot_norest","8553","2","8","Male","","","","","","","null","<div style=""font-size:60px;"">+</div>","null","fixation","","","","","","","","","87","","",""
"revaluation","207","977810","0.0-4.0-2.0-0.44","spark_pilot_norest","8553","2","8","Male","","","false","","","","[765.6000001430511,863.7000000476837]","./assets/img/ocean/memory/26.jpg","[""ArrowDown"",""ArrowRight""]","value training","ocean","30","{""ArrowUp,ArrowLeft"":23,""ArrowUp,ArrowRight"":10,""ArrowDown,ArrowLeft"":8,""ArrowDown,ArrowRight"":30}","true","ArrowDown,ArrowRight","false","revaluation","1","88","","",""
"html-keyboard-response","208","978312","0.0-4.0-2.0-1.44","spark_pilot_norest","8553","2","8","Male","","","","","","","null","<div style=""font-size:60px;"">+</div>","null","fixation","","","","","","","","","89","","",""
"revaluation","209","984319","0.0-4.0-2.0-0.45","spark_pilot_norest","8553","2","8","Male","","","false","","","","[714.3999998569489,750.8000001907349]","./assets/img/ocean/memory/6.jpg","[""ArrowDown"",""ArrowRight""]","value training","ocean","30","{""ArrowUp,ArrowLeft"":23,""ArrowUp,ArrowRight"":10,""ArrowDown,ArrowLeft"":8,""ArrowDown,ArrowRight"":30}","true","ArrowDown,ArrowRight","false","revaluation","1","90","","",""
"html-keyboard-response","210","984821","0.0-4.0-2.0-1.45","spark_pilot_norest","8553","2","8","Male","","","","","","","null","<div style=""font-size:60px;"">+</div>","null","fixation","","","","","","","","","91","","",""
"revaluation","211","988828","0.0-4.0-2.0-0.46","spark_pilot_norest","8553","2","8","Male","","","true","","","","[]","./assets/img/ocean/memory/20.jpg","[]","value training","ocean","-5","{""ArrowUp,ArrowLeft"":23,""ArrowUp,ArrowRight"":10,""ArrowDown,ArrowLeft"":8,""ArrowDown,ArrowRight"":30}","false","","false","revaluation","1","92","","",""
"html-keyboard-response","212","989330","0.0-4.0-2.0-1.46","spark_pilot_norest","8553","2","8","Male","","","","","","","null","<div style=""font-size:60px;"">+</div>","null","fixation","","","","","","","","","93","","",""
"revaluation","213","995338","0.0-4.0-2.0-0.47","spark_pilot_norest","8553","2","8","Male","","","false","","","","[599.4000000953674,690]","./assets/img/ocean/memory/31.jpg","[""ArrowDown"",""ArrowRight""]","value training","ocean","30","{""ArrowUp,ArrowLeft"":23,""ArrowUp,ArrowRight"":10,""ArrowDown,ArrowLeft"":8,""ArrowDown,ArrowRight"":30}","true","ArrowDown,ArrowRight","false","revaluation","1","94","","",""
"html-keyboard-response","214","995840","0.0-4.0-2.0-1.47","spark_pilot_norest","8553","2","8","Male","","","","","","","null","<div style=""font-size:60px;"">+</div>","null","fixation","","","","","","","","","95","","",""
"revaluation","215","1001847","0.0-4.0-2.0-0.48","spark_pilot_norest","8553","2","8","Male","","","false","","","","[578.5,700.2000000476837]","./assets/img/ocean/memory/12.jpg","[""ArrowDown"",""ArrowRight""]","value training","ocean","30","{""ArrowUp,ArrowLeft"":23,""ArrowUp,ArrowRight"":10,""ArrowDown,ArrowLeft"":8,""ArrowDown,ArrowRight"":30}","true","ArrowDown,ArrowRight","false","revaluation","1","96","","",""
"html-keyboard-response","216","1002355","0.0-4.0-2.0-1.48","spark_pilot_norest","8553","2","8","Male","","","","","","","null","<div style=""font-size:60px;"">+</div>","null","fixation","","","","","","","","","97","","",""
"revaluation","217","1008361","0.0-4.0-2.0-0.49","spark_pilot_norest","8553","2","8","Male","","","false","","","","[674.1000001430511,441.2000000476837]","./assets/img/ocean/memory/25.jpg","[""ArrowDown"",""ArrowRight""]","value training","ocean","30","{""ArrowUp,ArrowLeft"":23,""ArrowUp,ArrowRight"":10,""ArrowDown,ArrowLeft"":8,""ArrowDown,ArrowRight"":30}","true","ArrowDown,ArrowRight","false","revaluation","1","98","","",""
"html-keyboard-response","218","1008863","0.0-4.0-2.0-1.49","spark_pilot_norest","8553","2","8","Male","","","","","","","null","<div style=""font-size:60px;"">+</div>","null","fixation","","","","","","","","","99","","",""
"learning-instructions","219","1027766","0.0-4.0-3.0-0.0","spark_pilot_norest","8553","2","8","Male","","","","","","","5418.900000095367","<p> Now, you will travel with a friend who will choose whether you go up or down first. </p>
            <p> On these turns, you will just see the animal that they found. You will still get to choose which chest to search for treasure.</p>","","instructions","","","","","","","","","","","",""
"revaluation","220","1031783","0.0-4.0-4.0-0.0","spark_pilot_norest","8553","2","8","Male","","","false","","","","[860.5]","./assets/img/ocean/animals/seahorse.jpg","[""ArrowRight""]","revaluation","ocean","15","{""ArrowUp,ArrowLeft"":27,""ArrowUp,ArrowRight"":15,""ArrowDown,ArrowLeft"":21,""ArrowDown,ArrowRight"":7}","false","ArrowUp,ArrowRight","","revaluation","1","0","","",""
"html-keyboard-response","221","1032298","0.0-4.0-4.0-1.0","spark_pilot_norest","8553","2","8","Male","","","","","","","null","<div style=""font-size:60px;"">+</div>","null","fixation","","","","","","","","","1","","",""
"revaluation","222","1036313","0.0-4.0-4.0-0.1","spark_pilot_norest","8553","2","8","Male","","","false","","","","[602.9000000953674]","./assets/img/ocean/animals/octopus.jpg","[""ArrowRight""]","revaluation","ocean","7","{""ArrowUp,ArrowLeft"":27,""ArrowUp,ArrowRight"":15,""ArrowDown,ArrowLeft"":21,""ArrowDown,ArrowRight"":7}","false","ArrowDown,ArrowRight","","revaluation","1","2","","",""
"html-keyboard-response","223","1036828","0.0-4.0-4.0-1.1","spark_pilot_norest","8553","2","8","Male","","","","","","","null","<div style=""font-size:60px;"">+</div>","null","fixation","","","","","","","","","3","","",""
"revaluation","224","1040842","0.0-4.0-4.0-0.2","spark_pilot_norest","8553","2","8","Male","","","false","","","","[659.1000001430511]","./assets/img/ocean/animals/octopus.jpg","[""ArrowRight""]","revaluation","ocean","7","{""ArrowUp,ArrowLeft"":27,""ArrowUp,ArrowRight"":15,""ArrowDown,ArrowLeft"":21,""ArrowDown,ArrowRight"":7}","false","ArrowDown,ArrowRight","","revaluation","1","4","","",""
"html-keyboard-response","225","1041359","0.0-4.0-4.0-1.2","spark_pilot_norest","8553","2","8","Male","","","","","","","null","<div style=""font-size:60px;"">+</div>","null","fixation","","","","","","","","","5","","",""
"revaluation","226","1045373","0.0-4.0-4.0-0.3","spark_pilot_norest","8553","2","8","Male","","","false","","","","[849.5]","./assets/img/ocean/animals/seahorse.jpg","[""ArrowLeft""]","revaluation","ocean","27","{""ArrowUp,ArrowLeft"":27,""ArrowUp,ArrowRight"":15,""ArrowDown,ArrowLeft"":21,""ArrowDown,ArrowRight"":7}","true","ArrowUp,ArrowLeft","","revaluation","1","6","","",""
"html-keyboard-response","227","1045885","0.0-4.0-4.0-1.3","spark_pilot_norest","8553","2","8","Male","","","","","","","null","<div style=""font-size:60px;"">+</div>","null","fixation","","","","","","","","","7","","",""
"revaluation","228","1049916","0.0-4.0-4.0-0.4","spark_pilot_norest","8553","2","8","Male","","","false","","","","[1089.3000001907349]","./assets/img/ocean/animals/seahorse.jpg","[""ArrowLeft""]","revaluation","ocean","27","{""ArrowUp,ArrowLeft"":27,""ArrowUp,ArrowRight"":15,""ArrowDown,ArrowLeft"":21,""ArrowDown,ArrowRight"":7}","true","ArrowUp,ArrowLeft","","revaluation","1","8","","",""
"html-keyboard-response","229","1050419","0.0-4.0-4.0-1.4","spark_pilot_norest","8553","2","8","Male","","","","","","","null","<div style=""font-size:60px;"">+</div>","null","fixation","","","","","","","","","9","","",""
"revaluation","230","1054439","0.0-4.0-4.0-0.5","spark_pilot_norest","8553","2","8","Male","","","false","","","","[552.5]","./assets/img/ocean/animals/seahorse.jpg","[""ArrowLeft""]","revaluation","ocean","27","{""ArrowUp,ArrowLeft"":27,""ArrowUp,ArrowRight"":15,""ArrowDown,ArrowLeft"":21,""ArrowDown,ArrowRight"":7}","true","ArrowUp,ArrowLeft","","revaluation","1","10","","",""
"html-keyboard-response","231","1054941","0.0-4.0-4.0-1.5","spark_pilot_norest","8553","2","8","Male","","","","","","","null","<div style=""font-size:60px;"">+</div>","null","fixation","","","","","","","","","11","","",""
"revaluation","232","1058958","0.0-4.0-4.0-0.6","spark_pilot_norest","8553","2","8","Male","","","false","","","","[686.7000000476837]","./assets/img/ocean/animals/octopus.jpg","[""ArrowLeft""]","revaluation","ocean","21","{""ArrowUp,ArrowLeft"":27,""ArrowUp,ArrowRight"":15,""ArrowDown,ArrowLeft"":21,""ArrowDown,ArrowRight"":7}","true","ArrowDown,ArrowLeft","","revaluation","1","12","","",""
"html-keyboard-response","233","1059460","0.0-4.0-4.0-1.6","spark_pilot_norest","8553","2","8","Male","","","","","","","null","<div style=""font-size:60px;"">+</div>","null","fixation","","","","","","","","","13","","",""
"revaluation","234","1063465","0.0-4.0-4.0-0.7","spark_pilot_norest","8553","2","8","Male","","","false","","","","[651.7999999523163]","./assets/img/ocean/animals/octopus.jpg","[""ArrowLeft""]","revaluation","ocean","21","{""ArrowUp,ArrowLeft"":27,""ArrowUp,ArrowRight"":15,""ArrowDown,ArrowLeft"":21,""ArrowDown,ArrowRight"":7}","true","ArrowDown,ArrowLeft","","revaluation","1","14","","",""
"html-keyboard-response","235","1063967","0.0-4.0-4.0-1.7","spark_pilot_norest","8553","2","8","Male","","","","","","","null","<div style=""font-size:60px;"">+</div>","null","fixation","","","","","","","","","15","","",""
"revaluation","236","1067973","0.0-4.0-4.0-0.8","spark_pilot_norest","8553","2","8","Male","","","false","","","","[734.1000001430511]","./assets/img/ocean/animals/seahorse.jpg","[""ArrowRight""]","revaluation","ocean","15","{""ArrowUp,ArrowLeft"":27,""ArrowUp,ArrowRight"":15,""ArrowDown,ArrowLeft"":21,""ArrowDown,ArrowRight"":7}","false","ArrowUp,ArrowRight","","revaluation","1","16","","",""
"html-keyboard-response","237","1068475","0.0-4.0-4.0-1.8","spark_pilot_norest","8553","2","8","Male","","","","","","","null","<div style=""font-size:60px;"">+</div>","null","fixation","","","","","","","","","17","","",""
"revaluation","238","1072481","0.0-4.0-4.0-0.9","spark_pilot_norest","8553","2","8","Male","","","false","","","","[632.8999998569489]","./assets/img/ocean/animals/octopus.jpg","[""ArrowLeft""]","revaluation","ocean","21","{""ArrowUp,ArrowLeft"":27,""ArrowUp,ArrowRight"":15,""ArrowDown,ArrowLeft"":21,""ArrowDown,ArrowRight"":7}","true","ArrowDown,ArrowLeft","","revaluation","1","18","","",""
"html-keyboard-response","239","1072983","0.0-4.0-4.0-1.9","spark_pilot_norest","8553","2","8","Male","","","","","","","null","<div style=""font-size:60px;"">+</div>","null","fixation","","","","","","","","","19","","",""
"revaluation","240","1076996","0.0-4.0-4.0-0.10","spark_pilot_norest","8553","2","8","Male","","","false","","","","[616.5999999046326]","./assets/img/ocean/animals/seahorse.jpg","[""ArrowRight""]","revaluation","ocean","15","{""ArrowUp,ArrowLeft"":27,""ArrowUp,ArrowRight"":15,""ArrowDown,ArrowLeft"":21,""ArrowDown,ArrowRight"":7}","false","ArrowUp,ArrowRight","","revaluation","1","20","","",""
"html-keyboard-response","241","1077498","0.0-4.0-4.0-1.10","spark_pilot_norest","8553","2","8","Male","","","","","","","null","<div style=""font-size:60px;"">+</div>","null","fixation","","","","","","","","","21","","",""
"revaluation","242","1081503","0.0-4.0-4.0-0.11","spark_pilot_norest","8553","2","8","Male","","","false","","","","[817.5999999046326]","./assets/img/ocean/animals/octopus.jpg","[""ArrowRight""]","revaluation","ocean","7","{""ArrowUp,ArrowLeft"":27,""ArrowUp,ArrowRight"":15,""ArrowDown,ArrowLeft"":21,""ArrowDown,ArrowRight"":7}","false","ArrowDown,ArrowRight","","revaluation","1","22","","",""
"html-keyboard-response","243","1082012","0.0-4.0-4.0-1.11","spark_pilot_norest","8553","2","8","Male","","","","","","","null","<div style=""font-size:60px;"">+</div>","null","fixation","","","","","","","","","23","","",""
"revaluation","244","1086018","0.0-4.0-4.0-0.12","spark_pilot_norest","8553","2","8","Male","","","false","","","","[520.8999998569489]","./assets/img/ocean/animals/octopus.jpg","[""ArrowRight""]","revaluation","ocean","7","{""ArrowUp,ArrowLeft"":27,""ArrowUp,ArrowRight"":15,""ArrowDown,ArrowLeft"":21,""ArrowDown,ArrowRight"":7}","false","ArrowDown,ArrowRight","","revaluation","1","24","","",""
"html-keyboard-response","245","1086531","0.0-4.0-4.0-1.12","spark_pilot_norest","8553","2","8","Male","","","","","","","null","<div style=""font-size:60px;"">+</div>","null","fixation","","","","","","","","","25","","",""
"revaluation","246","1090537","0.0-4.0-4.0-0.13","spark_pilot_norest","8553","2","8","Male","","","false","","","","[698.6000001430511]","./assets/img/ocean/animals/seahorse.jpg","[""ArrowLeft""]","revaluation","ocean","27","{""ArrowUp,ArrowLeft"":27,""ArrowUp,ArrowRight"":15,""ArrowDown,ArrowLeft"":21,""ArrowDown,ArrowRight"":7}","true","ArrowUp,ArrowLeft","","revaluation","1","26","","",""
"html-keyboard-response","247","1091039","0.0-4.0-4.0-1.13","spark_pilot_norest","8553","2","8","Male","","","","","","","null","<div style=""font-size:60px;"">+</div>","null","fixation","","","","","","","","","27","","",""
"revaluation","248","1095045","0.0-4.0-4.0-0.14","spark_pilot_norest","8553","2","8","Male","","","false","","","","[1044.7999999523163]","./assets/img/ocean/animals/octopus.jpg","[""ArrowLeft""]","revaluation","ocean","21","{""ArrowUp,ArrowLeft"":27,""ArrowUp,ArrowRight"":15,""ArrowDown,ArrowLeft"":21,""ArrowDown,ArrowRight"":7}","true","ArrowDown,ArrowLeft","","revaluation","1","28","","",""
"html-keyboard-response","249","1095547","0.0-4.0-4.0-1.14","spark_pilot_norest","8553","2","8","Male","","","","","","","null","<div style=""font-size:60px;"">+</div>","null","fixation","","","","","","","","","29","","",""
"revaluation","250","1099554","0.0-4.0-4.0-0.15","spark_pilot_norest","8553","2","8","Male","","","false","","","","[687.8000001907349]","./assets/img/ocean/animals/octopus.jpg","[""ArrowLeft""]","revaluation","ocean","21","{""ArrowUp,ArrowLeft"":27,""ArrowUp,ArrowRight"":15,""ArrowDown,ArrowLeft"":21,""ArrowDown,ArrowRight"":7}","true","ArrowDown,ArrowLeft","","revaluation","1","30","","",""
"html-keyboard-response","251","1100062","0.0-4.0-4.0-1.15","spark_pilot_norest","8553","2","8","Male","","","","","","","null","<div style=""font-size:60px;"">+</div>","null","fixation","","","","","","","","","31","","",""
"revaluation","252","1104068","0.0-4.0-4.0-0.16","spark_pilot_norest","8553","2","8","Male","","","false","","","","[921.7000000476837]","./assets/img/ocean/animals/seahorse.jpg","[""ArrowRight""]","revaluation","ocean","15","{""ArrowUp,ArrowLeft"":27,""ArrowUp,ArrowRight"":15,""ArrowDown,ArrowLeft"":21,""ArrowDown,ArrowRight"":7}","false","ArrowUp,ArrowRight","","revaluation","1","32","","",""
"html-keyboard-response","253","1104570","0.0-4.0-4.0-1.16","spark_pilot_norest","8553","2","8","Male","","","","","","","null","<div style=""font-size:60px;"">+</div>","null","fixation","","","","","","","","","33","","",""
"revaluation","254","1108577","0.0-4.0-4.0-0.17","spark_pilot_norest","8553","2","8","Male","","","false","","","","[446.2999999523163]","./assets/img/ocean/animals/seahorse.jpg","[""ArrowLeft""]","revaluation","ocean","27","{""ArrowUp,ArrowLeft"":27,""ArrowUp,ArrowRight"":15,""ArrowDown,ArrowLeft"":21,""ArrowDown,ArrowRight"":7}","true","ArrowUp,ArrowLeft","","revaluation","1","34","","",""
"html-keyboard-response","255","1109079","0.0-4.0-4.0-1.17","spark_pilot_norest","8553","2","8","Male","","","","","","","null","<div style=""font-size:60px;"">+</div>","null","fixation","","","","","","","","","35","","",""
"learning-instructions","256","1117793","0.0-4.0-5.0-0.0","spark_pilot_norest","8553","2","8","Male","","","","","","","null","<p> You have almost finished this part of the game! </p>
            <p> We are going to ask you to make a few more choices. </p>","","instructions","","","","","","","","","","","",""
"learning-instructions","257","1133764","0.0-4.0-5.0-0.1","spark_pilot_norest","8553","2","8","Male","","","","","","","null","<p> First, you need to decide whether to go up or down. When you see each picture, use the arrow keys to make your choice. </p>
            <p><b>You will not see which animal you found, but try to get to the one that will give you the most treasure.</b></p>","","instructions","","","","","","","","","","","",""
"html-keyboard-response","258","1134781","0.0-4.0-6.0-0.0","spark_pilot_norest","8553","2","8","Male","","","","","","","null","<div style=""font-size:100px;color:red;"">Starting in...</div>","null","","","","","","","","","","","","",""
"html-keyboard-response","259","1135798","0.0-4.0-6.0-1.0","spark_pilot_norest","8553","2","8","Male","","","","","","","null","<div style=""font-size:200px;color:red;"">3</div>","null","","","","","","","","","","","","",""
"html-keyboard-response","260","1136799","0.0-4.0-6.0-2.0","spark_pilot_norest","8553","2","8","Male","","","","","","","null","<div style=""font-size:200px;color:red;"">2</div>","null","","","","","","","","","","","","",""
"html-keyboard-response","261","1137801","0.0-4.0-6.0-3.0","spark_pilot_norest","8553","2","8","Male","","","","","","","null","<div style=""font-size:200px;color:red;"">1</div>","null","","","","","","","","","","","","",""
"revaluation","262","1138352","0.0-4.0-7.0-0.0","spark_pilot_norest","8553","2","8","Male","","","false","","","","[546.1999998092651]","./assets/img/ocean/test/0.jpg","[""ArrowDown""]","first stage test","ocean","0","{""ArrowUp,ArrowLeft"":27,""ArrowUp,ArrowRight"":15,""ArrowDown,ArrowLeft"":21,""ArrowDown,ArrowRight"":7}","false","ArrowDown","false","revaluation","1","","","",""
"html-keyboard-response","263","1138866","0.0-4.0-7.0-1.0","spark_pilot_norest","8553","2","8","Male","","","","","","","null","<div style=""font-size:60px;"">+</div>","null","fixation","","","","","","","","","","","",""
"revaluation","264","1139864","0.0-4.0-7.0-0.1","spark_pilot_norest","8553","2","8","Male","","","false","","","","[993.5]","./assets/img/ocean/test/1.jpg","[""ArrowDown""]","first stage test","ocean","0","{""ArrowUp,ArrowLeft"":27,""ArrowUp,ArrowRight"":15,""ArrowDown,ArrowLeft"":21,""ArrowDown,ArrowRight"":7}","false","ArrowDown","false","revaluation","1","","","",""
"html-keyboard-response","265","1140366","0.0-4.0-7.0-1.1","spark_pilot_norest","8553","2","8","Male","","","","","","","null","<div style=""font-size:60px;"">+</div>","null","fixation","","","","","","","","","","","",""
"revaluation","266","1141231","0.0-4.0-7.0-0.2","spark_pilot_norest","8553","2","8","Male","","","false","","","","[859.7999999523163]","./assets/img/ocean/test/2.jpg","[""ArrowDown""]","first stage test","ocean","0","{""ArrowUp,ArrowLeft"":27,""ArrowUp,ArrowRight"":15,""ArrowDown,ArrowLeft"":21,""ArrowDown,ArrowRight"":7}","false","ArrowDown","false","revaluation","1","","","",""
"html-keyboard-response","267","1141743","0.0-4.0-7.0-1.2","spark_pilot_norest","8553","2","8","Male","","","","","","","null","<div style=""font-size:60px;"">+</div>","null","fixation","","","","","","","","","","","",""
"revaluation","268","1142401","0.0-4.0-7.0-0.3","spark_pilot_norest","8553","2","8","Male","","","false","","","","[650.2000000476837]","./assets/img/ocean/test/3.jpg","[""ArrowUp""]","first stage test","ocean","0","{""ArrowUp,ArrowLeft"":27,""ArrowUp,ArrowRight"":15,""ArrowDown,ArrowLeft"":21,""ArrowDown,ArrowRight"":7}","true","ArrowUp","false","revaluation","1","","","",""
"html-keyboard-response","269","1142904","0.0-4.0-7.0-1.3","spark_pilot_norest","8553","2","8","Male","","","","","","","null","<div style=""font-size:60px;"">+</div>","null","fixation","","","","","","","","","","","",""
"learning-instructions","270","1156256","0.0-4.0-8.0-0.0","spark_pilot_norest","8553","2","8","Male","","","","","","","null","<p> Now you will see the animals again and can search their chests for treasure. </p>
            <p> This time, you will not see how much treasure you earned, but you will earn more bonus money for making better choices. </p>","","instructions","","","","","","","","","","","",""
"html-keyboard-response","271","1157260","0.0-4.0-9.0-0.0","spark_pilot_norest","8553","2","8","Male","","","","","","","null","<div style=""font-size:100px;color:red;"">Starting in...</div>","null","","","","","","","","","","","","",""
"html-keyboard-response","272","1158277","0.0-4.0-9.0-1.0","spark_pilot_norest","8553","2","8","Male","","","","","","","null","<div style=""font-size:200px;color:red;"">3</div>","null","","","","","","","","","","","","",""
"html-keyboard-response","273","1159279","0.0-4.0-9.0-2.0","spark_pilot_norest","8553","2","8","Male","","","","","","","null","<div style=""font-size:200px;color:red;"">2</div>","null","","","","","","","","","","","","",""
"html-keyboard-response","274","1160282","0.0-4.0-9.0-3.0","spark_pilot_norest","8553","2","8","Male","","","","","","","null","<div style=""font-size:200px;color:red;"">1</div>","null","","","","","","","","","","","","",""
"revaluation","275","1161266","0.0-4.0-10.0-0.0","spark_pilot_norest","8553","2","8","Male","","","false","","","","[980]","./assets/img/ocean/animals/seahorse.jpg","[""ArrowRight""]","second stage test","ocean","0","{""ArrowUp,ArrowLeft"":27,""ArrowUp,ArrowRight"":15,""ArrowDown,ArrowLeft"":21,""ArrowDown,ArrowRight"":7}","false","ArrowUp,ArrowRight","","revaluation","1","","","",""
"html-keyboard-response","276","1161768","0.0-4.0-10.0-1.0","spark_pilot_norest","8553","2","8","Male","","","","","","","null","<div style=""font-size:60px;"">+</div>","null","fixation","","","","","","","","","","","",""
"revaluation","277","1162365","0.0-4.0-10.0-0.1","spark_pilot_norest","8553","2","8","Male","","","false","","","","[592.5]","./assets/img/ocean/animals/seahorse.jpg","[""ArrowRight""]","second stage test","ocean","0","{""ArrowUp,ArrowLeft"":27,""ArrowUp,ArrowRight"":15,""ArrowDown,ArrowLeft"":21,""ArrowDown,ArrowRight"":7}","false","ArrowUp,ArrowRight","","revaluation","1","","","",""
"html-keyboard-response","278","1162879","0.0-4.0-10.0-1.1","spark_pilot_norest","8553","2","8","Male","","","","","","","null","<div style=""font-size:60px;"">+</div>","null","fixation","","","","","","","","","","","",""
"revaluation","279","1163424","0.0-4.0-10.0-0.2","spark_pilot_norest","8553","2","8","Male","","","false","","","","[539.6999998092651]","./assets/img/ocean/animals/seahorse.jpg","[""ArrowLeft""]","second stage test","ocean","0","{""ArrowUp,ArrowLeft"":27,""ArrowUp,ArrowRight"":15,""ArrowDown,ArrowLeft"":21,""ArrowDown,ArrowRight"":7}","true","ArrowUp,ArrowLeft","","revaluation","1","","","",""
"html-keyboard-response","280","1163927","0.0-4.0-10.0-1.2","spark_pilot_norest","8553","2","8","Male","","","","","","","null","<div style=""font-size:60px;"">+</div>","null","fixation","","","","","","","","","","","",""
"revaluation","281","1164653","0.0-4.0-10.0-0.3","spark_pilot_norest","8553","2","8","Male","","","false","","","","[721]","./assets/img/ocean/animals/seahorse.jpg","[""ArrowRight""]","second stage test","ocean","0","{""ArrowUp,ArrowLeft"":27,""ArrowUp,ArrowRight"":15,""ArrowDown,ArrowLeft"":21,""ArrowDown,ArrowRight"":7}","false","ArrowUp,ArrowRight","","revaluation","1","","","",""
"html-keyboard-response","282","1165157","0.0-4.0-10.0-1.3","spark_pilot_norest","8553","2","8","Male","","","","","","","null","<div style=""font-size:60px;"">+</div>","null","fixation","","","","","","","","","","","",""
"revaluation","283","1166222","0.0-4.0-10.0-0.4","spark_pilot_norest","8553","2","8","Male","","","false","","","","[1059.5]","./assets/img/ocean/animals/octopus.jpg","[""ArrowRight""]","second stage test","ocean","0","{""ArrowUp,ArrowLeft"":27,""ArrowUp,ArrowRight"":15,""ArrowDown,ArrowLeft"":21,""ArrowDown,ArrowRight"":7}","false","ArrowDown,ArrowRight","","revaluation","1","","","",""
"html-keyboard-response","284","1166736","0.0-4.0-10.0-1.4","spark_pilot_norest","8553","2","8","Male","","","","","","","null","<div style=""font-size:60px;"">+</div>","null","fixation","","","","","","","","","","","",""
"revaluation","285","1167332","0.0-4.0-10.0-0.5","spark_pilot_norest","8553","2","8","Male","","","false","","","","[591.3999998569489]","./assets/img/ocean/animals/octopus.jpg","[""ArrowRight""]","second stage test","ocean","0","{""ArrowUp,ArrowLeft"":27,""ArrowUp,ArrowRight"":15,""ArrowDown,ArrowLeft"":21,""ArrowDown,ArrowRight"":7}","false","ArrowDown,ArrowRight","","revaluation","1","","","",""
"html-keyboard-response","286","1167836","0.0-4.0-10.0-1.5","spark_pilot_norest","8553","2","8","Male","","","","","","","null","<div style=""font-size:60px;"">+</div>","null","fixation","","","","","","","","","","","",""
"revaluation","287","1168342","0.0-4.0-10.0-0.6","spark_pilot_norest","8553","2","8","Male","","","false","","","","[501.2000000476837]","./assets/img/ocean/animals/octopus.jpg","[""ArrowRight""]","second stage test","ocean","0","{""ArrowUp,ArrowLeft"":27,""ArrowUp,ArrowRight"":15,""ArrowDown,ArrowLeft"":21,""ArrowDown,ArrowRight"":7}","false","ArrowDown,ArrowRight","","revaluation","1","","","",""
"html-keyboard-response","288","1168857","0.0-4.0-10.0-1.6","spark_pilot_norest","8553","2","8","Male","","","","","","","null","<div style=""font-size:60px;"">+</div>","null","fixation","","","","","","","","","","","",""
"revaluation","289","1169322","0.0-4.0-10.0-0.7","spark_pilot_norest","8553","2","8","Male","","","false","","","","[460.2999999523163]","./assets/img/ocean/animals/octopus.jpg","[""ArrowRight""]","second stage test","ocean","0","{""ArrowUp,ArrowLeft"":27,""ArrowUp,ArrowRight"":15,""ArrowDown,ArrowLeft"":21,""ArrowDown,ArrowRight"":7}","false","ArrowDown,ArrowRight","","revaluation","1","","","",""
"html-keyboard-response","290","1169829","0.0-4.0-10.0-1.7","spark_pilot_norest","8553","2","8","Male","","","","","","","null","<div style=""font-size:60px;"">+</div>","null","fixation","","","","","","","","","","","",""
"learning-instructions","291","1174316","0.0-4.0-0.1-0.2","spark_pilot_norest","8553","2","8","Male","","","","","","","1692","<p> This time you are searching for treasure in the <b>canyon</b>.</p>","","instructions","","","","","","","","","","","",""
"learning-instructions","292","1195880","0.0-4.0-0.1-0.3","spark_pilot_norest","8553","2","8","Male","","","","","","","4317.599999904633","<p><b>New</b> animals with <b>new</b> treasure chests live here. You need to explore to discover where the animal with the best treasure chest is.</p>
                    <p> Like before, once you figure out which animal has the chest with the most treasure, you should try to get to that animal and select that chest! </p>","","instructions","","","","","","","","","","","",""
"learning-instructions","293","1217284","0.0-4.0-1.1-0.1","spark_pilot_norest","8553","2","8","Male","","","","","","","6681.200000047684","<p> Remember, when you see a picture of the place, use the up and down keys to <b>find an animal</b>.</p>
            <p> When you encounter an animal, you should use the left and right keys to <b>select a treasure chest</b>.</p>
            <p> Don't forget to look out for the robber! </p>","","instructions","","","","","","","","","","","",""
"revaluation","294","1223317","0.0-4.0-2.1-0.50","spark_pilot_norest","8553","2","8","Male","","","false","","","","[933.2999999523163,1085.5]","./assets/img/canyon/memory/31.jpg","[""ArrowDown"",""ArrowRight""]","value training","canyon","17","{""ArrowUp,ArrowLeft"":26,""ArrowUp,ArrowRight"":10,""ArrowDown,ArrowLeft"":5,""ArrowDown,ArrowRight"":17}","false","ArrowDown,ArrowRight","false","original","2","0","","",""
"html-keyboard-response","295","1223832","0.0-4.0-2.1-1.50","spark_pilot_norest","8553","2","8","Male","","","","","","","null","<div style=""font-size:60px;"">+</div>","null","fixation","","","","","","","","","1","","",""
"revaluation","296","1229859","0.0-4.0-2.1-0.51","spark_pilot_norest","8553","2","8","Male","","","false","","","","[803.1999998092651,861.9000000953674]","./assets/img/canyon/memory/23.jpg","[""ArrowDown"",""ArrowRight""]","value training","canyon","17","{""ArrowUp,ArrowLeft"":26,""ArrowUp,ArrowRight"":10,""ArrowDown,ArrowLeft"":5,""ArrowDown,ArrowRight"":17}","false","ArrowDown,ArrowRight","false","original","2","2","","",""
"html-keyboard-response","297","1230374","0.0-4.0-2.1-1.51","spark_pilot_norest","8553","2","8","Male","","","","","","","null","<div style=""font-size:60px;"">+</div>","null","fixation","","","","","","","","","3","","",""
"revaluation","298","1236392","0.0-4.0-2.1-0.52","spark_pilot_norest","8553","2","8","Male","","","false","","","","[691.2999999523163,649]","./assets/img/canyon/memory/10.jpg","[""ArrowDown"",""ArrowLeft""]","value training","canyon","5","{""ArrowUp,ArrowLeft"":26,""ArrowUp,ArrowRight"":10,""ArrowDown,ArrowLeft"":5,""ArrowDown,ArrowRight"":17}","false","ArrowDown,ArrowLeft","false","original","2","4","","",""
"html-keyboard-response","299","1236909","0.0-4.0-2.1-1.52","spark_pilot_norest","8553","2","8","Male","","","","","","","null","<div style=""font-size:60px;"">+</div>","null","fixation","","","","","","","","","5","","",""
"revaluation","300","1240929","0.0-4.0-2.1-0.53","spark_pilot_norest","8553","2","8","Male","","","false","","","","[584.9000000953674]","./assets/img/canyon/catch/6.jpg","[""ArrowDown""]","value training","canyon","-10","{""ArrowUp,ArrowLeft"":26,""ArrowUp,ArrowRight"":10,""ArrowDown,ArrowLeft"":5,""ArrowDown,ArrowRight"":17}","false","ArrowDown","true","original","2","6","","",""
"html-keyboard-response","301","1241431","0.0-4.0-2.1-1.53","spark_pilot_norest","8553","2","8","Male","","","","","","","null","<div style=""font-size:60px;"">+</div>","null","fixation","","","","","","","","","7","","",""
"revaluation","302","1247438","0.0-4.0-2.1-0.54","spark_pilot_norest","8553","2","8","Male","","","false","","","","[761.0999999046326,819.1000001430511]","./assets/img/canyon/memory/33.jpg","[""ArrowDown"",""ArrowRight""]","value training","canyon","17","{""ArrowUp,ArrowLeft"":26,""ArrowUp,ArrowRight"":10,""ArrowDown,ArrowLeft"":5,""ArrowDown,ArrowRight"":17}","false","ArrowDown,ArrowRight","false","original","2","8","","",""
"html-keyboard-response","303","1247940","0.0-4.0-2.1-1.54","spark_pilot_norest","8553","2","8","Male","","","","","","","null","<div style=""font-size:60px;"">+</div>","null","fixation","","","","","","","","","9","","",""
"revaluation","304","1253947","0.0-4.0-2.1-0.55","spark_pilot_norest","8553","2","8","Male","","","false","","","","[619.6000001430511,550]","./assets/img/canyon/memory/28.jpg","[""ArrowDown"",""ArrowRight""]","value training","canyon","17","{""ArrowUp,ArrowLeft"":26,""ArrowUp,ArrowRight"":10,""ArrowDown,ArrowLeft"":5,""ArrowDown,ArrowRight"":17}","false","ArrowDown,ArrowRight","false","original","2","10","","",""
"html-keyboard-response","305","1254449","0.0-4.0-2.1-1.55","spark_pilot_norest","8553","2","8","Male","","","","","","","null","<div style=""font-size:60px;"">+</div>","null","fixation","","","","","","","","","11","","",""
"revaluation","306","1258459","0.0-4.0-2.1-0.56","spark_pilot_norest","8553","2","8","Male","","","false","","","","[868.2999999523163]","./assets/img/canyon/catch/7.jpg","[""spaceBar""]","value training","canyon","0","{""ArrowUp,ArrowLeft"":26,""ArrowUp,ArrowRight"":10,""ArrowDown,ArrowLeft"":5,""ArrowDown,ArrowRight"":17}","true","spaceBar","true","original","2","12","","",""
"html-keyboard-response","307","1258960","0.0-4.0-2.1-1.56","spark_pilot_norest","8553","2","8","Male","","","","","","","null","<div style=""font-size:60px;"">+</div>","null","fixation","","","","","","","","","13","","",""
"revaluation","308","1264966","0.0-4.0-2.1-0.57","spark_pilot_norest","8553","2","8","Male","","","false","","","","[690.2999999523163,1211.2000000476837]","./assets/img/canyon/memory/29.jpg","[""ArrowUp"",""ArrowLeft""]","value training","canyon","26","{""ArrowUp,ArrowLeft"":26,""ArrowUp,ArrowRight"":10,""ArrowDown,ArrowLeft"":5,""ArrowDown,ArrowRight"":17}","true","ArrowUp,ArrowLeft","false","original","2","14","","",""
"html-keyboard-response","309","1265468","0.0-4.0-2.1-1.57","spark_pilot_norest","8553","2","8","Male","","","","","","","null","<div style=""font-size:60px;"">+</div>","null","fixation","","","","","","","","","15","","",""
"revaluation","310","1271478","0.0-4.0-2.1-0.58","spark_pilot_norest","8553","2","8","Male","","","false","","","","[672.7000000476837,963]","./assets/img/canyon/memory/25.jpg","[""ArrowUp"",""ArrowRight""]","value training","canyon","10","{""ArrowUp,ArrowLeft"":26,""ArrowUp,ArrowRight"":10,""ArrowDown,ArrowLeft"":5,""ArrowDown,ArrowRight"":17}","false","ArrowUp,ArrowRight","false","original","2","16","","",""
"html-keyboard-response","311","1271980","0.0-4.0-2.1-1.58","spark_pilot_norest","8553","2","8","Male","","","","","","","null","<div style=""font-size:60px;"">+</div>","null","fixation","","","","","","","","","17","","",""
"revaluation","312","1277988","0.0-4.0-2.1-0.59","spark_pilot_norest","8553","2","8","Male","","","false","","","","[807.7999999523163,805.7999999523163]","./assets/img/canyon/memory/23.jpg","[""ArrowUp"",""ArrowLeft""]","value training","canyon","26","{""ArrowUp,ArrowLeft"":26,""ArrowUp,ArrowRight"":10,""ArrowDown,ArrowLeft"":5,""ArrowDown,ArrowRight"":17}","true","ArrowUp,ArrowLeft","false","original","2","18","","",""
"html-keyboard-response","313","1278490","0.0-4.0-2.1-1.59","spark_pilot_norest","8553","2","8","Male","","","","","","","null","<div style=""font-size:60px;"">+</div>","null","fixation","","","","","","","","","19","","",""
