"trial_type","trial_index","time_elapsed","internal_node_id","task_version","subject_id","assigned_condition","age","gender","success","timeout","failed_images","failed_audio","failed_video","browser_interaction","rt","stimulus","response","task_part","environment","score","rewardMap","correct","fullState","isCatch","condition","order","trial_num","key_press","ground_truth","bonus"
"pavlovia","0","2626","0.0-0.0","spark_pilot_norest","11001","5","7","Male","","","","","","","","","","","","","","","","","","","","","",""
"preload","1","12833","0.0-1.0","spark_pilot_norest","11001","5","7","Male","true","false","[]","[]","[]","[{""event"":""fullscreenenter"",""trial"":2,""time"":21062},{""event"":""blur"",""trial"":537,""time"":1796171},{""event"":""focus"",""trial"":539,""time"":1799238},{""event"":""fullscreenexit"",""trial"":539,""time"":1799253}]","","","","","","","","","","","","","","","",""
"fullscreen","2","22059","0.0-2.0","spark_pilot_norest","11001","5","7","Male","true","","","","","","","","","","","","","","","","","","","","",""
"audio-button-response","3","27464","0.0-3.0-0.0-0.0","spark_pilot_norest","11001","5","7","Male","","","","","","","5301","./assets/audio/audiotest/turtle.mp3","4","audio_test","","","","","","","","","","","",""
"audio-button-response","4","30169","0.0-3.0-0.1-0.1","spark_pilot_norest","11001","5","7","Male","","","","","","","1707","./assets/audio/audiotest/turtle.mp3","2","audio_test","","","","","","","","","","","",""
"learning-instructions","5","38502","0.0-3.0-1.0-0.0","spark_pilot_norest","11001","5","7","Male","","","","","","","1347.8999999985099","<p> Welcome! Please remember to stay in fullscreen mode and don't click away from the experiment. </p>","","instructions","","","","","","","","","","","",""
"learning-instructions","6","49594","0.0-3.0-1.0-0.1","spark_pilot_norest","11001","5","7","Male","","","","","","","2666.8000000044703","<p> Today you will be playing a game to earn treasure. </p>
            <p> At the end of the experiment, you will earn a bonus based on how much treasure you find. </p>
            <img src='./assets/img/instructions/treasure.jpg' class='instructions-image'>","","instructions","","","","","","","","","","","",""
"learning-instructions","7","59710","0.0-3.0-1.0-0.2","spark_pilot_norest","11001","5","7","Male","","","","","","","1841.2999999970198","<p> Animals have hidden treasure in treasure chests. </p>
            <p> You need to first find an animal and then choose which of their treasure chests to search. </p>
            <img src='./assets/img/space/animals/cat.jpg' class='instructions-image'>","","instructions","","","","","","","","","","","",""
"learning-instructions","8","75561","0.0-3.0-1.0-0.3","spark_pilot_norest","11001","5","7","Male","","","","","","","2673.2000000029802","<p> In each round, you will search for treasure in a different place. In the real game, there will be two rounds. </p>
            <p> You will begin with a separate, practice round where you will search for treasure in outer space. </p>
            <img src='./assets/img/space/0.jpg' class='instructions-image'>","","instructions","","","","","","","","","","","",""
"learning-instructions","9","88212","0.0-3.0-1.0-0.4","spark_pilot_norest","11001","5","7","Male","","","","","","","1222.5","<p> On every turn, you will see a picture of the place that you are in, but the specific image may be different each time. </p>
            <p> For example, both of these images mean you are in outer space. </p>
            <img src='./assets/img/instructions/outerspace.jpg' class='instructions-image'>","","instructions","","","","","","","","","","","",""
"learning-instructions","10","98044","0.0-3.0-1.0-0.5","spark_pilot_norest","11001","5","7","Male","","","","","","","1988.7999999970198","<p> You need to decide which direction to travel in. </p>
            <p> You can choose between going <b>up or down</b> by using the arrow keys. </p>
            <img src='./assets/img/instructions/updown.jpg' class='instructions-image'>","","instructions","","","","","","","","","","","",""
"learning-instructions","11","109671","0.0-3.0-1.0-0.6","spark_pilot_norest","11001","5","7","Male","","","","","","","2800","<p> You will have <b>2 seconds</b> to make your choice. </p>
            <p> If you do not make a choice within 2 seconds, you will not find an animal or earn treasure. </p>
            <img src='./assets/img/instructions/2seconds.jpg' class='instructions-image'>","","instructions","","","","","","","","","","","",""
"learning-instructions","12","118806","0.0-3.0-1.0-0.7","spark_pilot_norest","11001","5","7","Male","","","","","","","2078.5","<p> Let’s try practicing that now! </p>
            <p> When you see a picture of the place you are in, press the <b>up</b> key to travel up. </p>
            <img src='./assets/img/instructions/pressUp.jpg' class='instructions-image'>","","instructions","","","","","","","","","","","",""
"revaluation","13","122829","0.0-3.0-2.0-0.0","spark_pilot_norest","11001","5","7","Male","","false","","","","","[843.8999999985099]","./assets/img/space/0.jpg","[""ArrowUp""]","first stage practice","space","0","null","null","ArrowUp","false","","","","","",""
"html-keyboard-response","14","123340","0.0-3.0-2.0-1.0","spark_pilot_norest","11001","5","7","Male","","","","","","","null","<div style=""font-size:60px;"">+</div>","null","fixation","","","","","","","","","","","",""
"revaluation","15","127355","0.0-3.0-2.0-0.1","spark_pilot_norest","11001","5","7","Male","","false","","","","","[1344.8999999985099]","./assets/img/space/1.jpg","[""ArrowUp""]","first stage practice","space","0","null","null","ArrowUp","false","","","","","",""
"html-keyboard-response","16","127859","0.0-3.0-2.0-1.1","spark_pilot_norest","11001","5","7","Male","","","","","","","null","<div style=""font-size:60px;"">+</div>","null","fixation","","","","","","","","","","","",""
"revaluation","17","131875","0.0-3.0-2.0-0.2","spark_pilot_norest","11001","5","7","Male","","true","","","","","[]","./assets/img/space/2.jpg","[]","first stage practice","space","-5","null","null","","false","","","","","",""
"html-keyboard-response","18","132379","0.0-3.0-2.0-1.2","spark_pilot_norest","11001","5","7","Male","","","","","","","null","<div style=""font-size:60px;"">+</div>","null","fixation","","","","","","","","","","","",""
"learning-instructions","19","138231","0.0-3.0-3.0-0.0","spark_pilot_norest","11001","5","7","Male","","","","","","","1139.8000000044703","<p> Great job! Now try pressing the <b>down</b> key to travel down. </p>
            <img src='./assets/img/instructions/pressDown.jpg' class='instructions-image'>","","instructions","","","","","","","","","","","",""
"revaluation","20","142244","0.0-3.0-4.0-0.0","spark_pilot_norest","11001","5","7","Male","","false","","","","","[1038.6000000014901]","./assets/img/space/3.jpg","[""ArrowDown""]","first stage practice","space","0","null","null","ArrowDown","false","","","","","",""
"html-keyboard-response","21","142747","0.0-3.0-4.0-1.0","spark_pilot_norest","11001","5","7","Male","","","","","","","null","<div style=""font-size:60px;"">+</div>","null","fixation","","","","","","","","","","","",""
"revaluation","22","146764","0.0-3.0-4.0-0.1","spark_pilot_norest","11001","5","7","Male","","false","","","","","[507.69999999552965]","./assets/img/space/4.jpg","[""ArrowDown""]","first stage practice","space","0","null","null","ArrowDown","false","","","","","",""
"html-keyboard-response","23","147267","0.0-3.0-4.0-1.1","spark_pilot_norest","11001","5","7","Male","","","","","","","null","<div style=""font-size:60px;"">+</div>","null","fixation","","","","","","","","","","","",""
"revaluation","24","151283","0.0-3.0-4.0-0.2","spark_pilot_norest","11001","5","7","Male","","false","","","","","[182.09999999403954]","./assets/img/space/5.jpg","[""ArrowDown""]","first stage practice","space","0","null","null","ArrowDown","false","","","","","",""
"html-keyboard-response","25","151788","0.0-3.0-4.0-1.2","spark_pilot_norest","11001","5","7","Male","","","","","","","null","<div style=""font-size:60px;"">+</div>","null","fixation","","","","","","","","","","","",""
"learning-instructions","26","162997","0.0-3.0-5.0-0.0","spark_pilot_norest","11001","5","7","Male","","","","","","","1341.6000000014901","<p> The animals don’t move, so the animal in the upper part of a place will stay in the upper part of a place, and the animal in the lower part of a place will stay in the lower part of a place. </p>","","instructions","","","","","","","","","","","",""
"learning-instructions","27","174881","0.0-3.0-5.0-0.1","spark_pilot_norest","11001","5","7","Male","","","","","","","2729.5","<p> Each animal has two treasure chests for you to choose from. </p>
            <p> The amount of treasure in each chest can range from <b> 0 to 40 pieces.</b></p>","","instructions","","","","","","","","","","","",""
"learning-instructions","28","187773","0.0-3.0-5.0-0.2","spark_pilot_norest","11001","5","7","Male","","","","","","","1690.6999999955297","<p> You should decide which chest to search for treasure by using the <b>left</b> and <b>right</b> arrow keys. </p>
            <p><b> Pay attention to which animal is on the screen, as the animals have different treasure chests. </b></p>
            <img src='./assets/img/instructions/leftright.jpg' class='instructions-image'>","","instructions","","","","","","","","","","","",""
"learning-instructions","29","195357","0.0-3.0-5.0-0.3","spark_pilot_norest","11001","5","7","Male","","","","","","","1211.3999999985099","<p> Let’s try practicing that now. </p>
            <p> When you see an animal, choose which chest to search for treasure. </p>
            <img src='./assets/img/instructions/chooseChest.jpg' class='instructions-image'>","","instructions","","","","","","","","","","","",""
"revaluation","30","199375","0.0-3.0-6.0-0.0","spark_pilot_norest","11001","5","7","Male","","false","","","","","[1041.8000000044703]","./assets/img/space/animals/rabbit.jpg","[""ArrowRight""]","second stage practice","space","23","{""ArrowUp,ArrowLeft"":3,""ArrowUp,ArrowRight"":36,""ArrowDown,ArrowLeft"":15,""ArrowDown,ArrowRight"":23}","true","ArrowDown,ArrowRight","","","","","","",""
"html-keyboard-response","31","199884","0.0-3.0-6.0-1.0","spark_pilot_norest","11001","5","7","Male","","","","","","","null","<div style=""font-size:60px;"">+</div>","null","fixation","","","","","","","","","","","",""
"revaluation","32","203908","0.0-3.0-6.0-0.1","spark_pilot_norest","11001","5","7","Male","","false","","","","","[1472.5999999940395]","./assets/img/space/animals/rabbit.jpg","[""ArrowRight""]","second stage practice","space","23","{""ArrowUp,ArrowLeft"":3,""ArrowUp,ArrowRight"":36,""ArrowDown,ArrowLeft"":15,""ArrowDown,ArrowRight"":23}","true","ArrowDown,ArrowRight","","","","","","",""
"html-keyboard-response","33","204411","0.0-3.0-6.0-1.1","spark_pilot_norest","11001","5","7","Male","","","","","","","null","<div style=""font-size:60px;"">+</div>","null","fixation","","","","","","","","","","","",""
"revaluation","34","208428","0.0-3.0-6.0-0.2","spark_pilot_norest","11001","5","7","Male","","false","","","","","[633.6999999955297]","./assets/img/space/animals/cat.jpg","[""ArrowLeft""]","second stage practice","space","3","{""ArrowUp,ArrowLeft"":3,""ArrowUp,ArrowRight"":36,""ArrowDown,ArrowLeft"":15,""ArrowDown,ArrowRight"":23}","false","ArrowUp,ArrowLeft","","","","","","",""
"html-keyboard-response","35","208931","0.0-3.0-6.0-1.2","spark_pilot_norest","11001","5","7","Male","","","","","","","null","<div style=""font-size:60px;"">+</div>","null","fixation","","","","","","","","","","","",""
"revaluation","36","212948","0.0-3.0-6.0-0.3","spark_pilot_norest","11001","5","7","Male","","false","","","","","[383.70000000298023]","./assets/img/space/animals/cat.jpg","[""ArrowRight""]","second stage practice","space","36","{""ArrowUp,ArrowLeft"":3,""ArrowUp,ArrowRight"":36,""ArrowDown,ArrowLeft"":15,""ArrowDown,ArrowRight"":23}","true","ArrowUp,ArrowRight","","","","","","",""
"html-keyboard-response","37","213451","0.0-3.0-6.0-1.3","spark_pilot_norest","11001","5","7","Male","","","","","","","null","<div style=""font-size:60px;"">+</div>","null","fixation","","","","","","","","","","","",""
"learning-instructions","38","232229","0.0-3.0-7.0-0.0","spark_pilot_norest","11001","5","7","Male","","","","","","","1944.3999999985099","<p> Great job. Now let’s try putting it together. </p>
            <p> On each turn, you will first see a picture to remind you of the place you are in, and you need to choose whether to go up or down. </p>
            <p> Then you will see an animal and choose which of its chests to search for treasure. </p>","","instructions","","","","","","","","","","","",""
"learning-instructions","39","241955","0.0-3.0-7.0-0.1","spark_pilot_norest","11001","5","7","Male","","","","","","","1451.3999999985099","<p> When you choose whether to go up or down, try to go to the animal with the chest with the most treasure. </p>
            <p> Try practicing that now! </p>","","instructions","","","","","","","","","","","",""
"revaluation","40","247980","0.0-3.0-8.0-0.0","spark_pilot_norest","11001","5","7","Male","","false","","","","","[710.2999999970198,1187.5]","./assets/img/space/6.jpg","[""ArrowUp"",""ArrowLeft""]","full practice","space","3","{""ArrowUp,ArrowLeft"":3,""ArrowUp,ArrowRight"":36,""ArrowDown,ArrowLeft"":15,""ArrowDown,ArrowRight"":23}","false","ArrowUp,ArrowLeft","false","","","","","",""
"html-keyboard-response","41","248483","0.0-3.0-8.0-1.0","spark_pilot_norest","11001","5","7","Male","","","","","","","null","<div style=""font-size:60px;"">+</div>","null","fixation","","","","","","","","","","","",""
"revaluation","42","254508","0.0-3.0-8.0-0.1","spark_pilot_norest","11001","5","7","Male","","false","","","","","[1149.5,1872.4000000059605]","./assets/img/space/7.jpg","[""ArrowDown"",""ArrowRight""]","full practice","space","23","{""ArrowUp,ArrowLeft"":3,""ArrowUp,ArrowRight"":36,""ArrowDown,ArrowLeft"":15,""ArrowDown,ArrowRight"":23}","false","ArrowDown,ArrowRight","false","","","","","",""
"html-keyboard-response","43","255011","0.0-3.0-8.0-1.1","spark_pilot_norest","11001","5","7","Male","","","","","","","null","<div style=""font-size:60px;"">+</div>","null","fixation","","","","","","","","","","","",""
"revaluation","44","261036","0.0-3.0-8.0-0.2","spark_pilot_norest","11001","5","7","Male","","false","","","","","[344.5,1504.2999999970198]","./assets/img/space/8.jpg","[""ArrowUp"",""ArrowLeft""]","full practice","space","3","{""ArrowUp,ArrowLeft"":3,""ArrowUp,ArrowRight"":36,""ArrowDown,ArrowLeft"":15,""ArrowDown,ArrowRight"":23}","false","ArrowUp,ArrowLeft","false","","","","","",""
"html-keyboard-response","45","261539","0.0-3.0-8.0-1.2","spark_pilot_norest","11001","5","7","Male","","","","","","","null","<div style=""font-size:60px;"">+</div>","null","fixation","","","","","","","","","","","",""
"revaluation","46","265555","0.0-3.0-8.0-0.3","spark_pilot_norest","11001","5","7","Male","","true","","","","","[]","./assets/img/space/9.jpg","[]","full practice","space","-5","{""ArrowUp,ArrowLeft"":3,""ArrowUp,ArrowRight"":36,""ArrowDown,ArrowLeft"":15,""ArrowDown,ArrowRight"":23}","false","","false","","","","","",""
"html-keyboard-response","47","266060","0.0-3.0-8.0-1.3","spark_pilot_norest","11001","5","7","Male","","","","","","","null","<div style=""font-size:60px;"">+</div>","null","fixation","","","","","","","","","","","",""
"revaluation","48","272083","0.0-3.0-8.0-0.4","spark_pilot_norest","11001","5","7","Male","","false","","","","","[1081.6000000014901,1838.1999999955297]","./assets/img/space/10.jpg","[""ArrowDown"",""ArrowRight""]","full practice","space","23","{""ArrowUp,ArrowLeft"":3,""ArrowUp,ArrowRight"":36,""ArrowDown,ArrowLeft"":15,""ArrowDown,ArrowRight"":23}","false","ArrowDown,ArrowRight","false","","","","","",""
"html-keyboard-response","49","272587","0.0-3.0-8.0-1.4","spark_pilot_norest","11001","5","7","Male","","","","","","","null","<div style=""font-size:60px;"">+</div>","null","fixation","","","","","","","","","","","",""
"learning-instructions","50","284801","0.0-3.0-9.0-0.0","spark_pilot_norest","11001","5","7","Male","","","","","","","1904.5","<p> One last thing: sometimes, you will see a robber. The robber can be anywhere in the picture. </p>
            <p> If you do not stop them, you will lose treasure. </p>
            <img src='./assets/img/instructions/robber.jpg' class='instructions-image'>","","instructions","","","","","","","","","","","",""
"learning-instructions","51","293330","0.0-3.0-9.0-0.1","spark_pilot_norest","11001","5","7","Male","","","","","","","1346.2000000029802","<p> If you see the robber, you should <b>press the space bar</b> rather than using the arrow keys. </p>
            <p> Try practicing that now! </p>","","instructions","","","","","","","","","","","",""
"revaluation","52","297347","0.0-3.0-10.0-0.0","spark_pilot_norest","11001","5","7","Male","","false","","","","","[1336.3000000044703]","./assets/img/space/catch/0.jpg","[""spaceBar""]","catch practice","space","0","{""ArrowUp,ArrowLeft"":3,""ArrowUp,ArrowRight"":36,""ArrowDown,ArrowLeft"":15,""ArrowDown,ArrowRight"":23}","true","spaceBar","true","","","","","",""
"html-keyboard-response","53","297851","0.0-3.0-10.0-1.0","spark_pilot_norest","11001","5","7","Male","","","","","","","null","<div style=""font-size:60px;"">+</div>","null","fixation","","","","","","","","","","","",""
"revaluation","54","301868","0.0-3.0-10.0-0.1","spark_pilot_norest","11001","5","7","Male","","false","","","","","[303.8999999985099]","./assets/img/space/catch/1.jpg","[""spaceBar""]","catch practice","space","0","{""ArrowUp,ArrowLeft"":3,""ArrowUp,ArrowRight"":36,""ArrowDown,ArrowLeft"":15,""ArrowDown,ArrowRight"":23}","true","spaceBar","true","","","","","",""
"html-keyboard-response","55","302371","0.0-3.0-10.0-1.1","spark_pilot_norest","11001","5","7","Male","","","","","","","null","<div style=""font-size:60px;"">+</div>","null","fixation","","","","","","","","","","","",""
"revaluation","56","306387","0.0-3.0-10.0-0.2","spark_pilot_norest","11001","5","7","Male","","false","","","","","[368]","./assets/img/space/catch/2.jpg","[""spaceBar""]","catch practice","space","0","{""ArrowUp,ArrowLeft"":3,""ArrowUp,ArrowRight"":36,""ArrowDown,ArrowLeft"":15,""ArrowDown,ArrowRight"":23}","true","spaceBar","true","","","","","",""
"html-keyboard-response","57","306891","0.0-3.0-10.0-1.2","spark_pilot_norest","11001","5","7","Male","","","","","","","null","<div style=""font-size:60px;"">+</div>","null","fixation","","","","","","","","","","","",""
"learning-instructions","58","313879","0.0-3.0-11.0-0.0-0.0","spark_pilot_norest","11001","5","7","Male","","","","","","","1713.7000000029802","<p> Now, you will practice a shortened version of the game to get a sense of how it all fits together. </p>","","instructions","","","","","","","","","","","",""
"learning-instructions","59","318329","0.0-3.0-11.0-0.0-0.1","spark_pilot_norest","11001","5","7","Male","","","","","","","1246.6999999955297","<p>This time you are searching for treasure in outer space.</p>","","instructions","","","","","","","","","","","",""
"learning-instructions","60","334463","0.0-3.0-11.0-1.0-0.0","spark_pilot_norest","11001","5","7","Male","","","","","","","1347.7999999970198","<p> Remember, when you see a picture of the place, use the up and down keys to <b>find an animal</b>.</p>
            <p> When you encounter an animal, you should use the left and right keys to <b>select a treasure chest</b>.</p>
            <p> Don't forget to look out for the robber! </p>","","instructions","","","","","","","","","","","",""
"revaluation","61","340483","0.0-3.0-11.0-2.0-0.0","spark_pilot_norest","11001","5","7","Male","","false","","","","","[773.3999999985099,931.2999999970198]","./assets/img/space/11.jpg","[""ArrowUp"",""ArrowRight""]","practice block","space","36","{""ArrowUp,ArrowLeft"":3,""ArrowUp,ArrowRight"":36,""ArrowDown,ArrowLeft"":15,""ArrowDown,ArrowRight"":23}","true","ArrowUp,ArrowRight","false","","","","","",""
"html-keyboard-response","62","340987","0.0-3.0-11.0-2.0-1.0","spark_pilot_norest","11001","5","7","Male","","","","","","","null","<div style=""font-size:60px;"">+</div>","null","fixation","","","","","","","","","","","",""
"revaluation","63","347011","0.0-3.0-11.0-2.0-0.1","spark_pilot_norest","11001","5","7","Male","","false","","","","","[599.3999999985099,903.7000000029802]","./assets/img/space/12.jpg","[""ArrowDown"",""ArrowRight""]","practice block","space","23","{""ArrowUp,ArrowLeft"":3,""ArrowUp,ArrowRight"":36,""ArrowDown,ArrowLeft"":15,""ArrowDown,ArrowRight"":23}","false","ArrowDown,ArrowRight","false","","","","","",""
"html-keyboard-response","64","347515","0.0-3.0-11.0-2.0-1.1","spark_pilot_norest","11001","5","7","Male","","","","","","","null","<div style=""font-size:60px;"">+</div>","null","fixation","","","","","","","","","","","",""
"revaluation","65","353539","0.0-3.0-11.0-2.0-0.2","spark_pilot_norest","11001","5","7","Male","","false","","","","","[654.7999999970198,855.2000000029802]","./assets/img/space/13.jpg","[""ArrowUp"",""ArrowRight""]","practice block","space","36","{""ArrowUp,ArrowLeft"":3,""ArrowUp,ArrowRight"":36,""ArrowDown,ArrowLeft"":15,""ArrowDown,ArrowRight"":23}","true","ArrowUp,ArrowRight","false","","","","","",""
"html-keyboard-response","66","354043","0.0-3.0-11.0-2.0-1.2","spark_pilot_norest","11001","5","7","Male","","","","","","","null","<div style=""font-size:60px;"">+</div>","null","fixation","","","","","","","","","","","",""
"revaluation","67","360068","0.0-3.0-11.0-2.0-0.3","spark_pilot_norest","11001","5","7","Male","","true","","","","","[767]","./assets/img/space/14.jpg","[""ArrowDown""]","practice block","space","-5","{""ArrowUp,ArrowLeft"":3,""ArrowUp,ArrowRight"":36,""ArrowDown,ArrowLeft"":15,""ArrowDown,ArrowRight"":23}","false","ArrowDown","false","","","","","",""
"html-keyboard-response","68","360571","0.0-3.0-11.0-2.0-1.3","spark_pilot_norest","11001","5","7","Male","","","","","","","null","<div style=""font-size:60px;"">+</div>","null","fixation","","","","","","","","","","","",""
"revaluation","69","366595","0.0-3.0-11.0-2.0-0.4","spark_pilot_norest","11001","5","7","Male","","false","","","","","[1366.1000000014901,476.1000000014901]","./assets/img/space/11.jpg","[""ArrowUp"",""ArrowRight""]","practice block","space","36","{""ArrowUp,ArrowLeft"":3,""ArrowUp,ArrowRight"":36,""ArrowDown,ArrowLeft"":15,""ArrowDown,ArrowRight"":23}","true","ArrowUp,ArrowRight","false","","","","","",""
"html-keyboard-response","70","367099","0.0-3.0-11.0-2.0-1.4","spark_pilot_norest","11001","5","7","Male","","","","","","","null","<div style=""font-size:60px;"">+</div>","null","fixation","","","","","","","","","","","",""
"revaluation","71","373123","0.0-3.0-11.0-2.0-0.5","spark_pilot_norest","11001","5","7","Male","","false","","","","","[358.3999999985099,691.8999999985099]","./assets/img/space/12.jpg","[""ArrowDown"",""ArrowLeft""]","practice block","space","15","{""ArrowUp,ArrowLeft"":3,""ArrowUp,ArrowRight"":36,""ArrowDown,ArrowLeft"":15,""ArrowDown,ArrowRight"":23}","false","ArrowDown,ArrowLeft","false","","","","","",""
"html-keyboard-response","72","373627","0.0-3.0-11.0-2.0-1.5","spark_pilot_norest","11001","5","7","Male","","","","","","","null","<div style=""font-size:60px;"">+</div>","null","fixation","","","","","","","","","","","",""
"revaluation","73","379652","0.0-3.0-11.0-2.0-0.6","spark_pilot_norest","11001","5","7","Male","","false","","","","","[390.1000000014901,444.70000000298023]","./assets/img/space/13.jpg","[""ArrowUp"",""ArrowRight""]","practice block","space","36","{""ArrowUp,ArrowLeft"":3,""ArrowUp,ArrowRight"":36,""ArrowDown,ArrowLeft"":15,""ArrowDown,ArrowRight"":23}","true","ArrowUp,ArrowRight","false","","","","","",""
"html-keyboard-response","74","380155","0.0-3.0-11.0-2.0-1.6","spark_pilot_norest","11001","5","7","Male","","","","","","","null","<div style=""font-size:60px;"">+</div>","null","fixation","","","","","","","","","","","",""
"revaluation","75","386180","0.0-3.0-11.0-2.0-0.7","spark_pilot_norest","11001","5","7","Male","","false","","","","","[447.3999999985099,512.6000000014901]","./assets/img/space/14.jpg","[""ArrowDown"",""ArrowRight""]","practice block","space","23","{""ArrowUp,ArrowLeft"":3,""ArrowUp,ArrowRight"":36,""ArrowDown,ArrowLeft"":15,""ArrowDown,ArrowRight"":23}","false","ArrowDown,ArrowRight","false","","","","","",""
"html-keyboard-response","76","386683","0.0-3.0-11.0-2.0-1.7","spark_pilot_norest","11001","5","7","Male","","","","","","","null","<div style=""font-size:60px;"">+</div>","null","fixation","","","","","","","","","","","",""
"revaluation","77","390699","0.0-3.0-11.0-2.0-0.8","spark_pilot_norest","11001","5","7","Male","","false","","","","","[385.8999999985099]","./assets/img/space/catch/3.jpg","[""ArrowUp""]","practice block","space","-10","{""ArrowUp,ArrowLeft"":3,""ArrowUp,ArrowRight"":36,""ArrowDown,ArrowLeft"":15,""ArrowDown,ArrowRight"":23}","false","ArrowUp","true","","","","","",""
"html-keyboard-response","78","391203","0.0-3.0-11.0-2.0-1.8","spark_pilot_norest","11001","5","7","Male","","","","","","","null","<div style=""font-size:60px;"">+</div>","null","fixation","","","","","","","","","","","",""
"learning-instructions","79","415822","0.0-3.0-11.0-3.0-0.0","spark_pilot_norest","11001","5","7","Male","","","","","","","11599.60000000149","<p> Now, you will travel with a friend who will choose whether you go up or down first. </p>
            <p> On these turns, you will just see the animal that they found. You will still get to choose which chest to search for treasure.</p>","","instructions","","","","","","","","","","","",""
"revaluation","80","419835","0.0-3.0-11.0-4.0-0.0","spark_pilot_norest","11001","5","7","Male","","false","","","","","[1492.8999999985099]","./assets/img/space/animals/cat.jpg","[""ArrowRight""]","practice block","space","36","{""ArrowUp,ArrowLeft"":3,""ArrowUp,ArrowRight"":36,""ArrowDown,ArrowLeft"":15,""ArrowDown,ArrowRight"":23}","true","ArrowUp,ArrowRight","","","","","","",""
"html-keyboard-response","81","420339","0.0-3.0-11.0-4.0-1.0","spark_pilot_norest","11001","5","7","Male","","","","","","","null","<div style=""font-size:60px;"">+</div>","null","fixation","","","","","","","","","","","",""
"revaluation","82","424356","0.0-3.0-11.0-4.0-0.1","spark_pilot_norest","11001","5","7","Male","","false","","","","","[678]","./assets/img/space/animals/rabbit.jpg","[""ArrowRight""]","practice block","space","23","{""ArrowUp,ArrowLeft"":3,""ArrowUp,ArrowRight"":36,""ArrowDown,ArrowLeft"":15,""ArrowDown,ArrowRight"":23}","true","ArrowDown,ArrowRight","","","","","","",""
"html-keyboard-response","83","424859","0.0-3.0-11.0-4.0-1.1","spark_pilot_norest","11001","5","7","Male","","","","","","","null","<div style=""font-size:60px;"">+</div>","null","fixation","","","","","","","","","","","",""
"revaluation","84","428875","0.0-3.0-11.0-4.0-0.2","spark_pilot_norest","11001","5","7","Male","","false","","","","","[117.10000000149012]","./assets/img/space/animals/rabbit.jpg","[""ArrowRight""]","practice block","space","23","{""ArrowUp,ArrowLeft"":3,""ArrowUp,ArrowRight"":36,""ArrowDown,ArrowLeft"":15,""ArrowDown,ArrowRight"":23}","true","ArrowDown,ArrowRight","","","","","","",""
"html-keyboard-response","85","429380","0.0-3.0-11.0-4.0-1.2","spark_pilot_norest","11001","5","7","Male","","","","","","","null","<div style=""font-size:60px;"">+</div>","null","fixation","","","","","","","","","","","",""
"revaluation","86","433395","0.0-3.0-11.0-4.0-0.3","spark_pilot_norest","11001","5","7","Male","","false","","","","","[485]","./assets/img/space/animals/cat.jpg","[""ArrowRight""]","practice block","space","36","{""ArrowUp,ArrowLeft"":3,""ArrowUp,ArrowRight"":36,""ArrowDown,ArrowLeft"":15,""ArrowDown,ArrowRight"":23}","true","ArrowUp,ArrowRight","","","","","","",""
"html-keyboard-response","87","433899","0.0-3.0-11.0-4.0-1.3","spark_pilot_norest","11001","5","7","Male","","","","","","","null","<div style=""font-size:60px;"">+</div>","null","fixation","","","","","","","","","","","",""
"learning-instructions","88","442035","0.0-3.0-11.0-5.0-0.0","spark_pilot_norest","11001","5","7","Male","","","","","","","null","<p> You have almost finished this part of the game! </p>
            <p> We are going to ask you to make a few more choices. </p>","","instructions","","","","","","","","","","","",""
"learning-instructions","89","458067","0.0-3.0-11.0-5.0-0.1","spark_pilot_norest","11001","5","7","Male","","","","","","","null","<p> First, you need to decide whether to go up or down. When you see each picture, use the arrow keys to make your choice. </p>
            <p><b>You will not see which animal you found, but try to get to the one that will give you the most treasure.</b></p>","","instructions","","","","","","","","","","","",""
"html-keyboard-response","90","459075","0.0-3.0-11.0-6.0-0.0","spark_pilot_norest","11001","5","7","Male","","","","","","","null","<div style=""font-size:100px;color:red;"">Starting in...</div>","null","","","","","","","","","","","","",""
"html-keyboard-response","91","460083","0.0-3.0-11.0-6.0-1.0","spark_pilot_norest","11001","5","7","Male","","","","","","","null","<div style=""font-size:200px;color:red;"">3</div>","null","","","","","","","","","","","","",""
"html-keyboard-response","92","461092","0.0-3.0-11.0-6.0-2.0","spark_pilot_norest","11001","5","7","Male","","","","","","","null","<div style=""font-size:200px;color:red;"">2</div>","null","","","","","","","","","","","","",""
"html-keyboard-response","93","462099","0.0-3.0-11.0-6.0-3.0","spark_pilot_norest","11001","5","7","Male","","","","","","","null","<div style=""font-size:200px;color:red;"">1</div>","null","","","","","","","","","","","","",""
"revaluation","94","462411","0.0-3.0-11.0-7.0","spark_pilot_norest","11001","5","7","Male","","false","","","","","[307.5]","./assets/img/space/15.jpg","[""ArrowDown""]","practice block","space","0","{""ArrowUp,ArrowLeft"":3,""ArrowUp,ArrowRight"":36,""ArrowDown,ArrowLeft"":15,""ArrowDown,ArrowRight"":23}","false","ArrowDown","false","","","","","",""
"html-keyboard-response","95","462915","0.0-3.0-11.0-8.0","spark_pilot_norest","11001","5","7","Male","","","","","","","null","<div style=""font-size:60px;"">+</div>","null","fixation","","","","","","","","","","","",""
"learning-instructions","96","476315","0.0-3.0-11.0-9.0-0.0","spark_pilot_norest","11001","5","7","Male","","","","","","","null","<p> Now you will see the animals again and can search their chests for treasure. </p>
            <p> This time, you will not see how much treasure you earned, but you will earn more bonus money for making better choices. </p>","","instructions","","","","","","","","","","","",""
"html-keyboard-response","97","477323","0.0-3.0-11.0-10.0-0.0","spark_pilot_norest","11001","5","7","Male","","","","","","","null","<div style=""font-size:100px;color:red;"">Starting in...</div>","null","","","","","","","","","","","","",""
"html-keyboard-response","98","478331","0.0-3.0-11.0-10.0-1.0","spark_pilot_norest","11001","5","7","Male","","","","","","","null","<div style=""font-size:200px;color:red;"">3</div>","null","","","","","","","","","","","","",""
"html-keyboard-response","99","479339","0.0-3.0-11.0-10.0-2.0","spark_pilot_norest","11001","5","7","Male","","","","","","","null","<div style=""font-size:200px;color:red;"">2</div>","null","","","","","","","","","","","","",""
"html-keyboard-response","100","480347","0.0-3.0-11.0-10.0-3.0","spark_pilot_norest","11001","5","7","Male","","","","","","","null","<div style=""font-size:200px;color:red;"">1</div>","null","","","","","","","","","","","","",""
"revaluation","101","481425","0.0-3.0-11.0-11.0-0.0","spark_pilot_norest","11001","5","7","Male","","false","","","","","[1072.6999999955297]","./assets/img/space/animals/cat.jpg","[""ArrowRight""]","practice block","space","0","{""ArrowUp,ArrowLeft"":3,""ArrowUp,ArrowRight"":36,""ArrowDown,ArrowLeft"":15,""ArrowDown,ArrowRight"":23}","true","ArrowUp,ArrowRight","","","","","","",""
"html-keyboard-response","102","481931","0.0-3.0-11.0-11.0-1.0","spark_pilot_norest","11001","5","7","Male","","","","","","","null","<div style=""font-size:60px;"">+</div>","null","fixation","","","","","","","","","","","",""
"revaluation","103","482904","0.0-3.0-11.0-11.0-0.1","spark_pilot_norest","11001","5","7","Male","","false","","","","","[969.3000000044703]","./assets/img/space/animals/rabbit.jpg","[""ArrowRight""]","practice block","space","0","{""ArrowUp,ArrowLeft"":3,""ArrowUp,ArrowRight"":36,""ArrowDown,ArrowLeft"":15,""ArrowDown,ArrowRight"":23}","true","ArrowDown,ArrowRight","","","","","","",""
"html-keyboard-response","104","483411","0.0-3.0-11.0-11.0-1.1","spark_pilot_norest","11001","5","7","Male","","","","","","","null","<div style=""font-size:60px;"">+</div>","null","fixation","","","","","","","","","","","",""
"learning-instructions","105","489934","0.0-3.0-12.0-0.0","spark_pilot_norest","11001","5","7","Male","","","","","","","1936.6000000014901","<p> Before you start, we're going to ask you a few questions about how the game works. </p>","","instructions","","","","","","","","","","","",""
"comp-q","106","497210","0.0-3.0-13.0-0.0-0.0","spark_pilot_norest","11001","5","7","Male","","","","","","","1679.2000000029802","<p> <b> True or False? </b> </p>
            <p> There can be 50 pieces of treasure in a given animal's chest. </p>","1","comp_question","","","","true","","","","","","","",""
"comp-q","107","506068","0.0-3.0-13.0-0.0-1.0","spark_pilot_norest","11001","5","7","Male","","","","","","","1718.1000000014901","<p> <b> That's right! </b> The amount of treasure in each chest can range from 0 to 40 pieces. </p>","0","comp_answer","","","","","","","","","","","",""
"comp-q","108","514134","0.0-3.0-13.0-0.1-0.1","spark_pilot_norest","11001","5","7","Male","","","","","","","941.7000000029802","<p> <b> True or False? </b> </p><p> In this game, all animals have the same amount of treasure in their left and right chests. </p>","1","comp_question","","","","true","","","","","","","",""
"comp-q","109","521087","0.0-3.0-13.0-0.1-1.1","spark_pilot_norest","11001","5","7","Male","","","","","","","1708","<p> <b> That's right! </b> Animals have different amounts of treasure in their treasure chests. </p>","0","comp_answer","","","","","","","","","","","",""
"comp-q","110","527814","0.0-3.0-13.0-0.2-0.2","spark_pilot_norest","11001","5","7","Male","","","","","","","871.5999999940395","<p> <b> True or False? </b> </p><p> The same animal will always be there if you go up in the same place. </p>","1","comp_question","","","","false","","","","","","","",""
"comp-q","111","535392","0.0-3.0-13.0-0.2-1.2","spark_pilot_norest","11001","5","7","Male","","","","","","","1260.7000000029802","<p> <b>Incorrect.</b> One animal lives in the upper part and one lives in the lower part of every place. </p>","0","comp_answer","","","","","","","","","","","",""
"comp-q","112","543551","0.0-3.0-13.0-0.3-0.3","spark_pilot_norest","11001","5","7","Male","","","","","","","2337.39999999851","<p> <b> True or False? </b> </p><p> The same animal will always be there if you go up in the same place. </p>","0","comp_question","","","","true","","","","","","","",""
"comp-q","113","551600","0.0-3.0-13.0-0.3-1.3","spark_pilot_norest","11001","5","7","Male","","","","","","","1596.6000000014901","<p> <b> That's right! </b> One animal lives in the upper part and one lives in the lower part of every place. </p>","0","comp_answer","","","","","","","","","","","",""
"comp-q","114","558185","0.0-3.0-13.0-0.4-0.4","spark_pilot_norest","11001","5","7","Male","","","","","","","1057","<p> <b> True or False? </b> </p><p> If you see a different picture, it means you are in a new place. </p>","0","comp_question","","","","false","","","","","","","",""
"comp-q","115","570734","0.0-3.0-13.0-0.4-1.4","spark_pilot_norest","11001","5","7","Male","","","","","","","1435.2999999970198","<p> <b>Incorrect.</b> Lots of different images may show the same place. For example,  you may see three different images that all remind you that you are in outer space. </p>","0","comp_answer","","","","","","","","","","","",""
"comp-q","116","578944","0.0-3.0-13.0-0.5-0.5","spark_pilot_norest","11001","5","7","Male","","","","","","","2712.10000000149","<p> <b> True or False? </b> </p><p> If you see a different picture, it means you are in a new place. </p>","1","comp_question","","","","true","","","","","","","",""
"comp-q","117","593081","0.0-3.0-13.0-0.5-1.5","spark_pilot_norest","11001","5","7","Male","","","","","","","2896.5","<p> <b> That's right! </b> Lots of different images may show the same place. For example,  you may see three different images that all remind you that you are in outer space. </p>","0","comp_answer","","","","","","","","","","","",""
"learning-instructions","118","604243","0.0-3.0-14.0-0.0","spark_pilot_norest","11001","5","7","Male","","","","","","","1290.8000000044703","<p> Good job. Remember to do your best because the amount of treasure you earn will be converted into bonus money. </p>
            <p> It’s time to start the real game! </p>","","instructions","","","","","","","","","","","",""
"learning-instructions","119","608748","0.0-4.0-0.0-0.0","spark_pilot_norest","11001","5","7","Male","","","","","","","1732","<p> This time you are searching for treasure in the <b>canyon</b>.</p>","","instructions","","","","","","","","","","","",""
"learning-instructions","120","627781","0.0-4.0-0.0-0.1","spark_pilot_norest","11001","5","7","Male","","","","","","","1713.6000000014901","<p><b>New</b> animals with <b>new</b> treasure chests live here. You need to explore to discover where the animal with the best treasure chest is.</p>
                    <p> Like before, once you figure out which animal has the chest with the most treasure, you should try to get to that animal and select that chest! </p>","","instructions","","","","","","","","","","","",""
"learning-instructions","121","643957","0.0-4.0-1.0-0.0","spark_pilot_norest","11001","5","7","Male","","","","","","","1453.1000000014901","<p> Remember, when you see a picture of the place, use the up and down keys to <b>find an animal</b>.</p>
            <p> When you encounter an animal, you should use the left and right keys to <b>select a treasure chest</b>.</p>
            <p> Don't forget to look out for the robber! </p>","","instructions","","","","","","","","","","","",""
"revaluation","122","649980","0.0-4.0-2.0-0.0","spark_pilot_norest","11001","5","7","Male","","false","","","","","[756.7999999970198,809.1999999955297]","./assets/img/canyon/memory/4.jpg","[""ArrowUp"",""ArrowLeft""]","value training","canyon","26","{""ArrowUp,ArrowLeft"":26,""ArrowUp,ArrowRight"":10,""ArrowDown,ArrowLeft"":5,""ArrowDown,ArrowRight"":17}","true","ArrowUp,ArrowLeft","false","original","1","0","","",""
"html-keyboard-response","123","650491","0.0-4.0-2.0-1.0","spark_pilot_norest","11001","5","7","Male","","","","","","","null","<div style=""font-size:60px;"">+</div>","null","fixation","","","","","","","","","1","","",""
"revaluation","124","656515","0.0-4.0-2.0-0.1","spark_pilot_norest","11001","5","7","Male","","false","","","","","[534.2000000029802,458.90000000596046]","./assets/img/canyon/memory/3.jpg","[""ArrowUp"",""ArrowRight""]","value training","canyon","10","{""ArrowUp,ArrowLeft"":26,""ArrowUp,ArrowRight"":10,""ArrowDown,ArrowLeft"":5,""ArrowDown,ArrowRight"":17}","false","ArrowUp,ArrowRight","false","original","1","2","","",""
"html-keyboard-response","125","657019","0.0-4.0-2.0-1.1","spark_pilot_norest","11001","5","7","Male","","","","","","","null","<div style=""font-size:60px;"">+</div>","null","fixation","","","","","","","","","3","","",""
"revaluation","126","663043","0.0-4.0-2.0-0.2","spark_pilot_norest","11001","5","7","Male","","false","","","","","[313.29999999701977,460.20000000298023]","./assets/img/canyon/memory/4.jpg","[""ArrowDown"",""ArrowRight""]","value training","canyon","17","{""ArrowUp,ArrowLeft"":26,""ArrowUp,ArrowRight"":10,""ArrowDown,ArrowLeft"":5,""ArrowDown,ArrowRight"":17}","false","ArrowDown,ArrowRight","false","original","1","4","","",""
"html-keyboard-response","127","663547","0.0-4.0-2.0-1.2","spark_pilot_norest","11001","5","7","Male","","","","","","","null","<div style=""font-size:60px;"">+</div>","null","fixation","","","","","","","","","5","","",""
"revaluation","128","669572","0.0-4.0-2.0-0.3","spark_pilot_norest","11001","5","7","Male","","false","","","","","[287.19999999552965,502.70000000298023]","./assets/img/canyon/memory/16.jpg","[""ArrowDown"",""ArrowLeft""]","value training","canyon","5","{""ArrowUp,ArrowLeft"":26,""ArrowUp,ArrowRight"":10,""ArrowDown,ArrowLeft"":5,""ArrowDown,ArrowRight"":17}","false","ArrowDown,ArrowLeft","false","original","1","6","","",""
"html-keyboard-response","129","670075","0.0-4.0-2.0-1.3","spark_pilot_norest","11001","5","7","Male","","","","","","","null","<div style=""font-size:60px;"">+</div>","null","fixation","","","","","","","","","7","","",""
"revaluation","130","674091","0.0-4.0-2.0-0.4","spark_pilot_norest","11001","5","7","Male","","false","","","","","[925.3000000044703]","./assets/img/canyon/catch/3.jpg","[""ArrowUp""]","value training","canyon","-10","{""ArrowUp,ArrowLeft"":26,""ArrowUp,ArrowRight"":10,""ArrowDown,ArrowLeft"":5,""ArrowDown,ArrowRight"":17}","false","ArrowUp","true","original","1","8","","",""
"html-keyboard-response","131","674595","0.0-4.0-2.0-1.4","spark_pilot_norest","11001","5","7","Male","","","","","","","null","<div style=""font-size:60px;"">+</div>","null","fixation","","","","","","","","","9","","",""
"revaluation","132","680619","0.0-4.0-2.0-0.5","spark_pilot_norest","11001","5","7","Male","","false","","","","","[1118.6000000014901,617.1000000014901]","./assets/img/canyon/memory/23.jpg","[""ArrowUp"",""ArrowLeft""]","value training","canyon","26","{""ArrowUp,ArrowLeft"":26,""ArrowUp,ArrowRight"":10,""ArrowDown,ArrowLeft"":5,""ArrowDown,ArrowRight"":17}","true","ArrowUp,ArrowLeft","false","original","1","10","","",""
"html-keyboard-response","133","681123","0.0-4.0-2.0-1.5","spark_pilot_norest","11001","5","7","Male","","","","","","","null","<div style=""font-size:60px;"">+</div>","null","fixation","","","","","","","","","11","","",""
"revaluation","134","685139","0.0-4.0-2.0-0.6","spark_pilot_norest","11001","5","7","Male","","false","","","","","[631]","./assets/img/canyon/catch/5.jpg","[""ArrowUp""]","value training","canyon","-10","{""ArrowUp,ArrowLeft"":26,""ArrowUp,ArrowRight"":10,""ArrowDown,ArrowLeft"":5,""ArrowDown,ArrowRight"":17}","false","ArrowUp","true","original","1","12","","",""
"html-keyboard-response","135","685643","0.0-4.0-2.0-1.6","spark_pilot_norest","11001","5","7","Male","","","","","","","null","<div style=""font-size:60px;"">+</div>","null","fixation","","","","","","","","","13","","",""
"revaluation","136","689659","0.0-4.0-2.0-0.7","spark_pilot_norest","11001","5","7","Male","","false","","","","","[1062]","./assets/img/canyon/catch/1.jpg","[""spaceBar""]","value training","canyon","0","{""ArrowUp,ArrowLeft"":26,""ArrowUp,ArrowRight"":10,""ArrowDown,ArrowLeft"":5,""ArrowDown,ArrowRight"":17}","true","spaceBar","true","original","1","14","","",""
"html-keyboard-response","137","690163","0.0-4.0-2.0-1.7","spark_pilot_norest","11001","5","7","Male","","","","","","","null","<div style=""font-size:60px;"">+</div>","null","fixation","","","","","","","","","15","","",""
"revaluation","138","696188","0.0-4.0-2.0-0.8","spark_pilot_norest","11001","5","7","Male","","false","","","","","[847.3999999985099,502.3999999985099]","./assets/img/canyon/memory/17.jpg","[""ArrowUp"",""ArrowRight""]","value training","canyon","10","{""ArrowUp,ArrowLeft"":26,""ArrowUp,ArrowRight"":10,""ArrowDown,ArrowLeft"":5,""ArrowDown,ArrowRight"":17}","false","ArrowUp,ArrowRight","false","original","1","16","","",""
"html-keyboard-response","139","696691","0.0-4.0-2.0-1.8","spark_pilot_norest","11001","5","7","Male","","","","","","","null","<div style=""font-size:60px;"">+</div>","null","fixation","","","","","","","","","17","","",""
"revaluation","140","700708","0.0-4.0-2.0-0.9","spark_pilot_norest","11001","5","7","Male","","false","","","","","[760.6000000014901]","./assets/img/canyon/catch/6.jpg","[""spaceBar""]","value training","canyon","0","{""ArrowUp,ArrowLeft"":26,""ArrowUp,ArrowRight"":10,""ArrowDown,ArrowLeft"":5,""ArrowDown,ArrowRight"":17}","true","spaceBar","true","original","1","18","","",""
"html-keyboard-response","141","701211","0.0-4.0-2.0-1.9","spark_pilot_norest","11001","5","7","Male","","","","","","","null","<div style=""font-size:60px;"">+</div>","null","fixation","","","","","","","","","19","","",""
"revaluation","142","705227","0.0-4.0-2.0-0.10","spark_pilot_norest","11001","5","7","Male","","false","","","","","[741]","./assets/img/canyon/catch/7.jpg","[""spaceBar""]","value training","canyon","0","{""ArrowUp,ArrowLeft"":26,""ArrowUp,ArrowRight"":10,""ArrowDown,ArrowLeft"":5,""ArrowDown,ArrowRight"":17}","true","spaceBar","true","original","1","20","","",""
"html-keyboard-response","143","705731","0.0-4.0-2.0-1.10","spark_pilot_norest","11001","5","7","Male","","","","","","","null","<div style=""font-size:60px;"">+</div>","null","fixation","","","","","","","","","21","","",""
"revaluation","144","711755","0.0-4.0-2.0-0.11","spark_pilot_norest","11001","5","7","Male","","false","","","","","[684.2000000029802,528.7999999970198]","./assets/img/canyon/memory/40.jpg","[""ArrowUp"",""ArrowLeft""]","value training","canyon","26","{""ArrowUp,ArrowLeft"":26,""ArrowUp,ArrowRight"":10,""ArrowDown,ArrowLeft"":5,""ArrowDown,ArrowRight"":17}","true","ArrowUp,ArrowLeft","false","original","1","22","","",""
"html-keyboard-response","145","712259","0.0-4.0-2.0-1.11","spark_pilot_norest","11001","5","7","Male","","","","","","","null","<div style=""font-size:60px;"">+</div>","null","fixation","","","","","","","","","23","","",""
"revaluation","146","718283","0.0-4.0-2.0-0.12","spark_pilot_norest","11001","5","7","Male","","false","","","","","[648.5999999940395,310.29999999701977]","./assets/img/canyon/memory/11.jpg","[""ArrowUp"",""ArrowLeft""]","value training","canyon","26","{""ArrowUp,ArrowLeft"":26,""ArrowUp,ArrowRight"":10,""ArrowDown,ArrowLeft"":5,""ArrowDown,ArrowRight"":17}","true","ArrowUp,ArrowLeft","false","original","1","24","","",""
"html-keyboard-response","147","718787","0.0-4.0-2.0-1.12","spark_pilot_norest","11001","5","7","Male","","","","","","","null","<div style=""font-size:60px;"">+</div>","null","fixation","","","","","","","","","25","","",""
"revaluation","148","724812","0.0-4.0-2.0-0.13","spark_pilot_norest","11001","5","7","Male","","false","","","","","[694.6000000014901,475.3999999985099]","./assets/img/canyon/memory/15.jpg","[""ArrowUp"",""ArrowLeft""]","value training","canyon","26","{""ArrowUp,ArrowLeft"":26,""ArrowUp,ArrowRight"":10,""ArrowDown,ArrowLeft"":5,""ArrowDown,ArrowRight"":17}","true","ArrowUp,ArrowLeft","false","original","1","26","","",""
"html-keyboard-response","149","725315","0.0-4.0-2.0-1.13","spark_pilot_norest","11001","5","7","Male","","","","","","","null","<div style=""font-size:60px;"">+</div>","null","fixation","","","","","","","","","27","","",""
"revaluation","150","731340","0.0-4.0-2.0-0.14","spark_pilot_norest","11001","5","7","Male","","false","","","","","[705.1000000014901,439.20000000298023]","./assets/img/canyon/memory/36.jpg","[""ArrowUp"",""ArrowLeft""]","value training","canyon","26","{""ArrowUp,ArrowLeft"":26,""ArrowUp,ArrowRight"":10,""ArrowDown,ArrowLeft"":5,""ArrowDown,ArrowRight"":17}","true","ArrowUp,ArrowLeft","false","original","1","28","","",""
"html-keyboard-response","151","731843","0.0-4.0-2.0-1.14","spark_pilot_norest","11001","5","7","Male","","","","","","","null","<div style=""font-size:60px;"">+</div>","null","fixation","","","","","","","","","29","","",""
"revaluation","152","737868","0.0-4.0-2.0-0.15","spark_pilot_norest","11001","5","7","Male","","false","","","","","[619.2999999970198,419.3999999985099]","./assets/img/canyon/memory/31.jpg","[""ArrowUp"",""ArrowLeft""]","value training","canyon","26","{""ArrowUp,ArrowLeft"":26,""ArrowUp,ArrowRight"":10,""ArrowDown,ArrowLeft"":5,""ArrowDown,ArrowRight"":17}","true","ArrowUp,ArrowLeft","false","original","1","30","","",""
"html-keyboard-response","153","738371","0.0-4.0-2.0-1.15","spark_pilot_norest","11001","5","7","Male","","","","","","","null","<div style=""font-size:60px;"">+</div>","null","fixation","","","","","","","","","31","","",""
"revaluation","154","744395","0.0-4.0-2.0-0.16","spark_pilot_norest","11001","5","7","Male","","false","","","","","[656.2000000029802,630.8999999985099]","./assets/img/canyon/memory/34.jpg","[""ArrowUp"",""ArrowLeft""]","value training","canyon","26","{""ArrowUp,ArrowLeft"":26,""ArrowUp,ArrowRight"":10,""ArrowDown,ArrowLeft"":5,""ArrowDown,ArrowRight"":17}","true","ArrowUp,ArrowLeft","false","original","1","32","","",""
"html-keyboard-response","155","744899","0.0-4.0-2.0-1.16","spark_pilot_norest","11001","5","7","Male","","","","","","","null","<div style=""font-size:60px;"">+</div>","null","fixation","","","","","","","","","33","","",""
"revaluation","156","750931","0.0-4.0-2.0-0.17","spark_pilot_norest","11001","5","7","Male","","false","","","","","[669.3000000044703,656]","./assets/img/canyon/memory/15.jpg","[""ArrowUp"",""ArrowLeft""]","value training","canyon","26","{""ArrowUp,ArrowLeft"":26,""ArrowUp,ArrowRight"":10,""ArrowDown,ArrowLeft"":5,""ArrowDown,ArrowRight"":17}","true","ArrowUp,ArrowLeft","false","original","1","34","","",""
"html-keyboard-response","157","751435","0.0-4.0-2.0-1.17","spark_pilot_norest","11001","5","7","Male","","","","","","","null","<div style=""font-size:60px;"">+</div>","null","fixation","","","","","","","","","35","","",""
"revaluation","158","757459","0.0-4.0-2.0-0.18","spark_pilot_norest","11001","5","7","Male","","false","","","","","[687.7999999970198,473.1000000014901]","./assets/img/canyon/memory/6.jpg","[""ArrowUp"",""ArrowLeft""]","value training","canyon","26","{""ArrowUp,ArrowLeft"":26,""ArrowUp,ArrowRight"":10,""ArrowDown,ArrowLeft"":5,""ArrowDown,ArrowRight"":17}","true","ArrowUp,ArrowLeft","false","original","1","36","","",""
"html-keyboard-response","159","757963","0.0-4.0-2.0-1.18","spark_pilot_norest","11001","5","7","Male","","","","","","","null","<div style=""font-size:60px;"">+</div>","null","fixation","","","","","","","","","37","","",""
"revaluation","160","763988","0.0-4.0-2.0-0.19","spark_pilot_norest","11001","5","7","Male","","false","","","","","[776.5,593.2000000029802]","./assets/img/canyon/memory/23.jpg","[""ArrowUp"",""ArrowLeft""]","value training","canyon","26","{""ArrowUp,ArrowLeft"":26,""ArrowUp,ArrowRight"":10,""ArrowDown,ArrowLeft"":5,""ArrowDown,ArrowRight"":17}","true","ArrowUp,ArrowLeft","false","original","1","38","","",""
"html-keyboard-response","161","764491","0.0-4.0-2.0-1.19","spark_pilot_norest","11001","5","7","Male","","","","","","","null","<div style=""font-size:60px;"">+</div>","null","fixation","","","","","","","","","39","","",""
"revaluation","162","770516","0.0-4.0-2.0-0.20","spark_pilot_norest","11001","5","7","Male","","false","","","","","[783.2999999970198,723.5]","./assets/img/canyon/memory/26.jpg","[""ArrowUp"",""ArrowLeft""]","value training","canyon","26","{""ArrowUp,ArrowLeft"":26,""ArrowUp,ArrowRight"":10,""ArrowDown,ArrowLeft"":5,""ArrowDown,ArrowRight"":17}","true","ArrowUp,ArrowLeft","false","original","1","40","","",""
"html-keyboard-response","163","771019","0.0-4.0-2.0-1.20","spark_pilot_norest","11001","5","7","Male","","","","","","","null","<div style=""font-size:60px;"">+</div>","null","fixation","","","","","","","","","41","","",""
"revaluation","164","777043","0.0-4.0-2.0-0.21","spark_pilot_norest","11001","5","7","Male","","false","","","","","[723.7000000029802,602.5999999940395]","./assets/img/canyon/memory/32.jpg","[""ArrowUp"",""ArrowLeft""]","value training","canyon","26","{""ArrowUp,ArrowLeft"":26,""ArrowUp,ArrowRight"":10,""ArrowDown,ArrowLeft"":5,""ArrowDown,ArrowRight"":17}","true","ArrowUp,ArrowLeft","false","original","1","42","","",""
"html-keyboard-response","165","777547","0.0-4.0-2.0-1.21","spark_pilot_norest","11001","5","7","Male","","","","","","","null","<div style=""font-size:60px;"">+</div>","null","fixation","","","","","","","","","43","","",""
"revaluation","166","783571","0.0-4.0-2.0-0.22","spark_pilot_norest","11001","5","7","Male","","false","","","","","[979.5,532.1000000014901]","./assets/img/canyon/memory/21.jpg","[""ArrowUp"",""ArrowLeft""]","value training","canyon","26","{""ArrowUp,ArrowLeft"":26,""ArrowUp,ArrowRight"":10,""ArrowDown,ArrowLeft"":5,""ArrowDown,ArrowRight"":17}","true","ArrowUp,ArrowLeft","false","original","1","44","","",""
"html-keyboard-response","167","784075","0.0-4.0-2.0-1.22","spark_pilot_norest","11001","5","7","Male","","","","","","","null","<div style=""font-size:60px;"">+</div>","null","fixation","","","","","","","","","45","","",""
"revaluation","168","790099","0.0-4.0-2.0-0.23","spark_pilot_norest","11001","5","7","Male","","false","","","","","[615,665]","./assets/img/canyon/memory/10.jpg","[""ArrowUp"",""ArrowLeft""]","value training","canyon","26","{""ArrowUp,ArrowLeft"":26,""ArrowUp,ArrowRight"":10,""ArrowDown,ArrowLeft"":5,""ArrowDown,ArrowRight"":17}","true","ArrowUp,ArrowLeft","false","original","1","46","","",""
"html-keyboard-response","169","790603","0.0-4.0-2.0-1.23","spark_pilot_norest","11001","5","7","Male","","","","","","","null","<div style=""font-size:60px;"">+</div>","null","fixation","","","","","","","","","47","","",""
"revaluation","170","796628","0.0-4.0-2.0-0.24","spark_pilot_norest","11001","5","7","Male","","false","","","","","[626,504.70000000298023]","./assets/img/canyon/memory/2.jpg","[""ArrowUp"",""ArrowLeft""]","value training","canyon","26","{""ArrowUp,ArrowLeft"":26,""ArrowUp,ArrowRight"":10,""ArrowDown,ArrowLeft"":5,""ArrowDown,ArrowRight"":17}","true","ArrowUp,ArrowLeft","false","original","1","48","","",""
"html-keyboard-response","171","797131","0.0-4.0-2.0-1.24","spark_pilot_norest","11001","5","7","Male","","","","","","","null","<div style=""font-size:60px;"">+</div>","null","fixation","","","","","","","","","49","","",""
"revaluation","172","801148","0.0-4.0-2.0-0.25","spark_pilot_norest","11001","5","7","Male","","false","","","","","[1276.2000000029802]","./assets/img/canyon/catch/2.jpg","[""spaceBar""]","value training","canyon","0","{""ArrowUp,ArrowLeft"":26,""ArrowUp,ArrowRight"":10,""ArrowDown,ArrowLeft"":5,""ArrowDown,ArrowRight"":17}","true","spaceBar","true","original","1","50","","",""
"html-keyboard-response","173","801651","0.0-4.0-2.0-1.25","spark_pilot_norest","11001","5","7","Male","","","","","","","null","<div style=""font-size:60px;"">+</div>","null","fixation","","","","","","","","","51","","",""
"revaluation","174","807675","0.0-4.0-2.0-0.26","spark_pilot_norest","11001","5","7","Male","","false","","","","","[495,588]","./assets/img/canyon/memory/31.jpg","[""ArrowUp"",""ArrowLeft""]","value training","canyon","26","{""ArrowUp,ArrowLeft"":26,""ArrowUp,ArrowRight"":10,""ArrowDown,ArrowLeft"":5,""ArrowDown,ArrowRight"":17}","true","ArrowUp,ArrowLeft","false","original","1","52","","",""
"html-keyboard-response","175","808179","0.0-4.0-2.0-1.26","spark_pilot_norest","11001","5","7","Male","","","","","","","null","<div style=""font-size:60px;"">+</div>","null","fixation","","","","","","","","","53","","",""
"revaluation","176","814203","0.0-4.0-2.0-0.27","spark_pilot_norest","11001","5","7","Male","","false","","","","","[549.1000000014901,571.5]","./assets/img/canyon/memory/3.jpg","[""ArrowUp"",""ArrowLeft""]","value training","canyon","26","{""ArrowUp,ArrowLeft"":26,""ArrowUp,ArrowRight"":10,""ArrowDown,ArrowLeft"":5,""ArrowDown,ArrowRight"":17}","true","ArrowUp,ArrowLeft","false","original","1","54","","",""
"html-keyboard-response","177","814707","0.0-4.0-2.0-1.27","spark_pilot_norest","11001","5","7","Male","","","","","","","null","<div style=""font-size:60px;"">+</div>","null","fixation","","","","","","","","","55","","",""
"revaluation","178","820732","0.0-4.0-2.0-0.28","spark_pilot_norest","11001","5","7","Male","","false","","","","","[599.2999999970198,622.2000000029802]","./assets/img/canyon/memory/21.jpg","[""ArrowUp"",""ArrowLeft""]","value training","canyon","26","{""ArrowUp,ArrowLeft"":26,""ArrowUp,ArrowRight"":10,""ArrowDown,ArrowLeft"":5,""ArrowDown,ArrowRight"":17}","true","ArrowUp,ArrowLeft","false","original","1","56","","",""
"html-keyboard-response","179","821235","0.0-4.0-2.0-1.28","spark_pilot_norest","11001","5","7","Male","","","","","","","null","<div style=""font-size:60px;"">+</div>","null","fixation","","","","","","","","","57","","",""
"revaluation","180","827260","0.0-4.0-2.0-0.29","spark_pilot_norest","11001","5","7","Male","","false","","","","","[851.8999999985099,689.1000000014901]","./assets/img/canyon/memory/5.jpg","[""ArrowUp"",""ArrowLeft""]","value training","canyon","26","{""ArrowUp,ArrowLeft"":26,""ArrowUp,ArrowRight"":10,""ArrowDown,ArrowLeft"":5,""ArrowDown,ArrowRight"":17}","true","ArrowUp,ArrowLeft","false","original","1","58","","",""
"html-keyboard-response","181","827763","0.0-4.0-2.0-1.29","spark_pilot_norest","11001","5","7","Male","","","","","","","null","<div style=""font-size:60px;"">+</div>","null","fixation","","","","","","","","","59","","",""
"revaluation","182","833787","0.0-4.0-2.0-0.30","spark_pilot_norest","11001","5","7","Male","","false","","","","","[461.70000000298023,623.8999999985099]","./assets/img/canyon/memory/40.jpg","[""ArrowUp"",""ArrowLeft""]","value training","canyon","26","{""ArrowUp,ArrowLeft"":26,""ArrowUp,ArrowRight"":10,""ArrowDown,ArrowLeft"":5,""ArrowDown,ArrowRight"":17}","true","ArrowUp,ArrowLeft","false","original","1","60","","",""
"html-keyboard-response","183","834291","0.0-4.0-2.0-1.30","spark_pilot_norest","11001","5","7","Male","","","","","","","null","<div style=""font-size:60px;"">+</div>","null","fixation","","","","","","","","","61","","",""
"revaluation","184","838308","0.0-4.0-2.0-0.31","spark_pilot_norest","11001","5","7","Male","","false","","","","","[991.7999999970198]","./assets/img/canyon/catch/0.jpg","[""spaceBar""]","value training","canyon","0","{""ArrowUp,ArrowLeft"":26,""ArrowUp,ArrowRight"":10,""ArrowDown,ArrowLeft"":5,""ArrowDown,ArrowRight"":17}","true","spaceBar","true","original","1","62","","",""
"html-keyboard-response","185","838811","0.0-4.0-2.0-1.31","spark_pilot_norest","11001","5","7","Male","","","","","","","null","<div style=""font-size:60px;"">+</div>","null","fixation","","","","","","","","","63","","",""
"revaluation","186","844835","0.0-4.0-2.0-0.32","spark_pilot_norest","11001","5","7","Male","","false","","","","","[603.0999999940395,483.20000000298023]","./assets/img/canyon/memory/32.jpg","[""ArrowUp"",""ArrowLeft""]","value training","canyon","26","{""ArrowUp,ArrowLeft"":26,""ArrowUp,ArrowRight"":10,""ArrowDown,ArrowLeft"":5,""ArrowDown,ArrowRight"":17}","true","ArrowUp,ArrowLeft","false","original","1","64","","",""
"html-keyboard-response","187","845339","0.0-4.0-2.0-1.32","spark_pilot_norest","11001","5","7","Male","","","","","","","null","<div style=""font-size:60px;"">+</div>","null","fixation","","","","","","","","","65","","",""
"revaluation","188","851364","0.0-4.0-2.0-0.33","spark_pilot_norest","11001","5","7","Male","","false","","","","","[533.1999999955297,464.1000000014901]","./assets/img/canyon/memory/38.jpg","[""ArrowUp"",""ArrowLeft""]","value training","canyon","26","{""ArrowUp,ArrowLeft"":26,""ArrowUp,ArrowRight"":10,""ArrowDown,ArrowLeft"":5,""ArrowDown,ArrowRight"":17}","true","ArrowUp,ArrowLeft","false","original","1","66","","",""
"html-keyboard-response","189","851867","0.0-4.0-2.0-1.33","spark_pilot_norest","11001","5","7","Male","","","","","","","null","<div style=""font-size:60px;"">+</div>","null","fixation","","","","","","","","","67","","",""
"revaluation","190","857892","0.0-4.0-2.0-0.34","spark_pilot_norest","11001","5","7","Male","","false","","","","","[530.8999999985099,400]","./assets/img/canyon/memory/2.jpg","[""ArrowUp"",""ArrowLeft""]","value training","canyon","26","{""ArrowUp,ArrowLeft"":26,""ArrowUp,ArrowRight"":10,""ArrowDown,ArrowLeft"":5,""ArrowDown,ArrowRight"":17}","true","ArrowUp,ArrowLeft","false","original","1","68","","",""
"html-keyboard-response","191","858395","0.0-4.0-2.0-1.34","spark_pilot_norest","11001","5","7","Male","","","","","","","null","<div style=""font-size:60px;"">+</div>","null","fixation","","","","","","","","","69","","",""
"revaluation","192","864419","0.0-4.0-2.0-0.35","spark_pilot_norest","11001","5","7","Male","","false","","","","","[678.1000000014901,658.3000000044703]","./assets/img/canyon/memory/5.jpg","[""ArrowUp"",""ArrowLeft""]","value training","canyon","26","{""ArrowUp,ArrowLeft"":26,""ArrowUp,ArrowRight"":10,""ArrowDown,ArrowLeft"":5,""ArrowDown,ArrowRight"":17}","true","ArrowUp,ArrowLeft","false","original","1","70","","",""
"html-keyboard-response","193","864923","0.0-4.0-2.0-1.35","spark_pilot_norest","11001","5","7","Male","","","","","","","null","<div style=""font-size:60px;"">+</div>","null","fixation","","","","","","","","","71","","",""
"revaluation","194","870947","0.0-4.0-2.0-0.36","spark_pilot_norest","11001","5","7","Male","","false","","","","","[770.5,691.2000000029802]","./assets/img/canyon/memory/33.jpg","[""ArrowUp"",""ArrowLeft""]","value training","canyon","26","{""ArrowUp,ArrowLeft"":26,""ArrowUp,ArrowRight"":10,""ArrowDown,ArrowLeft"":5,""ArrowDown,ArrowRight"":17}","true","ArrowUp,ArrowLeft","false","original","1","72","","",""
"html-keyboard-response","195","871451","0.0-4.0-2.0-1.36","spark_pilot_norest","11001","5","7","Male","","","","","","","null","<div style=""font-size:60px;"">+</div>","null","fixation","","","","","","","","","73","","",""
"revaluation","196","877475","0.0-4.0-2.0-0.37","spark_pilot_norest","11001","5","7","Male","","false","","","","","[655.5,489.6000000014901]","./assets/img/canyon/memory/33.jpg","[""ArrowUp"",""ArrowLeft""]","value training","canyon","26","{""ArrowUp,ArrowLeft"":26,""ArrowUp,ArrowRight"":10,""ArrowDown,ArrowLeft"":5,""ArrowDown,ArrowRight"":17}","true","ArrowUp,ArrowLeft","false","original","1","74","","",""
"html-keyboard-response","197","877979","0.0-4.0-2.0-1.37","spark_pilot_norest","11001","5","7","Male","","","","","","","null","<div style=""font-size:60px;"">+</div>","null","fixation","","","","","","","","","75","","",""
"revaluation","198","884003","0.0-4.0-2.0-0.38","spark_pilot_norest","11001","5","7","Male","","false","","","","","[430.1000000014901,613.3999999985099]","./assets/img/canyon/memory/36.jpg","[""ArrowUp"",""ArrowLeft""]","value training","canyon","26","{""ArrowUp,ArrowLeft"":26,""ArrowUp,ArrowRight"":10,""ArrowDown,ArrowLeft"":5,""ArrowDown,ArrowRight"":17}","true","ArrowUp,ArrowLeft","false","original","1","76","","",""
"html-keyboard-response","199","884507","0.0-4.0-2.0-1.38","spark_pilot_norest","11001","5","7","Male","","","","","","","null","<div style=""font-size:60px;"">+</div>","null","fixation","","","","","","","","","77","","",""
"revaluation","200","890532","0.0-4.0-2.0-0.39","spark_pilot_norest","11001","5","7","Male","","false","","","","","[748,769.7000000029802]","./assets/img/canyon/memory/34.jpg","[""ArrowUp"",""ArrowLeft""]","value training","canyon","26","{""ArrowUp,ArrowLeft"":26,""ArrowUp,ArrowRight"":10,""ArrowDown,ArrowLeft"":5,""ArrowDown,ArrowRight"":17}","true","ArrowUp,ArrowLeft","false","original","1","78","","",""
"html-keyboard-response","201","891035","0.0-4.0-2.0-1.39","spark_pilot_norest","11001","5","7","Male","","","","","","","null","<div style=""font-size:60px;"">+</div>","null","fixation","","","","","","","","","79","","",""
"revaluation","202","897060","0.0-4.0-2.0-0.40","spark_pilot_norest","11001","5","7","Male","","false","","","","","[723.3999999985099,426.6000000014901]","./assets/img/canyon/memory/29.jpg","[""ArrowUp"",""ArrowLeft""]","value training","canyon","26","{""ArrowUp,ArrowLeft"":26,""ArrowUp,ArrowRight"":10,""ArrowDown,ArrowLeft"":5,""ArrowDown,ArrowRight"":17}","true","ArrowUp,ArrowLeft","false","original","1","80","","",""
"html-keyboard-response","203","897563","0.0-4.0-2.0-1.40","spark_pilot_norest","11001","5","7","Male","","","","","","","null","<div style=""font-size:60px;"">+</div>","null","fixation","","","","","","","","","81","","",""
"revaluation","204","903587","0.0-4.0-2.0-0.41","spark_pilot_norest","11001","5","7","Male","","false","","","","","[555.7000000029802,553.6000000014901]","./assets/img/canyon/memory/26.jpg","[""ArrowUp"",""ArrowLeft""]","value training","canyon","26","{""ArrowUp,ArrowLeft"":26,""ArrowUp,ArrowRight"":10,""ArrowDown,ArrowLeft"":5,""ArrowDown,ArrowRight"":17}","true","ArrowUp,ArrowLeft","false","original","1","82","","",""
"html-keyboard-response","205","904091","0.0-4.0-2.0-1.41","spark_pilot_norest","11001","5","7","Male","","","","","","","null","<div style=""font-size:60px;"">+</div>","null","fixation","","","","","","","","","83","","",""
"revaluation","206","910115","0.0-4.0-2.0-0.42","spark_pilot_norest","11001","5","7","Male","","false","","","","","[495.79999999701977,586.6000000014901]","./assets/img/canyon/memory/16.jpg","[""ArrowUp"",""ArrowLeft""]","value training","canyon","26","{""ArrowUp,ArrowLeft"":26,""ArrowUp,ArrowRight"":10,""ArrowDown,ArrowLeft"":5,""ArrowDown,ArrowRight"":17}","true","ArrowUp,ArrowLeft","false","original","1","84","","",""
"html-keyboard-response","207","910619","0.0-4.0-2.0-1.42","spark_pilot_norest","11001","5","7","Male","","","","","","","null","<div style=""font-size:60px;"">+</div>","null","fixation","","","","","","","","","85","","",""
"revaluation","208","916644","0.0-4.0-2.0-0.43","spark_pilot_norest","11001","5","7","Male","","false","","","","","[577.2999999970198,789.6000000014901]","./assets/img/canyon/memory/10.jpg","[""ArrowUp"",""ArrowLeft""]","value training","canyon","26","{""ArrowUp,ArrowLeft"":26,""ArrowUp,ArrowRight"":10,""ArrowDown,ArrowLeft"":5,""ArrowDown,ArrowRight"":17}","true","ArrowUp,ArrowLeft","false","original","1","86","","",""
"html-keyboard-response","209","917147","0.0-4.0-2.0-1.43","spark_pilot_norest","11001","5","7","Male","","","","","","","null","<div style=""font-size:60px;"">+</div>","null","fixation","","","","","","","","","87","","",""
"revaluation","210","923171","0.0-4.0-2.0-0.44","spark_pilot_norest","11001","5","7","Male","","false","","","","","[1039.6999999955297,540.4000000059605]","./assets/img/canyon/memory/29.jpg","[""ArrowUp"",""ArrowLeft""]","value training","canyon","26","{""ArrowUp,ArrowLeft"":26,""ArrowUp,ArrowRight"":10,""ArrowDown,ArrowLeft"":5,""ArrowDown,ArrowRight"":17}","true","ArrowUp,ArrowLeft","false","original","1","88","","",""
"html-keyboard-response","211","923675","0.0-4.0-2.0-1.44","spark_pilot_norest","11001","5","7","Male","","","","","","","null","<div style=""font-size:60px;"">+</div>","null","fixation","","","","","","","","","89","","",""
"revaluation","212","929699","0.0-4.0-2.0-0.45","spark_pilot_norest","11001","5","7","Male","","false","","","","","[495.70000000298023,640.5999999940395]","./assets/img/canyon/memory/6.jpg","[""ArrowUp"",""ArrowLeft""]","value training","canyon","26","{""ArrowUp,ArrowLeft"":26,""ArrowUp,ArrowRight"":10,""ArrowDown,ArrowLeft"":5,""ArrowDown,ArrowRight"":17}","true","ArrowUp,ArrowLeft","false","original","1","90","","",""
"html-keyboard-response","213","930203","0.0-4.0-2.0-1.45","spark_pilot_norest","11001","5","7","Male","","","","","","","null","<div style=""font-size:60px;"">+</div>","null","fixation","","","","","","","","","91","","",""
"revaluation","214","934220","0.0-4.0-2.0-0.46","spark_pilot_norest","11001","5","7","Male","","false","","","","","[737.1000000014901]","./assets/img/canyon/catch/4.jpg","[""spaceBar""]","value training","canyon","0","{""ArrowUp,ArrowLeft"":26,""ArrowUp,ArrowRight"":10,""ArrowDown,ArrowLeft"":5,""ArrowDown,ArrowRight"":17}","true","spaceBar","true","original","1","92","","",""
"html-keyboard-response","215","934723","0.0-4.0-2.0-1.46","spark_pilot_norest","11001","5","7","Male","","","","","","","null","<div style=""font-size:60px;"">+</div>","null","fixation","","","","","","","","","93","","",""
"revaluation","216","940747","0.0-4.0-2.0-0.47","spark_pilot_norest","11001","5","7","Male","","false","","","","","[487.90000000596046,498.1000000014901]","./assets/img/canyon/memory/11.jpg","[""ArrowUp"",""ArrowLeft""]","value training","canyon","26","{""ArrowUp,ArrowLeft"":26,""ArrowUp,ArrowRight"":10,""ArrowDown,ArrowLeft"":5,""ArrowDown,ArrowRight"":17}","true","ArrowUp,ArrowLeft","false","original","1","94","","",""
"html-keyboard-response","217","941251","0.0-4.0-2.0-1.47","spark_pilot_norest","11001","5","7","Male","","","","","","","null","<div style=""font-size:60px;"">+</div>","null","fixation","","","","","","","","","95","","",""
"revaluation","218","947276","0.0-4.0-2.0-0.48","spark_pilot_norest","11001","5","7","Male","","false","","","","","[649.3999999985099,552.2000000029802]","./assets/img/canyon/memory/38.jpg","[""ArrowUp"",""ArrowLeft""]","value training","canyon","26","{""ArrowUp,ArrowLeft"":26,""ArrowUp,ArrowRight"":10,""ArrowDown,ArrowLeft"":5,""ArrowDown,ArrowRight"":17}","true","ArrowUp,ArrowLeft","false","original","1","96","","",""
"html-keyboard-response","219","947779","0.0-4.0-2.0-1.48","spark_pilot_norest","11001","5","7","Male","","","","","","","null","<div style=""font-size:60px;"">+</div>","null","fixation","","","","","","","","","97","","",""
"revaluation","220","953803","0.0-4.0-2.0-0.49","spark_pilot_norest","11001","5","7","Male","","false","","","","","[840.3999999985099,565.7999999970198]","./assets/img/canyon/memory/17.jpg","[""ArrowUp"",""ArrowLeft""]","value training","canyon","26","{""ArrowUp,ArrowLeft"":26,""ArrowUp,ArrowRight"":10,""ArrowDown,ArrowLeft"":5,""ArrowDown,ArrowRight"":17}","true","ArrowUp,ArrowLeft","false","original","1","98","","",""
"html-keyboard-response","221","954307","0.0-4.0-2.0-1.49","spark_pilot_norest","11001","5","7","Male","","","","","","","null","<div style=""font-size:60px;"">+</div>","null","fixation","","","","","","","","","99","","",""
"learning-instructions","222","968656","0.0-4.0-3.0-0.0","spark_pilot_norest","11001","5","7","Male","","","","","","","1372.3999999985099","<p> Now, you will travel with a friend who will choose whether you go up or down first. </p>
            <p> On these turns, you will just see the animal that they found. You will still get to choose which chest to search for treasure.</p>","","instructions","","","","","","","","","","","",""
"revaluation","223","972675","0.0-4.0-4.0-0.0","spark_pilot_norest","11001","5","7","Male","","false","","","","","[801.7999999970198]","./assets/img/canyon/animals/giraffe.jpg","[""ArrowRight""]","revaluation","canyon","17","{""ArrowUp,ArrowLeft"":26,""ArrowUp,ArrowRight"":10,""ArrowDown,ArrowLeft"":5,""ArrowDown,ArrowRight"":17}","true","ArrowDown,ArrowRight","","original","1","0","","",""
"html-keyboard-response","224","973187","0.0-4.0-4.0-1.0","spark_pilot_norest","11001","5","7","Male","","","","","","","null","<div style=""font-size:60px;"">+</div>","null","fixation","","","","","","","","","1","","",""
"revaluation","225","977204","0.0-4.0-4.0-0.1","spark_pilot_norest","11001","5","7","Male","","false","","","","","[307]","./assets/img/canyon/animals/giraffe.jpg","[""ArrowRight""]","revaluation","canyon","17","{""ArrowUp,ArrowLeft"":26,""ArrowUp,ArrowRight"":10,""ArrowDown,ArrowLeft"":5,""ArrowDown,ArrowRight"":17}","true","ArrowDown,ArrowRight","","original","1","2","","",""
"html-keyboard-response","226","977707","0.0-4.0-4.0-1.1","spark_pilot_norest","11001","5","7","Male","","","","","","","null","<div style=""font-size:60px;"">+</div>","null","fixation","","","","","","","","","3","","",""
"revaluation","227","981716","0.0-4.0-4.0-0.2","spark_pilot_norest","11001","5","7","Male","","false","","","","","[193.60000000149012]","./assets/img/canyon/animals/lion.jpg","[""ArrowRight""]","revaluation","canyon","10","{""ArrowUp,ArrowLeft"":26,""ArrowUp,ArrowRight"":10,""ArrowDown,ArrowLeft"":5,""ArrowDown,ArrowRight"":17}","false","ArrowUp,ArrowRight","","original","1","4","","",""
"html-keyboard-response","228","982219","0.0-4.0-4.0-1.2","spark_pilot_norest","11001","5","7","Male","","","","","","","null","<div style=""font-size:60px;"">+</div>","null","fixation","","","","","","","","","5","","",""
"revaluation","229","986235","0.0-4.0-4.0-0.3","spark_pilot_norest","11001","5","7","Male","","false","","","","","[136.70000000298023]","./assets/img/canyon/animals/lion.jpg","[""ArrowRight""]","revaluation","canyon","10","{""ArrowUp,ArrowLeft"":26,""ArrowUp,ArrowRight"":10,""ArrowDown,ArrowLeft"":5,""ArrowDown,ArrowRight"":17}","false","ArrowUp,ArrowRight","","original","1","6","","",""
"html-keyboard-response","230","986740","0.0-4.0-4.0-1.3","spark_pilot_norest","11001","5","7","Male","","","","","","","null","<div style=""font-size:60px;"">+</div>","null","fixation","","","","","","","","","7","","",""
"revaluation","231","990756","0.0-4.0-4.0-0.4","spark_pilot_norest","11001","5","7","Male","","false","","","","","[764.5]","./assets/img/canyon/animals/giraffe.jpg","[""ArrowRight""]","revaluation","canyon","17","{""ArrowUp,ArrowLeft"":26,""ArrowUp,ArrowRight"":10,""ArrowDown,ArrowLeft"":5,""ArrowDown,ArrowRight"":17}","true","ArrowDown,ArrowRight","","original","1","8","","",""
"html-keyboard-response","232","991259","0.0-4.0-4.0-1.4","spark_pilot_norest","11001","5","7","Male","","","","","","","null","<div style=""font-size:60px;"">+</div>","null","fixation","","","","","","","","","9","","",""
"revaluation","233","995276","0.0-4.0-4.0-0.5","spark_pilot_norest","11001","5","7","Male","","false","","","","","[576.8999999985099]","./assets/img/canyon/animals/lion.jpg","[""ArrowLeft""]","revaluation","canyon","26","{""ArrowUp,ArrowLeft"":26,""ArrowUp,ArrowRight"":10,""ArrowDown,ArrowLeft"":5,""ArrowDown,ArrowRight"":17}","true","ArrowUp,ArrowLeft","","original","1","10","","",""
"html-keyboard-response","234","995779","0.0-4.0-4.0-1.5","spark_pilot_norest","11001","5","7","Male","","","","","","","null","<div style=""font-size:60px;"">+</div>","null","fixation","","","","","","","","","11","","",""
"revaluation","235","999796","0.0-4.0-4.0-0.6","spark_pilot_norest","11001","5","7","Male","","false","","","","","[456.80000000447035]","./assets/img/canyon/animals/giraffe.jpg","[""ArrowRight""]","revaluation","canyon","17","{""ArrowUp,ArrowLeft"":26,""ArrowUp,ArrowRight"":10,""ArrowDown,ArrowLeft"":5,""ArrowDown,ArrowRight"":17}","true","ArrowDown,ArrowRight","","original","1","12","","",""
"html-keyboard-response","236","1000299","0.0-4.0-4.0-1.6","spark_pilot_norest","11001","5","7","Male","","","","","","","null","<div style=""font-size:60px;"">+</div>","null","fixation","","","","","","","","","13","","",""
"revaluation","237","1004316","0.0-4.0-4.0-0.7","spark_pilot_norest","11001","5","7","Male","","false","","","","","[408]","./assets/img/canyon/animals/lion.jpg","[""ArrowLeft""]","revaluation","canyon","26","{""ArrowUp,ArrowLeft"":26,""ArrowUp,ArrowRight"":10,""ArrowDown,ArrowLeft"":5,""ArrowDown,ArrowRight"":17}","true","ArrowUp,ArrowLeft","","original","1","14","","",""
"html-keyboard-response","238","1004819","0.0-4.0-4.0-1.7","spark_pilot_norest","11001","5","7","Male","","","","","","","null","<div style=""font-size:60px;"">+</div>","null","fixation","","","","","","","","","15","","",""
"revaluation","239","1008836","0.0-4.0-4.0-0.8","spark_pilot_norest","11001","5","7","Male","","false","","","","","[470.8999999985099]","./assets/img/canyon/animals/lion.jpg","[""ArrowRight""]","revaluation","canyon","10","{""ArrowUp,ArrowLeft"":26,""ArrowUp,ArrowRight"":10,""ArrowDown,ArrowLeft"":5,""ArrowDown,ArrowRight"":17}","false","ArrowUp,ArrowRight","","original","1","16","","",""
"html-keyboard-response","240","1009339","0.0-4.0-4.0-1.8","spark_pilot_norest","11001","5","7","Male","","","","","","","null","<div style=""font-size:60px;"">+</div>","null","fixation","","","","","","","","","17","","",""
"revaluation","241","1013356","0.0-4.0-4.0-0.9","spark_pilot_norest","11001","5","7","Male","","false","","","","","[794.3000000044703]","./assets/img/canyon/animals/lion.jpg","[""ArrowLeft""]","revaluation","canyon","26","{""ArrowUp,ArrowLeft"":26,""ArrowUp,ArrowRight"":10,""ArrowDown,ArrowLeft"":5,""ArrowDown,ArrowRight"":17}","true","ArrowUp,ArrowLeft","","original","1","18","","",""
"html-keyboard-response","242","1013859","0.0-4.0-4.0-1.9","spark_pilot_norest","11001","5","7","Male","","","","","","","null","<div style=""font-size:60px;"">+</div>","null","fixation","","","","","","","","","19","","",""
"revaluation","243","1017875","0.0-4.0-4.0-0.10","spark_pilot_norest","11001","5","7","Male","","false","","","","","[449.1000000014901]","./assets/img/canyon/animals/lion.jpg","[""ArrowLeft""]","revaluation","canyon","26","{""ArrowUp,ArrowLeft"":26,""ArrowUp,ArrowRight"":10,""ArrowDown,ArrowLeft"":5,""ArrowDown,ArrowRight"":17}","true","ArrowUp,ArrowLeft","","original","1","20","","",""
"html-keyboard-response","244","1018379","0.0-4.0-4.0-1.10","spark_pilot_norest","11001","5","7","Male","","","","","","","null","<div style=""font-size:60px;"">+</div>","null","fixation","","","","","","","","","21","","",""
"revaluation","245","1022396","0.0-4.0-4.0-0.11","spark_pilot_norest","11001","5","7","Male","","false","","","","","[402.90000000596046]","./assets/img/canyon/animals/giraffe.jpg","[""ArrowRight""]","revaluation","canyon","17","{""ArrowUp,ArrowLeft"":26,""ArrowUp,ArrowRight"":10,""ArrowDown,ArrowLeft"":5,""ArrowDown,ArrowRight"":17}","true","ArrowDown,ArrowRight","","original","1","22","","",""
"html-keyboard-response","246","1022900","0.0-4.0-4.0-1.11","spark_pilot_norest","11001","5","7","Male","","","","","","","null","<div style=""font-size:60px;"">+</div>","null","fixation","","","","","","","","","23","","",""
"revaluation","247","1026915","0.0-4.0-4.0-0.12","spark_pilot_norest","11001","5","7","Male","","false","","","","","[690.7000000029802]","./assets/img/canyon/animals/giraffe.jpg","[""ArrowRight""]","revaluation","canyon","17","{""ArrowUp,ArrowLeft"":26,""ArrowUp,ArrowRight"":10,""ArrowDown,ArrowLeft"":5,""ArrowDown,ArrowRight"":17}","true","ArrowDown,ArrowRight","","original","1","24","","",""
"html-keyboard-response","248","1027419","0.0-4.0-4.0-1.12","spark_pilot_norest","11001","5","7","Male","","","","","","","null","<div style=""font-size:60px;"">+</div>","null","fixation","","","","","","","","","25","","",""
"revaluation","249","1031435","0.0-4.0-4.0-0.13","spark_pilot_norest","11001","5","7","Male","","false","","","","","[820.2999999970198]","./assets/img/canyon/animals/giraffe.jpg","[""ArrowRight""]","revaluation","canyon","17","{""ArrowUp,ArrowLeft"":26,""ArrowUp,ArrowRight"":10,""ArrowDown,ArrowLeft"":5,""ArrowDown,ArrowRight"":17}","true","ArrowDown,ArrowRight","","original","1","26","","",""
"html-keyboard-response","250","1031939","0.0-4.0-4.0-1.13","spark_pilot_norest","11001","5","7","Male","","","","","","","null","<div style=""font-size:60px;"">+</div>","null","fixation","","","","","","","","","27","","",""
"revaluation","251","1035955","0.0-4.0-4.0-0.14","spark_pilot_norest","11001","5","7","Male","","false","","","","","[569.7000000029802]","./assets/img/canyon/animals/giraffe.jpg","[""ArrowRight""]","revaluation","canyon","17","{""ArrowUp,ArrowLeft"":26,""ArrowUp,ArrowRight"":10,""ArrowDown,ArrowLeft"":5,""ArrowDown,ArrowRight"":17}","true","ArrowDown,ArrowRight","","original","1","28","","",""
"html-keyboard-response","252","1036459","0.0-4.0-4.0-1.14","spark_pilot_norest","11001","5","7","Male","","","","","","","null","<div style=""font-size:60px;"">+</div>","null","fixation","","","","","","","","","29","","",""
"revaluation","253","1040475","0.0-4.0-4.0-0.15","spark_pilot_norest","11001","5","7","Male","","false","","","","","[734.8999999985099]","./assets/img/canyon/animals/lion.jpg","[""ArrowLeft""]","revaluation","canyon","26","{""ArrowUp,ArrowLeft"":26,""ArrowUp,ArrowRight"":10,""ArrowDown,ArrowLeft"":5,""ArrowDown,ArrowRight"":17}","true","ArrowUp,ArrowLeft","","original","1","30","","",""
"html-keyboard-response","254","1040979","0.0-4.0-4.0-1.15","spark_pilot_norest","11001","5","7","Male","","","","","","","null","<div style=""font-size:60px;"">+</div>","null","fixation","","","","","","","","","31","","",""
"revaluation","255","1044995","0.0-4.0-4.0-0.16","spark_pilot_norest","11001","5","7","Male","","false","","","","","[691.1000000014901]","./assets/img/canyon/animals/lion.jpg","[""ArrowLeft""]","revaluation","canyon","26","{""ArrowUp,ArrowLeft"":26,""ArrowUp,ArrowRight"":10,""ArrowDown,ArrowLeft"":5,""ArrowDown,ArrowRight"":17}","true","ArrowUp,ArrowLeft","","original","1","32","","",""
"html-keyboard-response","256","1045499","0.0-4.0-4.0-1.16","spark_pilot_norest","11001","5","7","Male","","","","","","","null","<div style=""font-size:60px;"">+</div>","null","fixation","","","","","","","","","33","","",""
"revaluation","257","1049515","0.0-4.0-4.0-0.17","spark_pilot_norest","11001","5","7","Male","","false","","","","","[491.59999999403954]","./assets/img/canyon/animals/giraffe.jpg","[""ArrowRight""]","revaluation","canyon","17","{""ArrowUp,ArrowLeft"":26,""ArrowUp,ArrowRight"":10,""ArrowDown,ArrowLeft"":5,""ArrowDown,ArrowRight"":17}","true","ArrowDown,ArrowRight","","original","1","34","","",""
"html-keyboard-response","258","1050019","0.0-4.0-4.0-1.17","spark_pilot_norest","11001","5","7","Male","","","","","","","null","<div style=""font-size:60px;"">+</div>","null","fixation","","","","","","","","","35","","",""
"learning-instructions","259","1058211","0.0-4.0-5.0-0.0","spark_pilot_norest","11001","5","7","Male","","","","","","","null","<p> You have almost finished this part of the game! </p>
            <p> We are going to ask you to make a few more choices. </p>","","instructions","","","","","","","","","","","",""
"learning-instructions","260","1074187","0.0-4.0-5.0-0.1","spark_pilot_norest","11001","5","7","Male","","","","","","","null","<p> First, you need to decide whether to go up or down. When you see each picture, use the arrow keys to make your choice. </p>
            <p><b>You will not see which animal you found, but try to get to the one that will give you the most treasure.</b></p>","","instructions","","","","","","","","","","","",""
"html-keyboard-response","261","1075195","0.0-4.0-6.0-0.0","spark_pilot_norest","11001","5","7","Male","","","","","","","null","<div style=""font-size:100px;color:red;"">Starting in...</div>","null","","","","","","","","","","","","",""
"html-keyboard-response","262","1076203","0.0-4.0-6.0-1.0","spark_pilot_norest","11001","5","7","Male","","","","","","","null","<div style=""font-size:200px;color:red;"">3</div>","null","","","","","","","","","","","","",""
"html-keyboard-response","263","1077211","0.0-4.0-6.0-2.0","spark_pilot_norest","11001","5","7","Male","","","","","","","null","<div style=""font-size:200px;color:red;"">2</div>","null","","","","","","","","","","","","",""
"html-keyboard-response","264","1078219","0.0-4.0-6.0-3.0","spark_pilot_norest","11001","5","7","Male","","","","","","","null","<div style=""font-size:200px;color:red;"">1</div>","null","","","","","","","","","","","","",""
"revaluation","265","1078875","0.0-4.0-7.0-0.0","spark_pilot_norest","11001","5","7","Male","","false","","","","","[653.1000000014901]","./assets/img/canyon/test/3.jpg","[""ArrowUp""]","first stage test","canyon","0","{""ArrowUp,ArrowLeft"":26,""ArrowUp,ArrowRight"":10,""ArrowDown,ArrowLeft"":5,""ArrowDown,ArrowRight"":17}","true","ArrowUp","false","original","1","","","",""
"html-keyboard-response","266","1079379","0.0-4.0-7.0-1.0","spark_pilot_norest","11001","5","7","Male","","","","","","","null","<div style=""font-size:60px;"">+</div>","null","fixation","","","","","","","","","","","",""
"revaluation","267","1080150","0.0-4.0-7.0-0.1","spark_pilot_norest","11001","5","7","Male","","false","","","","","[767.8000000044703]","./assets/img/canyon/test/0.jpg","[""ArrowUp""]","first stage test","canyon","0","{""ArrowUp,ArrowLeft"":26,""ArrowUp,ArrowRight"":10,""ArrowDown,ArrowLeft"":5,""ArrowDown,ArrowRight"":17}","true","ArrowUp","false","original","1","","","",""
"html-keyboard-response","268","1080660","0.0-4.0-7.0-1.1","spark_pilot_norest","11001","5","7","Male","","","","","","","null","<div style=""font-size:60px;"">+</div>","null","fixation","","","","","","","","","","","",""
"revaluation","269","1081287","0.0-4.0-7.0-0.2","spark_pilot_norest","11001","5","7","Male","","false","","","","","[622.8999999985099]","./assets/img/canyon/test/2.jpg","[""ArrowUp""]","first stage test","canyon","0","{""ArrowUp,ArrowLeft"":26,""ArrowUp,ArrowRight"":10,""ArrowDown,ArrowLeft"":5,""ArrowDown,ArrowRight"":17}","true","ArrowUp","false","original","1","","","",""
"html-keyboard-response","270","1081795","0.0-4.0-7.0-1.2","spark_pilot_norest","11001","5","7","Male","","","","","","","null","<div style=""font-size:60px;"">+</div>","null","fixation","","","","","","","","","","","",""
"revaluation","271","1082343","0.0-4.0-7.0-0.3","spark_pilot_norest","11001","5","7","Male","","false","","","","","[543.2999999970198]","./assets/img/canyon/test/1.jpg","[""ArrowUp""]","first stage test","canyon","0","{""ArrowUp,ArrowLeft"":26,""ArrowUp,ArrowRight"":10,""ArrowDown,ArrowLeft"":5,""ArrowDown,ArrowRight"":17}","true","ArrowUp","false","original","1","","","",""
"html-keyboard-response","272","1082851","0.0-4.0-7.0-1.3","spark_pilot_norest","11001","5","7","Male","","","","","","","null","<div style=""font-size:60px;"">+</div>","null","fixation","","","","","","","","","","","",""
"learning-instructions","273","1096203","0.0-4.0-8.0-0.0","spark_pilot_norest","11001","5","7","Male","","","","","","","null","<p> Now you will see the animals again and can search their chests for treasure. </p>
            <p> This time, you will not see how much treasure you earned, but you will earn more bonus money for making better choices. </p>","","instructions","","","","","","","","","","","",""
"html-keyboard-response","274","1097211","0.0-4.0-9.0-0.0","spark_pilot_norest","11001","5","7","Male","","","","","","","null","<div style=""font-size:100px;color:red;"">Starting in...</div>","null","","","","","","","","","","","","",""
"html-keyboard-response","275","1098219","0.0-4.0-9.0-1.0","spark_pilot_norest","11001","5","7","Male","","","","","","","null","<div style=""font-size:200px;color:red;"">3</div>","null","","","","","","","","","","","","",""
"html-keyboard-response","276","1099227","0.0-4.0-9.0-2.0","spark_pilot_norest","11001","5","7","Male","","","","","","","null","<div style=""font-size:200px;color:red;"">2</div>","null","","","","","","","","","","","","",""
"html-keyboard-response","277","1100235","0.0-4.0-9.0-3.0","spark_pilot_norest","11001","5","7","Male","","","","","","","null","<div style=""font-size:200px;color:red;"">1</div>","null","","","","","","","","","","","","",""
"revaluation","278","1101535","0.0-4.0-10.0-0.0","spark_pilot_norest","11001","5","7","Male","","false","","","","","[1291.3999999985099]","./assets/img/canyon/animals/lion.jpg","[""ArrowRight""]","second stage test","canyon","0","{""ArrowUp,ArrowLeft"":26,""ArrowUp,ArrowRight"":10,""ArrowDown,ArrowLeft"":5,""ArrowDown,ArrowRight"":17}","false","ArrowUp,ArrowRight","","original","1","","","",""
"html-keyboard-response","279","1102043","0.0-4.0-10.0-1.0","spark_pilot_norest","11001","5","7","Male","","","","","","","null","<div style=""font-size:60px;"">+</div>","null","fixation","","","","","","","","","","","",""
"revaluation","280","1102717","0.0-4.0-10.0-0.1","spark_pilot_norest","11001","5","7","Male","","false","","","","","[669.3999999985099]","./assets/img/canyon/animals/lion.jpg","[""ArrowLeft""]","second stage test","canyon","0","{""ArrowUp,ArrowLeft"":26,""ArrowUp,ArrowRight"":10,""ArrowDown,ArrowLeft"":5,""ArrowDown,ArrowRight"":17}","true","ArrowUp,ArrowLeft","","original","1","","","",""
"html-keyboard-response","281","1103219","0.0-4.0-10.0-1.1","spark_pilot_norest","11001","5","7","Male","","","","","","","null","<div style=""font-size:60px;"">+</div>","null","fixation","","","","","","","","","","","",""
"revaluation","282","1103745","0.0-4.0-10.0-0.2","spark_pilot_norest","11001","5","7","Male","","false","","","","","[520.7000000029802]","./assets/img/canyon/animals/lion.jpg","[""ArrowLeft""]","second stage test","canyon","0","{""ArrowUp,ArrowLeft"":26,""ArrowUp,ArrowRight"":10,""ArrowDown,ArrowLeft"":5,""ArrowDown,ArrowRight"":17}","true","ArrowUp,ArrowLeft","","original","1","","","",""
"html-keyboard-response","283","1104251","0.0-4.0-10.0-1.2","spark_pilot_norest","11001","5","7","Male","","","","","","","null","<div style=""font-size:60px;"">+</div>","null","fixation","","","","","","","","","","","",""
"revaluation","284","1104672","0.0-4.0-10.0-0.3","spark_pilot_norest","11001","5","7","Male","","false","","","","","[417.69999999552965]","./assets/img/canyon/animals/lion.jpg","[""ArrowLeft""]","second stage test","canyon","0","{""ArrowUp,ArrowLeft"":26,""ArrowUp,ArrowRight"":10,""ArrowDown,ArrowLeft"":5,""ArrowDown,ArrowRight"":17}","true","ArrowUp,ArrowLeft","","original","1","","","",""
"html-keyboard-response","285","1105179","0.0-4.0-10.0-1.3","spark_pilot_norest","11001","5","7","Male","","","","","","","null","<div style=""font-size:60px;"">+</div>","null","fixation","","","","","","","","","","","",""
"revaluation","286","1106025","0.0-4.0-10.0-0.4","spark_pilot_norest","11001","5","7","Male","","false","","","","","[841.7999999970198]","./assets/img/canyon/animals/giraffe.jpg","[""ArrowRight""]","second stage test","canyon","0","{""ArrowUp,ArrowLeft"":26,""ArrowUp,ArrowRight"":10,""ArrowDown,ArrowLeft"":5,""ArrowDown,ArrowRight"":17}","true","ArrowDown,ArrowRight","","original","1","","","",""
"html-keyboard-response","287","1106531","0.0-4.0-10.0-1.4","spark_pilot_norest","11001","5","7","Male","","","","","","","null","<div style=""font-size:60px;"">+</div>","null","fixation","","","","","","","","","","","",""
"revaluation","288","1107017","0.0-4.0-10.0-0.5","spark_pilot_norest","11001","5","7","Male","","false","","","","","[483.5]","./assets/img/canyon/animals/giraffe.jpg","[""ArrowRight""]","second stage test","canyon","0","{""ArrowUp,ArrowLeft"":26,""ArrowUp,ArrowRight"":10,""ArrowDown,ArrowLeft"":5,""ArrowDown,ArrowRight"":17}","true","ArrowDown,ArrowRight","","original","1","","","",""
"html-keyboard-response","289","1107523","0.0-4.0-10.0-1.5","spark_pilot_norest","11001","5","7","Male","","","","","","","null","<div style=""font-size:60px;"">+</div>","null","fixation","","","","","","","","","","","",""
"revaluation","290","1108343","0.0-4.0-10.0-0.6","spark_pilot_norest","11001","5","7","Male","","false","","","","","[815.2999999970198]","./assets/img/canyon/animals/giraffe.jpg","[""ArrowRight""]","second stage test","canyon","0","{""ArrowUp,ArrowLeft"":26,""ArrowUp,ArrowRight"":10,""ArrowDown,ArrowLeft"":5,""ArrowDown,ArrowRight"":17}","true","ArrowDown,ArrowRight","","original","1","","","",""
"html-keyboard-response","291","1108851","0.0-4.0-10.0-1.6","spark_pilot_norest","11001","5","7","Male","","","","","","","null","<div style=""font-size:60px;"">+</div>","null","fixation","","","","","","","","","","","",""
"revaluation","292","1109954","0.0-4.0-10.0-0.7","spark_pilot_norest","11001","5","7","Male","","false","","","","","[1099.8999999985099]","./assets/img/canyon/animals/giraffe.jpg","[""ArrowRight""]","second stage test","canyon","0","{""ArrowUp,ArrowLeft"":26,""ArrowUp,ArrowRight"":10,""ArrowDown,ArrowLeft"":5,""ArrowDown,ArrowRight"":17}","true","ArrowDown,ArrowRight","","original","1","","","",""
"html-keyboard-response","293","1110459","0.0-4.0-10.0-1.7","spark_pilot_norest","11001","5","7","Male","","","","","","","null","<div style=""font-size:60px;"">+</div>","null","fixation","","","","","","","","","","","",""
"learning-instructions","294","1114557","0.0-4.0-0.1-0.2","spark_pilot_norest","11001","5","7","Male","","","","","","","1382.2000000029802","<p> This time you are searching for treasure in the <b>ocean</b>.</p>","","instructions","","","","","","","","","","","",""
"learning-instructions","295","1135385","0.0-4.0-0.1-0.3","spark_pilot_norest","11001","5","7","Male","","","","","","","3576","<p><b>New</b> animals with <b>new</b> treasure chests live here. You need to explore to discover where the animal with the best treasure chest is.</p>
                    <p> Like before, once you figure out which animal has the chest with the most treasure, you should try to get to that animal and select that chest! </p>","","instructions","","","","","","","","","","","",""
"learning-instructions","296","1153212","0.0-4.0-1.1-0.1","spark_pilot_norest","11001","5","7","Male","","","","","","","3098.1999999955297","<p> Remember, when you see a picture of the place, use the up and down keys to <b>find an animal</b>.</p>
            <p> When you encounter an animal, you should use the left and right keys to <b>select a treasure chest</b>.</p>
            <p> Don't forget to look out for the robber! </p>","","instructions","","","","","","","","","","","",""
"revaluation","297","1159235","0.0-4.0-2.1-0.50","spark_pilot_norest","11001","5","7","Male","","false","","","","","[914.2000000029802,763.1000000014901]","./assets/img/ocean/memory/38.jpg","[""ArrowUp"",""ArrowRight""]","value training","ocean","10","{""ArrowUp,ArrowLeft"":23,""ArrowUp,ArrowRight"":10,""ArrowDown,ArrowLeft"":8,""ArrowDown,ArrowRight"":30}","false","ArrowUp,ArrowRight","false","revaluation","2","0","","",""
"html-keyboard-response","298","1159739","0.0-4.0-2.1-1.50","spark_pilot_norest","11001","5","7","Male","","","","","","","null","<div style=""font-size:60px;"">+</div>","null","fixation","","","","","","","","","1","","",""
"revaluation","299","1165763","0.0-4.0-2.1-0.51","spark_pilot_norest","11001","5","7","Male","","false","","","","","[418.30000000447035,481.29999999701977]","./assets/img/ocean/memory/16.jpg","[""ArrowUp"",""ArrowLeft""]","value training","ocean","23","{""ArrowUp,ArrowLeft"":23,""ArrowUp,ArrowRight"":10,""ArrowDown,ArrowLeft"":8,""ArrowDown,ArrowRight"":30}","false","ArrowUp,ArrowLeft","false","revaluation","2","2","","",""
"html-keyboard-response","300","1166267","0.0-4.0-2.1-1.51","spark_pilot_norest","11001","5","7","Male","","","","","","","null","<div style=""font-size:60px;"">+</div>","null","fixation","","","","","","","","","3","","",""
"revaluation","301","1172291","0.0-4.0-2.1-0.52","spark_pilot_norest","11001","5","7","Male","","false","","","","","[320.30000000447035,433.79999999701977]","./assets/img/ocean/memory/16.jpg","[""ArrowDown"",""ArrowRight""]","value training","ocean","30","{""ArrowUp,ArrowLeft"":23,""ArrowUp,ArrowRight"":10,""ArrowDown,ArrowLeft"":8,""ArrowDown,ArrowRight"":30}","true","ArrowDown,ArrowRight","false","revaluation","2","4","","",""
"html-keyboard-response","302","1172795","0.0-4.0-2.1-1.52","spark_pilot_norest","11001","5","7","Male","","","","","","","null","<div style=""font-size:60px;"">+</div>","null","fixation","","","","","","","","","5","","",""
"revaluation","303","1178819","0.0-4.0-2.1-0.53","spark_pilot_norest","11001","5","7","Male","","false","","","","","[795.2999999970198,378.70000000298023]","./assets/img/ocean/memory/2.jpg","[""ArrowDown"",""ArrowLeft""]","value training","ocean","8","{""ArrowUp,ArrowLeft"":23,""ArrowUp,ArrowRight"":10,""ArrowDown,ArrowLeft"":8,""ArrowDown,ArrowRight"":30}","false","ArrowDown,ArrowLeft","false","revaluation","2","6","","",""
"html-keyboard-response","304","1179323","0.0-4.0-2.1-1.53","spark_pilot_norest","11001","5","7","Male","","","","","","","null","<div style=""font-size:60px;"">+</div>","null","fixation","","","","","","","","","7","","",""
"revaluation","305","1183339","0.0-4.0-2.1-0.54","spark_pilot_norest","11001","5","7","Male","","false","","","","","[382]","./assets/img/ocean/catch/7.jpg","[""ArrowDown""]","value training","ocean","-10","{""ArrowUp,ArrowLeft"":23,""ArrowUp,ArrowRight"":10,""ArrowDown,ArrowLeft"":8,""ArrowDown,ArrowRight"":30}","false","ArrowDown","true","revaluation","2","8","","",""
"html-keyboard-response","306","1183843","0.0-4.0-2.1-1.54","spark_pilot_norest","11001","5","7","Male","","","","","","","null","<div style=""font-size:60px;"">+</div>","null","fixation","","","","","","","","","9","","",""
"revaluation","307","1189868","0.0-4.0-2.1-0.55","spark_pilot_norest","11001","5","7","Male","","false","","","","","[570,490.70000000298023]","./assets/img/ocean/memory/17.jpg","[""ArrowDown"",""ArrowRight""]","value training","ocean","30","{""ArrowUp,ArrowLeft"":23,""ArrowUp,ArrowRight"":10,""ArrowDown,ArrowLeft"":8,""ArrowDown,ArrowRight"":30}","true","ArrowDown,ArrowRight","false","revaluation","2","10","","",""
"html-keyboard-response","308","1190371","0.0-4.0-2.1-1.55","spark_pilot_norest","11001","5","7","Male","","","","","","","null","<div style=""font-size:60px;"">+</div>","null","fixation","","","","","","","","","11","","",""
"revaluation","309","1196396","0.0-4.0-2.1-0.56","spark_pilot_norest","11001","5","7","Male","","false","","","","","[635.3999999985099,934.7000000029802]","./assets/img/ocean/memory/36.jpg","[""ArrowDown"",""ArrowRight""]","value training","ocean","30","{""ArrowUp,ArrowLeft"":23,""ArrowUp,ArrowRight"":10,""ArrowDown,ArrowLeft"":8,""ArrowDown,ArrowRight"":30}","true","ArrowDown,ArrowRight","false","revaluation","2","12","","",""
"html-keyboard-response","310","1196899","0.0-4.0-2.1-1.56","spark_pilot_norest","11001","5","7","Male","","","","","","","null","<div style=""font-size:60px;"">+</div>","null","fixation","","","","","","","","","13","","",""
"revaluation","311","1202923","0.0-4.0-2.1-0.57","spark_pilot_norest","11001","5","7","Male","","false","","","","","[617,659.8999999985099]","./assets/img/ocean/memory/23.jpg","[""ArrowDown"",""ArrowRight""]","value training","ocean","30","{""ArrowUp,ArrowLeft"":23,""ArrowUp,ArrowRight"":10,""ArrowDown,ArrowLeft"":8,""ArrowDown,ArrowRight"":30}","true","ArrowDown,ArrowRight","false","revaluation","2","14","","",""
"html-keyboard-response","312","1203427","0.0-4.0-2.1-1.57","spark_pilot_norest","11001","5","7","Male","","","","","","","null","<div style=""font-size:60px;"">+</div>","null","fixation","","","","","","","","","15","","",""
"revaluation","313","1209451","0.0-4.0-2.1-0.58","spark_pilot_norest","11001","5","7","Male","","false","","","","","[645.6000000014901,576.2999999970198]","./assets/img/ocean/memory/33.jpg","[""ArrowDown"",""ArrowRight""]","value training","ocean","30","{""ArrowUp,ArrowLeft"":23,""ArrowUp,ArrowRight"":10,""ArrowDown,ArrowLeft"":8,""ArrowDown,ArrowRight"":30}","true","ArrowDown,ArrowRight","false","revaluation","2","16","","",""
