"trial_type","trial_index","time_elapsed","internal_node_id","task_version","subject_id","assigned_condition","age","gender","success","timeout","failed_images","failed_audio","failed_video","browser_interaction","rt","stimulus","response","task_part","environment","score","rewardMap","correct","fullState","isCatch","condition","order","trial_num","key_press","ground_truth","bonus"
"pavlovia","0","1802","0.0-0.0","spark_pilot_norest","8422","7","9","Female","","","","","","","","","","","","","","","","","","","","","",""
"preload","1","5220","0.0-1.0","spark_pilot_norest","8422","7","9","Female","true","false","[]","[]","[]","[{""event"":""fullscreenenter"",""trial"":2,""time"":8334}]","","","","","","","","","","","","","","","",""
"fullscreen","2","9317","0.0-2.0","spark_pilot_norest","8422","7","9","Female","true","","","","","","","","","","","","","","","","","","","","",""
"audio-button-response","3","11208","0.0-3.0-0.0-0.0","spark_pilot_norest","8422","7","9","Female","","","","","","","1821","./assets/audio/audiotest/turtle.mp3","2","audio_test","","","","","","","","","","","",""
"learning-instructions","4","20853","0.0-3.0-1.0-0.0","spark_pilot_norest","8422","7","9","Female","","","","","","","2650","<p> Welcome! Please remember to stay in fullscreen mode and don't click away from the experiment. </p>","","instructions","","","","","","","","","","","",""
"learning-instructions","5","31273","0.0-3.0-1.0-0.1","spark_pilot_norest","8422","7","9","Female","","","","","","","1970","<p> Today you will be playing a game to earn treasure. </p>
            <p> At the end of the experiment, you will earn a bonus based on how much treasure you find. </p>
            <img src='./assets/img/instructions/treasure.jpg' class='instructions-image'>","","instructions","","","","","","","","","","","",""
"learning-instructions","6","40963","0.0-3.0-1.0-0.2","spark_pilot_norest","8422","7","9","Female","","","","","","","1400.3999999985099","<p> Animals have hidden treasure in treasure chests. </p>
            <p> You need to first find an animal and then choose which of their treasure chests to search. </p>
            <img src='./assets/img/space/animals/cat.jpg' class='instructions-image'>","","instructions","","","","","","","","","","","",""
"learning-instructions","7","55353","0.0-3.0-1.0-0.3","spark_pilot_norest","8422","7","9","Female","","","","","","","1199","<p> In each round, you will search for treasure in a different place. In the real game, there will be two rounds. </p>
            <p> You will begin with a separate, practice round where you will search for treasure in outer space. </p>
            <img src='./assets/img/space/0.jpg' class='instructions-image'>","","instructions","","","","","","","","","","","",""
"learning-instructions","8","68363","0.0-3.0-1.0-0.4","spark_pilot_norest","8422","7","9","Female","","","","","","","1570.7000000029802","<p> On every turn, you will see a picture of the place that you are in, but the specific image may be different each time. </p>
            <p> For example, both of these images mean you are in outer space. </p>
            <img src='./assets/img/instructions/outerspace.jpg' class='instructions-image'>","","instructions","","","","","","","","","","","",""
"learning-instructions","9","77311","0.0-3.0-1.0-0.5","spark_pilot_norest","8422","7","9","Female","","","","","","","1087.3000000044703","<p> You need to decide which direction to travel in. </p>
            <p> You can choose between going <b>up or down</b> by using the arrow keys. </p>
            <img src='./assets/img/instructions/updown.jpg' class='instructions-image'>","","instructions","","","","","","","","","","","",""
"learning-instructions","10","88193","0.0-3.0-1.0-0.6","spark_pilot_norest","8422","7","9","Female","","","","","","","2040.2000000029802","<p> You will have <b>2 seconds</b> to make your choice. </p>
            <p> If you do not make a choice within 2 seconds, you will not find an animal or earn treasure. </p>
            <img src='./assets/img/instructions/2seconds.jpg' class='instructions-image'>","","instructions","","","","","","","","","","","",""
"learning-instructions","11","97936","0.0-3.0-1.0-0.7","spark_pilot_norest","8422","7","9","Female","","","","","","","2673.8000000044703","<p> Let’s try practicing that now! </p>
            <p> When you see a picture of the place you are in, press the <b>up</b> key to travel up. </p>
            <img src='./assets/img/instructions/pressUp.jpg' class='instructions-image'>","","instructions","","","","","","","","","","","",""
"revaluation","12","101966","0.0-3.0-2.0-0.0","spark_pilot_norest","8422","7","9","Female","","false","","","","","[762.3000000044703]","./assets/img/space/0.jpg","[""ArrowUp""]","first stage practice","space","0","null","null","ArrowUp","false","","","","","",""
"html-keyboard-response","13","102481","0.0-3.0-2.0-1.0","spark_pilot_norest","8422","7","9","Female","","","","","","","null","<div style=""font-size:60px;"">+</div>","null","fixation","","","","","","","","","","","",""
"revaluation","14","106511","0.0-3.0-2.0-0.1","spark_pilot_norest","8422","7","9","Female","","false","","","","","[996.1999999955297]","./assets/img/space/1.jpg","[""ArrowUp""]","first stage practice","space","0","null","null","ArrowUp","false","","","","","",""
"html-keyboard-response","15","107031","0.0-3.0-2.0-1.1","spark_pilot_norest","8422","7","9","Female","","","","","","","null","<div style=""font-size:60px;"">+</div>","null","fixation","","","","","","","","","","","",""
"revaluation","16","111051","0.0-3.0-2.0-0.2","spark_pilot_norest","8422","7","9","Female","","true","","","","","[]","./assets/img/space/2.jpg","[]","first stage practice","space","-5","null","null","","false","","","","","",""
"html-keyboard-response","17","111561","0.0-3.0-2.0-1.2","spark_pilot_norest","8422","7","9","Female","","","","","","","null","<div style=""font-size:60px;"">+</div>","null","fixation","","","","","","","","","","","",""
"learning-instructions","18","118396","0.0-3.0-3.0-0.0","spark_pilot_norest","8422","7","9","Female","","","","","","","2113.10000000149","<p> Great job! Now try pressing the <b>down</b> key to travel down. </p>
            <img src='./assets/img/instructions/pressDown.jpg' class='instructions-image'>","","instructions","","","","","","","","","","","",""
"revaluation","19","122412","0.0-3.0-4.0-0.0","spark_pilot_norest","8422","7","9","Female","","false","","","","","[560.7999999970198]","./assets/img/space/3.jpg","[""ArrowDown""]","first stage practice","space","0","null","null","ArrowDown","false","","","","","",""
"html-keyboard-response","20","122919","0.0-3.0-4.0-1.0","spark_pilot_norest","8422","7","9","Female","","","","","","","null","<div style=""font-size:60px;"">+</div>","null","fixation","","","","","","","","","","","",""
"revaluation","21","126951","0.0-3.0-4.0-0.1","spark_pilot_norest","8422","7","9","Female","","false","","","","","[1048.3999999985099]","./assets/img/space/4.jpg","[""ArrowDown""]","first stage practice","space","0","null","null","ArrowDown","false","","","","","",""
"html-keyboard-response","22","127461","0.0-3.0-4.0-1.1","spark_pilot_norest","8422","7","9","Female","","","","","","","null","<div style=""font-size:60px;"">+</div>","null","fixation","","","","","","","","","","","",""
"revaluation","23","131501","0.0-3.0-4.0-0.2","spark_pilot_norest","8422","7","9","Female","","false","","","","","[644.5]","./assets/img/space/5.jpg","[""ArrowDown""]","first stage practice","space","0","null","null","ArrowDown","false","","","","","",""
"html-keyboard-response","24","132010","0.0-3.0-4.0-1.2","spark_pilot_norest","8422","7","9","Female","","","","","","","null","<div style=""font-size:60px;"">+</div>","null","fixation","","","","","","","","","","","",""
"learning-instructions","25","143990","0.0-3.0-5.0-0.0","spark_pilot_norest","8422","7","9","Female","","","","","","","2087.6999999955297","<p> The animals don’t move, so the animal in the upper part of a place will stay in the upper part of a place, and the animal in the lower part of a place will stay in the lower part of a place. </p>","","instructions","","","","","","","","","","","",""
"learning-instructions","26","154538","0.0-3.0-5.0-0.1","spark_pilot_norest","8422","7","9","Female","","","","","","","1385.9000000059605","<p> Each animal has two treasure chests for you to choose from. </p>
            <p> The amount of treasure in each chest can range from <b> 0 to 40 pieces.</b></p>","","instructions","","","","","","","","","","","",""
"learning-instructions","27","167692","0.0-3.0-5.0-0.2","spark_pilot_norest","8422","7","9","Female","","","","","","","1929.7999999970198","<p> You should decide which chest to search for treasure by using the <b>left</b> and <b>right</b> arrow keys. </p>
            <p><b> Pay attention to which animal is on the screen, as the animals have different treasure chests. </b></p>
            <img src='./assets/img/instructions/leftright.jpg' class='instructions-image'>","","instructions","","","","","","","","","","","",""
"learning-instructions","28","175489","0.0-3.0-5.0-0.3","spark_pilot_norest","8422","7","9","Female","","","","","","","1406.3999999985099","<p> Let’s try practicing that now. </p>
            <p> When you see an animal, choose which chest to search for treasure. </p>
            <img src='./assets/img/instructions/chooseChest.jpg' class='instructions-image'>","","instructions","","","","","","","","","","","",""
"revaluation","29","179517","0.0-3.0-6.0-0.0","spark_pilot_norest","8422","7","9","Female","","false","","","","","[833.1000000014901]","./assets/img/space/animals/rabbit.jpg","[""ArrowRight""]","second stage practice","space","23","{""ArrowUp,ArrowLeft"":3,""ArrowUp,ArrowRight"":36,""ArrowDown,ArrowLeft"":15,""ArrowDown,ArrowRight"":23}","true","ArrowDown,ArrowRight","","","","","","",""
"html-keyboard-response","30","180021","0.0-3.0-6.0-1.0","spark_pilot_norest","8422","7","9","Female","","","","","","","null","<div style=""font-size:60px;"">+</div>","null","fixation","","","","","","","","","","","",""
"revaluation","31","184052","0.0-3.0-6.0-0.1","spark_pilot_norest","8422","7","9","Female","","false","","","","","[444.20000000298023]","./assets/img/space/animals/cat.jpg","[""ArrowRight""]","second stage practice","space","36","{""ArrowUp,ArrowLeft"":3,""ArrowUp,ArrowRight"":36,""ArrowDown,ArrowLeft"":15,""ArrowDown,ArrowRight"":23}","true","ArrowUp,ArrowRight","","","","","","",""
"html-keyboard-response","32","184561","0.0-3.0-6.0-1.1","spark_pilot_norest","8422","7","9","Female","","","","","","","null","<div style=""font-size:60px;"">+</div>","null","fixation","","","","","","","","","","","",""
"revaluation","33","188572","0.0-3.0-6.0-0.2","spark_pilot_norest","8422","7","9","Female","","false","","","","","[689.5]","./assets/img/space/animals/cat.jpg","[""ArrowRight""]","second stage practice","space","36","{""ArrowUp,ArrowLeft"":3,""ArrowUp,ArrowRight"":36,""ArrowDown,ArrowLeft"":15,""ArrowDown,ArrowRight"":23}","true","ArrowUp,ArrowRight","","","","","","",""
"html-keyboard-response","34","189091","0.0-3.0-6.0-1.2","spark_pilot_norest","8422","7","9","Female","","","","","","","null","<div style=""font-size:60px;"">+</div>","null","fixation","","","","","","","","","","","",""
"revaluation","35","193121","0.0-3.0-6.0-0.3","spark_pilot_norest","8422","7","9","Female","","false","","","","","[461.79999999701977]","./assets/img/space/animals/rabbit.jpg","[""ArrowRight""]","second stage practice","space","23","{""ArrowUp,ArrowLeft"":3,""ArrowUp,ArrowRight"":36,""ArrowDown,ArrowLeft"":15,""ArrowDown,ArrowRight"":23}","true","ArrowDown,ArrowRight","","","","","","",""
"html-keyboard-response","36","193641","0.0-3.0-6.0-1.3","spark_pilot_norest","8422","7","9","Female","","","","","","","null","<div style=""font-size:60px;"">+</div>","null","fixation","","","","","","","","","","","",""
"learning-instructions","37","212371","0.0-3.0-7.0-0.0","spark_pilot_norest","8422","7","9","Female","","","","","","","1889.5","<p> Great job. Now let’s try putting it together. </p>
            <p> On each turn, you will first see a picture to remind you of the place you are in, and you need to choose whether to go up or down. </p>
            <p> Then you will see an animal and choose which of its chests to search for treasure. </p>","","instructions","","","","","","","","","","","",""
"learning-instructions","38","221349","0.0-3.0-7.0-0.1","spark_pilot_norest","8422","7","9","Female","","","","","","","686.1999999955297","<p> When you choose whether to go up or down, try to go to the animal with the chest with the most treasure. </p>
            <p> Try practicing that now! </p>","","instructions","","","","","","","","","","","",""
"revaluation","39","227391","0.0-3.0-8.0-0.0","spark_pilot_norest","8422","7","9","Female","","false","","","","","[835.6000000014901,956.5]","./assets/img/space/6.jpg","[""ArrowUp"",""ArrowLeft""]","full practice","space","3","{""ArrowUp,ArrowLeft"":3,""ArrowUp,ArrowRight"":36,""ArrowDown,ArrowLeft"":15,""ArrowDown,ArrowRight"":23}","false","ArrowUp,ArrowLeft","false","","","","","",""
"html-keyboard-response","40","227911","0.0-3.0-8.0-1.0","spark_pilot_norest","8422","7","9","Female","","","","","","","null","<div style=""font-size:60px;"">+</div>","null","fixation","","","","","","","","","","","",""
"revaluation","41","233942","0.0-3.0-8.0-0.1","spark_pilot_norest","8422","7","9","Female","","false","","","","","[691.6000000014901,282.1000000014901]","./assets/img/space/7.jpg","[""ArrowUp"",""ArrowRight""]","full practice","space","36","{""ArrowUp,ArrowLeft"":3,""ArrowUp,ArrowRight"":36,""ArrowDown,ArrowLeft"":15,""ArrowDown,ArrowRight"":23}","true","ArrowUp,ArrowRight","false","","","","","",""
"html-keyboard-response","42","234461","0.0-3.0-8.0-1.1","spark_pilot_norest","8422","7","9","Female","","","","","","","null","<div style=""font-size:60px;"">+</div>","null","fixation","","","","","","","","","","","",""
"revaluation","43","240512","0.0-3.0-8.0-0.2","spark_pilot_norest","8422","7","9","Female","","false","","","","","[452.19999999552965,350.3999999985099]","./assets/img/space/8.jpg","[""ArrowDown"",""ArrowRight""]","full practice","space","23","{""ArrowUp,ArrowLeft"":3,""ArrowUp,ArrowRight"":36,""ArrowDown,ArrowLeft"":15,""ArrowDown,ArrowRight"":23}","false","ArrowDown,ArrowRight","false","","","","","",""
"html-keyboard-response","44","241031","0.0-3.0-8.0-1.2","spark_pilot_norest","8422","7","9","Female","","","","","","","null","<div style=""font-size:60px;"">+</div>","null","fixation","","","","","","","","","","","",""
"revaluation","45","247082","0.0-3.0-8.0-0.3","spark_pilot_norest","8422","7","9","Female","","false","","","","","[335.30000000447035,640.1000000014901]","./assets/img/space/9.jpg","[""ArrowDown"",""ArrowLeft""]","full practice","space","15","{""ArrowUp,ArrowLeft"":3,""ArrowUp,ArrowRight"":36,""ArrowDown,ArrowLeft"":15,""ArrowDown,ArrowRight"":23}","false","ArrowDown,ArrowLeft","false","","","","","",""
"html-keyboard-response","46","247591","0.0-3.0-8.0-1.3","spark_pilot_norest","8422","7","9","Female","","","","","","","null","<div style=""font-size:60px;"">+</div>","null","fixation","","","","","","","","","","","",""
"revaluation","47","253605","0.0-3.0-8.0-0.4","spark_pilot_norest","8422","7","9","Female","","false","","","","","[271.70000000298023,478.79999999701977]","./assets/img/space/10.jpg","[""ArrowUp"",""ArrowRight""]","full practice","space","36","{""ArrowUp,ArrowLeft"":3,""ArrowUp,ArrowRight"":36,""ArrowDown,ArrowLeft"":15,""ArrowDown,ArrowRight"":23}","true","ArrowUp,ArrowRight","false","","","","","",""
"html-keyboard-response","48","254114","0.0-3.0-8.0-1.4","spark_pilot_norest","8422","7","9","Female","","","","","","","null","<div style=""font-size:60px;"">+</div>","null","fixation","","","","","","","","","","","",""
"learning-instructions","49","266850","0.0-3.0-9.0-0.0","spark_pilot_norest","8422","7","9","Female","","","","","","","2389.7999999970198","<p> One last thing: sometimes, you will see a robber. The robber can be anywhere in the picture. </p>
            <p> If you do not stop them, you will lose treasure. </p>
            <img src='./assets/img/instructions/robber.jpg' class='instructions-image'>","","instructions","","","","","","","","","","","",""
"learning-instructions","50","275534","0.0-3.0-9.0-0.1","spark_pilot_norest","8422","7","9","Female","","","","","","","1484.5","<p> If you see the robber, you should <b>press the space bar</b> rather than using the arrow keys. </p>
            <p> Try practicing that now! </p>","","instructions","","","","","","","","","","","",""
"revaluation","51","279558","0.0-3.0-10.0-0.0","spark_pilot_norest","8422","7","9","Female","","false","","","","","[1069.6999999955297]","./assets/img/space/catch/0.jpg","[""spaceBar""]","catch practice","space","0","{""ArrowUp,ArrowLeft"":3,""ArrowUp,ArrowRight"":36,""ArrowDown,ArrowLeft"":15,""ArrowDown,ArrowRight"":23}","true","spaceBar","true","","","","","",""
"html-keyboard-response","52","280068","0.0-3.0-10.0-1.0","spark_pilot_norest","8422","7","9","Female","","","","","","","null","<div style=""font-size:60px;"">+</div>","null","fixation","","","","","","","","","","","",""
"revaluation","53","284107","0.0-3.0-10.0-0.1","spark_pilot_norest","8422","7","9","Female","","false","","","","","[606.3999999985099]","./assets/img/space/catch/1.jpg","[""spaceBar""]","catch practice","space","0","{""ArrowUp,ArrowLeft"":3,""ArrowUp,ArrowRight"":36,""ArrowDown,ArrowLeft"":15,""ArrowDown,ArrowRight"":23}","true","spaceBar","true","","","","","",""
"html-keyboard-response","54","284618","0.0-3.0-10.0-1.1","spark_pilot_norest","8422","7","9","Female","","","","","","","null","<div style=""font-size:60px;"">+</div>","null","fixation","","","","","","","","","","","",""
"revaluation","55","288648","0.0-3.0-10.0-0.2","spark_pilot_norest","8422","7","9","Female","","false","","","","","[593.2999999970198]","./assets/img/space/catch/2.jpg","[""spaceBar""]","catch practice","space","0","{""ArrowUp,ArrowLeft"":3,""ArrowUp,ArrowRight"":36,""ArrowDown,ArrowLeft"":15,""ArrowDown,ArrowRight"":23}","true","spaceBar","true","","","","","",""
"html-keyboard-response","56","289158","0.0-3.0-10.0-1.2","spark_pilot_norest","8422","7","9","Female","","","","","","","null","<div style=""font-size:60px;"">+</div>","null","fixation","","","","","","","","","","","",""
"learning-instructions","57","295790","0.0-3.0-11.0-0.0-0.0","spark_pilot_norest","8422","7","9","Female","","","","","","","1330.5","<p> Now, you will practice a shortened version of the game to get a sense of how it all fits together. </p>","","instructions","","","","","","","","","","","",""
"learning-instructions","58","299793","0.0-3.0-11.0-0.0-0.1","spark_pilot_norest","8422","7","9","Female","","","","","","","782.8999999985099","<p>This time you are searching for treasure in outer space.</p>","","instructions","","","","","","","","","","","",""
"learning-instructions","59","316985","0.0-3.0-11.0-1.0-0.0","spark_pilot_norest","8422","7","9","Female","","","","","","","2395.5","<p> Remember, when you see a picture of the place, use the up and down keys to <b>find an animal</b>.</p>
            <p> When you encounter an animal, you should use the left and right keys to <b>select a treasure chest</b>.</p>
            <p> Don't forget to look out for the robber! </p>","","instructions","","","","","","","","","","","",""
"revaluation","60","323038","0.0-3.0-11.0-2.0-0.0","spark_pilot_norest","8422","7","9","Female","","false","","","","","[1922.1000000014901,1155.8000000044703]","./assets/img/space/11.jpg","[""ArrowUp"",""ArrowRight""]","practice block","space","36","{""ArrowUp,ArrowLeft"":3,""ArrowUp,ArrowRight"":36,""ArrowDown,ArrowLeft"":15,""ArrowDown,ArrowRight"":23}","true","ArrowUp,ArrowRight","false","","","","","",""
"html-keyboard-response","61","323558","0.0-3.0-11.0-2.0-1.0","spark_pilot_norest","8422","7","9","Female","","","","","","","null","<div style=""font-size:60px;"">+</div>","null","fixation","","","","","","","","","","","",""
"revaluation","62","329588","0.0-3.0-11.0-2.0-0.1","spark_pilot_norest","8422","7","9","Female","","false","","","","","[1028.3999999985099,352.80000000447035]","./assets/img/space/12.jpg","[""ArrowUp"",""ArrowRight""]","practice block","space","36","{""ArrowUp,ArrowLeft"":3,""ArrowUp,ArrowRight"":36,""ArrowDown,ArrowLeft"":15,""ArrowDown,ArrowRight"":23}","true","ArrowUp,ArrowRight","false","","","","","",""
"html-keyboard-response","63","330108","0.0-3.0-11.0-2.0-1.1","spark_pilot_norest","8422","7","9","Female","","","","","","","null","<div style=""font-size:60px;"">+</div>","null","fixation","","","","","","","","","","","",""
"revaluation","64","336166","0.0-3.0-11.0-2.0-0.2","spark_pilot_norest","8422","7","9","Female","","false","","","","","[544.6000000014901,395.5]","./assets/img/space/13.jpg","[""ArrowUp"",""ArrowRight""]","practice block","space","36","{""ArrowUp,ArrowLeft"":3,""ArrowUp,ArrowRight"":36,""ArrowDown,ArrowLeft"":15,""ArrowDown,ArrowRight"":23}","true","ArrowUp,ArrowRight","false","","","","","",""
"html-keyboard-response","65","336678","0.0-3.0-11.0-2.0-1.2","spark_pilot_norest","8422","7","9","Female","","","","","","","null","<div style=""font-size:60px;"">+</div>","null","fixation","","","","","","","","","","","",""
"revaluation","66","342710","0.0-3.0-11.0-2.0-0.3","spark_pilot_norest","8422","7","9","Female","","false","","","","","[527.5,366]","./assets/img/space/14.jpg","[""ArrowUp"",""ArrowRight""]","practice block","space","36","{""ArrowUp,ArrowLeft"":3,""ArrowUp,ArrowRight"":36,""ArrowDown,ArrowLeft"":15,""ArrowDown,ArrowRight"":23}","true","ArrowUp,ArrowRight","false","","","","","",""
"html-keyboard-response","67","343228","0.0-3.0-11.0-2.0-1.3","spark_pilot_norest","8422","7","9","Female","","","","","","","null","<div style=""font-size:60px;"">+</div>","null","fixation","","","","","","","","","","","",""
"revaluation","68","349239","0.0-3.0-11.0-2.0-0.4","spark_pilot_norest","8422","7","9","Female","","false","","","","","[946.3999999985099,405.20000000298023]","./assets/img/space/11.jpg","[""ArrowUp"",""ArrowRight""]","practice block","space","36","{""ArrowUp,ArrowLeft"":3,""ArrowUp,ArrowRight"":36,""ArrowDown,ArrowLeft"":15,""ArrowDown,ArrowRight"":23}","true","ArrowUp,ArrowRight","false","","","","","",""
"html-keyboard-response","69","349748","0.0-3.0-11.0-2.0-1.4","spark_pilot_norest","8422","7","9","Female","","","","","","","null","<div style=""font-size:60px;"">+</div>","null","fixation","","","","","","","","","","","",""
"revaluation","70","355761","0.0-3.0-11.0-2.0-0.5","spark_pilot_norest","8422","7","9","Female","","false","","","","","[816.7999999970198,322.80000000447035]","./assets/img/space/12.jpg","[""ArrowUp"",""ArrowRight""]","practice block","space","36","{""ArrowUp,ArrowLeft"":3,""ArrowUp,ArrowRight"":36,""ArrowDown,ArrowLeft"":15,""ArrowDown,ArrowRight"":23}","true","ArrowUp,ArrowRight","false","","","","","",""
"html-keyboard-response","71","356270","0.0-3.0-11.0-2.0-1.5","spark_pilot_norest","8422","7","9","Female","","","","","","","null","<div style=""font-size:60px;"">+</div>","null","fixation","","","","","","","","","","","",""
"revaluation","72","362285","0.0-3.0-11.0-2.0-0.6","spark_pilot_norest","8422","7","9","Female","","false","","","","","[620.8999999985099,355]","./assets/img/space/13.jpg","[""ArrowUp"",""ArrowRight""]","practice block","space","36","{""ArrowUp,ArrowLeft"":3,""ArrowUp,ArrowRight"":36,""ArrowDown,ArrowLeft"":15,""ArrowDown,ArrowRight"":23}","true","ArrowUp,ArrowRight","false","","","","","",""
"html-keyboard-response","73","362793","0.0-3.0-11.0-2.0-1.6","spark_pilot_norest","8422","7","9","Female","","","","","","","null","<div style=""font-size:60px;"">+</div>","null","fixation","","","","","","","","","","","",""
"revaluation","74","368815","0.0-3.0-11.0-2.0-0.7","spark_pilot_norest","8422","7","9","Female","","false","","","","","[778.3999999985099,571.3999999985099]","./assets/img/space/14.jpg","[""ArrowUp"",""ArrowRight""]","practice block","space","36","{""ArrowUp,ArrowLeft"":3,""ArrowUp,ArrowRight"":36,""ArrowDown,ArrowLeft"":15,""ArrowDown,ArrowRight"":23}","true","ArrowUp,ArrowRight","false","","","","","",""
"html-keyboard-response","75","369320","0.0-3.0-11.0-2.0-1.7","spark_pilot_norest","8422","7","9","Female","","","","","","","null","<div style=""font-size:60px;"">+</div>","null","fixation","","","","","","","","","","","",""
"revaluation","76","373341","0.0-3.0-11.0-2.0-0.8","spark_pilot_norest","8422","7","9","Female","","false","","","","","[998.8000000044703]","./assets/img/space/catch/3.jpg","[""spaceBar""]","practice block","space","0","{""ArrowUp,ArrowLeft"":3,""ArrowUp,ArrowRight"":36,""ArrowDown,ArrowLeft"":15,""ArrowDown,ArrowRight"":23}","true","spaceBar","true","","","","","",""
"html-keyboard-response","77","373848","0.0-3.0-11.0-2.0-1.8","spark_pilot_norest","8422","7","9","Female","","","","","","","null","<div style=""font-size:60px;"">+</div>","null","fixation","","","","","","","","","","","",""
"learning-instructions","78","389061","0.0-3.0-11.0-3.0-0.0","spark_pilot_norest","8422","7","9","Female","","","","","","","2250","<p> Now, you will travel with a friend who will choose whether you go up or down first. </p>
            <p> On these turns, you will just see the animal that they found. You will still get to choose which chest to search for treasure.</p>","","instructions","","","","","","","","","","","",""
"revaluation","79","393090","0.0-3.0-11.0-4.0-0.0","spark_pilot_norest","8422","7","9","Female","","false","","","","","[757.6000000014901]","./assets/img/space/animals/rabbit.jpg","[""ArrowRight""]","practice block","space","23","{""ArrowUp,ArrowLeft"":3,""ArrowUp,ArrowRight"":36,""ArrowDown,ArrowLeft"":15,""ArrowDown,ArrowRight"":23}","true","ArrowDown,ArrowRight","","","","","","",""
"html-keyboard-response","80","393599","0.0-3.0-11.0-4.0-1.0","spark_pilot_norest","8422","7","9","Female","","","","","","","null","<div style=""font-size:60px;"">+</div>","null","fixation","","","","","","","","","","","",""
"revaluation","81","397640","0.0-3.0-11.0-4.0-0.1","spark_pilot_norest","8422","7","9","Female","","false","","","","","[423.20000000298023]","./assets/img/space/animals/cat.jpg","[""ArrowRight""]","practice block","space","36","{""ArrowUp,ArrowLeft"":3,""ArrowUp,ArrowRight"":36,""ArrowDown,ArrowLeft"":15,""ArrowDown,ArrowRight"":23}","true","ArrowUp,ArrowRight","","","","","","",""
"html-keyboard-response","82","398159","0.0-3.0-11.0-4.0-1.1","spark_pilot_norest","8422","7","9","Female","","","","","","","null","<div style=""font-size:60px;"">+</div>","null","fixation","","","","","","","","","","","",""
"revaluation","83","402190","0.0-3.0-11.0-4.0-0.2","spark_pilot_norest","8422","7","9","Female","","false","","","","","[481]","./assets/img/space/animals/cat.jpg","[""ArrowRight""]","practice block","space","36","{""ArrowUp,ArrowLeft"":3,""ArrowUp,ArrowRight"":36,""ArrowDown,ArrowLeft"":15,""ArrowDown,ArrowRight"":23}","true","ArrowUp,ArrowRight","","","","","","",""
"html-keyboard-response","84","402710","0.0-3.0-11.0-4.0-1.2","spark_pilot_norest","8422","7","9","Female","","","","","","","null","<div style=""font-size:60px;"">+</div>","null","fixation","","","","","","","","","","","",""
"revaluation","85","406750","0.0-3.0-11.0-4.0-0.3","spark_pilot_norest","8422","7","9","Female","","false","","","","","[371]","./assets/img/space/animals/rabbit.jpg","[""ArrowRight""]","practice block","space","23","{""ArrowUp,ArrowLeft"":3,""ArrowUp,ArrowRight"":36,""ArrowDown,ArrowLeft"":15,""ArrowDown,ArrowRight"":23}","true","ArrowDown,ArrowRight","","","","","","",""
"html-keyboard-response","86","407270","0.0-3.0-11.0-4.0-1.3","spark_pilot_norest","8422","7","9","Female","","","","","","","null","<div style=""font-size:60px;"">+</div>","null","fixation","","","","","","","","","","","",""
"learning-instructions","87","415439","0.0-3.0-11.0-5.0-0.0","spark_pilot_norest","8422","7","9","Female","","","","","","","null","<p> You have almost finished this part of the game! </p>
            <p> We are going to ask you to make a few more choices. </p>","","instructions","","","","","","","","","","","",""
"learning-instructions","88","431499","0.0-3.0-11.0-5.0-0.1","spark_pilot_norest","8422","7","9","Female","","","","","","","null","<p> First, you need to decide whether to go up or down. When you see each picture, use the arrow keys to make your choice. </p>
            <p><b>You will not see which animal you found, but try to get to the one that will give you the most treasure.</b></p>","","instructions","","","","","","","","","","","",""
"html-keyboard-response","89","432520","0.0-3.0-11.0-6.0-0.0","spark_pilot_norest","8422","7","9","Female","","","","","","","null","<div style=""font-size:100px;color:red;"">Starting in...</div>","null","","","","","","","","","","","","",""
"html-keyboard-response","90","433530","0.0-3.0-11.0-6.0-1.0","spark_pilot_norest","8422","7","9","Female","","","","","","","null","<div style=""font-size:200px;color:red;"">3</div>","null","","","","","","","","","","","","",""
"html-keyboard-response","91","434540","0.0-3.0-11.0-6.0-2.0","spark_pilot_norest","8422","7","9","Female","","","","","","","null","<div style=""font-size:200px;color:red;"">2</div>","null","","","","","","","","","","","","",""
"html-keyboard-response","92","435559","0.0-3.0-11.0-6.0-3.0","spark_pilot_norest","8422","7","9","Female","","","","","","","null","<div style=""font-size:200px;color:red;"">1</div>","null","","","","","","","","","","","","",""
"revaluation","93","436799","0.0-3.0-11.0-7.0","spark_pilot_norest","8422","7","9","Female","","false","","","","","[1237.1999999955297]","./assets/img/space/15.jpg","[""ArrowUp""]","practice block","space","0","{""ArrowUp,ArrowLeft"":3,""ArrowUp,ArrowRight"":36,""ArrowDown,ArrowLeft"":15,""ArrowDown,ArrowRight"":23}","true","ArrowUp","false","","","","","",""
"html-keyboard-response","94","437306","0.0-3.0-11.0-8.0","spark_pilot_norest","8422","7","9","Female","","","","","","","null","<div style=""font-size:60px;"">+</div>","null","fixation","","","","","","","","","","","",""
"learning-instructions","95","450725","0.0-3.0-11.0-9.0-0.0","spark_pilot_norest","8422","7","9","Female","","","","","","","null","<p> Now you will see the animals again and can search their chests for treasure. </p>
            <p> This time, you will not see how much treasure you earned, but you will earn more bonus money for making better choices. </p>","","instructions","","","","","","","","","","","",""
"html-keyboard-response","96","451740","0.0-3.0-11.0-10.0-0.0","spark_pilot_norest","8422","7","9","Female","","","","","","","null","<div style=""font-size:100px;color:red;"">Starting in...</div>","null","","","","","","","","","","","","",""
"html-keyboard-response","97","452748","0.0-3.0-11.0-10.0-1.0","spark_pilot_norest","8422","7","9","Female","","","","","","","null","<div style=""font-size:200px;color:red;"">3</div>","null","","","","","","","","","","","","",""
"html-keyboard-response","98","453750","0.0-3.0-11.0-10.0-2.0","spark_pilot_norest","8422","7","9","Female","","","","","","","null","<div style=""font-size:200px;color:red;"">2</div>","null","","","","","","","","","","","","",""
"html-keyboard-response","99","454770","0.0-3.0-11.0-10.0-3.0","spark_pilot_norest","8422","7","9","Female","","","","","","","null","<div style=""font-size:200px;color:red;"">1</div>","null","","","","","","","","","","","","",""
"revaluation","100","455750","0.0-3.0-11.0-11.0-0.0","spark_pilot_norest","8422","7","9","Female","","false","","","","","[975.6000000014901]","./assets/img/space/animals/cat.jpg","[""ArrowRight""]","practice block","space","0","{""ArrowUp,ArrowLeft"":3,""ArrowUp,ArrowRight"":36,""ArrowDown,ArrowLeft"":15,""ArrowDown,ArrowRight"":23}","true","ArrowUp,ArrowRight","","","","","","",""
"html-keyboard-response","101","456269","0.0-3.0-11.0-11.0-1.0","spark_pilot_norest","8422","7","9","Female","","","","","","","null","<div style=""font-size:60px;"">+</div>","null","fixation","","","","","","","","","","","",""
"revaluation","102","457222","0.0-3.0-11.0-11.0-0.1","spark_pilot_norest","8422","7","9","Female","","false","","","","","[947.8000000044703]","./assets/img/space/animals/rabbit.jpg","[""ArrowRight""]","practice block","space","0","{""ArrowUp,ArrowLeft"":3,""ArrowUp,ArrowRight"":36,""ArrowDown,ArrowLeft"":15,""ArrowDown,ArrowRight"":23}","true","ArrowDown,ArrowRight","","","","","","",""
"html-keyboard-response","103","457730","0.0-3.0-11.0-11.0-1.1","spark_pilot_norest","8422","7","9","Female","","","","","","","null","<div style=""font-size:60px;"">+</div>","null","fixation","","","","","","","","","","","",""
"learning-instructions","104","464961","0.0-3.0-12.0-0.0","spark_pilot_norest","8422","7","9","Female","","","","","","","2630.7000000029802","<p> Before you start, we're going to ask you a few questions about how the game works. </p>","","instructions","","","","","","","","","","","",""
"comp-q","105","472257","0.0-3.0-13.0-0.0-0.0","spark_pilot_norest","8422","7","9","Female","","","","","","","1680.6999999955297","<p> <b> True or False? </b> </p>
            <p> There can be 50 pieces of treasure in a given animal's chest. </p>","1","comp_question","","","","true","","","","","","","",""
"comp-q","106","479844","0.0-3.0-13.0-0.0-1.0","spark_pilot_norest","8422","7","9","Female","","","","","","","903.1999999955297","<p> <b> That's right! </b> The amount of treasure in each chest can range from 0 to 40 pieces. </p>","0","comp_answer","","","","","","","","","","","",""
"comp-q","107","488530","0.0-3.0-13.0-0.1-0.1","spark_pilot_norest","8422","7","9","Female","","","","","","","1548.7999999970198","<p> <b> True or False? </b> </p><p> In this game, all animals have the same amount of treasure in their left and right chests. </p>","1","comp_question","","","","true","","","","","","","",""
"comp-q","108","496861","0.0-3.0-13.0-0.1-1.1","spark_pilot_norest","8422","7","9","Female","","","","","","","3077.89999999851","<p> <b> That's right! </b> Animals have different amounts of treasure in their treasure chests. </p>","0","comp_answer","","","","","","","","","","","",""
"comp-q","109","503833","0.0-3.0-13.0-0.2-0.2","spark_pilot_norest","8422","7","9","Female","","","","","","","1111.6000000014901","<p> <b> True or False? </b> </p><p> The same animal will always be there if you go up in the same place. </p>","0","comp_question","","","","true","","","","","","","",""
"comp-q","110","511952","0.0-3.0-13.0-0.2-1.2","spark_pilot_norest","8422","7","9","Female","","","","","","","1640.9000000059605","<p> <b> That's right! </b> One animal lives in the upper part and one lives in the lower part of every place. </p>","0","comp_answer","","","","","","","","","","","",""
"comp-q","111","518666","0.0-3.0-13.0-0.3-0.3","spark_pilot_norest","8422","7","9","Female","","","","","","","1154.2000000029802","<p> <b> True or False? </b> </p><p> If you see a different picture, it means you are in a new place. </p>","0","comp_question","","","","false","","","","","","","",""
"comp-q","112","531719","0.0-3.0-13.0-0.3-1.3","spark_pilot_norest","8422","7","9","Female","","","","","","","1927.5999999940395","<p> <b>Incorrect.</b> Lots of different images may show the same place. For example,  you may see three different images that all remind you that you are in outer space. </p>","0","comp_answer","","","","","","","","","","","",""
"comp-q","113","539126","0.0-3.0-13.0-0.4-0.4","spark_pilot_norest","8422","7","9","Female","","","","","","","1904.7000000029802","<p> <b> True or False? </b> </p><p> If you see a different picture, it means you are in a new place. </p>","1","comp_question","","","","true","","","","","","","",""
"comp-q","114","553975","0.0-3.0-13.0-0.4-1.4","spark_pilot_norest","8422","7","9","Female","","","","","","","3593.10000000149","<p> <b> That's right! </b> Lots of different images may show the same place. For example,  you may see three different images that all remind you that you are in outer space. </p>","0","comp_answer","","","","","","","","","","","",""
"learning-instructions","115","567414","0.0-3.0-14.0-0.0","spark_pilot_norest","8422","7","9","Female","","","","","","","3553","<p> Good job. Remember to do your best because the amount of treasure you earn will be converted into bonus money. </p>
            <p> It’s time to start the real game! </p>","","instructions","","","","","","","","","","","",""
"learning-instructions","116","573297","0.0-4.0-0.0-0.0","spark_pilot_norest","8422","7","9","Female","","","","","","","3095.39999999851","<p> This time you are searching for treasure in the <b>canyon</b>.</p>","","instructions","","","","","","","","","","","",""
"learning-instructions","117","592116","0.0-4.0-0.0-0.1","spark_pilot_norest","8422","7","9","Female","","","","","","","1494.6999999955297","<p><b>New</b> animals with <b>new</b> treasure chests live here. You need to explore to discover where the animal with the best treasure chest is.</p>
                    <p> Like before, once you figure out which animal has the chest with the most treasure, you should try to get to that animal and select that chest! </p>","","instructions","","","","","","","","","","","",""
"learning-instructions","118","607974","0.0-4.0-1.0-0.0","spark_pilot_norest","8422","7","9","Female","","","","","","","1133.2000000029802","<p> Remember, when you see a picture of the place, use the up and down keys to <b>find an animal</b>.</p>
            <p> When you encounter an animal, you should use the left and right keys to <b>select a treasure chest</b>.</p>
            <p> Don't forget to look out for the robber! </p>","","instructions","","","","","","","","","","","",""
"revaluation","119","614007","0.0-4.0-2.0-0.0","spark_pilot_norest","8422","7","9","Female","","false","","","","","[1831.1000000014901,833.9000000059605]","./assets/img/canyon/memory/35.jpg","[""ArrowUp"",""ArrowRight""]","value training","canyon","10","{""ArrowUp,ArrowLeft"":23,""ArrowUp,ArrowRight"":10,""ArrowDown,ArrowLeft"":8,""ArrowDown,ArrowRight"":30}","false","ArrowUp,ArrowRight","false","original","1","0","","",""
"html-keyboard-response","120","614517","0.0-4.0-2.0-1.0","spark_pilot_norest","8422","7","9","Female","","","","","","","null","<div style=""font-size:60px;"">+</div>","null","fixation","","","","","","","","","1","","",""
"revaluation","121","618547","0.0-4.0-2.0-0.1","spark_pilot_norest","8422","7","9","Female","","false","","","","","[432]","./assets/img/canyon/catch/3.jpg","[""ArrowUp""]","value training","canyon","-10","{""ArrowUp,ArrowLeft"":23,""ArrowUp,ArrowRight"":10,""ArrowDown,ArrowLeft"":8,""ArrowDown,ArrowRight"":30}","false","ArrowUp","true","original","1","2","","",""
"html-keyboard-response","122","619068","0.0-4.0-2.0-1.1","spark_pilot_norest","8422","7","9","Female","","","","","","","null","<div style=""font-size:60px;"">+</div>","null","fixation","","","","","","","","","3","","",""
"revaluation","123","625107","0.0-4.0-2.0-0.2","spark_pilot_norest","8422","7","9","Female","","false","","","","","[1227.1000000014901,1308.2999999970198]","./assets/img/canyon/memory/16.jpg","[""ArrowUp"",""ArrowLeft""]","value training","canyon","23","{""ArrowUp,ArrowLeft"":23,""ArrowUp,ArrowRight"":10,""ArrowDown,ArrowLeft"":8,""ArrowDown,ArrowRight"":30}","false","ArrowUp,ArrowLeft","false","original","1","4","","",""
"html-keyboard-response","124","625617","0.0-4.0-2.0-1.2","spark_pilot_norest","8422","7","9","Female","","","","","","","null","<div style=""font-size:60px;"">+</div>","null","fixation","","","","","","","","","5","","",""
"revaluation","125","631668","0.0-4.0-2.0-0.3","spark_pilot_norest","8422","7","9","Female","","false","","","","","[726.2999999970198,815.0999999940395]","./assets/img/canyon/memory/18.jpg","[""ArrowDown"",""ArrowLeft""]","value training","canyon","8","{""ArrowUp,ArrowLeft"":23,""ArrowUp,ArrowRight"":10,""ArrowDown,ArrowLeft"":8,""ArrowDown,ArrowRight"":30}","false","ArrowDown,ArrowLeft","false","original","1","6","","",""
"html-keyboard-response","126","632177","0.0-4.0-2.0-1.3","spark_pilot_norest","8422","7","9","Female","","","","","","","null","<div style=""font-size:60px;"">+</div>","null","fixation","","","","","","","","","7","","",""
"revaluation","127","638214","0.0-4.0-2.0-0.4","spark_pilot_norest","8422","7","9","Female","","false","","","","","[855.5,378.6000000014901]","./assets/img/canyon/memory/2.jpg","[""ArrowDown"",""ArrowRight""]","value training","canyon","30","{""ArrowUp,ArrowLeft"":23,""ArrowUp,ArrowRight"":10,""ArrowDown,ArrowLeft"":8,""ArrowDown,ArrowRight"":30}","true","ArrowDown,ArrowRight","false","original","1","8","","",""
"html-keyboard-response","128","638721","0.0-4.0-2.0-1.4","spark_pilot_norest","8422","7","9","Female","","","","","","","null","<div style=""font-size:60px;"">+</div>","null","fixation","","","","","","","","","9","","",""
"revaluation","129","644740","0.0-4.0-2.0-0.5","spark_pilot_norest","8422","7","9","Female","","false","","","","","[794.8000000044703,482.6000000014901]","./assets/img/canyon/memory/32.jpg","[""ArrowDown"",""ArrowRight""]","value training","canyon","30","{""ArrowUp,ArrowLeft"":23,""ArrowUp,ArrowRight"":10,""ArrowDown,ArrowLeft"":8,""ArrowDown,ArrowRight"":30}","true","ArrowDown,ArrowRight","false","original","1","10","","",""
"html-keyboard-response","130","645255","0.0-4.0-2.0-1.5","spark_pilot_norest","8422","7","9","Female","","","","","","","null","<div style=""font-size:60px;"">+</div>","null","fixation","","","","","","","","","11","","",""
"revaluation","131","651277","0.0-4.0-2.0-0.6","spark_pilot_norest","8422","7","9","Female","","false","","","","","[873.6000000014901,302.3999999985099]","./assets/img/canyon/memory/19.jpg","[""ArrowDown"",""ArrowRight""]","value training","canyon","30","{""ArrowUp,ArrowLeft"":23,""ArrowUp,ArrowRight"":10,""ArrowDown,ArrowLeft"":8,""ArrowDown,ArrowRight"":30}","true","ArrowDown,ArrowRight","false","original","1","12","","",""
"html-keyboard-response","132","651787","0.0-4.0-2.0-1.6","spark_pilot_norest","8422","7","9","Female","","","","","","","null","<div style=""font-size:60px;"">+</div>","null","fixation","","","","","","","","","13","","",""
"revaluation","133","657797","0.0-4.0-2.0-0.7","spark_pilot_norest","8422","7","9","Female","","false","","","","","[940.8999999985099,476.1000000014901]","./assets/img/canyon/memory/17.jpg","[""ArrowDown"",""ArrowRight""]","value training","canyon","30","{""ArrowUp,ArrowLeft"":23,""ArrowUp,ArrowRight"":10,""ArrowDown,ArrowLeft"":8,""ArrowDown,ArrowRight"":30}","true","ArrowDown,ArrowRight","false","original","1","14","","",""
"html-keyboard-response","134","658307","0.0-4.0-2.0-1.7","spark_pilot_norest","8422","7","9","Female","","","","","","","null","<div style=""font-size:60px;"">+</div>","null","fixation","","","","","","","","","15","","",""
"revaluation","135","664329","0.0-4.0-2.0-0.8","spark_pilot_norest","8422","7","9","Female","","false","","","","","[806,1816.7000000029802]","./assets/img/canyon/memory/29.jpg","[""ArrowDown"",""ArrowRight""]","value training","canyon","30","{""ArrowUp,ArrowLeft"":23,""ArrowUp,ArrowRight"":10,""ArrowDown,ArrowLeft"":8,""ArrowDown,ArrowRight"":30}","true","ArrowDown,ArrowRight","false","original","1","16","","",""
"html-keyboard-response","136","664838","0.0-4.0-2.0-1.8","spark_pilot_norest","8422","7","9","Female","","","","","","","null","<div style=""font-size:60px;"">+</div>","null","fixation","","","","","","","","","17","","",""
"revaluation","137","670860","0.0-4.0-2.0-0.9","spark_pilot_norest","8422","7","9","Female","","false","","","","","[1042.6000000014901,389.3999999985099]","./assets/img/canyon/memory/4.jpg","[""ArrowDown"",""ArrowRight""]","value training","canyon","30","{""ArrowUp,ArrowLeft"":23,""ArrowUp,ArrowRight"":10,""ArrowDown,ArrowLeft"":8,""ArrowDown,ArrowRight"":30}","true","ArrowDown,ArrowRight","false","original","1","18","","",""
"html-keyboard-response","138","671370","0.0-4.0-2.0-1.9","spark_pilot_norest","8422","7","9","Female","","","","","","","null","<div style=""font-size:60px;"">+</div>","null","fixation","","","","","","","","","19","","",""
"revaluation","139","677384","0.0-4.0-2.0-0.10","spark_pilot_norest","8422","7","9","Female","","false","","","","","[670.5,273]","./assets/img/canyon/memory/35.jpg","[""ArrowDown"",""ArrowRight""]","value training","canyon","30","{""ArrowUp,ArrowLeft"":23,""ArrowUp,ArrowRight"":10,""ArrowDown,ArrowLeft"":8,""ArrowDown,ArrowRight"":30}","true","ArrowDown,ArrowRight","false","original","1","20","","",""
"html-keyboard-response","140","677892","0.0-4.0-2.0-1.10","spark_pilot_norest","8422","7","9","Female","","","","","","","null","<div style=""font-size:60px;"">+</div>","null","fixation","","","","","","","","","21","","",""
"revaluation","141","681905","0.0-4.0-2.0-0.11","spark_pilot_norest","8422","7","9","Female","","false","","","","","[959.6000000014901]","./assets/img/canyon/catch/1.jpg","[""spaceBar""]","value training","canyon","0","{""ArrowUp,ArrowLeft"":23,""ArrowUp,ArrowRight"":10,""ArrowDown,ArrowLeft"":8,""ArrowDown,ArrowRight"":30}","true","spaceBar","true","original","1","22","","",""
"html-keyboard-response","142","682414","0.0-4.0-2.0-1.11","spark_pilot_norest","8422","7","9","Female","","","","","","","null","<div style=""font-size:60px;"">+</div>","null","fixation","","","","","","","","","23","","",""
"revaluation","143","688434","0.0-4.0-2.0-0.12","spark_pilot_norest","8422","7","9","Female","","false","","","","","[718.5,673.3999999985099]","./assets/img/canyon/memory/15.jpg","[""ArrowDown"",""ArrowRight""]","value training","canyon","30","{""ArrowUp,ArrowLeft"":23,""ArrowUp,ArrowRight"":10,""ArrowDown,ArrowLeft"":8,""ArrowDown,ArrowRight"":30}","true","ArrowDown,ArrowRight","false","original","1","24","","",""
"html-keyboard-response","144","688944","0.0-4.0-2.0-1.12","spark_pilot_norest","8422","7","9","Female","","","","","","","null","<div style=""font-size:60px;"">+</div>","null","fixation","","","","","","","","","25","","",""
"revaluation","145","694965","0.0-4.0-2.0-0.13","spark_pilot_norest","8422","7","9","Female","","false","","","","","[1828.1000000014901,838.1000000014901]","./assets/img/canyon/memory/39.jpg","[""ArrowDown"",""ArrowRight""]","value training","canyon","30","{""ArrowUp,ArrowLeft"":23,""ArrowUp,ArrowRight"":10,""ArrowDown,ArrowLeft"":8,""ArrowDown,ArrowRight"":30}","true","ArrowDown,ArrowRight","false","original","1","26","","",""
"html-keyboard-response","146","695467","0.0-4.0-2.0-1.13","spark_pilot_norest","8422","7","9","Female","","","","","","","null","<div style=""font-size:60px;"">+</div>","null","fixation","","","","","","","","","27","","",""
"revaluation","147","701487","0.0-4.0-2.0-0.14","spark_pilot_norest","8422","7","9","Female","","false","","","","","[790.1000000014901,357.59999999403954]","./assets/img/canyon/memory/38.jpg","[""ArrowDown"",""ArrowRight""]","value training","canyon","30","{""ArrowUp,ArrowLeft"":23,""ArrowUp,ArrowRight"":10,""ArrowDown,ArrowLeft"":8,""ArrowDown,ArrowRight"":30}","true","ArrowDown,ArrowRight","false","original","1","28","","",""
"html-keyboard-response","148","701990","0.0-4.0-2.0-1.14","spark_pilot_norest","8422","7","9","Female","","","","","","","null","<div style=""font-size:60px;"">+</div>","null","fixation","","","","","","","","","29","","",""
"revaluation","149","708004","0.0-4.0-2.0-0.15","spark_pilot_norest","8422","7","9","Female","","false","","","","","[578.8999999985099,956]","./assets/img/canyon/memory/16.jpg","[""ArrowDown"",""ArrowRight""]","value training","canyon","30","{""ArrowUp,ArrowLeft"":23,""ArrowUp,ArrowRight"":10,""ArrowDown,ArrowLeft"":8,""ArrowDown,ArrowRight"":30}","true","ArrowDown,ArrowRight","false","original","1","30","","",""
"html-keyboard-response","150","708506","0.0-4.0-2.0-1.15","spark_pilot_norest","8422","7","9","Female","","","","","","","null","<div style=""font-size:60px;"">+</div>","null","fixation","","","","","","","","","31","","",""
"revaluation","151","712519","0.0-4.0-2.0-0.16","spark_pilot_norest","8422","7","9","Female","","false","","","","","[1460.8999999985099]","./assets/img/canyon/catch/5.jpg","[""spaceBar""]","value training","canyon","0","{""ArrowUp,ArrowLeft"":23,""ArrowUp,ArrowRight"":10,""ArrowDown,ArrowLeft"":8,""ArrowDown,ArrowRight"":30}","true","spaceBar","true","original","1","32","","",""
"html-keyboard-response","152","713028","0.0-4.0-2.0-1.16","spark_pilot_norest","8422","7","9","Female","","","","","","","null","<div style=""font-size:60px;"">+</div>","null","fixation","","","","","","","","","33","","",""
"revaluation","153","719050","0.0-4.0-2.0-0.17","spark_pilot_norest","8422","7","9","Female","","false","","","","","[1571.2000000029802,532.2000000029802]","./assets/img/canyon/memory/29.jpg","[""ArrowDown"",""ArrowRight""]","value training","canyon","30","{""ArrowUp,ArrowLeft"":23,""ArrowUp,ArrowRight"":10,""ArrowDown,ArrowLeft"":8,""ArrowDown,ArrowRight"":30}","true","ArrowDown,ArrowRight","false","original","1","34","","",""
"html-keyboard-response","154","719560","0.0-4.0-2.0-1.17","spark_pilot_norest","8422","7","9","Female","","","","","","","null","<div style=""font-size:60px;"">+</div>","null","fixation","","","","","","","","","35","","",""
"revaluation","155","725595","0.0-4.0-2.0-0.18","spark_pilot_norest","8422","7","9","Female","","false","","","","","[1406.1000000014901,525.8999999985099]","./assets/img/canyon/memory/23.jpg","[""ArrowDown"",""ArrowRight""]","value training","canyon","30","{""ArrowUp,ArrowLeft"":23,""ArrowUp,ArrowRight"":10,""ArrowDown,ArrowLeft"":8,""ArrowDown,ArrowRight"":30}","true","ArrowDown,ArrowRight","false","original","1","36","","",""
"html-keyboard-response","156","726101","0.0-4.0-2.0-1.18","spark_pilot_norest","8422","7","9","Female","","","","","","","null","<div style=""font-size:60px;"">+</div>","null","fixation","","","","","","","","","37","","",""
"revaluation","157","732113","0.0-4.0-2.0-0.19","spark_pilot_norest","8422","7","9","Female","","false","","","","","[1388.5,820.8999999985099]","./assets/img/canyon/memory/40.jpg","[""ArrowDown"",""ArrowRight""]","value training","canyon","30","{""ArrowUp,ArrowLeft"":23,""ArrowUp,ArrowRight"":10,""ArrowDown,ArrowLeft"":8,""ArrowDown,ArrowRight"":30}","true","ArrowDown,ArrowRight","false","original","1","38","","",""
"html-keyboard-response","158","732622","0.0-4.0-2.0-1.19","spark_pilot_norest","8422","7","9","Female","","","","","","","null","<div style=""font-size:60px;"">+</div>","null","fixation","","","","","","","","","39","","",""
"revaluation","159","738634","0.0-4.0-2.0-0.20","spark_pilot_norest","8422","7","9","Female","","false","","","","","[1894.1999999955297,1057.0999999940395]","./assets/img/canyon/memory/32.jpg","[""ArrowDown"",""ArrowRight""]","value training","canyon","30","{""ArrowUp,ArrowLeft"":23,""ArrowUp,ArrowRight"":10,""ArrowDown,ArrowLeft"":8,""ArrowDown,ArrowRight"":30}","true","ArrowDown,ArrowRight","false","original","1","40","","",""
"html-keyboard-response","160","739151","0.0-4.0-2.0-1.20","spark_pilot_norest","8422","7","9","Female","","","","","","","null","<div style=""font-size:60px;"">+</div>","null","fixation","","","","","","","","","41","","",""
"revaluation","161","743165","0.0-4.0-2.0-0.21","spark_pilot_norest","8422","7","9","Female","","true","","","","","[]","./assets/img/canyon/memory/39.jpg","[]","value training","canyon","-5","{""ArrowUp,ArrowLeft"":23,""ArrowUp,ArrowRight"":10,""ArrowDown,ArrowLeft"":8,""ArrowDown,ArrowRight"":30}","false","","false","original","1","42","","",""
"html-keyboard-response","162","743673","0.0-4.0-2.0-1.21","spark_pilot_norest","8422","7","9","Female","","","","","","","null","<div style=""font-size:60px;"">+</div>","null","fixation","","","","","","","","","43","","",""
"revaluation","163","749688","0.0-4.0-2.0-0.22","spark_pilot_norest","8422","7","9","Female","","false","","","","","[930.2000000029802,1792]","./assets/img/canyon/memory/2.jpg","[""ArrowDown"",""ArrowRight""]","value training","canyon","30","{""ArrowUp,ArrowLeft"":23,""ArrowUp,ArrowRight"":10,""ArrowDown,ArrowLeft"":8,""ArrowDown,ArrowRight"":30}","true","ArrowDown,ArrowRight","false","original","1","44","","",""
"html-keyboard-response","164","750196","0.0-4.0-2.0-1.22","spark_pilot_norest","8422","7","9","Female","","","","","","","null","<div style=""font-size:60px;"">+</div>","null","fixation","","","","","","","","","45","","",""
"revaluation","165","754202","0.0-4.0-2.0-0.23","spark_pilot_norest","8422","7","9","Female","","true","","","","","[]","./assets/img/canyon/memory/9.jpg","[]","value training","canyon","-5","{""ArrowUp,ArrowLeft"":23,""ArrowUp,ArrowRight"":10,""ArrowDown,ArrowLeft"":8,""ArrowDown,ArrowRight"":30}","false","","false","original","1","46","","",""
"html-keyboard-response","166","754719","0.0-4.0-2.0-1.23","spark_pilot_norest","8422","7","9","Female","","","","","","","null","<div style=""font-size:60px;"">+</div>","null","fixation","","","","","","","","","47","","",""
"revaluation","167","760743","0.0-4.0-2.0-0.24","spark_pilot_norest","8422","7","9","Female","","false","","","","","[1007.8000000044703,318.3999999985099]","./assets/img/canyon/memory/28.jpg","[""ArrowDown"",""ArrowRight""]","value training","canyon","30","{""ArrowUp,ArrowLeft"":23,""ArrowUp,ArrowRight"":10,""ArrowDown,ArrowLeft"":8,""ArrowDown,ArrowRight"":30}","true","ArrowDown,ArrowRight","false","original","1","48","","",""
"html-keyboard-response","168","761250","0.0-4.0-2.0-1.24","spark_pilot_norest","8422","7","9","Female","","","","","","","null","<div style=""font-size:60px;"">+</div>","null","fixation","","","","","","","","","49","","",""
"revaluation","169","767268","0.0-4.0-2.0-0.25","spark_pilot_norest","8422","7","9","Female","","false","","","","","[868,229.69999999552965]","./assets/img/canyon/memory/19.jpg","[""ArrowDown"",""ArrowRight""]","value training","canyon","30","{""ArrowUp,ArrowLeft"":23,""ArrowUp,ArrowRight"":10,""ArrowDown,ArrowLeft"":8,""ArrowDown,ArrowRight"":30}","true","ArrowDown,ArrowRight","false","original","1","50","","",""
"html-keyboard-response","170","767776","0.0-4.0-2.0-1.25","spark_pilot_norest","8422","7","9","Female","","","","","","","null","<div style=""font-size:60px;"">+</div>","null","fixation","","","","","","","","","51","","",""
"revaluation","171","773784","0.0-4.0-2.0-0.26","spark_pilot_norest","8422","7","9","Female","","false","","","","","[851.5,802.2000000029802]","./assets/img/canyon/memory/20.jpg","[""ArrowDown"",""ArrowRight""]","value training","canyon","30","{""ArrowUp,ArrowLeft"":23,""ArrowUp,ArrowRight"":10,""ArrowDown,ArrowLeft"":8,""ArrowDown,ArrowRight"":30}","true","ArrowDown,ArrowRight","false","original","1","52","","",""
"html-keyboard-response","172","774291","0.0-4.0-2.0-1.26","spark_pilot_norest","8422","7","9","Female","","","","","","","null","<div style=""font-size:60px;"">+</div>","null","fixation","","","","","","","","","53","","",""
"revaluation","173","780309","0.0-4.0-2.0-0.27","spark_pilot_norest","8422","7","9","Female","","false","","","","","[820.9000000059605,448.3999999985099]","./assets/img/canyon/memory/25.jpg","[""ArrowDown"",""ArrowRight""]","value training","canyon","30","{""ArrowUp,ArrowLeft"":23,""ArrowUp,ArrowRight"":10,""ArrowDown,ArrowLeft"":8,""ArrowDown,ArrowRight"":30}","true","ArrowDown,ArrowRight","false","original","1","54","","",""
"html-keyboard-response","174","780810","0.0-4.0-2.0-1.27","spark_pilot_norest","8422","7","9","Female","","","","","","","null","<div style=""font-size:60px;"">+</div>","null","fixation","","","","","","","","","55","","",""
"revaluation","175","786830","0.0-4.0-2.0-0.28","spark_pilot_norest","8422","7","9","Female","","false","","","","","[1822.1999999955297,810.1000000014901]","./assets/img/canyon/memory/4.jpg","[""ArrowDown"",""ArrowRight""]","value training","canyon","30","{""ArrowUp,ArrowLeft"":23,""ArrowUp,ArrowRight"":10,""ArrowDown,ArrowLeft"":8,""ArrowDown,ArrowRight"":30}","true","ArrowDown,ArrowRight","false","original","1","56","","",""
"html-keyboard-response","176","787332","0.0-4.0-2.0-1.28","spark_pilot_norest","8422","7","9","Female","","","","","","","null","<div style=""font-size:60px;"">+</div>","null","fixation","","","","","","","","","57","","",""
"revaluation","177","793356","0.0-4.0-2.0-0.29","spark_pilot_norest","8422","7","9","Female","","false","","","","","[946.6999999955297,480.5]","./assets/img/canyon/memory/14.jpg","[""ArrowDown"",""ArrowRight""]","value training","canyon","30","{""ArrowUp,ArrowLeft"":23,""ArrowUp,ArrowRight"":10,""ArrowDown,ArrowLeft"":8,""ArrowDown,ArrowRight"":30}","true","ArrowDown,ArrowRight","false","original","1","58","","",""
"html-keyboard-response","178","793864","0.0-4.0-2.0-1.29","spark_pilot_norest","8422","7","9","Female","","","","","","","null","<div style=""font-size:60px;"">+</div>","null","fixation","","","","","","","","","59","","",""
"revaluation","179","797876","0.0-4.0-2.0-0.30","spark_pilot_norest","8422","7","9","Female","","true","","","","","[]","./assets/img/canyon/memory/5.jpg","[]","value training","canyon","-5","{""ArrowUp,ArrowLeft"":23,""ArrowUp,ArrowRight"":10,""ArrowDown,ArrowLeft"":8,""ArrowDown,ArrowRight"":30}","false","","false","original","1","60","","",""
"html-keyboard-response","180","798380","0.0-4.0-2.0-1.30","spark_pilot_norest","8422","7","9","Female","","","","","","","null","<div style=""font-size:60px;"">+</div>","null","fixation","","","","","","","","","61","","",""
"revaluation","181","804400","0.0-4.0-2.0-0.31","spark_pilot_norest","8422","7","9","Female","","false","","","","","[780.6000000014901,496.6000000014901]","./assets/img/canyon/memory/38.jpg","[""ArrowDown"",""ArrowRight""]","value training","canyon","30","{""ArrowUp,ArrowLeft"":23,""ArrowUp,ArrowRight"":10,""ArrowDown,ArrowLeft"":8,""ArrowDown,ArrowRight"":30}","true","ArrowDown,ArrowRight","false","original","1","62","","",""
"html-keyboard-response","182","804908","0.0-4.0-2.0-1.31","spark_pilot_norest","8422","7","9","Female","","","","","","","null","<div style=""font-size:60px;"">+</div>","null","fixation","","","","","","","","","63","","",""
"revaluation","183","810924","0.0-4.0-2.0-0.32","spark_pilot_norest","8422","7","9","Female","","false","","","","","[660.5,698.8999999985099]","./assets/img/canyon/memory/40.jpg","[""ArrowDown"",""ArrowRight""]","value training","canyon","30","{""ArrowUp,ArrowLeft"":23,""ArrowUp,ArrowRight"":10,""ArrowDown,ArrowLeft"":8,""ArrowDown,ArrowRight"":30}","true","ArrowDown,ArrowRight","false","original","1","64","","",""
"html-keyboard-response","184","811433","0.0-4.0-2.0-1.32","spark_pilot_norest","8422","7","9","Female","","","","","","","null","<div style=""font-size:60px;"">+</div>","null","fixation","","","","","","","","","65","","",""
"revaluation","185","817449","0.0-4.0-2.0-0.33","spark_pilot_norest","8422","7","9","Female","","false","","","","","[1069.6000000014901,400.3999999985099]","./assets/img/canyon/memory/15.jpg","[""ArrowDown"",""ArrowRight""]","value training","canyon","30","{""ArrowUp,ArrowLeft"":23,""ArrowUp,ArrowRight"":10,""ArrowDown,ArrowLeft"":8,""ArrowDown,ArrowRight"":30}","true","ArrowDown,ArrowRight","false","original","1","66","","",""
"html-keyboard-response","186","817955","0.0-4.0-2.0-1.33","spark_pilot_norest","8422","7","9","Female","","","","","","","null","<div style=""font-size:60px;"">+</div>","null","fixation","","","","","","","","","67","","",""
"revaluation","187","823973","0.0-4.0-2.0-0.34","spark_pilot_norest","8422","7","9","Female","","false","","","","","[913.3999999985099,533.5]","./assets/img/canyon/memory/23.jpg","[""ArrowDown"",""ArrowRight""]","value training","canyon","30","{""ArrowUp,ArrowLeft"":23,""ArrowUp,ArrowRight"":10,""ArrowDown,ArrowLeft"":8,""ArrowDown,ArrowRight"":30}","true","ArrowDown,ArrowRight","false","original","1","68","","",""
"html-keyboard-response","188","824480","0.0-4.0-2.0-1.34","spark_pilot_norest","8422","7","9","Female","","","","","","","null","<div style=""font-size:60px;"">+</div>","null","fixation","","","","","","","","","69","","",""
"revaluation","189","828498","0.0-4.0-2.0-0.35","spark_pilot_norest","8422","7","9","Female","","true","","","","","[]","./assets/img/canyon/catch/4.jpg","[]","value training","canyon","-5","{""ArrowUp,ArrowLeft"":23,""ArrowUp,ArrowRight"":10,""ArrowDown,ArrowLeft"":8,""ArrowDown,ArrowRight"":30}","false","","true","original","1","70","","",""
"html-keyboard-response","190","829004","0.0-4.0-2.0-1.35","spark_pilot_norest","8422","7","9","Female","","","","","","","null","<div style=""font-size:60px;"">+</div>","null","fixation","","","","","","","","","71","","",""
"revaluation","191","835027","0.0-4.0-2.0-0.36","spark_pilot_norest","8422","7","9","Female","","false","","","","","[1070.3000000044703,441.79999999701977]","./assets/img/canyon/memory/3.jpg","[""ArrowDown"",""ArrowRight""]","value training","canyon","30","{""ArrowUp,ArrowLeft"":23,""ArrowUp,ArrowRight"":10,""ArrowDown,ArrowLeft"":8,""ArrowDown,ArrowRight"":30}","true","ArrowDown,ArrowRight","false","original","1","72","","",""
"html-keyboard-response","192","835534","0.0-4.0-2.0-1.36","spark_pilot_norest","8422","7","9","Female","","","","","","","null","<div style=""font-size:60px;"">+</div>","null","fixation","","","","","","","","","73","","",""
"revaluation","193","839548","0.0-4.0-2.0-0.37","spark_pilot_norest","8422","7","9","Female","","false","","","","","[1717.6000000014901]","./assets/img/canyon/catch/0.jpg","[""spaceBar""]","value training","canyon","0","{""ArrowUp,ArrowLeft"":23,""ArrowUp,ArrowRight"":10,""ArrowDown,ArrowLeft"":8,""ArrowDown,ArrowRight"":30}","true","spaceBar","true","original","1","74","","",""
"html-keyboard-response","194","840056","0.0-4.0-2.0-1.37","spark_pilot_norest","8422","7","9","Female","","","","","","","null","<div style=""font-size:60px;"">+</div>","null","fixation","","","","","","","","","75","","",""
"revaluation","195","846068","0.0-4.0-2.0-0.38","spark_pilot_norest","8422","7","9","Female","","true","","","","","[1228.5]","./assets/img/canyon/memory/28.jpg","[""ArrowDown""]","value training","canyon","-5","{""ArrowUp,ArrowLeft"":23,""ArrowUp,ArrowRight"":10,""ArrowDown,ArrowLeft"":8,""ArrowDown,ArrowRight"":30}","false","ArrowDown","false","original","1","76","","",""
"html-keyboard-response","196","846579","0.0-4.0-2.0-1.38","spark_pilot_norest","8422","7","9","Female","","","","","","","null","<div style=""font-size:60px;"">+</div>","null","fixation","","","","","","","","","77","","",""
"revaluation","197","852591","0.0-4.0-2.0-0.39","spark_pilot_norest","8422","7","9","Female","","false","","","","","[997.5,626.2999999970198]","./assets/img/canyon/memory/20.jpg","[""ArrowDown"",""ArrowRight""]","value training","canyon","30","{""ArrowUp,ArrowLeft"":23,""ArrowUp,ArrowRight"":10,""ArrowDown,ArrowLeft"":8,""ArrowDown,ArrowRight"":30}","true","ArrowDown,ArrowRight","false","original","1","78","","",""
"html-keyboard-response","198","853099","0.0-4.0-2.0-1.39","spark_pilot_norest","8422","7","9","Female","","","","","","","null","<div style=""font-size:60px;"">+</div>","null","fixation","","","","","","","","","79","","",""
"revaluation","199","859117","0.0-4.0-2.0-0.40","spark_pilot_norest","8422","7","9","Female","","false","","","","","[512.2999999970198,235]","./assets/img/canyon/memory/5.jpg","[""ArrowDown"",""ArrowRight""]","value training","canyon","30","{""ArrowUp,ArrowLeft"":23,""ArrowUp,ArrowRight"":10,""ArrowDown,ArrowLeft"":8,""ArrowDown,ArrowRight"":30}","true","ArrowDown,ArrowRight","false","original","1","80","","",""
"html-keyboard-response","200","859626","0.0-4.0-2.0-1.40","spark_pilot_norest","8422","7","9","Female","","","","","","","null","<div style=""font-size:60px;"">+</div>","null","fixation","","","","","","","","","81","","",""
"revaluation","201","863638","0.0-4.0-2.0-0.41","spark_pilot_norest","8422","7","9","Female","","false","","","","","[830]","./assets/img/canyon/catch/7.jpg","[""spaceBar""]","value training","canyon","0","{""ArrowUp,ArrowLeft"":23,""ArrowUp,ArrowRight"":10,""ArrowDown,ArrowLeft"":8,""ArrowDown,ArrowRight"":30}","true","spaceBar","true","original","1","82","","",""
"html-keyboard-response","202","864146","0.0-4.0-2.0-1.41","spark_pilot_norest","8422","7","9","Female","","","","","","","null","<div style=""font-size:60px;"">+</div>","null","fixation","","","","","","","","","83","","",""
"revaluation","203","870170","0.0-4.0-2.0-0.42","spark_pilot_norest","8422","7","9","Female","","false","","","","","[1543.8999999985099,924.3000000044703]","./assets/img/canyon/memory/18.jpg","[""ArrowDown"",""ArrowRight""]","value training","canyon","30","{""ArrowUp,ArrowLeft"":23,""ArrowUp,ArrowRight"":10,""ArrowDown,ArrowLeft"":8,""ArrowDown,ArrowRight"":30}","true","ArrowDown,ArrowRight","false","original","1","84","","",""
"html-keyboard-response","204","870678","0.0-4.0-2.0-1.42","spark_pilot_norest","8422","7","9","Female","","","","","","","null","<div style=""font-size:60px;"">+</div>","null","fixation","","","","","","","","","85","","",""
"revaluation","205","876697","0.0-4.0-2.0-0.43","spark_pilot_norest","8422","7","9","Female","","false","","","","","[749.7999999970198,638.6000000014901]","./assets/img/canyon/memory/17.jpg","[""ArrowDown"",""ArrowRight""]","value training","canyon","30","{""ArrowUp,ArrowLeft"":23,""ArrowUp,ArrowRight"":10,""ArrowDown,ArrowLeft"":8,""ArrowDown,ArrowRight"":30}","true","ArrowDown,ArrowRight","false","original","1","86","","",""
"html-keyboard-response","206","877200","0.0-4.0-2.0-1.43","spark_pilot_norest","8422","7","9","Female","","","","","","","null","<div style=""font-size:60px;"">+</div>","null","fixation","","","","","","","","","87","","",""
"revaluation","207","883227","0.0-4.0-2.0-0.44","spark_pilot_norest","8422","7","9","Female","","false","","","","","[773,518.7000000029802]","./assets/img/canyon/memory/3.jpg","[""ArrowDown"",""ArrowRight""]","value training","canyon","30","{""ArrowUp,ArrowLeft"":23,""ArrowUp,ArrowRight"":10,""ArrowDown,ArrowLeft"":8,""ArrowDown,ArrowRight"":30}","true","ArrowDown,ArrowRight","false","original","1","88","","",""
"html-keyboard-response","208","883731","0.0-4.0-2.0-1.44","spark_pilot_norest","8422","7","9","Female","","","","","","","null","<div style=""font-size:60px;"">+</div>","null","fixation","","","","","","","","","89","","",""
"revaluation","209","889744","0.0-4.0-2.0-0.45","spark_pilot_norest","8422","7","9","Female","","true","","","","","[909.8000000044703]","./assets/img/canyon/memory/14.jpg","[""ArrowDown""]","value training","canyon","-5","{""ArrowUp,ArrowLeft"":23,""ArrowUp,ArrowRight"":10,""ArrowDown,ArrowLeft"":8,""ArrowDown,ArrowRight"":30}","false","ArrowDown","false","original","1","90","","",""
"html-keyboard-response","210","890252","0.0-4.0-2.0-1.45","spark_pilot_norest","8422","7","9","Female","","","","","","","null","<div style=""font-size:60px;"">+</div>","null","fixation","","","","","","","","","91","","",""
"revaluation","211","896264","0.0-4.0-2.0-0.46","spark_pilot_norest","8422","7","9","Female","","false","","","","","[416.69999999552965,666.7999999970198]","./assets/img/canyon/memory/25.jpg","[""ArrowDown"",""ArrowRight""]","value training","canyon","30","{""ArrowUp,ArrowLeft"":23,""ArrowUp,ArrowRight"":10,""ArrowDown,ArrowLeft"":8,""ArrowDown,ArrowRight"":30}","true","ArrowDown,ArrowRight","false","original","1","92","","",""
"html-keyboard-response","212","896774","0.0-4.0-2.0-1.46","spark_pilot_norest","8422","7","9","Female","","","","","","","null","<div style=""font-size:60px;"">+</div>","null","fixation","","","","","","","","","93","","",""
"revaluation","213","902803","0.0-4.0-2.0-0.47","spark_pilot_norest","8422","7","9","Female","","false","","","","","[823.1000000014901,442.40000000596046]","./assets/img/canyon/memory/9.jpg","[""ArrowDown"",""ArrowRight""]","value training","canyon","30","{""ArrowUp,ArrowLeft"":23,""ArrowUp,ArrowRight"":10,""ArrowDown,ArrowLeft"":8,""ArrowDown,ArrowRight"":30}","true","ArrowDown,ArrowRight","false","original","1","94","","",""
"html-keyboard-response","214","903312","0.0-4.0-2.0-1.47","spark_pilot_norest","8422","7","9","Female","","","","","","","null","<div style=""font-size:60px;"">+</div>","null","fixation","","","","","","","","","95","","",""
"revaluation","215","907329","0.0-4.0-2.0-0.48","spark_pilot_norest","8422","7","9","Female","","false","","","","","[976.5999999940395]","./assets/img/canyon/catch/2.jpg","[""ArrowDown""]","value training","canyon","-10","{""ArrowUp,ArrowLeft"":23,""ArrowUp,ArrowRight"":10,""ArrowDown,ArrowLeft"":8,""ArrowDown,ArrowRight"":30}","false","ArrowDown","true","original","1","96","","",""
"html-keyboard-response","216","907837","0.0-4.0-2.0-1.48","spark_pilot_norest","8422","7","9","Female","","","","","","","null","<div style=""font-size:60px;"">+</div>","null","fixation","","","","","","","","","97","","",""
"revaluation","217","911851","0.0-4.0-2.0-0.49","spark_pilot_norest","8422","7","9","Female","","false","","","","","[1178.0999999940395]","./assets/img/canyon/catch/6.jpg","[""ArrowDown""]","value training","canyon","-10","{""ArrowUp,ArrowLeft"":23,""ArrowUp,ArrowRight"":10,""ArrowDown,ArrowLeft"":8,""ArrowDown,ArrowRight"":30}","false","ArrowDown","true","original","1","98","","",""
"html-keyboard-response","218","912359","0.0-4.0-2.0-1.49","spark_pilot_norest","8422","7","9","Female","","","","","","","null","<div style=""font-size:60px;"">+</div>","null","fixation","","","","","","","","","99","","",""
"learning-instructions","219","927928","0.0-4.0-3.0-0.0","spark_pilot_norest","8422","7","9","Female","","","","","","","1981.2999999970198","<p> Now, you will travel with a friend who will choose whether you go up or down first. </p>
            <p> On these turns, you will just see the animal that they found. You will still get to choose which chest to search for treasure.</p>","","instructions","","","","","","","","","","","",""
"revaluation","220","931956","0.0-4.0-4.0-0.0","spark_pilot_norest","8422","7","9","Female","","false","","","","","[1319.8999999985099]","./assets/img/canyon/animals/lion.jpg","[""ArrowRight""]","revaluation","canyon","30","{""ArrowUp,ArrowLeft"":23,""ArrowUp,ArrowRight"":10,""ArrowDown,ArrowLeft"":8,""ArrowDown,ArrowRight"":30}","true","ArrowDown,ArrowRight","","original","1","0","","",""
"html-keyboard-response","221","932476","0.0-4.0-4.0-1.0","spark_pilot_norest","8422","7","9","Female","","","","","","","null","<div style=""font-size:60px;"">+</div>","null","fixation","","","","","","","","","1","","",""
"revaluation","222","936506","0.0-4.0-4.0-0.1","spark_pilot_norest","8422","7","9","Female","","false","","","","","[445.09999999403954]","./assets/img/canyon/animals/giraffe.jpg","[""ArrowRight""]","revaluation","canyon","10","{""ArrowUp,ArrowLeft"":23,""ArrowUp,ArrowRight"":10,""ArrowDown,ArrowLeft"":8,""ArrowDown,ArrowRight"":30}","false","ArrowUp,ArrowRight","","original","1","2","","",""
"html-keyboard-response","223","937025","0.0-4.0-4.0-1.1","spark_pilot_norest","8422","7","9","Female","","","","","","","null","<div style=""font-size:60px;"">+</div>","null","fixation","","","","","","","","","3","","",""
"revaluation","224","941066","0.0-4.0-4.0-0.2","spark_pilot_norest","8422","7","9","Female","","false","","","","","[802.2999999970198]","./assets/img/canyon/animals/lion.jpg","[""ArrowRight""]","revaluation","canyon","30","{""ArrowUp,ArrowLeft"":23,""ArrowUp,ArrowRight"":10,""ArrowDown,ArrowLeft"":8,""ArrowDown,ArrowRight"":30}","true","ArrowDown,ArrowRight","","original","1","4","","",""
"html-keyboard-response","225","941586","0.0-4.0-4.0-1.2","spark_pilot_norest","8422","7","9","Female","","","","","","","null","<div style=""font-size:60px;"">+</div>","null","fixation","","","","","","","","","5","","",""
"revaluation","226","945606","0.0-4.0-4.0-0.3","spark_pilot_norest","8422","7","9","Female","","false","","","","","[499.20000000298023]","./assets/img/canyon/animals/lion.jpg","[""ArrowLeft""]","revaluation","canyon","8","{""ArrowUp,ArrowLeft"":23,""ArrowUp,ArrowRight"":10,""ArrowDown,ArrowLeft"":8,""ArrowDown,ArrowRight"":30}","false","ArrowDown,ArrowLeft","","original","1","6","","",""
"html-keyboard-response","227","946115","0.0-4.0-4.0-1.3","spark_pilot_norest","8422","7","9","Female","","","","","","","null","<div style=""font-size:60px;"">+</div>","null","fixation","","","","","","","","","7","","",""
"revaluation","228","950146","0.0-4.0-4.0-0.4","spark_pilot_norest","8422","7","9","Female","","false","","","","","[1425.9000000059605]","./assets/img/canyon/animals/giraffe.jpg","[""ArrowRight""]","revaluation","canyon","10","{""ArrowUp,ArrowLeft"":23,""ArrowUp,ArrowRight"":10,""ArrowDown,ArrowLeft"":8,""ArrowDown,ArrowRight"":30}","false","ArrowUp,ArrowRight","","original","1","8","","",""
"html-keyboard-response","229","950665","0.0-4.0-4.0-1.4","spark_pilot_norest","8422","7","9","Female","","","","","","","null","<div style=""font-size:60px;"">+</div>","null","fixation","","","","","","","","","9","","",""
"revaluation","230","954686","0.0-4.0-4.0-0.5","spark_pilot_norest","8422","7","9","Female","","false","","","","","[578.7999999970198]","./assets/img/canyon/animals/lion.jpg","[""ArrowRight""]","revaluation","canyon","30","{""ArrowUp,ArrowLeft"":23,""ArrowUp,ArrowRight"":10,""ArrowDown,ArrowLeft"":8,""ArrowDown,ArrowRight"":30}","true","ArrowDown,ArrowRight","","original","1","10","","",""
"html-keyboard-response","231","955195","0.0-4.0-4.0-1.5","spark_pilot_norest","8422","7","9","Female","","","","","","","null","<div style=""font-size:60px;"">+</div>","null","fixation","","","","","","","","","11","","",""
"revaluation","232","959213","0.0-4.0-4.0-0.6","spark_pilot_norest","8422","7","9","Female","","false","","","","","[835.3000000044703]","./assets/img/canyon/animals/giraffe.jpg","[""ArrowRight""]","revaluation","canyon","10","{""ArrowUp,ArrowLeft"":23,""ArrowUp,ArrowRight"":10,""ArrowDown,ArrowLeft"":8,""ArrowDown,ArrowRight"":30}","false","ArrowUp,ArrowRight","","original","1","12","","",""
"html-keyboard-response","233","959723","0.0-4.0-4.0-1.6","spark_pilot_norest","8422","7","9","Female","","","","","","","null","<div style=""font-size:60px;"">+</div>","null","fixation","","","","","","","","","13","","",""
"revaluation","234","963737","0.0-4.0-4.0-0.7","spark_pilot_norest","8422","7","9","Female","","false","","","","","[459.30000000447035]","./assets/img/canyon/animals/lion.jpg","[""ArrowRight""]","revaluation","canyon","30","{""ArrowUp,ArrowLeft"":23,""ArrowUp,ArrowRight"":10,""ArrowDown,ArrowLeft"":8,""ArrowDown,ArrowRight"":30}","true","ArrowDown,ArrowRight","","original","1","14","","",""
"html-keyboard-response","235","964242","0.0-4.0-4.0-1.7","spark_pilot_norest","8422","7","9","Female","","","","","","","null","<div style=""font-size:60px;"">+</div>","null","fixation","","","","","","","","","15","","",""
"revaluation","236","968256","0.0-4.0-4.0-0.8","spark_pilot_norest","8422","7","9","Female","","false","","","","","[945.1999999955297]","./assets/img/canyon/animals/lion.jpg","[""ArrowRight""]","revaluation","canyon","30","{""ArrowUp,ArrowLeft"":23,""ArrowUp,ArrowRight"":10,""ArrowDown,ArrowLeft"":8,""ArrowDown,ArrowRight"":30}","true","ArrowDown,ArrowRight","","original","1","16","","",""
"html-keyboard-response","237","968762","0.0-4.0-4.0-1.8","spark_pilot_norest","8422","7","9","Female","","","","","","","null","<div style=""font-size:60px;"">+</div>","null","fixation","","","","","","","","","17","","",""
"revaluation","238","972770","0.0-4.0-4.0-0.9","spark_pilot_norest","8422","7","9","Female","","false","","","","","[662.0999999940395]","./assets/img/canyon/animals/lion.jpg","[""ArrowRight""]","revaluation","canyon","30","{""ArrowUp,ArrowLeft"":23,""ArrowUp,ArrowRight"":10,""ArrowDown,ArrowLeft"":8,""ArrowDown,ArrowRight"":30}","true","ArrowDown,ArrowRight","","original","1","18","","",""
"html-keyboard-response","239","973280","0.0-4.0-4.0-1.9","spark_pilot_norest","8422","7","9","Female","","","","","","","null","<div style=""font-size:60px;"">+</div>","null","fixation","","","","","","","","","19","","",""
"revaluation","240","977295","0.0-4.0-4.0-0.10","spark_pilot_norest","8422","7","9","Female","","false","","","","","[819.7999999970198]","./assets/img/canyon/animals/giraffe.jpg","[""ArrowRight""]","revaluation","canyon","10","{""ArrowUp,ArrowLeft"":23,""ArrowUp,ArrowRight"":10,""ArrowDown,ArrowLeft"":8,""ArrowDown,ArrowRight"":30}","false","ArrowUp,ArrowRight","","original","1","20","","",""
"html-keyboard-response","241","977805","0.0-4.0-4.0-1.10","spark_pilot_norest","8422","7","9","Female","","","","","","","null","<div style=""font-size:60px;"">+</div>","null","fixation","","","","","","","","","21","","",""
"revaluation","242","981816","0.0-4.0-4.0-0.11","spark_pilot_norest","8422","7","9","Female","","false","","","","","[694.7000000029802]","./assets/img/canyon/animals/giraffe.jpg","[""ArrowRight""]","revaluation","canyon","10","{""ArrowUp,ArrowLeft"":23,""ArrowUp,ArrowRight"":10,""ArrowDown,ArrowLeft"":8,""ArrowDown,ArrowRight"":30}","false","ArrowUp,ArrowRight","","original","1","22","","",""
"html-keyboard-response","243","982324","0.0-4.0-4.0-1.11","spark_pilot_norest","8422","7","9","Female","","","","","","","null","<div style=""font-size:60px;"">+</div>","null","fixation","","","","","","","","","23","","",""
"revaluation","244","986336","0.0-4.0-4.0-0.12","spark_pilot_norest","8422","7","9","Female","","false","","","","","[1054.1000000014901]","./assets/img/canyon/animals/giraffe.jpg","[""ArrowRight""]","revaluation","canyon","10","{""ArrowUp,ArrowLeft"":23,""ArrowUp,ArrowRight"":10,""ArrowDown,ArrowLeft"":8,""ArrowDown,ArrowRight"":30}","false","ArrowUp,ArrowRight","","original","1","24","","",""
"html-keyboard-response","245","986838","0.0-4.0-4.0-1.12","spark_pilot_norest","8422","7","9","Female","","","","","","","null","<div style=""font-size:60px;"">+</div>","null","fixation","","","","","","","","","25","","",""
"revaluation","246","990848","0.0-4.0-4.0-0.13","spark_pilot_norest","8422","7","9","Female","","false","","","","","[639.5]","./assets/img/canyon/animals/lion.jpg","[""ArrowRight""]","revaluation","canyon","30","{""ArrowUp,ArrowLeft"":23,""ArrowUp,ArrowRight"":10,""ArrowDown,ArrowLeft"":8,""ArrowDown,ArrowRight"":30}","true","ArrowDown,ArrowRight","","original","1","26","","",""
"html-keyboard-response","247","991356","0.0-4.0-4.0-1.13","spark_pilot_norest","8422","7","9","Female","","","","","","","null","<div style=""font-size:60px;"">+</div>","null","fixation","","","","","","","","","27","","",""
"revaluation","248","995369","0.0-4.0-4.0-0.14","spark_pilot_norest","8422","7","9","Female","","false","","","","","[967.7999999970198]","./assets/img/canyon/animals/giraffe.jpg","[""ArrowRight""]","revaluation","canyon","10","{""ArrowUp,ArrowLeft"":23,""ArrowUp,ArrowRight"":10,""ArrowDown,ArrowLeft"":8,""ArrowDown,ArrowRight"":30}","false","ArrowUp,ArrowRight","","original","1","28","","",""
"html-keyboard-response","249","995870","0.0-4.0-4.0-1.14","spark_pilot_norest","8422","7","9","Female","","","","","","","null","<div style=""font-size:60px;"">+</div>","null","fixation","","","","","","","","","29","","",""
"revaluation","250","999886","0.0-4.0-4.0-0.15","spark_pilot_norest","8422","7","9","Female","","false","","","","","[1491.6000000014901]","./assets/img/canyon/animals/giraffe.jpg","[""ArrowRight""]","revaluation","canyon","10","{""ArrowUp,ArrowLeft"":23,""ArrowUp,ArrowRight"":10,""ArrowDown,ArrowLeft"":8,""ArrowDown,ArrowRight"":30}","false","ArrowUp,ArrowRight","","original","1","30","","",""
"html-keyboard-response","251","1000395","0.0-4.0-4.0-1.15","spark_pilot_norest","8422","7","9","Female","","","","","","","null","<div style=""font-size:60px;"">+</div>","null","fixation","","","","","","","","","31","","",""
"revaluation","252","1004406","0.0-4.0-4.0-0.16","spark_pilot_norest","8422","7","9","Female","","false","","","","","[1771.1000000014901]","./assets/img/canyon/animals/lion.jpg","[""ArrowRight""]","revaluation","canyon","30","{""ArrowUp,ArrowLeft"":23,""ArrowUp,ArrowRight"":10,""ArrowDown,ArrowLeft"":8,""ArrowDown,ArrowRight"":30}","true","ArrowDown,ArrowRight","","original","1","32","","",""
"html-keyboard-response","253","1004915","0.0-4.0-4.0-1.16","spark_pilot_norest","8422","7","9","Female","","","","","","","null","<div style=""font-size:60px;"">+</div>","null","fixation","","","","","","","","","33","","",""
"revaluation","254","1008935","0.0-4.0-4.0-0.17","spark_pilot_norest","8422","7","9","Female","","false","","","","","[716]","./assets/img/canyon/animals/giraffe.jpg","[""ArrowRight""]","revaluation","canyon","10","{""ArrowUp,ArrowLeft"":23,""ArrowUp,ArrowRight"":10,""ArrowDown,ArrowLeft"":8,""ArrowDown,ArrowRight"":30}","false","ArrowUp,ArrowRight","","original","1","34","","",""
"html-keyboard-response","255","1009443","0.0-4.0-4.0-1.17","spark_pilot_norest","8422","7","9","Female","","","","","","","null","<div style=""font-size:60px;"">+</div>","null","fixation","","","","","","","","","35","","",""
"learning-instructions","256","1018230","0.0-4.0-5.0-0.0","spark_pilot_norest","8422","7","9","Female","","","","","","","null","<p> You have almost finished this part of the game! </p>
            <p> We are going to ask you to make a few more choices. </p>","","instructions","","","","","","","","","","","",""
"learning-instructions","257","1034221","0.0-4.0-5.0-0.1","spark_pilot_norest","8422","7","9","Female","","","","","","","null","<p> First, you need to decide whether to go up or down. When you see each picture, use the arrow keys to make your choice. </p>
            <p><b>You will not see which animal you found, but try to get to the one that will give you the most treasure.</b></p>","","instructions","","","","","","","","","","","",""
"html-keyboard-response","258","1035240","0.0-4.0-6.0-0.0","spark_pilot_norest","8422","7","9","Female","","","","","","","null","<div style=""font-size:100px;color:red;"">Starting in...</div>","null","","","","","","","","","","","","",""
"html-keyboard-response","259","1036250","0.0-4.0-6.0-1.0","spark_pilot_norest","8422","7","9","Female","","","","","","","null","<div style=""font-size:200px;color:red;"">3</div>","null","","","","","","","","","","","","",""
"html-keyboard-response","260","1037270","0.0-4.0-6.0-2.0","spark_pilot_norest","8422","7","9","Female","","","","","","","null","<div style=""font-size:200px;color:red;"">2</div>","null","","","","","","","","","","","","",""
"html-keyboard-response","261","1038291","0.0-4.0-6.0-3.0","spark_pilot_norest","8422","7","9","Female","","","","","","","null","<div style=""font-size:200px;color:red;"">1</div>","null","","","","","","","","","","","","",""
"revaluation","262","1039717","0.0-4.0-7.0-0.0","spark_pilot_norest","8422","7","9","Female","","false","","","","","[1421.5]","./assets/img/canyon/test/3.jpg","[""ArrowDown""]","first stage test","canyon","0","{""ArrowUp,ArrowLeft"":23,""ArrowUp,ArrowRight"":10,""ArrowDown,ArrowLeft"":8,""ArrowDown,ArrowRight"":30}","true","ArrowDown","false","original","1","","","",""
"html-keyboard-response","263","1040219","0.0-4.0-7.0-1.0","spark_pilot_norest","8422","7","9","Female","","","","","","","null","<div style=""font-size:60px;"">+</div>","null","fixation","","","","","","","","","","","",""
"revaluation","264","1041140","0.0-4.0-7.0-0.1","spark_pilot_norest","8422","7","9","Female","","false","","","","","[917.5]","./assets/img/canyon/test/1.jpg","[""ArrowDown""]","first stage test","canyon","0","{""ArrowUp,ArrowLeft"":23,""ArrowUp,ArrowRight"":10,""ArrowDown,ArrowLeft"":8,""ArrowDown,ArrowRight"":30}","true","ArrowDown","false","original","1","","","",""
"html-keyboard-response","265","1041660","0.0-4.0-7.0-1.1","spark_pilot_norest","8422","7","9","Female","","","","","","","null","<div style=""font-size:60px;"">+</div>","null","fixation","","","","","","","","","","","",""
"revaluation","266","1042486","0.0-4.0-7.0-0.2","spark_pilot_norest","8422","7","9","Female","","false","","","","","[819.8999999985099]","./assets/img/canyon/test/0.jpg","[""ArrowDown""]","first stage test","canyon","0","{""ArrowUp,ArrowLeft"":23,""ArrowUp,ArrowRight"":10,""ArrowDown,ArrowLeft"":8,""ArrowDown,ArrowRight"":30}","true","ArrowDown","false","original","1","","","",""
"html-keyboard-response","267","1042990","0.0-4.0-7.0-1.2","spark_pilot_norest","8422","7","9","Female","","","","","","","null","<div style=""font-size:60px;"">+</div>","null","fixation","","","","","","","","","","","",""
"revaluation","268","1043406","0.0-4.0-7.0-0.3","spark_pilot_norest","8422","7","9","Female","","false","","","","","[410.8999999985099]","./assets/img/canyon/test/2.jpg","[""ArrowDown""]","first stage test","canyon","0","{""ArrowUp,ArrowLeft"":23,""ArrowUp,ArrowRight"":10,""ArrowDown,ArrowLeft"":8,""ArrowDown,ArrowRight"":30}","true","ArrowDown","false","original","1","","","",""
"html-keyboard-response","269","1043910","0.0-4.0-7.0-1.3","spark_pilot_norest","8422","7","9","Female","","","","","","","null","<div style=""font-size:60px;"">+</div>","null","fixation","","","","","","","","","","","",""
"learning-instructions","270","1057270","0.0-4.0-8.0-0.0","spark_pilot_norest","8422","7","9","Female","","","","","","","null","<p> Now you will see the animals again and can search their chests for treasure. </p>
            <p> This time, you will not see how much treasure you earned, but you will earn more bonus money for making better choices. </p>","","instructions","","","","","","","","","","","",""
"html-keyboard-response","271","1058291","0.0-4.0-9.0-0.0","spark_pilot_norest","8422","7","9","Female","","","","","","","null","<div style=""font-size:100px;color:red;"">Starting in...</div>","null","","","","","","","","","","","","",""
"html-keyboard-response","272","1059311","0.0-4.0-9.0-1.0","spark_pilot_norest","8422","7","9","Female","","","","","","","null","<div style=""font-size:200px;color:red;"">3</div>","null","","","","","","","","","","","","",""
"html-keyboard-response","273","1060321","0.0-4.0-9.0-2.0","spark_pilot_norest","8422","7","9","Female","","","","","","","null","<div style=""font-size:200px;color:red;"">2</div>","null","","","","","","","","","","","","",""
"html-keyboard-response","274","1061331","0.0-4.0-9.0-3.0","spark_pilot_norest","8422","7","9","Female","","","","","","","null","<div style=""font-size:200px;color:red;"">1</div>","null","","","","","","","","","","","","",""
"revaluation","275","1061767","0.0-4.0-10.0-0.0","spark_pilot_norest","8422","7","9","Female","","false","","","","","[431.1000000014901]","./assets/img/canyon/animals/giraffe.jpg","[""ArrowRight""]","second stage test","canyon","0","{""ArrowUp,ArrowLeft"":23,""ArrowUp,ArrowRight"":10,""ArrowDown,ArrowLeft"":8,""ArrowDown,ArrowRight"":30}","false","ArrowUp,ArrowRight","","original","1","","","",""
"html-keyboard-response","276","1062271","0.0-4.0-10.0-1.0","spark_pilot_norest","8422","7","9","Female","","","","","","","null","<div style=""font-size:60px;"">+</div>","null","fixation","","","","","","","","","","","",""
"revaluation","277","1062611","0.0-4.0-10.0-0.1","spark_pilot_norest","8422","7","9","Female","","false","","","","","[336.40000000596046]","./assets/img/canyon/animals/giraffe.jpg","[""ArrowRight""]","second stage test","canyon","0","{""ArrowUp,ArrowLeft"":23,""ArrowUp,ArrowRight"":10,""ArrowDown,ArrowLeft"":8,""ArrowDown,ArrowRight"":30}","false","ArrowUp,ArrowRight","","original","1","","","",""
"html-keyboard-response","278","1063131","0.0-4.0-10.0-1.1","spark_pilot_norest","8422","7","9","Female","","","","","","","null","<div style=""font-size:60px;"">+</div>","null","fixation","","","","","","","","","","","",""
"revaluation","279","1063453","0.0-4.0-10.0-0.2","spark_pilot_norest","8422","7","9","Female","","false","","","","","[317.1000000014901]","./assets/img/canyon/animals/giraffe.jpg","[""ArrowRight""]","second stage test","canyon","0","{""ArrowUp,ArrowLeft"":23,""ArrowUp,ArrowRight"":10,""ArrowDown,ArrowLeft"":8,""ArrowDown,ArrowRight"":30}","false","ArrowUp,ArrowRight","","original","1","","","",""
"html-keyboard-response","280","1063961","0.0-4.0-10.0-1.2","spark_pilot_norest","8422","7","9","Female","","","","","","","null","<div style=""font-size:60px;"">+</div>","null","fixation","","","","","","","","","","","",""
"revaluation","281","1064285","0.0-4.0-10.0-0.3","spark_pilot_norest","8422","7","9","Female","","false","","","","","[319.3999999985099]","./assets/img/canyon/animals/giraffe.jpg","[""ArrowRight""]","second stage test","canyon","0","{""ArrowUp,ArrowLeft"":23,""ArrowUp,ArrowRight"":10,""ArrowDown,ArrowLeft"":8,""ArrowDown,ArrowRight"":30}","false","ArrowUp,ArrowRight","","original","1","","","",""
"html-keyboard-response","282","1064800","0.0-4.0-10.0-1.3","spark_pilot_norest","8422","7","9","Female","","","","","","","null","<div style=""font-size:60px;"">+</div>","null","fixation","","","","","","","","","","","",""
"revaluation","283","1065126","0.0-4.0-10.0-0.4","spark_pilot_norest","8422","7","9","Female","","false","","","","","[320.1000000014901]","./assets/img/canyon/animals/lion.jpg","[""ArrowRight""]","second stage test","canyon","0","{""ArrowUp,ArrowLeft"":23,""ArrowUp,ArrowRight"":10,""ArrowDown,ArrowLeft"":8,""ArrowDown,ArrowRight"":30}","true","ArrowDown,ArrowRight","","original","1","","","",""
"html-keyboard-response","284","1065631","0.0-4.0-10.0-1.4","spark_pilot_norest","8422","7","9","Female","","","","","","","null","<div style=""font-size:60px;"">+</div>","null","fixation","","","","","","","","","","","",""
"revaluation","285","1065877","0.0-4.0-10.0-0.5","spark_pilot_norest","8422","7","9","Female","","false","","","","","[242.60000000149012]","./assets/img/canyon/animals/lion.jpg","[""ArrowRight""]","second stage test","canyon","0","{""ArrowUp,ArrowLeft"":23,""ArrowUp,ArrowRight"":10,""ArrowDown,ArrowLeft"":8,""ArrowDown,ArrowRight"":30}","true","ArrowDown,ArrowRight","","original","1","","","",""
"html-keyboard-response","286","1066391","0.0-4.0-10.0-1.5","spark_pilot_norest","8422","7","9","Female","","","","","","","null","<div style=""font-size:60px;"">+</div>","null","fixation","","","","","","","","","","","",""
"revaluation","287","1066621","0.0-4.0-10.0-0.6","spark_pilot_norest","8422","7","9","Female","","false","","","","","[225.10000000149012]","./assets/img/canyon/animals/lion.jpg","[""ArrowRight""]","second stage test","canyon","0","{""ArrowUp,ArrowLeft"":23,""ArrowUp,ArrowRight"":10,""ArrowDown,ArrowLeft"":8,""ArrowDown,ArrowRight"":30}","true","ArrowDown,ArrowRight","","original","1","","","",""
"html-keyboard-response","288","1067141","0.0-4.0-10.0-1.6","spark_pilot_norest","8422","7","9","Female","","","","","","","null","<div style=""font-size:60px;"">+</div>","null","fixation","","","","","","","","","","","",""
"revaluation","289","1067452","0.0-4.0-10.0-0.7","spark_pilot_norest","8422","7","9","Female","","false","","","","","[308.3999999985099]","./assets/img/canyon/animals/lion.jpg","[""ArrowRight""]","second stage test","canyon","0","{""ArrowUp,ArrowLeft"":23,""ArrowUp,ArrowRight"":10,""ArrowDown,ArrowLeft"":8,""ArrowDown,ArrowRight"":30}","true","ArrowDown,ArrowRight","","original","1","","","",""
"html-keyboard-response","290","1067959","0.0-4.0-10.0-1.7","spark_pilot_norest","8422","7","9","Female","","","","","","","null","<div style=""font-size:60px;"">+</div>","null","fixation","","","","","","","","","","","",""
"learning-instructions","291","1073823","0.0-4.0-0.1-0.2","spark_pilot_norest","8422","7","9","Female","","","","","","","3140.7000000029802","<p> This time you are searching for treasure in the <b>ocean</b>.</p>","","instructions","","","","","","","","","","","",""
"learning-instructions","292","1093843","0.0-4.0-0.1-0.3","spark_pilot_norest","8422","7","9","Female","","","","","","","2760.89999999851","<p><b>New</b> animals with <b>new</b> treasure chests live here. You need to explore to discover where the animal with the best treasure chest is.</p>
                    <p> Like before, once you figure out which animal has the chest with the most treasure, you should try to get to that animal and select that chest! </p>","","instructions","","","","","","","","","","","",""
"learning-instructions","293","1110203","0.0-4.0-1.1-0.1","spark_pilot_norest","8422","7","9","Female","","","","","","","1630.3999999985099","<p> Remember, when you see a picture of the place, use the up and down keys to <b>find an animal</b>.</p>
            <p> When you encounter an animal, you should use the left and right keys to <b>select a treasure chest</b>.</p>
            <p> Don't forget to look out for the robber! </p>","","instructions","","","","","","","","","","","",""
"revaluation","294","1116241","0.0-4.0-2.1-0.50","spark_pilot_norest","8422","7","9","Female","","false","","","","","[1052.2999999970198,476.19999999552965]","./assets/img/ocean/memory/17.jpg","[""ArrowUp"",""ArrowRight""]","value training","ocean","10","{""ArrowUp,ArrowLeft"":26,""ArrowUp,ArrowRight"":10,""ArrowDown,ArrowLeft"":5,""ArrowDown,ArrowRight"":17}","false","ArrowUp,ArrowRight","false","revaluation","2","0","","",""
"html-keyboard-response","295","1116758","0.0-4.0-2.1-1.50","spark_pilot_norest","8422","7","9","Female","","","","","","","null","<div style=""font-size:60px;"">+</div>","null","fixation","","","","","","","","","1","","",""
"revaluation","296","1120801","0.0-4.0-2.1-0.51","spark_pilot_norest","8422","7","9","Female","","false","","","","","[1050]","./assets/img/ocean/catch/5.jpg","[""ArrowUp""]","value training","ocean","-10","{""ArrowUp,ArrowLeft"":26,""ArrowUp,ArrowRight"":10,""ArrowDown,ArrowLeft"":5,""ArrowDown,ArrowRight"":17}","false","ArrowUp","true","revaluation","2","2","","",""
"html-keyboard-response","297","1121320","0.0-4.0-2.1-1.51","spark_pilot_norest","8422","7","9","Female","","","","","","","null","<div style=""font-size:60px;"">+</div>","null","fixation","","","","","","","","","3","","",""
"revaluation","298","1127350","0.0-4.0-2.1-0.52","spark_pilot_norest","8422","7","9","Female","","false","","","","","[1133.8999999985099,364.20000000298023]","./assets/img/ocean/memory/5.jpg","[""ArrowUp"",""ArrowLeft""]","value training","ocean","26","{""ArrowUp,ArrowLeft"":26,""ArrowUp,ArrowRight"":10,""ArrowDown,ArrowLeft"":5,""ArrowDown,ArrowRight"":17}","true","ArrowUp,ArrowLeft","false","revaluation","2","4","","",""
"html-keyboard-response","299","1127856","0.0-4.0-2.1-1.52","spark_pilot_norest","8422","7","9","Female","","","","","","","null","<div style=""font-size:60px;"">+</div>","null","fixation","","","","","","","","","5","","",""
"revaluation","300","1133920","0.0-4.0-2.1-0.53","spark_pilot_norest","8422","7","9","Female","","false","","","","","[1564.2999999970198,1076.5]","./assets/img/ocean/memory/20.jpg","[""ArrowUp"",""ArrowLeft""]","value training","ocean","26","{""ArrowUp,ArrowLeft"":26,""ArrowUp,ArrowRight"":10,""ArrowDown,ArrowLeft"":5,""ArrowDown,ArrowRight"":17}","true","ArrowUp,ArrowLeft","false","revaluation","2","6","","",""
"html-keyboard-response","301","1134440","0.0-4.0-2.1-1.53","spark_pilot_norest","8422","7","9","Female","","","","","","","null","<div style=""font-size:60px;"">+</div>","null","fixation","","","","","","","","","7","","",""
"revaluation","302","1140468","0.0-4.0-2.1-0.54","spark_pilot_norest","8422","7","9","Female","","false","","","","","[654.2999999970198,599.6000000014901]","./assets/img/ocean/memory/17.jpg","[""ArrowDown"",""ArrowRight""]","value training","ocean","17","{""ArrowUp,ArrowLeft"":26,""ArrowUp,ArrowRight"":10,""ArrowDown,ArrowLeft"":5,""ArrowDown,ArrowRight"":17}","false","ArrowDown,ArrowRight","false","revaluation","2","8","","",""
"html-keyboard-response","303","1140970","0.0-4.0-2.1-1.54","spark_pilot_norest","8422","7","9","Female","","","","","","","null","<div style=""font-size:60px;"">+</div>","null","fixation","","","","","","","","","9","","",""
"revaluation","304","1146982","0.0-4.0-2.1-0.55","spark_pilot_norest","8422","7","9","Female","","false","","","","","[882.2000000029802,1892]","./assets/img/ocean/memory/35.jpg","[""ArrowDown"",""ArrowLeft""]","value training","ocean","5","{""ArrowUp,ArrowLeft"":26,""ArrowUp,ArrowRight"":10,""ArrowDown,ArrowLeft"":5,""ArrowDown,ArrowRight"":17}","false","ArrowDown,ArrowLeft","false","revaluation","2","10","","",""
"html-keyboard-response","305","1147490","0.0-4.0-2.1-1.55","spark_pilot_norest","8422","7","9","Female","","","","","","","null","<div style=""font-size:60px;"">+</div>","null","fixation","","","","","","","","","11","","",""
"revaluation","306","1151501","0.0-4.0-2.1-0.56","spark_pilot_norest","8422","7","9","Female","","false","","","","","[1853]","./assets/img/ocean/catch/1.jpg","[""spaceBar""]","value training","ocean","0","{""ArrowUp,ArrowLeft"":26,""ArrowUp,ArrowRight"":10,""ArrowDown,ArrowLeft"":5,""ArrowDown,ArrowRight"":17}","true","spaceBar","true","revaluation","2","12","","",""
"html-keyboard-response","307","1152003","0.0-4.0-2.1-1.56","spark_pilot_norest","8422","7","9","Female","","","","","","","null","<div style=""font-size:60px;"">+</div>","null","fixation","","","","","","","","","13","","",""
"revaluation","308","1158015","0.0-4.0-2.1-0.57","spark_pilot_norest","8422","7","9","Female","","false","","","","","[1225.5,913.8000000044703]","./assets/img/ocean/memory/38.jpg","[""ArrowUp"",""ArrowRight""]","value training","ocean","10","{""ArrowUp,ArrowLeft"":26,""ArrowUp,ArrowRight"":10,""ArrowDown,ArrowLeft"":5,""ArrowDown,ArrowRight"":17}","false","ArrowUp,ArrowRight","false","revaluation","2","14","","",""
"html-keyboard-response","309","1158522","0.0-4.0-2.1-1.57","spark_pilot_norest","8422","7","9","Female","","","","","","","null","<div style=""font-size:60px;"">+</div>","null","fixation","","","","","","","","","15","","",""
"revaluation","310","1164537","0.0-4.0-2.1-0.58","spark_pilot_norest","8422","7","9","Female","","false","","","","","[453.80000000447035,448]","./assets/img/ocean/memory/16.jpg","[""ArrowDown"",""ArrowLeft""]","value training","ocean","5","{""ArrowUp,ArrowLeft"":26,""ArrowUp,ArrowRight"":10,""ArrowDown,ArrowLeft"":5,""ArrowDown,ArrowRight"":17}","false","ArrowDown,ArrowLeft","false","revaluation","2","16","","",""
"html-keyboard-response","311","1165045","0.0-4.0-2.1-1.58","spark_pilot_norest","8422","7","9","Female","","","","","","","null","<div style=""font-size:60px;"">+</div>","null","fixation","","","","","","","","","17","","",""
"revaluation","312","1171076","0.0-4.0-2.1-0.59","spark_pilot_norest","8422","7","9","Female","","false","","","","","[748.5999999940395,397.8999999985099]","./assets/img/ocean/memory/25.jpg","[""ArrowDown"",""ArrowRight""]","value training","ocean","17","{""ArrowUp,ArrowLeft"":26,""ArrowUp,ArrowRight"":10,""ArrowDown,ArrowLeft"":5,""ArrowDown,ArrowRight"":17}","false","ArrowDown,ArrowRight","false","revaluation","2","18","","",""
"html-keyboard-response","313","1171580","0.0-4.0-2.1-1.59","spark_pilot_norest","8422","7","9","Female","","","","","","","null","<div style=""font-size:60px;"">+</div>","null","fixation","","","","","","","","","19","","",""
