"trial_type","trial_index","time_elapsed","internal_node_id","task_version","subject_id","assigned_condition","age","gender","browser_interaction","success","timeout","failed_images","failed_audio","failed_video","rt","stimulus","response","task_part","environment","score","rewardMap","correct","fullState","isCatch","condition","order","trial_num","key_press","ground_truth","bonus"
"pavlovia","0","36703","0.0-0.0","spark_pilot_norest","8674","1","17","Male","[{""event"":""blur"",""trial"":0,""time"":3313},{""event"":""focus"",""trial"":1,""time"":78398},{""event"":""fullscreenenter"",""trial"":2,""time"":111760},{""event"":""fullscreenexit"",""trial"":3,""time"":114750},{""event"":""blur"",""trial"":3,""time"":116990},{""event"":""focus"",""trial"":3,""time"":125200},{""event"":""blur"",""trial"":7,""time"":154569},{""event"":""focus"",""trial"":7,""time"":157104},{""event"":""blur"",""trial"":19,""time"":238986},{""event"":""focus"",""trial"":19,""time"":241888}]","","","","","","","","","","","","","","","","","","","","",""
"preload","1","103518","0.0-1.0","spark_pilot_norest","8674","1","17","Male","[{""event"":""blur"",""trial"":0,""time"":3313},{""event"":""focus"",""trial"":1,""time"":78398},{""event"":""fullscreenenter"",""trial"":2,""time"":111760},{""event"":""fullscreenexit"",""trial"":3,""time"":114750},{""event"":""blur"",""trial"":3,""time"":116990},{""event"":""focus"",""trial"":3,""time"":125200},{""event"":""blur"",""trial"":7,""time"":154569},{""event"":""focus"",""trial"":7,""time"":157104},{""event"":""blur"",""trial"":19,""time"":238986},{""event"":""focus"",""trial"":19,""time"":241888}]","true","false","[]","[]","[]","","","","","","","","","","","","","","","",""
"fullscreen","2","112741","0.0-2.0","spark_pilot_norest","8674","1","17","Male","[{""event"":""blur"",""trial"":0,""time"":3313},{""event"":""focus"",""trial"":1,""time"":78398},{""event"":""fullscreenenter"",""trial"":2,""time"":111760},{""event"":""fullscreenexit"",""trial"":3,""time"":114750},{""event"":""blur"",""trial"":3,""time"":116990},{""event"":""focus"",""trial"":3,""time"":125200},{""event"":""blur"",""trial"":7,""time"":154569},{""event"":""focus"",""trial"":7,""time"":157104},{""event"":""blur"",""trial"":19,""time"":238986},{""event"":""focus"",""trial"":19,""time"":241888}]","true","","","","","","","","","","","","","","","","","","","",""
"audio-button-response","3","126834","0.0-3.0-0.0-0.0","spark_pilot_norest","8674","1","17","Male","","","","","","","13978","./assets/audio/audiotest/turtle.mp3","4","audio_test","","","","","","","","","","","",""
"audio-button-response","4","129257","0.0-3.0-0.1-0.1","spark_pilot_norest","8674","1","17","Male","","","","","","","1422","./assets/audio/audiotest/turtle.mp3","2","audio_test","","","","","","","","","","","",""
"learning-instructions","5","138875","0.0-3.0-1.0-0.0","spark_pilot_norest","8674","1","17","Male","","","","","","","2614","<p> Welcome! Please remember to stay in fullscreen mode and don't click away from the experiment. </p>","","instructions","","","","","","","","","","","",""
"learning-instructions","6","150176","0.0-3.0-1.0-0.1","spark_pilot_norest","8674","1","17","Male","[{""event"":""blur"",""trial"":0,""time"":3313},{""event"":""focus"",""trial"":1,""time"":78398},{""event"":""fullscreenenter"",""trial"":2,""time"":111760},{""event"":""fullscreenexit"",""trial"":3,""time"":114750},{""event"":""blur"",""trial"":3,""time"":116990},{""event"":""focus"",""trial"":3,""time"":125200},{""event"":""blur"",""trial"":7,""time"":154569},{""event"":""focus"",""trial"":7,""time"":157104},{""event"":""blur"",""trial"":19,""time"":238986},{""event"":""focus"",""trial"":19,""time"":241888}]","","","","","","2850","<p> Today you will be playing a game to earn treasure. </p>
            <p> At the end of the experiment, you will earn a bonus based on how much treasure you find. </p>
            <img src='./assets/img/instructions/treasure.jpg' class='instructions-image'>","","instructions","","","","","","","","","","","",""
"learning-instructions","7","160005","0.0-3.0-1.0-0.2","spark_pilot_norest","8674","1","17","Male","","","","","","","1528","<p> Animals have hidden treasure in treasure chests. </p>
            <p> You need to first find an animal and then choose which of their treasure chests to search. </p>
            <img src='./assets/img/space/animals/cat.jpg' class='instructions-image'>","","instructions","","","","","","","","","","","",""
"learning-instructions","8","175155","0.0-3.0-1.0-0.3","spark_pilot_norest","8674","1","17","Male","","","","","","","1948","<p> In each round, you will search for treasure in a different place. In the real game, there will be two rounds. </p>
            <p> You will begin with a separate, practice round where you will search for treasure in outer space. </p>
            <img src='./assets/img/space/0.jpg' class='instructions-image'>","","instructions","","","","","","","","","","","",""
"learning-instructions","9","188880","0.0-3.0-1.0-0.4","spark_pilot_norest","8674","1","17","Male","","","","","","","2265","<p> On every turn, you will see a picture of the place that you are in, but the specific image may be different each time. </p>
            <p> For example, both of these images mean you are in outer space. </p>
            <img src='./assets/img/instructions/outerspace.jpg' class='instructions-image'>","","instructions","","","","","","","","","","","",""
"learning-instructions","10","200149","0.0-3.0-1.0-0.5","spark_pilot_norest","8674","1","17","Male","","","","","","","3413","<p> You need to decide which direction to travel in. </p>
            <p> You can choose between going <b>up or down</b> by using the arrow keys. </p>
            <img src='./assets/img/instructions/updown.jpg' class='instructions-image'>","","instructions","","","","","","","","","","","",""
"learning-instructions","11","211492","0.0-3.0-1.0-0.6","spark_pilot_norest","8674","1","17","Male","","","","","","","2497","<p> You will have <b>2 seconds</b> to make your choice. </p>
            <p> If you do not make a choice within 2 seconds, you will not find an animal or earn treasure. </p>
            <img src='./assets/img/instructions/2seconds.jpg' class='instructions-image'>","","instructions","","","","","","","","","","","",""
"learning-instructions","12","221795","0.0-3.0-1.0-0.7","spark_pilot_norest","8674","1","17","Male","","","","","","","3219","<p> Let’s try practicing that now! </p>
            <p> When you see a picture of the place you are in, press the <b>up</b> key to travel up. </p>
            <img src='./assets/img/instructions/pressUp.jpg' class='instructions-image'>","","instructions","","","","","","","","","","","",""
"revaluation","13","225839","0.0-3.0-2.0-0.0","spark_pilot_norest","8674","1","17","Male","","","false","","","","[1410]","./assets/img/space/0.jpg","[""ArrowUp""]","first stage practice","space","0","null","null","ArrowUp","false","","","","","",""
"html-keyboard-response","14","226354","0.0-3.0-2.0-1.0","spark_pilot_norest","8674","1","17","Male","","","","","","","null","<div style=""font-size:60px;"">+</div>","null","fixation","","","","","","","","","","","",""
"revaluation","15","230370","0.0-3.0-2.0-0.1","spark_pilot_norest","8674","1","17","Male","","","false","","","","[924]","./assets/img/space/1.jpg","[""ArrowUp""]","first stage practice","space","0","null","null","ArrowUp","false","","","","","",""
"html-keyboard-response","16","230872","0.0-3.0-2.0-1.1","spark_pilot_norest","8674","1","17","Male","","","","","","","null","<div style=""font-size:60px;"">+</div>","null","fixation","","","","","","","","","","","",""
"revaluation","17","234886","0.0-3.0-2.0-0.2","spark_pilot_norest","8674","1","17","Male","","","false","","","","[1035]","./assets/img/space/2.jpg","[""ArrowUp""]","first stage practice","space","0","null","null","ArrowUp","false","","","","","",""
"html-keyboard-response","18","235400","0.0-3.0-2.0-1.2","spark_pilot_norest","8674","1","17","Male","[{""event"":""blur"",""trial"":0,""time"":3313},{""event"":""focus"",""trial"":1,""time"":78398},{""event"":""fullscreenenter"",""trial"":2,""time"":111760},{""event"":""fullscreenexit"",""trial"":3,""time"":114750},{""event"":""blur"",""trial"":3,""time"":116990},{""event"":""focus"",""trial"":3,""time"":125200},{""event"":""blur"",""trial"":7,""time"":154569},{""event"":""focus"",""trial"":7,""time"":157104},{""event"":""blur"",""trial"":19,""time"":238986},{""event"":""focus"",""trial"":19,""time"":241888}]","","","","","","null","<div style=""font-size:60px;"">+</div>","null","fixation","","","","","","","","","","","",""
"learning-instructions","19","241978","0.0-3.0-3.0-0.0","spark_pilot_norest","8674","1","17","Male","","","","","","","1853","<p> Great job! Now try pressing the <b>down</b> key to travel down. </p>
            <img src='./assets/img/instructions/pressDown.jpg' class='instructions-image'>","","instructions","","","","","","","","","","","",""
"revaluation","20","245983","0.0-3.0-4.0-0.0","spark_pilot_norest","8674","1","17","Male","","","false","","","","[769]","./assets/img/space/3.jpg","[""ArrowDown""]","first stage practice","space","0","null","null","ArrowDown","false","","","","","",""
"html-keyboard-response","21","246494","0.0-3.0-4.0-1.0","spark_pilot_norest","8674","1","17","Male","","","","","","","null","<div style=""font-size:60px;"">+</div>","null","fixation","","","","","","","","","","","",""
"revaluation","22","250508","0.0-3.0-4.0-0.1","spark_pilot_norest","8674","1","17","Male","","","false","","","","[468]","./assets/img/space/4.jpg","[""ArrowDown""]","first stage practice","space","0","null","null","ArrowDown","false","","","","","",""
"html-keyboard-response","23","251021","0.0-3.0-4.0-1.1","spark_pilot_norest","8674","1","17","Male","","","","","","","null","<div style=""font-size:60px;"">+</div>","null","fixation","","","","","","","","","","","",""
"revaluation","24","255039","0.0-3.0-4.0-0.2","spark_pilot_norest","8674","1","17","Male","","","false","","","","[1082]","./assets/img/space/5.jpg","[""ArrowDown""]","first stage practice","space","0","null","null","ArrowDown","false","","","","","",""
"html-keyboard-response","25","255553","0.0-3.0-4.0-1.2","spark_pilot_norest","8674","1","17","Male","","","","","","","null","<div style=""font-size:60px;"">+</div>","null","fixation","","","","","","","","","","","",""
"learning-instructions","26","268270","0.0-3.0-5.0-0.0","spark_pilot_norest","8674","1","17","Male","","","","","","","2815","<p> The animals don’t move, so the animal in the upper part of a place will stay in the upper part of a place, and the animal in the lower part of a place will stay in the lower part of a place. </p>","","instructions","","","","","","","","","","","",""
"learning-instructions","27","281987","0.0-3.0-5.0-0.1","spark_pilot_norest","8674","1","17","Male","","","","","","","4543","<p> Each animal has two treasure chests for you to choose from. </p>
            <p> The amount of treasure in each chest can range from <b> 0 to 40 pieces.</b></p>","","instructions","","","","","","","","","","","",""
"learning-instructions","28","296301","0.0-3.0-5.0-0.2","spark_pilot_norest","8674","1","17","Male","","","","","","","3096","<p> You should decide which chest to search for treasure by using the <b>left</b> and <b>right</b> arrow keys. </p>
            <p><b> Pay attention to which animal is on the screen, as the animals have different treasure chests. </b></p>
            <img src='./assets/img/instructions/leftright.jpg' class='instructions-image'>","","instructions","","","","","","","","","","","",""
"learning-instructions","29","303616","0.0-3.0-5.0-0.3","spark_pilot_norest","8674","1","17","Male","","","","","","","910","<p> Let’s try practicing that now. </p>
            <p> When you see an animal, choose which chest to search for treasure. </p>
            <img src='./assets/img/instructions/chooseChest.jpg' class='instructions-image'>","","instructions","","","","","","","","","","","",""
"revaluation","30","307633","0.0-3.0-6.0-0.0","spark_pilot_norest","8674","1","17","Male","","","false","","","","[815]","./assets/img/space/animals/rabbit.jpg","[""ArrowRight""]","second stage practice","space","23","{""ArrowUp,ArrowLeft"":3,""ArrowUp,ArrowRight"":36,""ArrowDown,ArrowLeft"":15,""ArrowDown,ArrowRight"":23}","true","ArrowDown,ArrowRight","","","","","","",""
"html-keyboard-response","31","308137","0.0-3.0-6.0-1.0","spark_pilot_norest","8674","1","17","Male","","","","","","","null","<div style=""font-size:60px;"">+</div>","null","fixation","","","","","","","","","","","",""
"revaluation","32","312165","0.0-3.0-6.0-0.1","spark_pilot_norest","8674","1","17","Male","","","false","","","","[392]","./assets/img/space/animals/rabbit.jpg","[""ArrowRight""]","second stage practice","space","23","{""ArrowUp,ArrowLeft"":3,""ArrowUp,ArrowRight"":36,""ArrowDown,ArrowLeft"":15,""ArrowDown,ArrowRight"":23}","true","ArrowDown,ArrowRight","","","","","","",""
"html-keyboard-response","33","312679","0.0-3.0-6.0-1.1","spark_pilot_norest","8674","1","17","Male","","","","","","","null","<div style=""font-size:60px;"">+</div>","null","fixation","","","","","","","","","","","",""
"revaluation","34","316697","0.0-3.0-6.0-0.2","spark_pilot_norest","8674","1","17","Male","","","false","","","","[253]","./assets/img/space/animals/cat.jpg","[""ArrowLeft""]","second stage practice","space","3","{""ArrowUp,ArrowLeft"":3,""ArrowUp,ArrowRight"":36,""ArrowDown,ArrowLeft"":15,""ArrowDown,ArrowRight"":23}","false","ArrowUp,ArrowLeft","","","","","","",""
"html-keyboard-response","35","317206","0.0-3.0-6.0-1.2","spark_pilot_norest","8674","1","17","Male","","","","","","","null","<div style=""font-size:60px;"">+</div>","null","fixation","","","","","","","","","","","",""
"revaluation","36","321211","0.0-3.0-6.0-0.3","spark_pilot_norest","8674","1","17","Male","","","false","","","","[343]","./assets/img/space/animals/cat.jpg","[""ArrowRight""]","second stage practice","space","36","{""ArrowUp,ArrowLeft"":3,""ArrowUp,ArrowRight"":36,""ArrowDown,ArrowLeft"":15,""ArrowDown,ArrowRight"":23}","true","ArrowUp,ArrowRight","","","","","","",""
"html-keyboard-response","37","321727","0.0-3.0-6.0-1.3","spark_pilot_norest","8674","1","17","Male","","","","","","","null","<div style=""font-size:60px;"">+</div>","null","fixation","","","","","","","","","","","",""
"learning-instructions","38","341363","0.0-3.0-7.0-0.0","spark_pilot_norest","8674","1","17","Male","","","","","","","2767","<p> Great job. Now let’s try putting it together. </p>
            <p> On each turn, you will first see a picture to remind you of the place you are in, and you need to choose whether to go up or down. </p>
            <p> Then you will see an animal and choose which of its chests to search for treasure. </p>","","instructions","","","","","","","","","","","",""
"learning-instructions","39","350559","0.0-3.0-7.0-0.1","spark_pilot_norest","8674","1","17","Male","","","","","","","893","<p> When you choose whether to go up or down, try to go to the animal with the chest with the most treasure. </p>
            <p> Try practicing that now! </p>","","instructions","","","","","","","","","","","",""
"revaluation","40","356586","0.0-3.0-8.0-0.0","spark_pilot_norest","8674","1","17","Male","","","false","","","","[980,338]","./assets/img/space/6.jpg","[""ArrowUp"",""ArrowRight""]","full practice","space","36","{""ArrowUp,ArrowLeft"":3,""ArrowUp,ArrowRight"":36,""ArrowDown,ArrowLeft"":15,""ArrowDown,ArrowRight"":23}","true","ArrowUp,ArrowRight","false","","","","","",""
"html-keyboard-response","41","357088","0.0-3.0-8.0-1.0","spark_pilot_norest","8674","1","17","Male","","","","","","","null","<div style=""font-size:60px;"">+</div>","null","fixation","","","","","","","","","","","",""
"revaluation","42","363119","0.0-3.0-8.0-0.1","spark_pilot_norest","8674","1","17","Male","","","false","","","","[268,262]","./assets/img/space/7.jpg","[""ArrowUp"",""ArrowRight""]","full practice","space","36","{""ArrowUp,ArrowLeft"":3,""ArrowUp,ArrowRight"":36,""ArrowDown,ArrowLeft"":15,""ArrowDown,ArrowRight"":23}","true","ArrowUp,ArrowRight","false","","","","","",""
"html-keyboard-response","43","363621","0.0-3.0-8.0-1.1","spark_pilot_norest","8674","1","17","Male","","","","","","","null","<div style=""font-size:60px;"">+</div>","null","fixation","","","","","","","","","","","",""
"revaluation","44","369635","0.0-3.0-8.0-0.2","spark_pilot_norest","8674","1","17","Male","","","false","","","","[682,365]","./assets/img/space/8.jpg","[""ArrowUp"",""ArrowRight""]","full practice","space","36","{""ArrowUp,ArrowLeft"":3,""ArrowUp,ArrowRight"":36,""ArrowDown,ArrowLeft"":15,""ArrowDown,ArrowRight"":23}","true","ArrowUp,ArrowRight","false","","","","","",""
"html-keyboard-response","45","370149","0.0-3.0-8.0-1.2","spark_pilot_norest","8674","1","17","Male","","","","","","","null","<div style=""font-size:60px;"">+</div>","null","fixation","","","","","","","","","","","",""
"revaluation","46","376167","0.0-3.0-8.0-0.3","spark_pilot_norest","8674","1","17","Male","","","false","","","","[521,296]","./assets/img/space/9.jpg","[""ArrowUp"",""ArrowRight""]","full practice","space","36","{""ArrowUp,ArrowLeft"":3,""ArrowUp,ArrowRight"":36,""ArrowDown,ArrowLeft"":15,""ArrowDown,ArrowRight"":23}","true","ArrowUp,ArrowRight","false","","","","","",""
"html-keyboard-response","47","376681","0.0-3.0-8.0-1.3","spark_pilot_norest","8674","1","17","Male","","","","","","","null","<div style=""font-size:60px;"">+</div>","null","fixation","","","","","","","","","","","",""
"revaluation","48","382699","0.0-3.0-8.0-0.4","spark_pilot_norest","8674","1","17","Male","","","false","","","","[550,232]","./assets/img/space/10.jpg","[""ArrowUp"",""ArrowRight""]","full practice","space","36","{""ArrowUp,ArrowLeft"":3,""ArrowUp,ArrowRight"":36,""ArrowDown,ArrowLeft"":15,""ArrowDown,ArrowRight"":23}","true","ArrowUp,ArrowRight","false","","","","","",""
"html-keyboard-response","49","383200","0.0-3.0-8.0-1.4","spark_pilot_norest","8674","1","17","Male","","","","","","","null","<div style=""font-size:60px;"">+</div>","null","fixation","","","","","","","","","","","",""
"learning-instructions","50","394858","0.0-3.0-9.0-0.0","spark_pilot_norest","8674","1","17","Male","","","","","","","1308","<p> One last thing: sometimes, you will see a robber. The robber can be anywhere in the picture. </p>
            <p> If you do not stop them, you will lose treasure. </p>
            <img src='./assets/img/instructions/robber.jpg' class='instructions-image'>","","instructions","","","","","","","","","","","",""
"learning-instructions","51","402831","0.0-3.0-9.0-0.1","spark_pilot_norest","8674","1","17","Male","","","","","","","772","<p> If you see the robber, you should <b>press the space bar</b> rather than using the arrow keys. </p>
            <p> Try practicing that now! </p>","","instructions","","","","","","","","","","","",""
"revaluation","52","406853","0.0-3.0-10.0-0.0","spark_pilot_norest","8674","1","17","Male","","","false","","","","[1151]","./assets/img/space/catch/0.jpg","[""spaceBar""]","catch practice","space","0","{""ArrowUp,ArrowLeft"":3,""ArrowUp,ArrowRight"":36,""ArrowDown,ArrowLeft"":15,""ArrowDown,ArrowRight"":23}","true","spaceBar","true","","","","","",""
"html-keyboard-response","53","407369","0.0-3.0-10.0-1.0","spark_pilot_norest","8674","1","17","Male","","","","","","","null","<div style=""font-size:60px;"">+</div>","null","fixation","","","","","","","","","","","",""
"revaluation","54","411374","0.0-3.0-10.0-0.1","spark_pilot_norest","8674","1","17","Male","","","false","","","","[868]","./assets/img/space/catch/1.jpg","[""spaceBar""]","catch practice","space","0","{""ArrowUp,ArrowLeft"":3,""ArrowUp,ArrowRight"":36,""ArrowDown,ArrowLeft"":15,""ArrowDown,ArrowRight"":23}","true","spaceBar","true","","","","","",""
"html-keyboard-response","55","411886","0.0-3.0-10.0-1.1","spark_pilot_norest","8674","1","17","Male","","","","","","","null","<div style=""font-size:60px;"">+</div>","null","fixation","","","","","","","","","","","",""
"revaluation","56","415915","0.0-3.0-10.0-0.2","spark_pilot_norest","8674","1","17","Male","","","false","","","","[571]","./assets/img/space/catch/2.jpg","[""spaceBar""]","catch practice","space","0","{""ArrowUp,ArrowLeft"":3,""ArrowUp,ArrowRight"":36,""ArrowDown,ArrowLeft"":15,""ArrowDown,ArrowRight"":23}","true","spaceBar","true","","","","","",""
"html-keyboard-response","57","416416","0.0-3.0-10.0-1.2","spark_pilot_norest","8674","1","17","Male","","","","","","","null","<div style=""font-size:60px;"">+</div>","null","fixation","","","","","","","","","","","",""
"learning-instructions","58","422868","0.0-3.0-11.0-0.0-0.0","spark_pilot_norest","8674","1","17","Male","","","","","","","1208","<p> Now, you will practice a shortened version of the game to get a sense of how it all fits together. </p>","","instructions","","","","","","","","","","","",""
"learning-instructions","59","427417","0.0-3.0-11.0-0.0-0.1","spark_pilot_norest","8674","1","17","Male","","","","","","","1329","<p>This time you are searching for treasure in outer space.</p>","","instructions","","","","","","","","","","","",""
"learning-instructions","60","444164","0.0-3.0-11.0-1.0-0.0","spark_pilot_norest","8674","1","17","Male","","","","","","","1924","<p> Remember, when you see a picture of the place, use the up and down keys to <b>find an animal</b>.</p>
            <p> When you encounter an animal, you should use the left and right keys to <b>select a treasure chest</b>.</p>
            <p> Don't forget to look out for the robber! </p>","","instructions","","","","","","","","","","","",""
"revaluation","61","450198","0.0-3.0-11.0-2.0-0.0","spark_pilot_norest","8674","1","17","Male","","","false","","","","[1390,622]","./assets/img/space/11.jpg","[""ArrowUp"",""ArrowRight""]","practice block","space","36","{""ArrowUp,ArrowLeft"":3,""ArrowUp,ArrowRight"":36,""ArrowDown,ArrowLeft"":15,""ArrowDown,ArrowRight"":23}","true","ArrowUp,ArrowRight","false","","","","","",""
"html-keyboard-response","62","450713","0.0-3.0-11.0-2.0-1.0","spark_pilot_norest","8674","1","17","Male","","","","","","","null","<div style=""font-size:60px;"">+</div>","null","fixation","","","","","","","","","","","",""
"revaluation","63","456743","0.0-3.0-11.0-2.0-0.1","spark_pilot_norest","8674","1","17","Male","","","false","","","","[748,378]","./assets/img/space/12.jpg","[""ArrowUp"",""ArrowRight""]","practice block","space","36","{""ArrowUp,ArrowLeft"":3,""ArrowUp,ArrowRight"":36,""ArrowDown,ArrowLeft"":15,""ArrowDown,ArrowRight"":23}","true","ArrowUp,ArrowRight","false","","","","","",""
"html-keyboard-response","64","457255","0.0-3.0-11.0-2.0-1.1","spark_pilot_norest","8674","1","17","Male","","","","","","","null","<div style=""font-size:60px;"">+</div>","null","fixation","","","","","","","","","","","",""
"revaluation","65","463275","0.0-3.0-11.0-2.0-0.2","spark_pilot_norest","8674","1","17","Male","","","false","","","","[761,301]","./assets/img/space/13.jpg","[""ArrowUp"",""ArrowRight""]","practice block","space","36","{""ArrowUp,ArrowLeft"":3,""ArrowUp,ArrowRight"":36,""ArrowDown,ArrowLeft"":15,""ArrowDown,ArrowRight"":23}","true","ArrowUp,ArrowRight","false","","","","","",""
"html-keyboard-response","66","463789","0.0-3.0-11.0-2.0-1.2","spark_pilot_norest","8674","1","17","Male","","","","","","","null","<div style=""font-size:60px;"">+</div>","null","fixation","","","","","","","","","","","",""
"revaluation","67","469806","0.0-3.0-11.0-2.0-0.3","spark_pilot_norest","8674","1","17","Male","","","false","","","","[723,298]","./assets/img/space/14.jpg","[""ArrowUp"",""ArrowRight""]","practice block","space","36","{""ArrowUp,ArrowLeft"":3,""ArrowUp,ArrowRight"":36,""ArrowDown,ArrowLeft"":15,""ArrowDown,ArrowRight"":23}","true","ArrowUp,ArrowRight","false","","","","","",""
"html-keyboard-response","68","470309","0.0-3.0-11.0-2.0-1.3","spark_pilot_norest","8674","1","17","Male","","","","","","","null","<div style=""font-size:60px;"">+</div>","null","fixation","","","","","","","","","","","",""
"revaluation","69","476326","0.0-3.0-11.0-2.0-0.4","spark_pilot_norest","8674","1","17","Male","","","false","","","","[1159,395]","./assets/img/space/11.jpg","[""ArrowUp"",""ArrowRight""]","practice block","space","36","{""ArrowUp,ArrowLeft"":3,""ArrowUp,ArrowRight"":36,""ArrowDown,ArrowLeft"":15,""ArrowDown,ArrowRight"":23}","true","ArrowUp,ArrowRight","false","","","","","",""
"html-keyboard-response","70","476828","0.0-3.0-11.0-2.0-1.4","spark_pilot_norest","8674","1","17","Male","","","","","","","null","<div style=""font-size:60px;"">+</div>","null","fixation","","","","","","","","","","","",""
"revaluation","71","482833","0.0-3.0-11.0-2.0-0.5","spark_pilot_norest","8674","1","17","Male","","","false","","","","[844,260]","./assets/img/space/12.jpg","[""ArrowUp"",""ArrowRight""]","practice block","space","36","{""ArrowUp,ArrowLeft"":3,""ArrowUp,ArrowRight"":36,""ArrowDown,ArrowLeft"":15,""ArrowDown,ArrowRight"":23}","true","ArrowUp,ArrowRight","false","","","","","",""
"html-keyboard-response","72","483338","0.0-3.0-11.0-2.0-1.5","spark_pilot_norest","8674","1","17","Male","","","","","","","null","<div style=""font-size:60px;"">+</div>","null","fixation","","","","","","","","","","","",""
"revaluation","73","489342","0.0-3.0-11.0-2.0-0.6","spark_pilot_norest","8674","1","17","Male","","","false","","","","[874,547]","./assets/img/space/13.jpg","[""ArrowUp"",""ArrowRight""]","practice block","space","36","{""ArrowUp,ArrowLeft"":3,""ArrowUp,ArrowRight"":36,""ArrowDown,ArrowLeft"":15,""ArrowDown,ArrowRight"":23}","true","ArrowUp,ArrowRight","false","","","","","",""
"html-keyboard-response","74","489843","0.0-3.0-11.0-2.0-1.6","spark_pilot_norest","8674","1","17","Male","","","","","","","null","<div style=""font-size:60px;"">+</div>","null","fixation","","","","","","","","","","","",""
"revaluation","75","495849","0.0-3.0-11.0-2.0-0.7","spark_pilot_norest","8674","1","17","Male","","","false","","","","[799,326]","./assets/img/space/14.jpg","[""ArrowUp"",""ArrowRight""]","practice block","space","36","{""ArrowUp,ArrowLeft"":3,""ArrowUp,ArrowRight"":36,""ArrowDown,ArrowLeft"":15,""ArrowDown,ArrowRight"":23}","true","ArrowUp,ArrowRight","false","","","","","",""
"html-keyboard-response","76","496349","0.0-3.0-11.0-2.0-1.7","spark_pilot_norest","8674","1","17","Male","","","","","","","null","<div style=""font-size:60px;"">+</div>","null","fixation","","","","","","","","","","","",""
"revaluation","77","500353","0.0-3.0-11.0-2.0-0.8","spark_pilot_norest","8674","1","17","Male","","","false","","","","[1078]","./assets/img/space/catch/3.jpg","[""spaceBar""]","practice block","space","0","{""ArrowUp,ArrowLeft"":3,""ArrowUp,ArrowRight"":36,""ArrowDown,ArrowLeft"":15,""ArrowDown,ArrowRight"":23}","true","spaceBar","true","","","","","",""
"html-keyboard-response","78","500854","0.0-3.0-11.0-2.0-1.8","spark_pilot_norest","8674","1","17","Male","","","","","","","null","<div style=""font-size:60px;"">+</div>","null","fixation","","","","","","","","","","","",""
"learning-instructions","79","515206","0.0-3.0-11.0-3.0-0.0","spark_pilot_norest","8674","1","17","Male","","","","","","","1385","<p> Now, you will travel with a friend who will choose whether you go up or down first. </p>
            <p> On these turns, you will just see the animal that they found. You will still get to choose which chest to search for treasure.</p>","","instructions","","","","","","","","","","","",""
"revaluation","80","519228","0.0-3.0-11.0-4.0-0.0","spark_pilot_norest","8674","1","17","Male","","","false","","","","[1734]","./assets/img/space/animals/cat.jpg","[""ArrowLeft""]","practice block","space","3","{""ArrowUp,ArrowLeft"":3,""ArrowUp,ArrowRight"":36,""ArrowDown,ArrowLeft"":15,""ArrowDown,ArrowRight"":23}","false","ArrowUp,ArrowLeft","","","","","","",""
"html-keyboard-response","81","519730","0.0-3.0-11.0-4.0-1.0","spark_pilot_norest","8674","1","17","Male","","","","","","","null","<div style=""font-size:60px;"">+</div>","null","fixation","","","","","","","","","","","",""
"revaluation","82","523759","0.0-3.0-11.0-4.0-0.1","spark_pilot_norest","8674","1","17","Male","","","false","","","","[926]","./assets/img/space/animals/rabbit.jpg","[""ArrowLeft""]","practice block","space","15","{""ArrowUp,ArrowLeft"":3,""ArrowUp,ArrowRight"":36,""ArrowDown,ArrowLeft"":15,""ArrowDown,ArrowRight"":23}","false","ArrowDown,ArrowLeft","","","","","","",""
"html-keyboard-response","83","524261","0.0-3.0-11.0-4.0-1.1","spark_pilot_norest","8674","1","17","Male","","","","","","","null","<div style=""font-size:60px;"">+</div>","null","fixation","","","","","","","","","","","",""
"revaluation","84","528289","0.0-3.0-11.0-4.0-0.2","spark_pilot_norest","8674","1","17","Male","","","false","","","","[396]","./assets/img/space/animals/cat.jpg","[""ArrowRight""]","practice block","space","36","{""ArrowUp,ArrowLeft"":3,""ArrowUp,ArrowRight"":36,""ArrowDown,ArrowLeft"":15,""ArrowDown,ArrowRight"":23}","true","ArrowUp,ArrowRight","","","","","","",""
"html-keyboard-response","85","528791","0.0-3.0-11.0-4.0-1.2","spark_pilot_norest","8674","1","17","Male","","","","","","","null","<div style=""font-size:60px;"">+</div>","null","fixation","","","","","","","","","","","",""
"revaluation","86","532820","0.0-3.0-11.0-4.0-0.3","spark_pilot_norest","8674","1","17","Male","","","false","","","","[443]","./assets/img/space/animals/rabbit.jpg","[""ArrowRight""]","practice block","space","23","{""ArrowUp,ArrowLeft"":3,""ArrowUp,ArrowRight"":36,""ArrowDown,ArrowLeft"":15,""ArrowDown,ArrowRight"":23}","true","ArrowDown,ArrowRight","","","","","","",""
"html-keyboard-response","87","533322","0.0-3.0-11.0-4.0-1.3","spark_pilot_norest","8674","1","17","Male","","","","","","","null","<div style=""font-size:60px;"">+</div>","null","fixation","","","","","","","","","","","",""
"learning-instructions","88","541462","0.0-3.0-11.0-5.0-0.0","spark_pilot_norest","8674","1","17","Male","","","","","","","null","<p> You have almost finished this part of the game! </p>
            <p> We are going to ask you to make a few more choices. </p>","","instructions","","","","","","","","","","","",""
"learning-instructions","89","557531","0.0-3.0-11.0-5.0-0.1","spark_pilot_norest","8674","1","17","Male","","","","","","","null","<p> First, you need to decide whether to go up or down. When you see each picture, use the arrow keys to make your choice. </p>
            <p><b>You will not see which animal you found, but try to get to the one that will give you the most treasure.</b></p>","","instructions","","","","","","","","","","","",""
"html-keyboard-response","90","558533","0.0-3.0-11.0-6.0-0.0","spark_pilot_norest","8674","1","17","Male","","","","","","","null","<div style=""font-size:100px;color:red;"">Starting in...</div>","null","","","","","","","","","","","","",""
"html-keyboard-response","91","559534","0.0-3.0-11.0-6.0-1.0","spark_pilot_norest","8674","1","17","Male","","","","","","","null","<div style=""font-size:200px;color:red;"">3</div>","null","","","","","","","","","","","","",""
"html-keyboard-response","92","560536","0.0-3.0-11.0-6.0-2.0","spark_pilot_norest","8674","1","17","Male","","","","","","","null","<div style=""font-size:200px;color:red;"">2</div>","null","","","","","","","","","","","","",""
"html-keyboard-response","93","561537","0.0-3.0-11.0-6.0-3.0","spark_pilot_norest","8674","1","17","Male","","","","","","","null","<div style=""font-size:200px;color:red;"">1</div>","null","","","","","","","","","","","","",""
"revaluation","94","562720","0.0-3.0-11.0-7.0","spark_pilot_norest","8674","1","17","Male","","","false","","","","[1180]","./assets/img/space/15.jpg","[""ArrowUp""]","practice block","space","0","{""ArrowUp,ArrowLeft"":3,""ArrowUp,ArrowRight"":36,""ArrowDown,ArrowLeft"":15,""ArrowDown,ArrowRight"":23}","true","ArrowUp","false","","","","","",""
"html-keyboard-response","95","563228","0.0-3.0-11.0-8.0","spark_pilot_norest","8674","1","17","Male","","","","","","","null","<div style=""font-size:60px;"">+</div>","null","fixation","","","","","","","","","","","",""
"learning-instructions","96","576643","0.0-3.0-11.0-9.0-0.0","spark_pilot_norest","8674","1","17","Male","","","","","","","null","<p> Now you will see the animals again and can search their chests for treasure. </p>
            <p> This time, you will not see how much treasure you earned, but you will earn more bonus money for making better choices. </p>","","instructions","","","","","","","","","","","",""
"html-keyboard-response","97","577648","0.0-3.0-11.0-10.0-0.0","spark_pilot_norest","8674","1","17","Male","","","","","","","null","<div style=""font-size:100px;color:red;"">Starting in...</div>","null","","","","","","","","","","","","",""
"html-keyboard-response","98","578650","0.0-3.0-11.0-10.0-1.0","spark_pilot_norest","8674","1","17","Male","","","","","","","null","<div style=""font-size:200px;color:red;"">3</div>","null","","","","","","","","","","","","",""
"html-keyboard-response","99","579665","0.0-3.0-11.0-10.0-2.0","spark_pilot_norest","8674","1","17","Male","","","","","","","null","<div style=""font-size:200px;color:red;"">2</div>","null","","","","","","","","","","","","",""
"html-keyboard-response","100","580666","0.0-3.0-11.0-10.0-3.0","spark_pilot_norest","8674","1","17","Male","","","","","","","null","<div style=""font-size:200px;color:red;"">1</div>","null","","","","","","","","","","","","",""
"revaluation","101","581586","0.0-3.0-11.0-11.0-0.0","spark_pilot_norest","8674","1","17","Male","","","false","","","","[917]","./assets/img/space/animals/cat.jpg","[""ArrowRight""]","practice block","space","0","{""ArrowUp,ArrowLeft"":3,""ArrowUp,ArrowRight"":36,""ArrowDown,ArrowLeft"":15,""ArrowDown,ArrowRight"":23}","true","ArrowUp,ArrowRight","","","","","","",""
"html-keyboard-response","102","582089","0.0-3.0-11.0-11.0-1.0","spark_pilot_norest","8674","1","17","Male","","","","","","","null","<div style=""font-size:60px;"">+</div>","null","fixation","","","","","","","","","","","",""
"revaluation","103","583093","0.0-3.0-11.0-11.0-0.1","spark_pilot_norest","8674","1","17","Male","","","false","","","","[1002]","./assets/img/space/animals/rabbit.jpg","[""ArrowRight""]","practice block","space","0","{""ArrowUp,ArrowLeft"":3,""ArrowUp,ArrowRight"":36,""ArrowDown,ArrowLeft"":15,""ArrowDown,ArrowRight"":23}","true","ArrowDown,ArrowRight","","","","","","",""
"html-keyboard-response","104","583602","0.0-3.0-11.0-11.0-1.1","spark_pilot_norest","8674","1","17","Male","","","","","","","null","<div style=""font-size:60px;"">+</div>","null","fixation","","","","","","","","","","","",""
"learning-instructions","105","589620","0.0-3.0-12.0-0.0","spark_pilot_norest","8674","1","17","Male","","","","","","","1409","<p> Before you start, we're going to ask you a few questions about how the game works. </p>","","instructions","","","","","","","","","","","",""
"comp-q","106","603026","0.0-3.0-13.0-0.0-0.0","spark_pilot_norest","8674","1","17","Male","","","","","","","7781","<p> <b> True or False? </b> </p>
            <p> There can be 50 pieces of treasure in a given animal's chest. </p>","0","comp_question","","","","false","","","","","","","",""
"comp-q","107","610662","0.0-3.0-13.0-0.0-1.0","spark_pilot_norest","8674","1","17","Male","","","","","","","1091","<p> <b>Incorrect.</b> The amount of treasure in each chest can range from 0 to 40 pieces. </p>","0","comp_answer","","","","","","","","","","","",""
"comp-q","108","616932","0.0-3.0-13.0-0.1-0.1","spark_pilot_norest","8674","1","17","Male","","","","","","","710","<p> <b> True or False? </b> </p>
            <p> There can be 50 pieces of treasure in a given animal's chest. </p>","1","comp_question","","","","true","","","","","","","",""
"comp-q","109","624986","0.0-3.0-13.0-0.1-1.1","spark_pilot_norest","8674","1","17","Male","","","","","","","1364","<p> <b> That's right! </b> The amount of treasure in each chest can range from 0 to 40 pieces. </p>","0","comp_answer","","","","","","","","","","","",""
"comp-q","110","632876","0.0-3.0-13.0-0.2-0.2","spark_pilot_norest","8674","1","17","Male","","","","","","","755","<p> <b> True or False? </b> </p><p> In this game, all animals have the same amount of treasure in their left and right chests. </p>","1","comp_question","","","","true","","","","","","","",""
"comp-q","111","640189","0.0-3.0-13.0-0.2-1.2","spark_pilot_norest","8674","1","17","Male","","","","","","","2066","<p> <b> That's right! </b> Animals have different amounts of treasure in their treasure chests. </p>","0","comp_answer","","","","","","","","","","","",""
"comp-q","112","646549","0.0-3.0-13.0-0.3-0.3","spark_pilot_norest","8674","1","17","Male","","","","","","","488","<p> <b> True or False? </b> </p><p> The same animal will always be there if you go up in the same place. </p>","0","comp_question","","","","true","","","","","","","",""
"comp-q","113","654052","0.0-3.0-13.0-0.3-1.3","spark_pilot_norest","8674","1","17","Male","","","","","","","1041","<p> <b> That's right! </b> One animal lives in the upper part and one lives in the lower part of every place. </p>","0","comp_answer","","","","","","","","","","","",""
"comp-q","114","660238","0.0-3.0-13.0-0.4-0.4","spark_pilot_norest","8674","1","17","Male","","","","","","","647","<p> <b> True or False? </b> </p><p> If you see a different picture, it means you are in a new place. </p>","1","comp_question","","","","true","","","","","","","",""
"comp-q","115","672534","0.0-3.0-13.0-0.4-1.4","spark_pilot_norest","8674","1","17","Male","","","","","","","1022","<p> <b> That's right! </b> Lots of different images may show the same place. For example,  you may see three different images that all remind you that you are in outer space. </p>","0","comp_answer","","","","","","","","","","","",""
"learning-instructions","116","685634","0.0-3.0-14.0-0.0","spark_pilot_norest","8674","1","17","Male","","","","","","","3202","<p> Good job. Remember to do your best because the amount of treasure you earn will be converted into bonus money. </p>
            <p> It’s time to start the real game! </p>","","instructions","","","","","","","","","","","",""
"learning-instructions","117","689818","0.0-4.0-0.0-0.0","spark_pilot_norest","8674","1","17","Male","","","","","","","1465","<p> This time you are searching for treasure in the <b>ocean</b>.</p>","","instructions","","","","","","","","","","","",""
"learning-instructions","118","707950","0.0-4.0-0.0-0.1","spark_pilot_norest","8674","1","17","Male","","","","","","","758","<p><b>New</b> animals with <b>new</b> treasure chests live here. You need to explore to discover where the animal with the best treasure chest is.</p>
                    <p> Like before, once you figure out which animal has the chest with the most treasure, you should try to get to that animal and select that chest! </p>","","instructions","","","","","","","","","","","",""
"learning-instructions","119","723953","0.0-4.0-1.0-0.0","spark_pilot_norest","8674","1","17","Male","","","","","","","1281","<p> Remember, when you see a picture of the place, use the up and down keys to <b>find an animal</b>.</p>
            <p> When you encounter an animal, you should use the left and right keys to <b>select a treasure chest</b>.</p>
            <p> Don't forget to look out for the robber! </p>","","instructions","","","","","","","","","","","",""
"revaluation","120","729982","0.0-4.0-2.0-0.0","spark_pilot_norest","8674","1","17","Male","","","false","","","","[1349,571]","./assets/img/ocean/memory/25.jpg","[""ArrowUp"",""ArrowRight""]","value training","ocean","10","{""ArrowUp,ArrowLeft"":26,""ArrowUp,ArrowRight"":10,""ArrowDown,ArrowLeft"":5,""ArrowDown,ArrowRight"":17}","false","ArrowUp,ArrowRight","false","original","1","0","","",""
"html-keyboard-response","121","730495","0.0-4.0-2.0-1.0","spark_pilot_norest","8674","1","17","Male","","","","","","","null","<div style=""font-size:60px;"">+</div>","null","fixation","","","","","","","","","1","","",""
"revaluation","122","736512","0.0-4.0-2.0-0.1","spark_pilot_norest","8674","1","17","Male","","","false","","","","[414,283]","./assets/img/ocean/memory/39.jpg","[""ArrowUp"",""ArrowLeft""]","value training","ocean","26","{""ArrowUp,ArrowLeft"":26,""ArrowUp,ArrowRight"":10,""ArrowDown,ArrowLeft"":5,""ArrowDown,ArrowRight"":17}","true","ArrowUp,ArrowLeft","false","original","1","2","","",""
"html-keyboard-response","123","737026","0.0-4.0-2.0-1.1","spark_pilot_norest","8674","1","17","Male","","","","","","","null","<div style=""font-size:60px;"">+</div>","null","fixation","","","","","","","","","3","","",""
"revaluation","124","741057","0.0-4.0-2.0-0.2","spark_pilot_norest","8674","1","17","Male","","","false","","","","[336]","./assets/img/ocean/catch/1.jpg","[""ArrowDown""]","value training","ocean","-10","{""ArrowUp,ArrowLeft"":26,""ArrowUp,ArrowRight"":10,""ArrowDown,ArrowLeft"":5,""ArrowDown,ArrowRight"":17}","false","ArrowDown","true","original","1","4","","",""
"html-keyboard-response","125","741571","0.0-4.0-2.0-1.2","spark_pilot_norest","8674","1","17","Male","","","","","","","null","<div style=""font-size:60px;"">+</div>","null","fixation","","","","","","","","","5","","",""
"revaluation","126","747587","0.0-4.0-2.0-0.3","spark_pilot_norest","8674","1","17","Male","","","false","","","","[967,407]","./assets/img/ocean/memory/2.jpg","[""ArrowDown"",""ArrowRight""]","value training","ocean","17","{""ArrowUp,ArrowLeft"":26,""ArrowUp,ArrowRight"":10,""ArrowDown,ArrowLeft"":5,""ArrowDown,ArrowRight"":17}","false","ArrowDown,ArrowRight","false","original","1","6","","",""
"html-keyboard-response","127","748103","0.0-4.0-2.0-1.3","spark_pilot_norest","8674","1","17","Male","","","","","","","null","<div style=""font-size:60px;"">+</div>","null","fixation","","","","","","","","","7","","",""
"revaluation","128","754124","0.0-4.0-2.0-0.4","spark_pilot_norest","8674","1","17","Male","","","false","","","","[909,337]","./assets/img/ocean/memory/11.jpg","[""ArrowDown"",""ArrowLeft""]","value training","ocean","5","{""ArrowUp,ArrowLeft"":26,""ArrowUp,ArrowRight"":10,""ArrowDown,ArrowLeft"":5,""ArrowDown,ArrowRight"":17}","false","ArrowDown,ArrowLeft","false","original","1","8","","",""
"html-keyboard-response","129","754626","0.0-4.0-2.0-1.4","spark_pilot_norest","8674","1","17","Male","","","","","","","null","<div style=""font-size:60px;"">+</div>","null","fixation","","","","","","","","","9","","",""
"revaluation","130","758630","0.0-4.0-2.0-0.5","spark_pilot_norest","8674","1","17","Male","","","false","","","","[693]","./assets/img/ocean/catch/6.jpg","[""spaceBar""]","value training","ocean","0","{""ArrowUp,ArrowLeft"":26,""ArrowUp,ArrowRight"":10,""ArrowDown,ArrowLeft"":5,""ArrowDown,ArrowRight"":17}","true","spaceBar","true","original","1","10","","",""
"html-keyboard-response","131","759132","0.0-4.0-2.0-1.5","spark_pilot_norest","8674","1","17","Male","","","","","","","null","<div style=""font-size:60px;"">+</div>","null","fixation","","","","","","","","","11","","",""
"revaluation","132","765139","0.0-4.0-2.0-0.6","spark_pilot_norest","8674","1","17","Male","","","false","","","","[462,274]","./assets/img/ocean/memory/1.jpg","[""ArrowUp"",""ArrowLeft""]","value training","ocean","26","{""ArrowUp,ArrowLeft"":26,""ArrowUp,ArrowRight"":10,""ArrowDown,ArrowLeft"":5,""ArrowDown,ArrowRight"":17}","true","ArrowUp,ArrowLeft","false","original","1","12","","",""
"html-keyboard-response","133","765641","0.0-4.0-2.0-1.6","spark_pilot_norest","8674","1","17","Male","","","","","","","null","<div style=""font-size:60px;"">+</div>","null","fixation","","","","","","","","","13","","",""
"revaluation","134","771645","0.0-4.0-2.0-0.7","spark_pilot_norest","8674","1","17","Male","","","false","","","","[797,307]","./assets/img/ocean/memory/14.jpg","[""ArrowUp"",""ArrowLeft""]","value training","ocean","26","{""ArrowUp,ArrowLeft"":26,""ArrowUp,ArrowRight"":10,""ArrowDown,ArrowLeft"":5,""ArrowDown,ArrowRight"":17}","true","ArrowUp,ArrowLeft","false","original","1","14","","",""
"html-keyboard-response","135","772147","0.0-4.0-2.0-1.7","spark_pilot_norest","8674","1","17","Male","","","","","","","null","<div style=""font-size:60px;"">+</div>","null","fixation","","","","","","","","","15","","",""
"revaluation","136","778154","0.0-4.0-2.0-0.8","spark_pilot_norest","8674","1","17","Male","","","false","","","","[792,283]","./assets/img/ocean/memory/37.jpg","[""ArrowUp"",""ArrowLeft""]","value training","ocean","26","{""ArrowUp,ArrowLeft"":26,""ArrowUp,ArrowRight"":10,""ArrowDown,ArrowLeft"":5,""ArrowDown,ArrowRight"":17}","true","ArrowUp,ArrowLeft","false","original","1","16","","",""
"html-keyboard-response","137","778656","0.0-4.0-2.0-1.8","spark_pilot_norest","8674","1","17","Male","","","","","","","null","<div style=""font-size:60px;"">+</div>","null","fixation","","","","","","","","","17","","",""
"revaluation","138","784659","0.0-4.0-2.0-0.9","spark_pilot_norest","8674","1","17","Male","","","false","","","","[1163,332]","./assets/img/ocean/memory/15.jpg","[""ArrowUp"",""ArrowLeft""]","value training","ocean","26","{""ArrowUp,ArrowLeft"":26,""ArrowUp,ArrowRight"":10,""ArrowDown,ArrowLeft"":5,""ArrowDown,ArrowRight"":17}","true","ArrowUp,ArrowLeft","false","original","1","18","","",""
"html-keyboard-response","139","785160","0.0-4.0-2.0-1.9","spark_pilot_norest","8674","1","17","Male","","","","","","","null","<div style=""font-size:60px;"">+</div>","null","fixation","","","","","","","","","19","","",""
"revaluation","140","791166","0.0-4.0-2.0-0.10","spark_pilot_norest","8674","1","17","Male","","","false","","","","[827,242]","./assets/img/ocean/memory/29.jpg","[""ArrowUp"",""ArrowLeft""]","value training","ocean","26","{""ArrowUp,ArrowLeft"":26,""ArrowUp,ArrowRight"":10,""ArrowDown,ArrowLeft"":5,""ArrowDown,ArrowRight"":17}","true","ArrowUp,ArrowLeft","false","original","1","20","","",""
"html-keyboard-response","141","791667","0.0-4.0-2.0-1.10","spark_pilot_norest","8674","1","17","Male","","","","","","","null","<div style=""font-size:60px;"">+</div>","null","fixation","","","","","","","","","21","","",""
"revaluation","142","797673","0.0-4.0-2.0-0.11","spark_pilot_norest","8674","1","17","Male","","","false","","","","[873,302]","./assets/img/ocean/memory/7.jpg","[""ArrowUp"",""ArrowRight""]","value training","ocean","10","{""ArrowUp,ArrowLeft"":26,""ArrowUp,ArrowRight"":10,""ArrowDown,ArrowLeft"":5,""ArrowDown,ArrowRight"":17}","false","ArrowUp,ArrowRight","false","original","1","22","","",""
"html-keyboard-response","143","798174","0.0-4.0-2.0-1.11","spark_pilot_norest","8674","1","17","Male","","","","","","","null","<div style=""font-size:60px;"">+</div>","null","fixation","","","","","","","","","23","","",""
"revaluation","144","802179","0.0-4.0-2.0-0.12","spark_pilot_norest","8674","1","17","Male","","","false","","","","[661]","./assets/img/ocean/catch/4.jpg","[""spaceBar""]","value training","ocean","0","{""ArrowUp,ArrowLeft"":26,""ArrowUp,ArrowRight"":10,""ArrowDown,ArrowLeft"":5,""ArrowDown,ArrowRight"":17}","true","spaceBar","true","original","1","24","","",""
"html-keyboard-response","145","802680","0.0-4.0-2.0-1.12","spark_pilot_norest","8674","1","17","Male","","","","","","","null","<div style=""font-size:60px;"">+</div>","null","fixation","","","","","","","","","25","","",""
"revaluation","146","808685","0.0-4.0-2.0-0.13","spark_pilot_norest","8674","1","17","Male","","","false","","","","[697,266]","./assets/img/ocean/memory/8.jpg","[""ArrowUp"",""ArrowLeft""]","value training","ocean","26","{""ArrowUp,ArrowLeft"":26,""ArrowUp,ArrowRight"":10,""ArrowDown,ArrowLeft"":5,""ArrowDown,ArrowRight"":17}","true","ArrowUp,ArrowLeft","false","original","1","26","","",""
"html-keyboard-response","147","809186","0.0-4.0-2.0-1.13","spark_pilot_norest","8674","1","17","Male","","","","","","","null","<div style=""font-size:60px;"">+</div>","null","fixation","","","","","","","","","27","","",""
"revaluation","148","813191","0.0-4.0-2.0-0.14","spark_pilot_norest","8674","1","17","Male","","","false","","","","[723]","./assets/img/ocean/catch/2.jpg","[""spaceBar""]","value training","ocean","0","{""ArrowUp,ArrowLeft"":26,""ArrowUp,ArrowRight"":10,""ArrowDown,ArrowLeft"":5,""ArrowDown,ArrowRight"":17}","true","spaceBar","true","original","1","28","","",""
"html-keyboard-response","149","813693","0.0-4.0-2.0-1.14","spark_pilot_norest","8674","1","17","Male","","","","","","","null","<div style=""font-size:60px;"">+</div>","null","fixation","","","","","","","","","29","","",""
"revaluation","150","819699","0.0-4.0-2.0-0.15","spark_pilot_norest","8674","1","17","Male","","","false","","","","[397,232]","./assets/img/ocean/memory/2.jpg","[""ArrowUp"",""ArrowLeft""]","value training","ocean","26","{""ArrowUp,ArrowLeft"":26,""ArrowUp,ArrowRight"":10,""ArrowDown,ArrowLeft"":5,""ArrowDown,ArrowRight"":17}","true","ArrowUp,ArrowLeft","false","original","1","30","","",""
"html-keyboard-response","151","820200","0.0-4.0-2.0-1.15","spark_pilot_norest","8674","1","17","Male","","","","","","","null","<div style=""font-size:60px;"">+</div>","null","fixation","","","","","","","","","31","","",""
"revaluation","152","826204","0.0-4.0-2.0-0.16","spark_pilot_norest","8674","1","17","Male","","","false","","","","[783,236]","./assets/img/ocean/memory/35.jpg","[""ArrowUp"",""ArrowLeft""]","value training","ocean","26","{""ArrowUp,ArrowLeft"":26,""ArrowUp,ArrowRight"":10,""ArrowDown,ArrowLeft"":5,""ArrowDown,ArrowRight"":17}","true","ArrowUp,ArrowLeft","false","original","1","32","","",""
"html-keyboard-response","153","826705","0.0-4.0-2.0-1.16","spark_pilot_norest","8674","1","17","Male","","","","","","","null","<div style=""font-size:60px;"">+</div>","null","fixation","","","","","","","","","33","","",""
"revaluation","154","832710","0.0-4.0-2.0-0.17","spark_pilot_norest","8674","1","17","Male","","","false","","","","[657,117]","./assets/img/ocean/memory/33.jpg","[""ArrowUp"",""ArrowLeft""]","value training","ocean","26","{""ArrowUp,ArrowLeft"":26,""ArrowUp,ArrowRight"":10,""ArrowDown,ArrowLeft"":5,""ArrowDown,ArrowRight"":17}","true","ArrowUp,ArrowLeft","false","original","1","34","","",""
"html-keyboard-response","155","833211","0.0-4.0-2.0-1.17","spark_pilot_norest","8674","1","17","Male","","","","","","","null","<div style=""font-size:60px;"">+</div>","null","fixation","","","","","","","","","35","","",""
"revaluation","156","837215","0.0-4.0-2.0-0.18","spark_pilot_norest","8674","1","17","Male","","","false","","","","[1145]","./assets/img/ocean/catch/7.jpg","[""spaceBar""]","value training","ocean","0","{""ArrowUp,ArrowLeft"":26,""ArrowUp,ArrowRight"":10,""ArrowDown,ArrowLeft"":5,""ArrowDown,ArrowRight"":17}","true","spaceBar","true","original","1","36","","",""
"html-keyboard-response","157","837717","0.0-4.0-2.0-1.18","spark_pilot_norest","8674","1","17","Male","","","","","","","null","<div style=""font-size:60px;"">+</div>","null","fixation","","","","","","","","","37","","",""
"revaluation","158","843722","0.0-4.0-2.0-0.19","spark_pilot_norest","8674","1","17","Male","","","false","","","","[690,276]","./assets/img/ocean/memory/25.jpg","[""ArrowUp"",""ArrowLeft""]","value training","ocean","26","{""ArrowUp,ArrowLeft"":26,""ArrowUp,ArrowRight"":10,""ArrowDown,ArrowLeft"":5,""ArrowDown,ArrowRight"":17}","true","ArrowUp,ArrowLeft","false","original","1","38","","",""
"html-keyboard-response","159","844223","0.0-4.0-2.0-1.19","spark_pilot_norest","8674","1","17","Male","","","","","","","null","<div style=""font-size:60px;"">+</div>","null","fixation","","","","","","","","","39","","",""
"revaluation","160","848228","0.0-4.0-2.0-0.20","spark_pilot_norest","8674","1","17","Male","","","false","","","","[633]","./assets/img/ocean/catch/0.jpg","[""spaceBar""]","value training","ocean","0","{""ArrowUp,ArrowLeft"":26,""ArrowUp,ArrowRight"":10,""ArrowDown,ArrowLeft"":5,""ArrowDown,ArrowRight"":17}","true","spaceBar","true","original","1","40","","",""
"html-keyboard-response","161","848729","0.0-4.0-2.0-1.20","spark_pilot_norest","8674","1","17","Male","","","","","","","null","<div style=""font-size:60px;"">+</div>","null","fixation","","","","","","","","","41","","",""
"revaluation","162","854735","0.0-4.0-2.0-0.21","spark_pilot_norest","8674","1","17","Male","","","false","","","","[1021,339]","./assets/img/ocean/memory/10.jpg","[""ArrowUp"",""ArrowLeft""]","value training","ocean","26","{""ArrowUp,ArrowLeft"":26,""ArrowUp,ArrowRight"":10,""ArrowDown,ArrowLeft"":5,""ArrowDown,ArrowRight"":17}","true","ArrowUp,ArrowLeft","false","original","1","42","","",""
"html-keyboard-response","163","855237","0.0-4.0-2.0-1.21","spark_pilot_norest","8674","1","17","Male","","","","","","","null","<div style=""font-size:60px;"">+</div>","null","fixation","","","","","","","","","43","","",""
"revaluation","164","861241","0.0-4.0-2.0-0.22","spark_pilot_norest","8674","1","17","Male","","","false","","","","[1617,763]","./assets/img/ocean/memory/7.jpg","[""ArrowUp"",""ArrowLeft""]","value training","ocean","26","{""ArrowUp,ArrowLeft"":26,""ArrowUp,ArrowRight"":10,""ArrowDown,ArrowLeft"":5,""ArrowDown,ArrowRight"":17}","true","ArrowUp,ArrowLeft","false","original","1","44","","",""
"html-keyboard-response","165","861742","0.0-4.0-2.0-1.22","spark_pilot_norest","8674","1","17","Male","","","","","","","null","<div style=""font-size:60px;"">+</div>","null","fixation","","","","","","","","","45","","",""
"revaluation","166","867749","0.0-4.0-2.0-0.23","spark_pilot_norest","8674","1","17","Male","","","false","","","","[859,222]","./assets/img/ocean/memory/38.jpg","[""ArrowUp"",""ArrowLeft""]","value training","ocean","26","{""ArrowUp,ArrowLeft"":26,""ArrowUp,ArrowRight"":10,""ArrowDown,ArrowLeft"":5,""ArrowDown,ArrowRight"":17}","true","ArrowUp,ArrowLeft","false","original","1","46","","",""
"html-keyboard-response","167","868250","0.0-4.0-2.0-1.23","spark_pilot_norest","8674","1","17","Male","","","","","","","null","<div style=""font-size:60px;"">+</div>","null","fixation","","","","","","","","","47","","",""
"revaluation","168","874254","0.0-4.0-2.0-0.24","spark_pilot_norest","8674","1","17","Male","","","false","","","","[777,224]","./assets/img/ocean/memory/35.jpg","[""ArrowUp"",""ArrowLeft""]","value training","ocean","26","{""ArrowUp,ArrowLeft"":26,""ArrowUp,ArrowRight"":10,""ArrowDown,ArrowLeft"":5,""ArrowDown,ArrowRight"":17}","true","ArrowUp,ArrowLeft","false","original","1","48","","",""
"html-keyboard-response","169","874757","0.0-4.0-2.0-1.24","spark_pilot_norest","8674","1","17","Male","","","","","","","null","<div style=""font-size:60px;"">+</div>","null","fixation","","","","","","","","","49","","",""
"revaluation","170","880763","0.0-4.0-2.0-0.25","spark_pilot_norest","8674","1","17","Male","","","false","","","","[1188,292]","./assets/img/ocean/memory/9.jpg","[""ArrowUp"",""ArrowLeft""]","value training","ocean","26","{""ArrowUp,ArrowLeft"":26,""ArrowUp,ArrowRight"":10,""ArrowDown,ArrowLeft"":5,""ArrowDown,ArrowRight"":17}","true","ArrowUp,ArrowLeft","false","original","1","50","","",""
"html-keyboard-response","171","881264","0.0-4.0-2.0-1.25","spark_pilot_norest","8674","1","17","Male","","","","","","","null","<div style=""font-size:60px;"">+</div>","null","fixation","","","","","","","","","51","","",""
"revaluation","172","887269","0.0-4.0-2.0-0.26","spark_pilot_norest","8674","1","17","Male","","","false","","","","[793,209]","./assets/img/ocean/memory/34.jpg","[""ArrowUp"",""ArrowLeft""]","value training","ocean","26","{""ArrowUp,ArrowLeft"":26,""ArrowUp,ArrowRight"":10,""ArrowDown,ArrowLeft"":5,""ArrowDown,ArrowRight"":17}","true","ArrowUp,ArrowLeft","false","original","1","52","","",""
"html-keyboard-response","173","887771","0.0-4.0-2.0-1.26","spark_pilot_norest","8674","1","17","Male","","","","","","","null","<div style=""font-size:60px;"">+</div>","null","fixation","","","","","","","","","53","","",""
"revaluation","174","893775","0.0-4.0-2.0-0.27","spark_pilot_norest","8674","1","17","Male","","","false","","","","[1108,275]","./assets/img/ocean/memory/39.jpg","[""ArrowUp"",""ArrowLeft""]","value training","ocean","26","{""ArrowUp,ArrowLeft"":26,""ArrowUp,ArrowRight"":10,""ArrowDown,ArrowLeft"":5,""ArrowDown,ArrowRight"":17}","true","ArrowUp,ArrowLeft","false","original","1","54","","",""
"html-keyboard-response","175","894276","0.0-4.0-2.0-1.27","spark_pilot_norest","8674","1","17","Male","","","","","","","null","<div style=""font-size:60px;"">+</div>","null","fixation","","","","","","","","","55","","",""
"revaluation","176","900282","0.0-4.0-2.0-0.28","spark_pilot_norest","8674","1","17","Male","","","false","","","","[990,228]","./assets/img/ocean/memory/15.jpg","[""ArrowUp"",""ArrowLeft""]","value training","ocean","26","{""ArrowUp,ArrowLeft"":26,""ArrowUp,ArrowRight"":10,""ArrowDown,ArrowLeft"":5,""ArrowDown,ArrowRight"":17}","true","ArrowUp,ArrowLeft","false","original","1","56","","",""
"html-keyboard-response","177","900783","0.0-4.0-2.0-1.28","spark_pilot_norest","8674","1","17","Male","","","","","","","null","<div style=""font-size:60px;"">+</div>","null","fixation","","","","","","","","","57","","",""
"revaluation","178","906789","0.0-4.0-2.0-0.29","spark_pilot_norest","8674","1","17","Male","","","false","","","","[925,243]","./assets/img/ocean/memory/19.jpg","[""ArrowUp"",""ArrowLeft""]","value training","ocean","26","{""ArrowUp,ArrowLeft"":26,""ArrowUp,ArrowRight"":10,""ArrowDown,ArrowLeft"":5,""ArrowDown,ArrowRight"":17}","true","ArrowUp,ArrowLeft","false","original","1","58","","",""
"html-keyboard-response","179","907291","0.0-4.0-2.0-1.29","spark_pilot_norest","8674","1","17","Male","","","","","","","null","<div style=""font-size:60px;"">+</div>","null","fixation","","","","","","","","","59","","",""
"revaluation","180","913296","0.0-4.0-2.0-0.30","spark_pilot_norest","8674","1","17","Male","","","false","","","","[786,203]","./assets/img/ocean/memory/28.jpg","[""ArrowUp"",""ArrowLeft""]","value training","ocean","26","{""ArrowUp,ArrowLeft"":26,""ArrowUp,ArrowRight"":10,""ArrowDown,ArrowLeft"":5,""ArrowDown,ArrowRight"":17}","true","ArrowUp,ArrowLeft","false","original","1","60","","",""
"html-keyboard-response","181","913797","0.0-4.0-2.0-1.30","spark_pilot_norest","8674","1","17","Male","","","","","","","null","<div style=""font-size:60px;"">+</div>","null","fixation","","","","","","","","","61","","",""
"revaluation","182","919803","0.0-4.0-2.0-0.31","spark_pilot_norest","8674","1","17","Male","","","false","","","","[746,191]","./assets/img/ocean/memory/38.jpg","[""ArrowUp"",""ArrowLeft""]","value training","ocean","26","{""ArrowUp,ArrowLeft"":26,""ArrowUp,ArrowRight"":10,""ArrowDown,ArrowLeft"":5,""ArrowDown,ArrowRight"":17}","true","ArrowUp,ArrowLeft","false","original","1","62","","",""
"html-keyboard-response","183","920306","0.0-4.0-2.0-1.31","spark_pilot_norest","8674","1","17","Male","","","","","","","null","<div style=""font-size:60px;"">+</div>","null","fixation","","","","","","","","","63","","",""
"revaluation","184","924311","0.0-4.0-2.0-0.32","spark_pilot_norest","8674","1","17","Male","","","false","","","","[590]","./assets/img/ocean/catch/3.jpg","[""spaceBar""]","value training","ocean","0","{""ArrowUp,ArrowLeft"":26,""ArrowUp,ArrowRight"":10,""ArrowDown,ArrowLeft"":5,""ArrowDown,ArrowRight"":17}","true","spaceBar","true","original","1","64","","",""
"html-keyboard-response","185","924813","0.0-4.0-2.0-1.32","spark_pilot_norest","8674","1","17","Male","","","","","","","null","<div style=""font-size:60px;"">+</div>","null","fixation","","","","","","","","","65","","",""
"revaluation","186","930817","0.0-4.0-2.0-0.33","spark_pilot_norest","8674","1","17","Male","","","false","","","","[694,240]","./assets/img/ocean/memory/10.jpg","[""ArrowUp"",""ArrowLeft""]","value training","ocean","26","{""ArrowUp,ArrowLeft"":26,""ArrowUp,ArrowRight"":10,""ArrowDown,ArrowLeft"":5,""ArrowDown,ArrowRight"":17}","true","ArrowUp,ArrowLeft","false","original","1","66","","",""
"html-keyboard-response","187","931318","0.0-4.0-2.0-1.33","spark_pilot_norest","8674","1","17","Male","","","","","","","null","<div style=""font-size:60px;"">+</div>","null","fixation","","","","","","","","","67","","",""
"revaluation","188","937323","0.0-4.0-2.0-0.34","spark_pilot_norest","8674","1","17","Male","","","false","","","","[881,239]","./assets/img/ocean/memory/9.jpg","[""ArrowUp"",""ArrowLeft""]","value training","ocean","26","{""ArrowUp,ArrowLeft"":26,""ArrowUp,ArrowRight"":10,""ArrowDown,ArrowLeft"":5,""ArrowDown,ArrowRight"":17}","true","ArrowUp,ArrowLeft","false","original","1","68","","",""
"html-keyboard-response","189","937825","0.0-4.0-2.0-1.34","spark_pilot_norest","8674","1","17","Male","","","","","","","null","<div style=""font-size:60px;"">+</div>","null","fixation","","","","","","","","","69","","",""
"revaluation","190","943831","0.0-4.0-2.0-0.35","spark_pilot_norest","8674","1","17","Male","","","false","","","","[1031,1111]","./assets/img/ocean/memory/6.jpg","[""ArrowDown"",""ArrowRight""]","value training","ocean","17","{""ArrowUp,ArrowLeft"":26,""ArrowUp,ArrowRight"":10,""ArrowDown,ArrowLeft"":5,""ArrowDown,ArrowRight"":17}","false","ArrowDown,ArrowRight","false","original","1","70","","",""
"html-keyboard-response","191","944332","0.0-4.0-2.0-1.35","spark_pilot_norest","8674","1","17","Male","","","","","","","null","<div style=""font-size:60px;"">+</div>","null","fixation","","","","","","","","","71","","",""
"revaluation","192","950337","0.0-4.0-2.0-0.36","spark_pilot_norest","8674","1","17","Male","","","false","","","","[376,272]","./assets/img/ocean/memory/8.jpg","[""ArrowDown"",""ArrowLeft""]","value training","ocean","5","{""ArrowUp,ArrowLeft"":26,""ArrowUp,ArrowRight"":10,""ArrowDown,ArrowLeft"":5,""ArrowDown,ArrowRight"":17}","false","ArrowDown,ArrowLeft","false","original","1","72","","",""
"html-keyboard-response","193","950841","0.0-4.0-2.0-1.36","spark_pilot_norest","8674","1","17","Male","","","","","","","null","<div style=""font-size:60px;"">+</div>","null","fixation","","","","","","","","","73","","",""
"revaluation","194","956846","0.0-4.0-2.0-0.37","spark_pilot_norest","8674","1","17","Male","","","false","","","","[653,194]","./assets/img/ocean/memory/34.jpg","[""ArrowUp"",""ArrowLeft""]","value training","ocean","26","{""ArrowUp,ArrowLeft"":26,""ArrowUp,ArrowRight"":10,""ArrowDown,ArrowLeft"":5,""ArrowDown,ArrowRight"":17}","true","ArrowUp,ArrowLeft","false","original","1","74","","",""
"html-keyboard-response","195","957348","0.0-4.0-2.0-1.37","spark_pilot_norest","8674","1","17","Male","","","","","","","null","<div style=""font-size:60px;"">+</div>","null","fixation","","","","","","","","","75","","",""
"revaluation","196","963354","0.0-4.0-2.0-0.38","spark_pilot_norest","8674","1","17","Male","","","false","","","","[1085,251]","./assets/img/ocean/memory/24.jpg","[""ArrowUp"",""ArrowLeft""]","value training","ocean","26","{""ArrowUp,ArrowLeft"":26,""ArrowUp,ArrowRight"":10,""ArrowDown,ArrowLeft"":5,""ArrowDown,ArrowRight"":17}","true","ArrowUp,ArrowLeft","false","original","1","76","","",""
"html-keyboard-response","197","963855","0.0-4.0-2.0-1.38","spark_pilot_norest","8674","1","17","Male","","","","","","","null","<div style=""font-size:60px;"">+</div>","null","fixation","","","","","","","","","77","","",""
"revaluation","198","969869","0.0-4.0-2.0-0.39","spark_pilot_norest","8674","1","17","Male","","","false","","","","[519,251]","./assets/img/ocean/memory/29.jpg","[""ArrowUp"",""ArrowLeft""]","value training","ocean","26","{""ArrowUp,ArrowLeft"":26,""ArrowUp,ArrowRight"":10,""ArrowDown,ArrowLeft"":5,""ArrowDown,ArrowRight"":17}","true","ArrowUp,ArrowLeft","false","original","1","78","","",""
"html-keyboard-response","199","970370","0.0-4.0-2.0-1.39","spark_pilot_norest","8674","1","17","Male","","","","","","","null","<div style=""font-size:60px;"">+</div>","null","fixation","","","","","","","","","79","","",""
"revaluation","200","976375","0.0-4.0-2.0-0.40","spark_pilot_norest","8674","1","17","Male","","","false","","","","[728,282]","./assets/img/ocean/memory/37.jpg","[""ArrowUp"",""ArrowLeft""]","value training","ocean","26","{""ArrowUp,ArrowLeft"":26,""ArrowUp,ArrowRight"":10,""ArrowDown,ArrowLeft"":5,""ArrowDown,ArrowRight"":17}","true","ArrowUp,ArrowLeft","false","original","1","80","","",""
"html-keyboard-response","201","976876","0.0-4.0-2.0-1.40","spark_pilot_norest","8674","1","17","Male","","","","","","","null","<div style=""font-size:60px;"">+</div>","null","fixation","","","","","","","","","81","","",""
"revaluation","202","982881","0.0-4.0-2.0-0.41","spark_pilot_norest","8674","1","17","Male","","","false","","","","[1002,302]","./assets/img/ocean/memory/19.jpg","[""ArrowUp"",""ArrowLeft""]","value training","ocean","26","{""ArrowUp,ArrowLeft"":26,""ArrowUp,ArrowRight"":10,""ArrowDown,ArrowLeft"":5,""ArrowDown,ArrowRight"":17}","true","ArrowUp,ArrowLeft","false","original","1","82","","",""
"html-keyboard-response","203","983383","0.0-4.0-2.0-1.41","spark_pilot_norest","8674","1","17","Male","","","","","","","null","<div style=""font-size:60px;"">+</div>","null","fixation","","","","","","","","","83","","",""
"revaluation","204","989387","0.0-4.0-2.0-0.42","spark_pilot_norest","8674","1","17","Male","","","false","","","","[735,297]","./assets/img/ocean/memory/11.jpg","[""ArrowUp"",""ArrowLeft""]","value training","ocean","26","{""ArrowUp,ArrowLeft"":26,""ArrowUp,ArrowRight"":10,""ArrowDown,ArrowLeft"":5,""ArrowDown,ArrowRight"":17}","true","ArrowUp,ArrowLeft","false","original","1","84","","",""
"html-keyboard-response","205","989888","0.0-4.0-2.0-1.42","spark_pilot_norest","8674","1","17","Male","","","","","","","null","<div style=""font-size:60px;"">+</div>","null","fixation","","","","","","","","","85","","",""
"revaluation","206","995894","0.0-4.0-2.0-0.43","spark_pilot_norest","8674","1","17","Male","","","false","","","","[558,83]","./assets/img/ocean/memory/28.jpg","[""ArrowUp"",""ArrowLeft""]","value training","ocean","26","{""ArrowUp,ArrowLeft"":26,""ArrowUp,ArrowRight"":10,""ArrowDown,ArrowLeft"":5,""ArrowDown,ArrowRight"":17}","true","ArrowUp,ArrowLeft","false","original","1","86","","",""
"html-keyboard-response","207","996395","0.0-4.0-2.0-1.43","spark_pilot_norest","8674","1","17","Male","","","","","","","null","<div style=""font-size:60px;"">+</div>","null","fixation","","","","","","","","","87","","",""
"revaluation","208","1002401","0.0-4.0-2.0-0.44","spark_pilot_norest","8674","1","17","Male","","","false","","","","[593,123]","./assets/img/ocean/memory/1.jpg","[""ArrowUp"",""ArrowLeft""]","value training","ocean","26","{""ArrowUp,ArrowLeft"":26,""ArrowUp,ArrowRight"":10,""ArrowDown,ArrowLeft"":5,""ArrowDown,ArrowRight"":17}","true","ArrowUp,ArrowLeft","false","original","1","88","","",""
"html-keyboard-response","209","1002903","0.0-4.0-2.0-1.44","spark_pilot_norest","8674","1","17","Male","","","","","","","null","<div style=""font-size:60px;"">+</div>","null","fixation","","","","","","","","","89","","",""
"revaluation","210","1006908","0.0-4.0-2.0-0.45","spark_pilot_norest","8674","1","17","Male","","","true","","","","[]","./assets/img/ocean/memory/24.jpg","[]","value training","ocean","-5","{""ArrowUp,ArrowLeft"":26,""ArrowUp,ArrowRight"":10,""ArrowDown,ArrowLeft"":5,""ArrowDown,ArrowRight"":17}","false","","false","original","1","90","","",""
"html-keyboard-response","211","1007409","0.0-4.0-2.0-1.45","spark_pilot_norest","8674","1","17","Male","","","","","","","null","<div style=""font-size:60px;"">+</div>","null","fixation","","","","","","","","","91","","",""
"revaluation","212","1013415","0.0-4.0-2.0-0.46","spark_pilot_norest","8674","1","17","Male","","","false","","","","[555,517]","./assets/img/ocean/memory/6.jpg","[""ArrowUp"",""ArrowLeft""]","value training","ocean","26","{""ArrowUp,ArrowLeft"":26,""ArrowUp,ArrowRight"":10,""ArrowDown,ArrowLeft"":5,""ArrowDown,ArrowRight"":17}","true","ArrowUp,ArrowLeft","false","original","1","92","","",""
"html-keyboard-response","213","1013916","0.0-4.0-2.0-1.46","spark_pilot_norest","8674","1","17","Male","","","","","","","null","<div style=""font-size:60px;"">+</div>","null","fixation","","","","","","","","","93","","",""
"revaluation","214","1019923","0.0-4.0-2.0-0.47","spark_pilot_norest","8674","1","17","Male","","","false","","","","[549,295]","./assets/img/ocean/memory/33.jpg","[""ArrowUp"",""ArrowLeft""]","value training","ocean","26","{""ArrowUp,ArrowLeft"":26,""ArrowUp,ArrowRight"":10,""ArrowDown,ArrowLeft"":5,""ArrowDown,ArrowRight"":17}","true","ArrowUp,ArrowLeft","false","original","1","94","","",""
"html-keyboard-response","215","1020424","0.0-4.0-2.0-1.47","spark_pilot_norest","8674","1","17","Male","","","","","","","null","<div style=""font-size:60px;"">+</div>","null","fixation","","","","","","","","","95","","",""
"revaluation","216","1026430","0.0-4.0-2.0-0.48","spark_pilot_norest","8674","1","17","Male","","","false","","","","[899,285]","./assets/img/ocean/memory/14.jpg","[""ArrowUp"",""ArrowLeft""]","value training","ocean","26","{""ArrowUp,ArrowLeft"":26,""ArrowUp,ArrowRight"":10,""ArrowDown,ArrowLeft"":5,""ArrowDown,ArrowRight"":17}","true","ArrowUp,ArrowLeft","false","original","1","96","","",""
"html-keyboard-response","217","1026931","0.0-4.0-2.0-1.48","spark_pilot_norest","8674","1","17","Male","","","","","","","null","<div style=""font-size:60px;"">+</div>","null","fixation","","","","","","","","","97","","",""
"revaluation","218","1030935","0.0-4.0-2.0-0.49","spark_pilot_norest","8674","1","17","Male","","","false","","","","[1715]","./assets/img/ocean/catch/5.jpg","[""spaceBar""]","value training","ocean","0","{""ArrowUp,ArrowLeft"":26,""ArrowUp,ArrowRight"":10,""ArrowDown,ArrowLeft"":5,""ArrowDown,ArrowRight"":17}","true","spaceBar","true","original","1","98","","",""
"html-keyboard-response","219","1031436","0.0-4.0-2.0-1.49","spark_pilot_norest","8674","1","17","Male","","","","","","","null","<div style=""font-size:60px;"">+</div>","null","fixation","","","","","","","","","99","","",""
"learning-instructions","220","1047388","0.0-4.0-3.0-0.0","spark_pilot_norest","8674","1","17","Male","","","","","","","3074","<p> Now, you will travel with a friend who will choose whether you go up or down first. </p>
            <p> On these turns, you will just see the animal that they found. You will still get to choose which chest to search for treasure.</p>","","instructions","","","","","","","","","","","",""
"revaluation","221","1051403","0.0-4.0-4.0-0.0","spark_pilot_norest","8674","1","17","Male","","","false","","","","[812]","./assets/img/ocean/animals/seahorse.jpg","[""ArrowLeft""]","revaluation","ocean","26","{""ArrowUp,ArrowLeft"":26,""ArrowUp,ArrowRight"":10,""ArrowDown,ArrowLeft"":5,""ArrowDown,ArrowRight"":17}","true","ArrowUp,ArrowLeft","","original","1","0","","",""
"html-keyboard-response","222","1051916","0.0-4.0-4.0-1.0","spark_pilot_norest","8674","1","17","Male","","","","","","","null","<div style=""font-size:60px;"">+</div>","null","fixation","","","","","","","","","1","","",""
"revaluation","223","1055921","0.0-4.0-4.0-0.1","spark_pilot_norest","8674","1","17","Male","","","false","","","","[361]","./assets/img/ocean/animals/seahorse.jpg","[""ArrowLeft""]","revaluation","ocean","26","{""ArrowUp,ArrowLeft"":26,""ArrowUp,ArrowRight"":10,""ArrowDown,ArrowLeft"":5,""ArrowDown,ArrowRight"":17}","true","ArrowUp,ArrowLeft","","original","1","2","","",""
"html-keyboard-response","224","1056428","0.0-4.0-4.0-1.1","spark_pilot_norest","8674","1","17","Male","","","","","","","null","<div style=""font-size:60px;"">+</div>","null","fixation","","","","","","","","","3","","",""
"revaluation","225","1060435","0.0-4.0-4.0-0.2","spark_pilot_norest","8674","1","17","Male","","","false","","","","[481]","./assets/img/ocean/animals/octopus.jpg","[""ArrowRight""]","revaluation","ocean","17","{""ArrowUp,ArrowLeft"":26,""ArrowUp,ArrowRight"":10,""ArrowDown,ArrowLeft"":5,""ArrowDown,ArrowRight"":17}","true","ArrowDown,ArrowRight","","original","1","4","","",""
"html-keyboard-response","226","1060951","0.0-4.0-4.0-1.2","spark_pilot_norest","8674","1","17","Male","","","","","","","null","<div style=""font-size:60px;"">+</div>","null","fixation","","","","","","","","","5","","",""
"revaluation","227","1064963","0.0-4.0-4.0-0.3","spark_pilot_norest","8674","1","17","Male","","","false","","","","[733]","./assets/img/ocean/animals/octopus.jpg","[""ArrowRight""]","revaluation","ocean","17","{""ArrowUp,ArrowLeft"":26,""ArrowUp,ArrowRight"":10,""ArrowDown,ArrowLeft"":5,""ArrowDown,ArrowRight"":17}","true","ArrowDown,ArrowRight","","original","1","6","","",""
"html-keyboard-response","228","1065464","0.0-4.0-4.0-1.3","spark_pilot_norest","8674","1","17","Male","","","","","","","null","<div style=""font-size:60px;"">+</div>","null","fixation","","","","","","","","","7","","",""
"revaluation","229","1069496","0.0-4.0-4.0-0.4","spark_pilot_norest","8674","1","17","Male","","","false","","","","[696]","./assets/img/ocean/animals/seahorse.jpg","[""ArrowLeft""]","revaluation","ocean","26","{""ArrowUp,ArrowLeft"":26,""ArrowUp,ArrowRight"":10,""ArrowDown,ArrowLeft"":5,""ArrowDown,ArrowRight"":17}","true","ArrowUp,ArrowLeft","","original","1","8","","",""
"html-keyboard-response","230","1070009","0.0-4.0-4.0-1.4","spark_pilot_norest","8674","1","17","Male","","","","","","","null","<div style=""font-size:60px;"">+</div>","null","fixation","","","","","","","","","9","","",""
"revaluation","231","1074026","0.0-4.0-4.0-0.5","spark_pilot_norest","8674","1","17","Male","","","true","","","","[]","./assets/img/ocean/animals/octopus.jpg","[]","revaluation","ocean","-5","{""ArrowUp,ArrowLeft"":26,""ArrowUp,ArrowRight"":10,""ArrowDown,ArrowLeft"":5,""ArrowDown,ArrowRight"":17}","false","ArrowDown","","original","1","10","","",""
"html-keyboard-response","232","1074527","0.0-4.0-4.0-1.5","spark_pilot_norest","8674","1","17","Male","","","","","","","null","<div style=""font-size:60px;"">+</div>","null","fixation","","","","","","","","","11","","",""
"revaluation","233","1078531","0.0-4.0-4.0-0.6","spark_pilot_norest","8674","1","17","Male","","","false","","","","[736]","./assets/img/ocean/animals/octopus.jpg","[""ArrowRight""]","revaluation","ocean","17","{""ArrowUp,ArrowLeft"":26,""ArrowUp,ArrowRight"":10,""ArrowDown,ArrowLeft"":5,""ArrowDown,ArrowRight"":17}","true","ArrowDown,ArrowRight","","original","1","12","","",""
"html-keyboard-response","234","1079032","0.0-4.0-4.0-1.6","spark_pilot_norest","8674","1","17","Male","","","","","","","null","<div style=""font-size:60px;"">+</div>","null","fixation","","","","","","","","","13","","",""
"revaluation","235","1083038","0.0-4.0-4.0-0.7","spark_pilot_norest","8674","1","17","Male","","","false","","","","[495]","./assets/img/ocean/animals/seahorse.jpg","[""ArrowLeft""]","revaluation","ocean","26","{""ArrowUp,ArrowLeft"":26,""ArrowUp,ArrowRight"":10,""ArrowDown,ArrowLeft"":5,""ArrowDown,ArrowRight"":17}","true","ArrowUp,ArrowLeft","","original","1","14","","",""
"html-keyboard-response","236","1083540","0.0-4.0-4.0-1.7","spark_pilot_norest","8674","1","17","Male","","","","","","","null","<div style=""font-size:60px;"">+</div>","null","fixation","","","","","","","","","15","","",""
"revaluation","237","1087543","0.0-4.0-4.0-0.8","spark_pilot_norest","8674","1","17","Male","","","false","","","","[594]","./assets/img/ocean/animals/octopus.jpg","[""ArrowRight""]","revaluation","ocean","17","{""ArrowUp,ArrowLeft"":26,""ArrowUp,ArrowRight"":10,""ArrowDown,ArrowLeft"":5,""ArrowDown,ArrowRight"":17}","true","ArrowDown,ArrowRight","","original","1","16","","",""
"html-keyboard-response","238","1088045","0.0-4.0-4.0-1.8","spark_pilot_norest","8674","1","17","Male","","","","","","","null","<div style=""font-size:60px;"">+</div>","null","fixation","","","","","","","","","17","","",""
"revaluation","239","1092049","0.0-4.0-4.0-0.9","spark_pilot_norest","8674","1","17","Male","","","false","","","","[617]","./assets/img/ocean/animals/octopus.jpg","[""ArrowRight""]","revaluation","ocean","17","{""ArrowUp,ArrowLeft"":26,""ArrowUp,ArrowRight"":10,""ArrowDown,ArrowLeft"":5,""ArrowDown,ArrowRight"":17}","true","ArrowDown,ArrowRight","","original","1","18","","",""
"html-keyboard-response","240","1092551","0.0-4.0-4.0-1.9","spark_pilot_norest","8674","1","17","Male","","","","","","","null","<div style=""font-size:60px;"">+</div>","null","fixation","","","","","","","","","19","","",""
"revaluation","241","1096556","0.0-4.0-4.0-0.10","spark_pilot_norest","8674","1","17","Male","","","false","","","","[899]","./assets/img/ocean/animals/octopus.jpg","[""ArrowRight""]","revaluation","ocean","17","{""ArrowUp,ArrowLeft"":26,""ArrowUp,ArrowRight"":10,""ArrowDown,ArrowLeft"":5,""ArrowDown,ArrowRight"":17}","true","ArrowDown,ArrowRight","","original","1","20","","",""
"html-keyboard-response","242","1097057","0.0-4.0-4.0-1.10","spark_pilot_norest","8674","1","17","Male","","","","","","","null","<div style=""font-size:60px;"">+</div>","null","fixation","","","","","","","","","21","","",""
"revaluation","243","1101062","0.0-4.0-4.0-0.11","spark_pilot_norest","8674","1","17","Male","","","false","","","","[780]","./assets/img/ocean/animals/octopus.jpg","[""ArrowRight""]","revaluation","ocean","17","{""ArrowUp,ArrowLeft"":26,""ArrowUp,ArrowRight"":10,""ArrowDown,ArrowLeft"":5,""ArrowDown,ArrowRight"":17}","true","ArrowDown,ArrowRight","","original","1","22","","",""
"html-keyboard-response","244","1101564","0.0-4.0-4.0-1.11","spark_pilot_norest","8674","1","17","Male","","","","","","","null","<div style=""font-size:60px;"">+</div>","null","fixation","","","","","","","","","23","","",""
"revaluation","245","1105567","0.0-4.0-4.0-0.12","spark_pilot_norest","8674","1","17","Male","","","false","","","","[616]","./assets/img/ocean/animals/seahorse.jpg","[""ArrowLeft""]","revaluation","ocean","26","{""ArrowUp,ArrowLeft"":26,""ArrowUp,ArrowRight"":10,""ArrowDown,ArrowLeft"":5,""ArrowDown,ArrowRight"":17}","true","ArrowUp,ArrowLeft","","original","1","24","","",""
"html-keyboard-response","246","1106070","0.0-4.0-4.0-1.12","spark_pilot_norest","8674","1","17","Male","","","","","","","null","<div style=""font-size:60px;"">+</div>","null","fixation","","","","","","","","","25","","",""
"revaluation","247","1110074","0.0-4.0-4.0-0.13","spark_pilot_norest","8674","1","17","Male","","","false","","","","[533]","./assets/img/ocean/animals/seahorse.jpg","[""ArrowLeft""]","revaluation","ocean","26","{""ArrowUp,ArrowLeft"":26,""ArrowUp,ArrowRight"":10,""ArrowDown,ArrowLeft"":5,""ArrowDown,ArrowRight"":17}","true","ArrowUp,ArrowLeft","","original","1","26","","",""
"html-keyboard-response","248","1110575","0.0-4.0-4.0-1.13","spark_pilot_norest","8674","1","17","Male","","","","","","","null","<div style=""font-size:60px;"">+</div>","null","fixation","","","","","","","","","27","","",""
"revaluation","249","1114579","0.0-4.0-4.0-0.14","spark_pilot_norest","8674","1","17","Male","","","false","","","","[807]","./assets/img/ocean/animals/seahorse.jpg","[""ArrowLeft""]","revaluation","ocean","26","{""ArrowUp,ArrowLeft"":26,""ArrowUp,ArrowRight"":10,""ArrowDown,ArrowLeft"":5,""ArrowDown,ArrowRight"":17}","true","ArrowUp,ArrowLeft","","original","1","28","","",""
"html-keyboard-response","250","1115081","0.0-4.0-4.0-1.14","spark_pilot_norest","8674","1","17","Male","","","","","","","null","<div style=""font-size:60px;"">+</div>","null","fixation","","","","","","","","","29","","",""
"revaluation","251","1119086","0.0-4.0-4.0-0.15","spark_pilot_norest","8674","1","17","Male","","","false","","","","[778]","./assets/img/ocean/animals/octopus.jpg","[""ArrowRight""]","revaluation","ocean","17","{""ArrowUp,ArrowLeft"":26,""ArrowUp,ArrowRight"":10,""ArrowDown,ArrowLeft"":5,""ArrowDown,ArrowRight"":17}","true","ArrowDown,ArrowRight","","original","1","30","","",""
"html-keyboard-response","252","1119586","0.0-4.0-4.0-1.15","spark_pilot_norest","8674","1","17","Male","","","","","","","null","<div style=""font-size:60px;"">+</div>","null","fixation","","","","","","","","","31","","",""
"revaluation","253","1123589","0.0-4.0-4.0-0.16","spark_pilot_norest","8674","1","17","Male","","","false","","","","[639]","./assets/img/ocean/animals/seahorse.jpg","[""ArrowLeft""]","revaluation","ocean","26","{""ArrowUp,ArrowLeft"":26,""ArrowUp,ArrowRight"":10,""ArrowDown,ArrowLeft"":5,""ArrowDown,ArrowRight"":17}","true","ArrowUp,ArrowLeft","","original","1","32","","",""
"html-keyboard-response","254","1124091","0.0-4.0-4.0-1.16","spark_pilot_norest","8674","1","17","Male","","","","","","","null","<div style=""font-size:60px;"">+</div>","null","fixation","","","","","","","","","33","","",""
"revaluation","255","1128097","0.0-4.0-4.0-0.17","spark_pilot_norest","8674","1","17","Male","","","false","","","","[847]","./assets/img/ocean/animals/seahorse.jpg","[""ArrowLeft""]","revaluation","ocean","26","{""ArrowUp,ArrowLeft"":26,""ArrowUp,ArrowRight"":10,""ArrowDown,ArrowLeft"":5,""ArrowDown,ArrowRight"":17}","true","ArrowUp,ArrowLeft","","original","1","34","","",""
"html-keyboard-response","256","1128598","0.0-4.0-4.0-1.17","spark_pilot_norest","8674","1","17","Male","","","","","","","null","<div style=""font-size:60px;"">+</div>","null","fixation","","","","","","","","","35","","",""
"learning-instructions","257","1136691","0.0-4.0-5.0-0.0","spark_pilot_norest","8674","1","17","Male","","","","","","","null","<p> You have almost finished this part of the game! </p>
            <p> We are going to ask you to make a few more choices. </p>","","instructions","","","","","","","","","","","",""
"learning-instructions","258","1152671","0.0-4.0-5.0-0.1","spark_pilot_norest","8674","1","17","Male","","","","","","","null","<p> First, you need to decide whether to go up or down. When you see each picture, use the arrow keys to make your choice. </p>
            <p><b>You will not see which animal you found, but try to get to the one that will give you the most treasure.</b></p>","","instructions","","","","","","","","","","","",""
"html-keyboard-response","259","1153673","0.0-4.0-6.0-0.0","spark_pilot_norest","8674","1","17","Male","","","","","","","null","<div style=""font-size:100px;color:red;"">Starting in...</div>","null","","","","","","","","","","","","",""
"html-keyboard-response","260","1154675","0.0-4.0-6.0-1.0","spark_pilot_norest","8674","1","17","Male","","","","","","","null","<div style=""font-size:200px;color:red;"">3</div>","null","","","","","","","","","","","","",""
"html-keyboard-response","261","1155682","0.0-4.0-6.0-2.0","spark_pilot_norest","8674","1","17","Male","","","","","","","null","<div style=""font-size:200px;color:red;"">2</div>","null","","","","","","","","","","","","",""
"html-keyboard-response","262","1156683","0.0-4.0-6.0-3.0","spark_pilot_norest","8674","1","17","Male","","","","","","","null","<div style=""font-size:200px;color:red;"">1</div>","null","","","","","","","","","","","","",""
"revaluation","263","1158104","0.0-4.0-7.0-0.0","spark_pilot_norest","8674","1","17","Male","","","false","","","","[1419]","./assets/img/ocean/test/2.jpg","[""ArrowUp""]","first stage test","ocean","0","{""ArrowUp,ArrowLeft"":26,""ArrowUp,ArrowRight"":10,""ArrowDown,ArrowLeft"":5,""ArrowDown,ArrowRight"":17}","true","ArrowUp","false","original","1","","","",""
"html-keyboard-response","264","1158618","0.0-4.0-7.0-1.0","spark_pilot_norest","8674","1","17","Male","","","","","","","null","<div style=""font-size:60px;"">+</div>","null","fixation","","","","","","","","","","","",""
"revaluation","265","1160194","0.0-4.0-7.0-0.1","spark_pilot_norest","8674","1","17","Male","","","false","","","","[1572]","./assets/img/ocean/test/3.jpg","[""ArrowUp""]","first stage test","ocean","0","{""ArrowUp,ArrowLeft"":26,""ArrowUp,ArrowRight"":10,""ArrowDown,ArrowLeft"":5,""ArrowDown,ArrowRight"":17}","true","ArrowUp","false","original","1","","","",""
"html-keyboard-response","266","1160695","0.0-4.0-7.0-1.1","spark_pilot_norest","8674","1","17","Male","","","","","","","null","<div style=""font-size:60px;"">+</div>","null","fixation","","","","","","","","","","","",""
"revaluation","267","1162536","0.0-4.0-7.0-0.2","spark_pilot_norest","8674","1","17","Male","","","false","","","","[1839]","./assets/img/ocean/test/0.jpg","[""ArrowUp""]","first stage test","ocean","0","{""ArrowUp,ArrowLeft"":26,""ArrowUp,ArrowRight"":10,""ArrowDown,ArrowLeft"":5,""ArrowDown,ArrowRight"":17}","true","ArrowUp","false","original","1","","","",""
"html-keyboard-response","268","1163044","0.0-4.0-7.0-1.2","spark_pilot_norest","8674","1","17","Male","","","","","","","null","<div style=""font-size:60px;"">+</div>","null","fixation","","","","","","","","","","","",""
"revaluation","269","1163752","0.0-4.0-7.0-0.3","spark_pilot_norest","8674","1","17","Male","","","false","","","","[705]","./assets/img/ocean/test/1.jpg","[""ArrowUp""]","first stage test","ocean","0","{""ArrowUp,ArrowLeft"":26,""ArrowUp,ArrowRight"":10,""ArrowDown,ArrowLeft"":5,""ArrowDown,ArrowRight"":17}","true","ArrowUp","false","original","1","","","",""
"html-keyboard-response","270","1164259","0.0-4.0-7.0-1.3","spark_pilot_norest","8674","1","17","Male","","","","","","","null","<div style=""font-size:60px;"">+</div>","null","fixation","","","","","","","","","","","",""
"learning-instructions","271","1177604","0.0-4.0-8.0-0.0","spark_pilot_norest","8674","1","17","Male","","","","","","","null","<p> Now you will see the animals again and can search their chests for treasure. </p>
            <p> This time, you will not see how much treasure you earned, but you will earn more bonus money for making better choices. </p>","","instructions","","","","","","","","","","","",""
"html-keyboard-response","272","1178605","0.0-4.0-9.0-0.0","spark_pilot_norest","8674","1","17","Male","","","","","","","null","<div style=""font-size:100px;color:red;"">Starting in...</div>","null","","","","","","","","","","","","",""
"html-keyboard-response","273","1179619","0.0-4.0-9.0-1.0","spark_pilot_norest","8674","1","17","Male","","","","","","","null","<div style=""font-size:200px;color:red;"">3</div>","null","","","","","","","","","","","","",""
"html-keyboard-response","274","1180634","0.0-4.0-9.0-2.0","spark_pilot_norest","8674","1","17","Male","","","","","","","null","<div style=""font-size:200px;color:red;"">2</div>","null","","","","","","","","","","","","",""
"html-keyboard-response","275","1181635","0.0-4.0-9.0-3.0","spark_pilot_norest","8674","1","17","Male","","","","","","","null","<div style=""font-size:200px;color:red;"">1</div>","null","","","","","","","","","","","","",""
"revaluation","276","1183391","0.0-4.0-10.0-0.0","spark_pilot_norest","8674","1","17","Male","","","false","","","","[1753]","./assets/img/ocean/animals/seahorse.jpg","[""ArrowLeft""]","second stage test","ocean","0","{""ArrowUp,ArrowLeft"":26,""ArrowUp,ArrowRight"":10,""ArrowDown,ArrowLeft"":5,""ArrowDown,ArrowRight"":17}","true","ArrowUp,ArrowLeft","","original","1","","","",""
"html-keyboard-response","277","1183900","0.0-4.0-10.0-1.0","spark_pilot_norest","8674","1","17","Male","","","","","","","null","<div style=""font-size:60px;"">+</div>","null","fixation","","","","","","","","","","","",""
"revaluation","278","1184462","0.0-4.0-10.0-0.1","spark_pilot_norest","8674","1","17","Male","","","false","","","","[560]","./assets/img/ocean/animals/seahorse.jpg","[""ArrowLeft""]","second stage test","ocean","0","{""ArrowUp,ArrowLeft"":26,""ArrowUp,ArrowRight"":10,""ArrowDown,ArrowLeft"":5,""ArrowDown,ArrowRight"":17}","true","ArrowUp,ArrowLeft","","original","1","","","",""
"html-keyboard-response","279","1184963","0.0-4.0-10.0-1.1","spark_pilot_norest","8674","1","17","Male","","","","","","","null","<div style=""font-size:60px;"">+</div>","null","fixation","","","","","","","","","","","",""
"revaluation","280","1185487","0.0-4.0-10.0-0.2","spark_pilot_norest","8674","1","17","Male","","","false","","","","[522]","./assets/img/ocean/animals/seahorse.jpg","[""ArrowLeft""]","second stage test","ocean","0","{""ArrowUp,ArrowLeft"":26,""ArrowUp,ArrowRight"":10,""ArrowDown,ArrowLeft"":5,""ArrowDown,ArrowRight"":17}","true","ArrowUp,ArrowLeft","","original","1","","","",""
"html-keyboard-response","281","1185995","0.0-4.0-10.0-1.2","spark_pilot_norest","8674","1","17","Male","","","","","","","null","<div style=""font-size:60px;"">+</div>","null","fixation","","","","","","","","","","","",""
"revaluation","282","1186494","0.0-4.0-10.0-0.3","spark_pilot_norest","8674","1","17","Male","","","false","","","","[496]","./assets/img/ocean/animals/seahorse.jpg","[""ArrowLeft""]","second stage test","ocean","0","{""ArrowUp,ArrowLeft"":26,""ArrowUp,ArrowRight"":10,""ArrowDown,ArrowLeft"":5,""ArrowDown,ArrowRight"":17}","true","ArrowUp,ArrowLeft","","original","1","","","",""
"html-keyboard-response","283","1187007","0.0-4.0-10.0-1.3","spark_pilot_norest","8674","1","17","Male","","","","","","","null","<div style=""font-size:60px;"">+</div>","null","fixation","","","","","","","","","","","",""
"revaluation","284","1187553","0.0-4.0-10.0-0.4","spark_pilot_norest","8674","1","17","Male","","","false","","","","[543]","./assets/img/ocean/animals/octopus.jpg","[""ArrowRight""]","second stage test","ocean","0","{""ArrowUp,ArrowLeft"":26,""ArrowUp,ArrowRight"":10,""ArrowDown,ArrowLeft"":5,""ArrowDown,ArrowRight"":17}","true","ArrowDown,ArrowRight","","original","1","","","",""
"html-keyboard-response","285","1188056","0.0-4.0-10.0-1.4","spark_pilot_norest","8674","1","17","Male","","","","","","","null","<div style=""font-size:60px;"">+</div>","null","fixation","","","","","","","","","","","",""
"revaluation","286","1188639","0.0-4.0-10.0-0.5","spark_pilot_norest","8674","1","17","Male","","","false","","","","[581]","./assets/img/ocean/animals/octopus.jpg","[""ArrowRight""]","second stage test","ocean","0","{""ArrowUp,ArrowLeft"":26,""ArrowUp,ArrowRight"":10,""ArrowDown,ArrowLeft"":5,""ArrowDown,ArrowRight"":17}","true","ArrowDown,ArrowRight","","original","1","","","",""
"html-keyboard-response","287","1189150","0.0-4.0-10.0-1.5","spark_pilot_norest","8674","1","17","Male","","","","","","","null","<div style=""font-size:60px;"">+</div>","null","fixation","","","","","","","","","","","",""
"revaluation","288","1189638","0.0-4.0-10.0-0.6","spark_pilot_norest","8674","1","17","Male","","","false","","","","[485]","./assets/img/ocean/animals/octopus.jpg","[""ArrowRight""]","second stage test","ocean","0","{""ArrowUp,ArrowLeft"":26,""ArrowUp,ArrowRight"":10,""ArrowDown,ArrowLeft"":5,""ArrowDown,ArrowRight"":17}","true","ArrowDown,ArrowRight","","original","1","","","",""
"html-keyboard-response","289","1190151","0.0-4.0-10.0-1.6","spark_pilot_norest","8674","1","17","Male","","","","","","","null","<div style=""font-size:60px;"">+</div>","null","fixation","","","","","","","","","","","",""
"revaluation","290","1190552","0.0-4.0-10.0-0.7","spark_pilot_norest","8674","1","17","Male","","","false","","","","[399]","./assets/img/ocean/animals/octopus.jpg","[""ArrowRight""]","second stage test","ocean","0","{""ArrowUp,ArrowLeft"":26,""ArrowUp,ArrowRight"":10,""ArrowDown,ArrowLeft"":5,""ArrowDown,ArrowRight"":17}","true","ArrowDown,ArrowRight","","original","1","","","",""
"html-keyboard-response","291","1191058","0.0-4.0-10.0-1.7","spark_pilot_norest","8674","1","17","Male","","","","","","","null","<div style=""font-size:60px;"">+</div>","null","fixation","","","","","","","","","","","",""
"learning-instructions","292","1196136","0.0-4.0-0.1-0.2","spark_pilot_norest","8674","1","17","Male","","","","","","","2306","<p> This time you are searching for treasure in the <b>canyon</b>.</p>","","instructions","","","","","","","","","","","",""
"learning-instructions","293","1214649","0.0-4.0-0.1-0.3","spark_pilot_norest","8674","1","17","Male","","","","","","","1248","<p><b>New</b> animals with <b>new</b> treasure chests live here. You need to explore to discover where the animal with the best treasure chest is.</p>
                    <p> Like before, once you figure out which animal has the chest with the most treasure, you should try to get to that animal and select that chest! </p>","","instructions","","","","","","","","","","","",""
"learning-instructions","294","1230780","0.0-4.0-1.1-0.1","spark_pilot_norest","8674","1","17","Male","","","","","","","1399","<p> Remember, when you see a picture of the place, use the up and down keys to <b>find an animal</b>.</p>
            <p> When you encounter an animal, you should use the left and right keys to <b>select a treasure chest</b>.</p>
            <p> Don't forget to look out for the robber! </p>","","instructions","","","","","","","","","","","",""
"revaluation","295","1234804","0.0-4.0-2.1-0.50","spark_pilot_norest","8674","1","17","Male","","","false","","","","[922]","./assets/img/canyon/catch/6.jpg","[""spaceBar""]","value training","canyon","0","{""ArrowUp,ArrowLeft"":23,""ArrowUp,ArrowRight"":10,""ArrowDown,ArrowLeft"":8,""ArrowDown,ArrowRight"":30}","true","spaceBar","true","revaluation","2","0","","",""
"html-keyboard-response","296","1235306","0.0-4.0-2.1-1.50","spark_pilot_norest","8674","1","17","Male","","","","","","","null","<div style=""font-size:60px;"">+</div>","null","fixation","","","","","","","","","1","","",""
"revaluation","297","1241337","0.0-4.0-2.1-0.51","spark_pilot_norest","8674","1","17","Male","","","false","","","","[1377,610]","./assets/img/canyon/memory/9.jpg","[""ArrowUp"",""ArrowLeft""]","value training","canyon","23","{""ArrowUp,ArrowLeft"":23,""ArrowUp,ArrowRight"":10,""ArrowDown,ArrowLeft"":8,""ArrowDown,ArrowRight"":30}","false","ArrowUp,ArrowLeft","false","revaluation","2","2","","",""
"html-keyboard-response","298","1241853","0.0-4.0-2.1-1.51","spark_pilot_norest","8674","1","17","Male","","","","","","","null","<div style=""font-size:60px;"">+</div>","null","fixation","","","","","","","","","3","","",""
"revaluation","299","1247884","0.0-4.0-2.1-0.52","spark_pilot_norest","8674","1","17","Male","","","false","","","","[749,288]","./assets/img/canyon/memory/11.jpg","[""ArrowUp"",""ArrowRight""]","value training","canyon","10","{""ArrowUp,ArrowLeft"":23,""ArrowUp,ArrowRight"":10,""ArrowDown,ArrowLeft"":8,""ArrowDown,ArrowRight"":30}","false","ArrowUp,ArrowRight","false","revaluation","2","4","","",""
"html-keyboard-response","300","1248387","0.0-4.0-2.1-1.52","spark_pilot_norest","8674","1","17","Male","","","","","","","null","<div style=""font-size:60px;"">+</div>","null","fixation","","","","","","","","","5","","",""
"revaluation","301","1252401","0.0-4.0-2.1-0.53","spark_pilot_norest","8674","1","17","Male","","","false","","","","[353]","./assets/img/canyon/catch/0.jpg","[""ArrowDown""]","value training","canyon","-10","{""ArrowUp,ArrowLeft"":23,""ArrowUp,ArrowRight"":10,""ArrowDown,ArrowLeft"":8,""ArrowDown,ArrowRight"":30}","false","ArrowDown","true","revaluation","2","6","","",""
"html-keyboard-response","302","1252904","0.0-4.0-2.1-1.53","spark_pilot_norest","8674","1","17","Male","","","","","","","null","<div style=""font-size:60px;"">+</div>","null","fixation","","","","","","","","","7","","",""
"revaluation","303","1258931","0.0-4.0-2.1-0.54","spark_pilot_norest","8674","1","17","Male","","","false","","","","[625,334]","./assets/img/canyon/memory/38.jpg","[""ArrowDown"",""ArrowLeft""]","value training","canyon","8","{""ArrowUp,ArrowLeft"":23,""ArrowUp,ArrowRight"":10,""ArrowDown,ArrowLeft"":8,""ArrowDown,ArrowRight"":30}","false","ArrowDown,ArrowLeft","false","revaluation","2","8","","",""
"html-keyboard-response","304","1259445","0.0-4.0-2.1-1.54","spark_pilot_norest","8674","1","17","Male","","","","","","","null","<div style=""font-size:60px;"">+</div>","null","fixation","","","","","","","","","9","","",""
"revaluation","305","1265464","0.0-4.0-2.1-0.55","spark_pilot_norest","8674","1","17","Male","","","false","","","","[389,292]","./assets/img/canyon/memory/1.jpg","[""ArrowDown"",""ArrowRight""]","value training","canyon","30","{""ArrowUp,ArrowLeft"":23,""ArrowUp,ArrowRight"":10,""ArrowDown,ArrowLeft"":8,""ArrowDown,ArrowRight"":30}","true","ArrowDown,ArrowRight","false","revaluation","2","10","","",""
"html-keyboard-response","306","1265966","0.0-4.0-2.1-1.55","spark_pilot_norest","8674","1","17","Male","","","","","","","null","<div style=""font-size:60px;"">+</div>","null","fixation","","","","","","","","","11","","",""
"revaluation","307","1271970","0.0-4.0-2.1-0.56","spark_pilot_norest","8674","1","17","Male","","","false","","","","[401,291]","./assets/img/canyon/memory/15.jpg","[""ArrowDown"",""ArrowRight""]","value training","canyon","30","{""ArrowUp,ArrowLeft"":23,""ArrowUp,ArrowRight"":10,""ArrowDown,ArrowLeft"":8,""ArrowDown,ArrowRight"":30}","true","ArrowDown,ArrowRight","false","revaluation","2","12","","",""
"html-keyboard-response","308","1272472","0.0-4.0-2.1-1.56","spark_pilot_norest","8674","1","17","Male","","","","","","","null","<div style=""font-size:60px;"">+</div>","null","fixation","","","","","","","","","13","","",""
"revaluation","309","1278478","0.0-4.0-2.1-0.57","spark_pilot_norest","8674","1","17","Male","","","false","","","","[415,311]","./assets/img/canyon/memory/37.jpg","[""ArrowDown"",""ArrowRight""]","value training","canyon","30","{""ArrowUp,ArrowLeft"":23,""ArrowUp,ArrowRight"":10,""ArrowDown,ArrowLeft"":8,""ArrowDown,ArrowRight"":30}","true","ArrowDown,ArrowRight","false","revaluation","2","14","","",""
"html-keyboard-response","310","1278994","0.0-4.0-2.1-1.57","spark_pilot_norest","8674","1","17","Male","","","","","","","null","<div style=""font-size:60px;"">+</div>","null","fixation","","","","","","","","","15","","",""
"revaluation","311","1285000","0.0-4.0-2.1-0.58","spark_pilot_norest","8674","1","17","Male","","","false","","","","[800,539]","./assets/img/canyon/memory/34.jpg","[""ArrowDown"",""ArrowRight""]","value training","canyon","30","{""ArrowUp,ArrowLeft"":23,""ArrowUp,ArrowRight"":10,""ArrowDown,ArrowLeft"":8,""ArrowDown,ArrowRight"":30}","true","ArrowDown,ArrowRight","false","revaluation","2","16","","",""
"html-keyboard-response","312","1285502","0.0-4.0-2.1-1.58","spark_pilot_norest","8674","1","17","Male","","","","","","","null","<div style=""font-size:60px;"">+</div>","null","fixation","","","","","","","","","17","","",""
"revaluation","313","1289506","0.0-4.0-2.1-0.59","spark_pilot_norest","8674","1","17","Male","","","false","","","","[993]","./assets/img/canyon/catch/4.jpg","[""spaceBar""]","value training","canyon","0","{""ArrowUp,ArrowLeft"":23,""ArrowUp,ArrowRight"":10,""ArrowDown,ArrowLeft"":8,""ArrowDown,ArrowRight"":30}","true","spaceBar","true","revaluation","2","18","","",""
"html-keyboard-response","314","1290007","0.0-4.0-2.1-1.59","spark_pilot_norest","8674","1","17","Male","","","","","","","null","<div style=""font-size:60px;"">+</div>","null","fixation","","","","","","","","","19","","",""
