"trial_type","trial_index","time_elapsed","internal_node_id","task_version","subject_id","assigned_condition","age","gender","success","timeout","failed_images","failed_audio","failed_video","browser_interaction","rt","stimulus","response","task_part","environment","score","rewardMap","correct","fullState","isCatch","condition","order","trial_num","key_press","ground_truth","bonus"
"pavlovia","0","1078","0.0-0.0","spark_pilot_norest","10044","6","9","Male","","","","","","","","","","","","","","","","","","","","","",""
"preload","1","30994","0.0-1.0","spark_pilot_norest","10044","6","9","Male","true","false","[]","[]","[]","[{""event"":""fullscreenenter"",""trial"":2,""time"":34948}]","","","","","","","","","","","","","","","",""
"fullscreen","2","35920","0.0-2.0","spark_pilot_norest","10044","6","9","Male","true","","","","","","","","","","","","","","","","","","","","",""
"audio-button-response","3","50215","0.0-3.0-0.0-0.0","spark_pilot_norest","10044","6","9","Male","","","","","","","13941","./assets/audio/audiotest/turtle.mp3","2","audio_test","","","","","","","","","","","",""
"learning-instructions","4","68636","0.0-3.0-1.0-0.0","spark_pilot_norest","10044","6","9","Male","","","","","","","11428.900000035763","<p> Welcome! Please remember to stay in fullscreen mode and don't click away from the experiment. </p>","","instructions","","","","","","","","","","","",""
"learning-instructions","5","78736","0.0-3.0-1.0-0.1","spark_pilot_norest","10044","6","9","Male","","","","","","","1695.800000011921","<p> Today you will be playing a game to earn treasure. </p>
            <p> At the end of the experiment, you will earn a bonus based on how much treasure you find. </p>
            <img src='./assets/img/instructions/treasure.jpg' class='instructions-image'>","","instructions","","","","","","","","","","","",""
"learning-instructions","6","88288","0.0-3.0-1.0-0.2","spark_pilot_norest","10044","6","9","Male","","","","","","","1288","<p> Animals have hidden treasure in treasure chests. </p>
            <p> You need to first find an animal and then choose which of their treasure chests to search. </p>
            <img src='./assets/img/space/animals/cat.jpg' class='instructions-image'>","","instructions","","","","","","","","","","","",""
"learning-instructions","7","102548","0.0-3.0-1.0-0.3","spark_pilot_norest","10044","6","9","Male","","","","","","","1107.699999988079","<p> In each round, you will search for treasure in a different place. In the real game, there will be two rounds. </p>
            <p> You will begin with a separate, practice round where you will search for treasure in outer space. </p>
            <img src='./assets/img/space/0.jpg' class='instructions-image'>","","instructions","","","","","","","","","","","",""
"learning-instructions","8","115544","0.0-3.0-1.0-0.4","spark_pilot_norest","10044","6","9","Male","","","","","","","1583.0999999642372","<p> On every turn, you will see a picture of the place that you are in, but the specific image may be different each time. </p>
            <p> For example, both of these images mean you are in outer space. </p>
            <img src='./assets/img/instructions/outerspace.jpg' class='instructions-image'>","","instructions","","","","","","","","","","","",""
"learning-instructions","9","126058","0.0-3.0-1.0-0.5","spark_pilot_norest","10044","6","9","Male","","","","","","","2686.7999999523163","<p> You need to decide which direction to travel in. </p>
            <p> You can choose between going <b>up or down</b> by using the arrow keys. </p>
            <img src='./assets/img/instructions/updown.jpg' class='instructions-image'>","","instructions","","","","","","","","","","","",""
"learning-instructions","10","138233","0.0-3.0-1.0-0.6","spark_pilot_norest","10044","6","9","Male","","","","","","","3362.2999999523163","<p> You will have <b>2 seconds</b> to make your choice. </p>
            <p> If you do not make a choice within 2 seconds, you will not find an animal or earn treasure. </p>
            <img src='./assets/img/instructions/2seconds.jpg' class='instructions-image'>","","instructions","","","","","","","","","","","",""
"learning-instructions","11","148177","0.0-3.0-1.0-0.7","spark_pilot_norest","10044","6","9","Male","","","","","","","2905.199999988079","<p> Let’s try practicing that now! </p>
            <p> When you see a picture of the place you are in, press the <b>up</b> key to travel up. </p>
            <img src='./assets/img/instructions/pressUp.jpg' class='instructions-image'>","","instructions","","","","","","","","","","","",""
"revaluation","12","152201","0.0-3.0-2.0-0.0","spark_pilot_norest","10044","6","9","Male","","false","","","","","[999.1999999880791]","./assets/img/space/0.jpg","[""ArrowUp""]","first stage practice","space","0","null","null","ArrowUp","false","","","","","",""
"html-keyboard-response","13","152720","0.0-3.0-2.0-1.0","spark_pilot_norest","10044","6","9","Male","","","","","","","null","<div style=""font-size:60px;"">+</div>","null","fixation","","","","","","","","","","","",""
"revaluation","14","156734","0.0-3.0-2.0-0.1","spark_pilot_norest","10044","6","9","Male","","false","","","","","[960.4000000357628]","./assets/img/space/1.jpg","[""ArrowUp""]","first stage practice","space","0","null","null","ArrowUp","false","","","","","",""
"html-keyboard-response","15","157250","0.0-3.0-2.0-1.1","spark_pilot_norest","10044","6","9","Male","","","","","","","null","<div style=""font-size:60px;"">+</div>","null","fixation","","","","","","","","","","","",""
"revaluation","16","161261","0.0-3.0-2.0-0.2","spark_pilot_norest","10044","6","9","Male","","false","","","","","[811.3000000119209]","./assets/img/space/2.jpg","[""ArrowUp""]","first stage practice","space","0","null","null","ArrowUp","false","","","","","",""
"html-keyboard-response","17","161780","0.0-3.0-2.0-1.2","spark_pilot_norest","10044","6","9","Male","","","","","","","null","<div style=""font-size:60px;"">+</div>","null","fixation","","","","","","","","","","","",""
"learning-instructions","18","168369","0.0-3.0-3.0-0.0","spark_pilot_norest","10044","6","9","Male","","","","","","","1897.199999988079","<p> Great job! Now try pressing the <b>down</b> key to travel down. </p>
            <img src='./assets/img/instructions/pressDown.jpg' class='instructions-image'>","","instructions","","","","","","","","","","","",""
"revaluation","19","172391","0.0-3.0-4.0-0.0","spark_pilot_norest","10044","6","9","Male","","false","","","","","[377.7999999523163]","./assets/img/space/3.jpg","[""ArrowDown""]","first stage practice","space","0","null","null","ArrowDown","false","","","","","",""
"html-keyboard-response","20","172900","0.0-3.0-4.0-1.0","spark_pilot_norest","10044","6","9","Male","","","","","","","null","<div style=""font-size:60px;"">+</div>","null","fixation","","","","","","","","","","","",""
"revaluation","21","176941","0.0-3.0-4.0-0.1","spark_pilot_norest","10044","6","9","Male","","false","","","","","[712.6999999880791]","./assets/img/space/4.jpg","[""ArrowDown""]","first stage practice","space","0","null","null","ArrowDown","false","","","","","",""
"html-keyboard-response","22","177450","0.0-3.0-4.0-1.1","spark_pilot_norest","10044","6","9","Male","","","","","","","null","<div style=""font-size:60px;"">+</div>","null","fixation","","","","","","","","","","","",""
"revaluation","23","181470","0.0-3.0-4.0-0.2","spark_pilot_norest","10044","6","9","Male","","false","","","","","[721.5]","./assets/img/space/5.jpg","[""ArrowDown""]","first stage practice","space","0","null","null","ArrowDown","false","","","","","",""
"html-keyboard-response","24","181971","0.0-3.0-4.0-1.2","spark_pilot_norest","10044","6","9","Male","","","","","","","null","<div style=""font-size:60px;"">+</div>","null","fixation","","","","","","","","","","","",""
"learning-instructions","25","197531","0.0-3.0-5.0-0.0","spark_pilot_norest","10044","6","9","Male","","","","","","","5689.199999988079","<p> The animals don’t move, so the animal in the upper part of a place will stay in the upper part of a place, and the animal in the lower part of a place will stay in the lower part of a place. </p>","","instructions","","","","","","","","","","","",""
"learning-instructions","26","208303","0.0-3.0-5.0-0.1","spark_pilot_norest","10044","6","9","Male","","","","","","","1651.5","<p> Each animal has two treasure chests for you to choose from. </p>
            <p> The amount of treasure in each chest can range from <b> 0 to 40 pieces.</b></p>","","instructions","","","","","","","","","","","",""
"learning-instructions","27","220943","0.0-3.0-5.0-0.2","spark_pilot_norest","10044","6","9","Male","","","","","","","1451.9000000357628","<p> You should decide which chest to search for treasure by using the <b>left</b> and <b>right</b> arrow keys. </p>
            <p><b> Pay attention to which animal is on the screen, as the animals have different treasure chests. </b></p>
            <img src='./assets/img/instructions/leftright.jpg' class='instructions-image'>","","instructions","","","","","","","","","","","",""
"learning-instructions","28","228629","0.0-3.0-5.0-0.3","spark_pilot_norest","10044","6","9","Male","","","","","","","1317.8999999761581","<p> Let’s try practicing that now. </p>
            <p> When you see an animal, choose which chest to search for treasure. </p>
            <img src='./assets/img/instructions/chooseChest.jpg' class='instructions-image'>","","instructions","","","","","","","","","","","",""
"revaluation","29","232670","0.0-3.0-6.0-0.0","spark_pilot_norest","10044","6","9","Male","","false","","","","","[635.1000000238419]","./assets/img/space/animals/cat.jpg","[""ArrowLeft""]","second stage practice","space","3","{""ArrowUp,ArrowLeft"":3,""ArrowUp,ArrowRight"":36,""ArrowDown,ArrowLeft"":15,""ArrowDown,ArrowRight"":23}","false","ArrowUp,ArrowLeft","","","","","","",""
"html-keyboard-response","30","233180","0.0-3.0-6.0-1.0","spark_pilot_norest","10044","6","9","Male","","","","","","","null","<div style=""font-size:60px;"">+</div>","null","fixation","","","","","","","","","","","",""
"revaluation","31","237201","0.0-3.0-6.0-0.1","spark_pilot_norest","10044","6","9","Male","","false","","","","","[1465.5]","./assets/img/space/animals/rabbit.jpg","[""ArrowLeft""]","second stage practice","space","15","{""ArrowUp,ArrowLeft"":3,""ArrowUp,ArrowRight"":36,""ArrowDown,ArrowLeft"":15,""ArrowDown,ArrowRight"":23}","false","ArrowDown,ArrowLeft","","","","","","",""
"html-keyboard-response","32","237719","0.0-3.0-6.0-1.1","spark_pilot_norest","10044","6","9","Male","","","","","","","null","<div style=""font-size:60px;"">+</div>","null","fixation","","","","","","","","","","","",""
"revaluation","33","241741","0.0-3.0-6.0-0.2","spark_pilot_norest","10044","6","9","Male","","false","","","","","[888.0999999642372]","./assets/img/space/animals/cat.jpg","[""ArrowLeft""]","second stage practice","space","3","{""ArrowUp,ArrowLeft"":3,""ArrowUp,ArrowRight"":36,""ArrowDown,ArrowLeft"":15,""ArrowDown,ArrowRight"":23}","false","ArrowUp,ArrowLeft","","","","","","",""
"html-keyboard-response","34","242250","0.0-3.0-6.0-1.2","spark_pilot_norest","10044","6","9","Male","","","","","","","null","<div style=""font-size:60px;"">+</div>","null","fixation","","","","","","","","","","","",""
"revaluation","35","246280","0.0-3.0-6.0-0.3","spark_pilot_norest","10044","6","9","Male","","false","","","","","[930.6000000238419]","./assets/img/space/animals/rabbit.jpg","[""ArrowRight""]","second stage practice","space","23","{""ArrowUp,ArrowLeft"":3,""ArrowUp,ArrowRight"":36,""ArrowDown,ArrowLeft"":15,""ArrowDown,ArrowRight"":23}","true","ArrowDown,ArrowRight","","","","","","",""
"html-keyboard-response","36","246800","0.0-3.0-6.0-1.3","spark_pilot_norest","10044","6","9","Male","","","","","","","null","<div style=""font-size:60px;"">+</div>","null","fixation","","","","","","","","","","","",""
"learning-instructions","37","265088","0.0-3.0-7.0-0.0","spark_pilot_norest","10044","6","9","Male","","","","","","","1487.3999999761581","<p> Great job. Now let’s try putting it together. </p>
            <p> On each turn, you will first see a picture to remind you of the place you are in, and you need to choose whether to go up or down. </p>
            <p> Then you will see an animal and choose which of its chests to search for treasure. </p>","","instructions","","","","","","","","","","","",""
"learning-instructions","38","275547","0.0-3.0-7.0-0.1","spark_pilot_norest","10044","6","9","Male","","","","","","","2195.399999976158","<p> When you choose whether to go up or down, try to go to the animal with the chest with the most treasure. </p>
            <p> Try practicing that now! </p>","","instructions","","","","","","","","","","","",""
"revaluation","39","281591","0.0-3.0-8.0-0.0","spark_pilot_norest","10044","6","9","Male","","false","","","","","[1508.199999988079,894.6999999880791]","./assets/img/space/6.jpg","[""ArrowUp"",""ArrowRight""]","full practice","space","36","{""ArrowUp,ArrowLeft"":3,""ArrowUp,ArrowRight"":36,""ArrowDown,ArrowLeft"":15,""ArrowDown,ArrowRight"":23}","true","ArrowUp,ArrowRight","false","","","","","",""
"html-keyboard-response","40","282100","0.0-3.0-8.0-1.0","spark_pilot_norest","10044","6","9","Male","","","","","","","null","<div style=""font-size:60px;"">+</div>","null","fixation","","","","","","","","","","","",""
"revaluation","41","288151","0.0-3.0-8.0-0.1","spark_pilot_norest","10044","6","9","Male","","false","","","","","[1697.699999988079,1702.5]","./assets/img/space/7.jpg","[""ArrowUp"",""ArrowLeft""]","full practice","space","3","{""ArrowUp,ArrowLeft"":3,""ArrowUp,ArrowRight"":36,""ArrowDown,ArrowLeft"":15,""ArrowDown,ArrowRight"":23}","false","ArrowUp,ArrowLeft","false","","","","","",""
"html-keyboard-response","42","288660","0.0-3.0-8.0-1.1","spark_pilot_norest","10044","6","9","Male","","","","","","","null","<div style=""font-size:60px;"">+</div>","null","fixation","","","","","","","","","","","",""
"revaluation","43","294700","0.0-3.0-8.0-0.2","spark_pilot_norest","10044","6","9","Male","","false","","","","","[1135.4000000357628,1246.8999999761581]","./assets/img/space/8.jpg","[""ArrowDown"",""ArrowRight""]","full practice","space","23","{""ArrowUp,ArrowLeft"":3,""ArrowUp,ArrowRight"":36,""ArrowDown,ArrowLeft"":15,""ArrowDown,ArrowRight"":23}","false","ArrowDown,ArrowRight","false","","","","","",""
"html-keyboard-response","44","295210","0.0-3.0-8.0-1.2","spark_pilot_norest","10044","6","9","Male","","","","","","","null","<div style=""font-size:60px;"">+</div>","null","fixation","","","","","","","","","","","",""
"revaluation","45","301250","0.0-3.0-8.0-0.3","spark_pilot_norest","10044","6","9","Male","","false","","","","","[674.6999999880791,326.9000000357628]","./assets/img/space/9.jpg","[""ArrowUp"",""ArrowRight""]","full practice","space","36","{""ArrowUp,ArrowLeft"":3,""ArrowUp,ArrowRight"":36,""ArrowDown,ArrowLeft"":15,""ArrowDown,ArrowRight"":23}","true","ArrowUp,ArrowRight","false","","","","","",""
"html-keyboard-response","46","301770","0.0-3.0-8.0-1.3","spark_pilot_norest","10044","6","9","Male","","","","","","","null","<div style=""font-size:60px;"">+</div>","null","fixation","","","","","","","","","","","",""
"revaluation","47","307775","0.0-3.0-8.0-0.4","spark_pilot_norest","10044","6","9","Male","","false","","","","","[718.1000000238419,551.5]","./assets/img/space/10.jpg","[""ArrowUp"",""ArrowLeft""]","full practice","space","3","{""ArrowUp,ArrowLeft"":3,""ArrowUp,ArrowRight"":36,""ArrowDown,ArrowLeft"":15,""ArrowDown,ArrowRight"":23}","false","ArrowUp,ArrowLeft","false","","","","","",""
"html-keyboard-response","48","308276","0.0-3.0-8.0-1.4","spark_pilot_norest","10044","6","9","Male","","","","","","","null","<div style=""font-size:60px;"">+</div>","null","fixation","","","","","","","","","","","",""
"learning-instructions","49","324568","0.0-3.0-9.0-0.0","spark_pilot_norest","10044","6","9","Male","","","","","","","5714.5","<p> One last thing: sometimes, you will see a robber. The robber can be anywhere in the picture. </p>
            <p> If you do not stop them, you will lose treasure. </p>
            <img src='./assets/img/instructions/robber.jpg' class='instructions-image'>","","instructions","","","","","","","","","","","",""
"learning-instructions","50","333918","0.0-3.0-9.0-0.1","spark_pilot_norest","10044","6","9","Male","","","","","","","2185.199999988079","<p> If you see the robber, you should <b>press the space bar</b> rather than using the arrow keys. </p>
            <p> Try practicing that now! </p>","","instructions","","","","","","","","","","","",""
"revaluation","51","337943","0.0-3.0-10.0-0.0","spark_pilot_norest","10044","6","9","Male","","true","","","","","[]","./assets/img/space/catch/0.jpg","[]","catch practice","space","-5","{""ArrowUp,ArrowLeft"":3,""ArrowUp,ArrowRight"":36,""ArrowDown,ArrowLeft"":15,""ArrowDown,ArrowRight"":23}","false","","true","","","","","",""
"html-keyboard-response","52","338461","0.0-3.0-10.0-1.0","spark_pilot_norest","10044","6","9","Male","","","","","","","null","<div style=""font-size:60px;"">+</div>","null","fixation","","","","","","","","","","","",""
"revaluation","53","342493","0.0-3.0-10.0-0.1","spark_pilot_norest","10044","6","9","Male","","false","","","","","[1121.5]","./assets/img/space/catch/1.jpg","[""spaceBar""]","catch practice","space","0","{""ArrowUp,ArrowLeft"":3,""ArrowUp,ArrowRight"":36,""ArrowDown,ArrowLeft"":15,""ArrowDown,ArrowRight"":23}","true","spaceBar","true","","","","","",""
"html-keyboard-response","54","343012","0.0-3.0-10.0-1.1","spark_pilot_norest","10044","6","9","Male","","","","","","","null","<div style=""font-size:60px;"">+</div>","null","fixation","","","","","","","","","","","",""
"revaluation","55","347032","0.0-3.0-10.0-0.2","spark_pilot_norest","10044","6","9","Male","","false","","","","","[520.8999999761581]","./assets/img/space/catch/2.jpg","[""spaceBar""]","catch practice","space","0","{""ArrowUp,ArrowLeft"":3,""ArrowUp,ArrowRight"":36,""ArrowDown,ArrowLeft"":15,""ArrowDown,ArrowRight"":23}","true","spaceBar","true","","","","","",""
"html-keyboard-response","56","347552","0.0-3.0-10.0-1.2","spark_pilot_norest","10044","6","9","Male","","","","","","","null","<div style=""font-size:60px;"">+</div>","null","fixation","","","","","","","","","","","",""
"learning-instructions","57","354424","0.0-3.0-11.0-0.0-0.0","spark_pilot_norest","10044","6","9","Male","","","","","","","1630.5999999642372","<p> Now, you will practice a shortened version of the game to get a sense of how it all fits together. </p>","","instructions","","","","","","","","","","","",""
"learning-instructions","58","358741","0.0-3.0-11.0-0.0-0.1","spark_pilot_norest","10044","6","9","Male","","","","","","","1127.5","<p>This time you are searching for treasure in outer space.</p>","","instructions","","","","","","","","","","","",""
"learning-instructions","59","375634","0.0-3.0-11.0-1.0-0.0","spark_pilot_norest","10044","6","9","Male","","","","","","","2130.199999988079","<p> Remember, when you see a picture of the place, use the up and down keys to <b>find an animal</b>.</p>
            <p> When you encounter an animal, you should use the left and right keys to <b>select a treasure chest</b>.</p>
            <p> Don't forget to look out for the robber! </p>","","instructions","","","","","","","","","","","",""
"revaluation","60","381672","0.0-3.0-11.0-2.0-0.0","spark_pilot_norest","10044","6","9","Male","","false","","","","","[1071.9000000357628,632.2999999523163]","./assets/img/space/11.jpg","[""ArrowUp"",""ArrowRight""]","practice block","space","36","{""ArrowUp,ArrowLeft"":3,""ArrowUp,ArrowRight"":36,""ArrowDown,ArrowLeft"":15,""ArrowDown,ArrowRight"":23}","true","ArrowUp,ArrowRight","false","","","","","",""
"html-keyboard-response","61","382192","0.0-3.0-11.0-2.0-1.0","spark_pilot_norest","10044","6","9","Male","","","","","","","null","<div style=""font-size:60px;"">+</div>","null","fixation","","","","","","","","","","","",""
"revaluation","62","388243","0.0-3.0-11.0-2.0-0.1","spark_pilot_norest","10044","6","9","Male","","false","","","","","[1202.5,812.4000000357628]","./assets/img/space/12.jpg","[""ArrowDown"",""ArrowRight""]","practice block","space","23","{""ArrowUp,ArrowLeft"":3,""ArrowUp,ArrowRight"":36,""ArrowDown,ArrowLeft"":15,""ArrowDown,ArrowRight"":23}","false","ArrowDown,ArrowRight","false","","","","","",""
"html-keyboard-response","63","388762","0.0-3.0-11.0-2.0-1.1","spark_pilot_norest","10044","6","9","Male","","","","","","","null","<div style=""font-size:60px;"">+</div>","null","fixation","","","","","","","","","","","",""
"revaluation","64","394813","0.0-3.0-11.0-2.0-0.2","spark_pilot_norest","10044","6","9","Male","","false","","","","","[532.4000000357628,201.19999998807907]","./assets/img/space/13.jpg","[""ArrowDown"",""ArrowLeft""]","practice block","space","15","{""ArrowUp,ArrowLeft"":3,""ArrowUp,ArrowRight"":36,""ArrowDown,ArrowLeft"":15,""ArrowDown,ArrowRight"":23}","false","ArrowDown,ArrowLeft","false","","","","","",""
"html-keyboard-response","65","395322","0.0-3.0-11.0-2.0-1.2","spark_pilot_norest","10044","6","9","Male","","","","","","","null","<div style=""font-size:60px;"">+</div>","null","fixation","","","","","","","","","","","",""
"revaluation","66","401373","0.0-3.0-11.0-2.0-0.3","spark_pilot_norest","10044","6","9","Male","","false","","","","","[364.5999999642372,298.30000001192093]","./assets/img/space/14.jpg","[""ArrowUp"",""ArrowLeft""]","practice block","space","3","{""ArrowUp,ArrowLeft"":3,""ArrowUp,ArrowRight"":36,""ArrowDown,ArrowLeft"":15,""ArrowDown,ArrowRight"":23}","false","ArrowUp,ArrowLeft","false","","","","","",""
"html-keyboard-response","67","401883","0.0-3.0-11.0-2.0-1.3","spark_pilot_norest","10044","6","9","Male","","","","","","","null","<div style=""font-size:60px;"">+</div>","null","fixation","","","","","","","","","","","",""
"revaluation","68","407888","0.0-3.0-11.0-2.0-0.4","spark_pilot_norest","10044","6","9","Male","","false","","","","","[384.0999999642372,289.39999997615814]","./assets/img/space/11.jpg","[""ArrowUp"",""ArrowLeft""]","practice block","space","3","{""ArrowUp,ArrowLeft"":3,""ArrowUp,ArrowRight"":36,""ArrowDown,ArrowLeft"":15,""ArrowDown,ArrowRight"":23}","false","ArrowUp,ArrowLeft","false","","","","","",""
"html-keyboard-response","69","408390","0.0-3.0-11.0-2.0-1.4","spark_pilot_norest","10044","6","9","Male","","","","","","","null","<div style=""font-size:60px;"">+</div>","null","fixation","","","","","","","","","","","",""
"revaluation","70","414395","0.0-3.0-11.0-2.0-0.5","spark_pilot_norest","10044","6","9","Male","","false","","","","","[1049.0999999642372,562.5999999642372]","./assets/img/space/12.jpg","[""ArrowUp"",""ArrowRight""]","practice block","space","36","{""ArrowUp,ArrowLeft"":3,""ArrowUp,ArrowRight"":36,""ArrowDown,ArrowLeft"":15,""ArrowDown,ArrowRight"":23}","true","ArrowUp,ArrowRight","false","","","","","",""
"html-keyboard-response","71","414897","0.0-3.0-11.0-2.0-1.5","spark_pilot_norest","10044","6","9","Male","","","","","","","null","<div style=""font-size:60px;"">+</div>","null","fixation","","","","","","","","","","","",""
"revaluation","72","420904","0.0-3.0-11.0-2.0-0.6","spark_pilot_norest","10044","6","9","Male","","false","","","","","[432.69999998807907,389.39999997615814]","./assets/img/space/13.jpg","[""ArrowDown"",""ArrowRight""]","practice block","space","23","{""ArrowUp,ArrowLeft"":3,""ArrowUp,ArrowRight"":36,""ArrowDown,ArrowLeft"":15,""ArrowDown,ArrowRight"":23}","false","ArrowDown,ArrowRight","false","","","","","",""
"html-keyboard-response","73","421414","0.0-3.0-11.0-2.0-1.6","spark_pilot_norest","10044","6","9","Male","","","","","","","null","<div style=""font-size:60px;"">+</div>","null","fixation","","","","","","","","","","","",""
"revaluation","74","427435","0.0-3.0-11.0-2.0-0.7","spark_pilot_norest","10044","6","9","Male","","false","","","","","[582.7000000476837,402.9000000357628]","./assets/img/space/14.jpg","[""ArrowDown"",""ArrowRight""]","practice block","space","23","{""ArrowUp,ArrowLeft"":3,""ArrowUp,ArrowRight"":36,""ArrowDown,ArrowLeft"":15,""ArrowDown,ArrowRight"":23}","false","ArrowDown,ArrowRight","false","","","","","",""
"html-keyboard-response","75","427936","0.0-3.0-11.0-2.0-1.7","spark_pilot_norest","10044","6","9","Male","","","","","","","null","<div style=""font-size:60px;"">+</div>","null","fixation","","","","","","","","","","","",""
"revaluation","76","431942","0.0-3.0-11.0-2.0-0.8","spark_pilot_norest","10044","6","9","Male","","false","","","","","[1349]","./assets/img/space/catch/3.jpg","[""spaceBar""]","practice block","space","0","{""ArrowUp,ArrowLeft"":3,""ArrowUp,ArrowRight"":36,""ArrowDown,ArrowLeft"":15,""ArrowDown,ArrowRight"":23}","true","spaceBar","true","","","","","",""
"html-keyboard-response","77","432443","0.0-3.0-11.0-2.0-1.8","spark_pilot_norest","10044","6","9","Male","","","","","","","null","<div style=""font-size:60px;"">+</div>","null","fixation","","","","","","","","","","","",""
"learning-instructions","78","460908","0.0-3.0-11.0-3.0-0.0","spark_pilot_norest","10044","6","9","Male","","","","","","","15213.699999988079","<p> Now, you will travel with a friend who will choose whether you go up or down first. </p>
            <p> On these turns, you will just see the animal that they found. You will still get to choose which chest to search for treasure.</p>","","instructions","","","","","","","","","","","",""
"revaluation","79","464933","0.0-3.0-11.0-4.0-0.0","spark_pilot_norest","10044","6","9","Male","","false","","","","","[1829.699999988079]","./assets/img/space/animals/cat.jpg","[""ArrowRight""]","practice block","space","36","{""ArrowUp,ArrowLeft"":3,""ArrowUp,ArrowRight"":36,""ArrowDown,ArrowLeft"":15,""ArrowDown,ArrowRight"":23}","true","ArrowUp,ArrowRight","","","","","","",""
"html-keyboard-response","80","465454","0.0-3.0-11.0-4.0-1.0","spark_pilot_norest","10044","6","9","Male","","","","","","","null","<div style=""font-size:60px;"">+</div>","null","fixation","","","","","","","","","","","",""
"revaluation","81","469483","0.0-3.0-11.0-4.0-0.1","spark_pilot_norest","10044","6","9","Male","","false","","","","","[768.5999999642372]","./assets/img/space/animals/cat.jpg","[""ArrowLeft""]","practice block","space","3","{""ArrowUp,ArrowLeft"":3,""ArrowUp,ArrowRight"":36,""ArrowDown,ArrowLeft"":15,""ArrowDown,ArrowRight"":23}","false","ArrowUp,ArrowLeft","","","","","","",""
"html-keyboard-response","82","469993","0.0-3.0-11.0-4.0-1.1","spark_pilot_norest","10044","6","9","Male","","","","","","","null","<div style=""font-size:60px;"">+</div>","null","fixation","","","","","","","","","","","",""
"revaluation","83","474023","0.0-3.0-11.0-4.0-0.2","spark_pilot_norest","10044","6","9","Male","","false","","","","","[317.4000000357628]","./assets/img/space/animals/rabbit.jpg","[""ArrowRight""]","practice block","space","23","{""ArrowUp,ArrowLeft"":3,""ArrowUp,ArrowRight"":36,""ArrowDown,ArrowLeft"":15,""ArrowDown,ArrowRight"":23}","true","ArrowDown,ArrowRight","","","","","","",""
"html-keyboard-response","84","474543","0.0-3.0-11.0-4.0-1.2","spark_pilot_norest","10044","6","9","Male","","","","","","","null","<div style=""font-size:60px;"">+</div>","null","fixation","","","","","","","","","","","",""
"revaluation","85","478547","0.0-3.0-11.0-4.0-0.3","spark_pilot_norest","10044","6","9","Male","","false","","","","","[424.60000002384186]","./assets/img/space/animals/rabbit.jpg","[""ArrowRight""]","practice block","space","23","{""ArrowUp,ArrowLeft"":3,""ArrowUp,ArrowRight"":36,""ArrowDown,ArrowLeft"":15,""ArrowDown,ArrowRight"":23}","true","ArrowDown,ArrowRight","","","","","","",""
"html-keyboard-response","86","479049","0.0-3.0-11.0-4.0-1.3","spark_pilot_norest","10044","6","9","Male","","","","","","","null","<div style=""font-size:60px;"">+</div>","null","fixation","","","","","","","","","","","",""
"learning-instructions","87","487174","0.0-3.0-11.0-5.0-0.0","spark_pilot_norest","10044","6","9","Male","","","","","","","null","<p> You have almost finished this part of the game! </p>
            <p> We are going to ask you to make a few more choices. </p>","","instructions","","","","","","","","","","","",""
"learning-instructions","88","503195","0.0-3.0-11.0-5.0-0.1","spark_pilot_norest","10044","6","9","Male","","","","","","","null","<p> First, you need to decide whether to go up or down. When you see each picture, use the arrow keys to make your choice. </p>
            <p><b>You will not see which animal you found, but try to get to the one that will give you the most treasure.</b></p>","","instructions","","","","","","","","","","","",""
"html-keyboard-response","89","504215","0.0-3.0-11.0-6.0-0.0","spark_pilot_norest","10044","6","9","Male","","","","","","","null","<div style=""font-size:100px;color:red;"">Starting in...</div>","null","","","","","","","","","","","","",""
"html-keyboard-response","90","505224","0.0-3.0-11.0-6.0-1.0","spark_pilot_norest","10044","6","9","Male","","","","","","","null","<div style=""font-size:200px;color:red;"">3</div>","null","","","","","","","","","","","","",""
"html-keyboard-response","91","506245","0.0-3.0-11.0-6.0-2.0","spark_pilot_norest","10044","6","9","Male","","","","","","","null","<div style=""font-size:200px;color:red;"">2</div>","null","","","","","","","","","","","","",""
"html-keyboard-response","92","507265","0.0-3.0-11.0-6.0-3.0","spark_pilot_norest","10044","6","9","Male","","","","","","","null","<div style=""font-size:200px;color:red;"">1</div>","null","","","","","","","","","","","","",""
"revaluation","93","507823","0.0-3.0-11.0-7.0","spark_pilot_norest","10044","6","9","Male","","false","","","","","[556.4000000357628]","./assets/img/space/15.jpg","[""ArrowUp""]","practice block","space","0","{""ArrowUp,ArrowLeft"":3,""ArrowUp,ArrowRight"":36,""ArrowDown,ArrowLeft"":15,""ArrowDown,ArrowRight"":23}","true","ArrowUp","false","","","","","",""
"html-keyboard-response","94","508325","0.0-3.0-11.0-8.0","spark_pilot_norest","10044","6","9","Male","","","","","","","null","<div style=""font-size:60px;"">+</div>","null","fixation","","","","","","","","","","","",""
"learning-instructions","95","521705","0.0-3.0-11.0-9.0-0.0","spark_pilot_norest","10044","6","9","Male","","","","","","","null","<p> Now you will see the animals again and can search their chests for treasure. </p>
            <p> This time, you will not see how much treasure you earned, but you will earn more bonus money for making better choices. </p>","","instructions","","","","","","","","","","","",""
"html-keyboard-response","96","522725","0.0-3.0-11.0-10.0-0.0","spark_pilot_norest","10044","6","9","Male","","","","","","","null","<div style=""font-size:100px;color:red;"">Starting in...</div>","null","","","","","","","","","","","","",""
"html-keyboard-response","97","523734","0.0-3.0-11.0-10.0-1.0","spark_pilot_norest","10044","6","9","Male","","","","","","","null","<div style=""font-size:200px;color:red;"">3</div>","null","","","","","","","","","","","","",""
"html-keyboard-response","98","524755","0.0-3.0-11.0-10.0-2.0","spark_pilot_norest","10044","6","9","Male","","","","","","","null","<div style=""font-size:200px;color:red;"">2</div>","null","","","","","","","","","","","","",""
"html-keyboard-response","99","525775","0.0-3.0-11.0-10.0-3.0","spark_pilot_norest","10044","6","9","Male","","","","","","","null","<div style=""font-size:200px;color:red;"">1</div>","null","","","","","","","","","","","","",""
"revaluation","100","527134","0.0-3.0-11.0-11.0-0.0","spark_pilot_norest","10044","6","9","Male","","false","","","","","[1357]","./assets/img/space/animals/cat.jpg","[""ArrowLeft""]","practice block","space","0","{""ArrowUp,ArrowLeft"":3,""ArrowUp,ArrowRight"":36,""ArrowDown,ArrowLeft"":15,""ArrowDown,ArrowRight"":23}","false","ArrowUp,ArrowLeft","","","","","","",""
"html-keyboard-response","101","527635","0.0-3.0-11.0-11.0-1.0","spark_pilot_norest","10044","6","9","Male","","","","","","","null","<div style=""font-size:60px;"">+</div>","null","fixation","","","","","","","","","","","",""
"revaluation","102","529512","0.0-3.0-11.0-11.0-0.1","spark_pilot_norest","10044","6","9","Male","","false","","","","","[1874.7000000476837]","./assets/img/space/animals/rabbit.jpg","[""ArrowLeft""]","practice block","space","0","{""ArrowUp,ArrowLeft"":3,""ArrowUp,ArrowRight"":36,""ArrowDown,ArrowLeft"":15,""ArrowDown,ArrowRight"":23}","false","ArrowDown,ArrowLeft","","","","","","",""
"html-keyboard-response","103","530025","0.0-3.0-11.0-11.0-1.1","spark_pilot_norest","10044","6","9","Male","","","","","","","null","<div style=""font-size:60px;"">+</div>","null","fixation","","","","","","","","","","","",""
"learning-instructions","104","536747","0.0-3.0-12.0-0.0","spark_pilot_norest","10044","6","9","Male","","","","","","","2150.800000011921","<p> Before you start, we're going to ask you a few questions about how the game works. </p>","","instructions","","","","","","","","","","","",""
"comp-q","105","543731","0.0-3.0-13.0-0.0-0.0","spark_pilot_norest","10044","6","9","Male","","","","","","","1402.3999999761581","<p> <b> True or False? </b> </p>
            <p> There can be 50 pieces of treasure in a given animal's chest. </p>","1","comp_question","","","","true","","","","","","","",""
"comp-q","106","552623","0.0-3.0-13.0-0.0-1.0","spark_pilot_norest","10044","6","9","Male","","","","","","","2237.599999964237","<p> <b> That's right! </b> The amount of treasure in each chest can range from 0 to 40 pieces. </p>","0","comp_answer","","","","","","","","","","","",""
"comp-q","107","560667","0.0-3.0-13.0-0.1-0.1","spark_pilot_norest","10044","6","9","Male","","","","","","","931.1000000238419","<p> <b> True or False? </b> </p><p> In this game, all animals have the same amount of treasure in their left and right chests. </p>","1","comp_question","","","","true","","","","","","","",""
"comp-q","108","567562","0.0-3.0-13.0-0.1-1.1","spark_pilot_norest","10044","6","9","Male","","","","","","","1676","<p> <b> That's right! </b> Animals have different amounts of treasure in their treasure chests. </p>","0","comp_answer","","","","","","","","","","","",""
"comp-q","109","575207","0.0-3.0-13.0-0.2-0.2","spark_pilot_norest","10044","6","9","Male","","","","","","","1800.9000000357628","<p> <b> True or False? </b> </p><p> The same animal will always be there if you go up in the same place. </p>","1","comp_question","","","","false","","","","","","","",""
"comp-q","110","584543","0.0-3.0-13.0-0.2-1.2","spark_pilot_norest","10044","6","9","Male","","","","","","","3036.5","<p> <b>Incorrect.</b> One animal lives in the upper part and one lives in the lower part of every place. </p>","0","comp_answer","","","","","","","","","","","",""
"comp-q","111","591920","0.0-3.0-13.0-0.3-0.3","spark_pilot_norest","10044","6","9","Male","","","","","","","1554.199999988079","<p> <b> True or False? </b> </p><p> The same animal will always be there if you go up in the same place. </p>","0","comp_question","","","","true","","","","","","","",""
"comp-q","112","600984","0.0-3.0-13.0-0.3-1.3","spark_pilot_norest","10044","6","9","Male","","","","","","","2617.800000011921","<p> <b> That's right! </b> One animal lives in the upper part and one lives in the lower part of every place. </p>","0","comp_answer","","","","","","","","","","","",""
"comp-q","113","607799","0.0-3.0-13.0-0.4-0.4","spark_pilot_norest","10044","6","9","Male","","","","","","","1303.2999999523163","<p> <b> True or False? </b> </p><p> If you see a different picture, it means you are in a new place. </p>","1","comp_question","","","","true","","","","","","","",""
"comp-q","114","621059","0.0-3.0-13.0-0.4-1.4","spark_pilot_norest","10044","6","9","Male","","","","","","","2032.5","<p> <b> That's right! </b> Lots of different images may show the same place. For example,  you may see three different images that all remind you that you are in outer space. </p>","0","comp_answer","","","","","","","","","","","",""
"learning-instructions","115","633040","0.0-3.0-14.0-0.0","spark_pilot_norest","10044","6","9","Male","","","","","","","2134.099999964237","<p> Good job. Remember to do your best because the amount of treasure you earn will be converted into bonus money. </p>
            <p> It’s time to start the real game! </p>","","instructions","","","","","","","","","","","",""
"learning-instructions","116","638527","0.0-4.0-0.0-0.0","spark_pilot_norest","10044","6","9","Male","","","","","","","2721.400000035763","<p> This time you are searching for treasure in the <b>canyon</b>.</p>","","instructions","","","","","","","","","","","",""
"learning-instructions","117","657401","0.0-4.0-0.0-0.1","spark_pilot_norest","10044","6","9","Male","","","","","","","1584.9000000357628","<p><b>New</b> animals with <b>new</b> treasure chests live here. You need to explore to discover where the animal with the best treasure chest is.</p>
                    <p> Like before, once you figure out which animal has the chest with the most treasure, you should try to get to that animal and select that chest! </p>","","instructions","","","","","","","","","","","",""
"learning-instructions","118","673421","0.0-4.0-1.0-0.0","spark_pilot_norest","10044","6","9","Male","","","","","","","1295.300000011921","<p> Remember, when you see a picture of the place, use the up and down keys to <b>find an animal</b>.</p>
            <p> When you encounter an animal, you should use the left and right keys to <b>select a treasure chest</b>.</p>
            <p> Don't forget to look out for the robber! </p>","","instructions","","","","","","","","","","","",""
"revaluation","119","679455","0.0-4.0-2.0-0.0","spark_pilot_norest","10044","6","9","Male","","false","","","","","[1003.3999999761581,644.8000000119209]","./assets/img/canyon/memory/21.jpg","[""ArrowUp"",""ArrowRight""]","value training","canyon","10","{""ArrowUp,ArrowLeft"":23,""ArrowUp,ArrowRight"":10,""ArrowDown,ArrowLeft"":8,""ArrowDown,ArrowRight"":30}","false","ArrowUp,ArrowRight","false","revaluation","1","0","","",""
"html-keyboard-response","120","679975","0.0-4.0-2.0-1.0","spark_pilot_norest","10044","6","9","Male","","","","","","","null","<div style=""font-size:60px;"">+</div>","null","fixation","","","","","","","","","1","","",""
"revaluation","121","686015","0.0-4.0-2.0-0.1","spark_pilot_norest","10044","6","9","Male","","false","","","","","[1347.800000011921,543.4000000357628]","./assets/img/canyon/memory/10.jpg","[""ArrowDown"",""ArrowLeft""]","value training","canyon","8","{""ArrowUp,ArrowLeft"":23,""ArrowUp,ArrowRight"":10,""ArrowDown,ArrowLeft"":8,""ArrowDown,ArrowRight"":30}","false","ArrowDown,ArrowLeft","false","revaluation","1","2","","",""
"html-keyboard-response","122","686535","0.0-4.0-2.0-1.1","spark_pilot_norest","10044","6","9","Male","","","","","","","null","<div style=""font-size:60px;"">+</div>","null","fixation","","","","","","","","","3","","",""
"revaluation","123","692595","0.0-4.0-2.0-0.2","spark_pilot_norest","10044","6","9","Male","","false","","","","","[564.7000000476837,336.10000002384186]","./assets/img/canyon/memory/7.jpg","[""ArrowDown"",""ArrowRight""]","value training","canyon","30","{""ArrowUp,ArrowLeft"":23,""ArrowUp,ArrowRight"":10,""ArrowDown,ArrowLeft"":8,""ArrowDown,ArrowRight"":30}","true","ArrowDown,ArrowRight","false","revaluation","1","4","","",""
"html-keyboard-response","124","693115","0.0-4.0-2.0-1.2","spark_pilot_norest","10044","6","9","Male","","","","","","","null","<div style=""font-size:60px;"">+</div>","null","fixation","","","","","","","","","5","","",""
"revaluation","125","699146","0.0-4.0-2.0-0.3","spark_pilot_norest","10044","6","9","Male","","false","","","","","[571,348]","./assets/img/canyon/memory/17.jpg","[""ArrowUp"",""ArrowLeft""]","value training","canyon","23","{""ArrowUp,ArrowLeft"":23,""ArrowUp,ArrowRight"":10,""ArrowDown,ArrowLeft"":8,""ArrowDown,ArrowRight"":30}","false","ArrowUp,ArrowLeft","false","revaluation","1","6","","",""
"html-keyboard-response","126","699665","0.0-4.0-2.0-1.3","spark_pilot_norest","10044","6","9","Male","","","","","","","null","<div style=""font-size:60px;"">+</div>","null","fixation","","","","","","","","","7","","",""
"revaluation","127","705688","0.0-4.0-2.0-0.4","spark_pilot_norest","10044","6","9","Male","","false","","","","","[328,588.6000000238419]","./assets/img/canyon/memory/24.jpg","[""ArrowDown"",""ArrowRight""]","value training","canyon","30","{""ArrowUp,ArrowLeft"":23,""ArrowUp,ArrowRight"":10,""ArrowDown,ArrowLeft"":8,""ArrowDown,ArrowRight"":30}","true","ArrowDown,ArrowRight","false","revaluation","1","8","","",""
"html-keyboard-response","128","706189","0.0-4.0-2.0-1.4","spark_pilot_norest","10044","6","9","Male","","","","","","","null","<div style=""font-size:60px;"">+</div>","null","fixation","","","","","","","","","9","","",""
"revaluation","129","712197","0.0-4.0-2.0-0.5","spark_pilot_norest","10044","6","9","Male","","false","","","","","[333.69999998807907,320.5]","./assets/img/canyon/memory/29.jpg","[""ArrowDown"",""ArrowRight""]","value training","canyon","30","{""ArrowUp,ArrowLeft"":23,""ArrowUp,ArrowRight"":10,""ArrowDown,ArrowLeft"":8,""ArrowDown,ArrowRight"":30}","true","ArrowDown,ArrowRight","false","revaluation","1","10","","",""
"html-keyboard-response","130","712699","0.0-4.0-2.0-1.5","spark_pilot_norest","10044","6","9","Male","","","","","","","null","<div style=""font-size:60px;"">+</div>","null","fixation","","","","","","","","","11","","",""
"revaluation","131","718704","0.0-4.0-2.0-0.6","spark_pilot_norest","10044","6","9","Male","","false","","","","","[338.19999998807907,319.5]","./assets/img/canyon/memory/14.jpg","[""ArrowDown"",""ArrowRight""]","value training","canyon","30","{""ArrowUp,ArrowLeft"":23,""ArrowUp,ArrowRight"":10,""ArrowDown,ArrowLeft"":8,""ArrowDown,ArrowRight"":30}","true","ArrowDown,ArrowRight","false","revaluation","1","12","","",""
"html-keyboard-response","132","719206","0.0-4.0-2.0-1.6","spark_pilot_norest","10044","6","9","Male","","","","","","","null","<div style=""font-size:60px;"">+</div>","null","fixation","","","","","","","","","13","","",""
"revaluation","133","725210","0.0-4.0-2.0-0.7","spark_pilot_norest","10044","6","9","Male","","false","","","","","[338.2999999523163,311.5]","./assets/img/canyon/memory/8.jpg","[""ArrowDown"",""ArrowRight""]","value training","canyon","30","{""ArrowUp,ArrowLeft"":23,""ArrowUp,ArrowRight"":10,""ArrowDown,ArrowLeft"":8,""ArrowDown,ArrowRight"":30}","true","ArrowDown,ArrowRight","false","revaluation","1","14","","",""
"html-keyboard-response","134","725712","0.0-4.0-2.0-1.7","spark_pilot_norest","10044","6","9","Male","","","","","","","null","<div style=""font-size:60px;"">+</div>","null","fixation","","","","","","","","","15","","",""
"revaluation","135","729716","0.0-4.0-2.0-0.8","spark_pilot_norest","10044","6","9","Male","","false","","","","","[354.39999997615814]","./assets/img/canyon/catch/7.jpg","[""ArrowDown""]","value training","canyon","-10","{""ArrowUp,ArrowLeft"":23,""ArrowUp,ArrowRight"":10,""ArrowDown,ArrowLeft"":8,""ArrowDown,ArrowRight"":30}","false","ArrowDown","true","revaluation","1","16","","",""
"html-keyboard-response","136","730217","0.0-4.0-2.0-1.8","spark_pilot_norest","10044","6","9","Male","","","","","","","null","<div style=""font-size:60px;"">+</div>","null","fixation","","","","","","","","","17","","",""
"revaluation","137","736221","0.0-4.0-2.0-0.9","spark_pilot_norest","10044","6","9","Male","","false","","","","","[700.0999999642372,406]","./assets/img/canyon/memory/21.jpg","[""ArrowDown"",""ArrowRight""]","value training","canyon","30","{""ArrowUp,ArrowLeft"":23,""ArrowUp,ArrowRight"":10,""ArrowDown,ArrowLeft"":8,""ArrowDown,ArrowRight"":30}","true","ArrowDown,ArrowRight","false","revaluation","1","18","","",""
"html-keyboard-response","138","736722","0.0-4.0-2.0-1.9","spark_pilot_norest","10044","6","9","Male","","","","","","","null","<div style=""font-size:60px;"">+</div>","null","fixation","","","","","","","","","19","","",""
"revaluation","139","742726","0.0-4.0-2.0-0.10","spark_pilot_norest","10044","6","9","Male","","false","","","","","[1287.199999988079,490.69999998807907]","./assets/img/canyon/memory/25.jpg","[""ArrowDown"",""ArrowRight""]","value training","canyon","30","{""ArrowUp,ArrowLeft"":23,""ArrowUp,ArrowRight"":10,""ArrowDown,ArrowLeft"":8,""ArrowDown,ArrowRight"":30}","true","ArrowDown,ArrowRight","false","revaluation","1","20","","",""
"html-keyboard-response","140","743229","0.0-4.0-2.0-1.10","spark_pilot_norest","10044","6","9","Male","","","","","","","null","<div style=""font-size:60px;"">+</div>","null","fixation","","","","","","","","","21","","",""
"revaluation","141","749234","0.0-4.0-2.0-0.11","spark_pilot_norest","10044","6","9","Male","","false","","","","","[615.3000000119209,331.2000000476837]","./assets/img/canyon/memory/9.jpg","[""ArrowDown"",""ArrowRight""]","value training","canyon","30","{""ArrowUp,ArrowLeft"":23,""ArrowUp,ArrowRight"":10,""ArrowDown,ArrowLeft"":8,""ArrowDown,ArrowRight"":30}","true","ArrowDown,ArrowRight","false","revaluation","1","22","","",""
"html-keyboard-response","142","749736","0.0-4.0-2.0-1.11","spark_pilot_norest","10044","6","9","Male","","","","","","","null","<div style=""font-size:60px;"">+</div>","null","fixation","","","","","","","","","23","","",""
"revaluation","143","755742","0.0-4.0-2.0-0.12","spark_pilot_norest","10044","6","9","Male","","false","","","","","[922.6999999880791,407.80000001192093]","./assets/img/canyon/memory/36.jpg","[""ArrowDown"",""ArrowRight""]","value training","canyon","30","{""ArrowUp,ArrowLeft"":23,""ArrowUp,ArrowRight"":10,""ArrowDown,ArrowLeft"":8,""ArrowDown,ArrowRight"":30}","true","ArrowDown,ArrowRight","false","revaluation","1","24","","",""
"html-keyboard-response","144","756243","0.0-4.0-2.0-1.12","spark_pilot_norest","10044","6","9","Male","","","","","","","null","<div style=""font-size:60px;"">+</div>","null","fixation","","","","","","","","","25","","",""
"revaluation","145","762247","0.0-4.0-2.0-0.13","spark_pilot_norest","10044","6","9","Male","","false","","","","","[959.1000000238419,334]","./assets/img/canyon/memory/3.jpg","[""ArrowDown"",""ArrowRight""]","value training","canyon","30","{""ArrowUp,ArrowLeft"":23,""ArrowUp,ArrowRight"":10,""ArrowDown,ArrowLeft"":8,""ArrowDown,ArrowRight"":30}","true","ArrowDown,ArrowRight","false","revaluation","1","26","","",""
"html-keyboard-response","146","762749","0.0-4.0-2.0-1.13","spark_pilot_norest","10044","6","9","Male","","","","","","","null","<div style=""font-size:60px;"">+</div>","null","fixation","","","","","","","","","27","","",""
"revaluation","147","768756","0.0-4.0-2.0-0.14","spark_pilot_norest","10044","6","9","Male","","false","","","","","[843.1999999880791,561.3000000119209]","./assets/img/canyon/memory/9.jpg","[""ArrowDown"",""ArrowRight""]","value training","canyon","30","{""ArrowUp,ArrowLeft"":23,""ArrowUp,ArrowRight"":10,""ArrowDown,ArrowLeft"":8,""ArrowDown,ArrowRight"":30}","true","ArrowDown,ArrowRight","false","revaluation","1","28","","",""
"html-keyboard-response","148","769257","0.0-4.0-2.0-1.14","spark_pilot_norest","10044","6","9","Male","","","","","","","null","<div style=""font-size:60px;"">+</div>","null","fixation","","","","","","","","","29","","",""
"revaluation","149","775263","0.0-4.0-2.0-0.15","spark_pilot_norest","10044","6","9","Male","","false","","","","","[1027,385.60000002384186]","./assets/img/canyon/memory/25.jpg","[""ArrowDown"",""ArrowRight""]","value training","canyon","30","{""ArrowUp,ArrowLeft"":23,""ArrowUp,ArrowRight"":10,""ArrowDown,ArrowLeft"":8,""ArrowDown,ArrowRight"":30}","true","ArrowDown,ArrowRight","false","revaluation","1","30","","",""
"html-keyboard-response","150","775765","0.0-4.0-2.0-1.15","spark_pilot_norest","10044","6","9","Male","","","","","","","null","<div style=""font-size:60px;"">+</div>","null","fixation","","","","","","","","","31","","",""
"revaluation","151","781773","0.0-4.0-2.0-0.16","spark_pilot_norest","10044","6","9","Male","","false","","","","","[982.6999999880791,543.5999999642372]","./assets/img/canyon/memory/8.jpg","[""ArrowDown"",""ArrowRight""]","value training","canyon","30","{""ArrowUp,ArrowLeft"":23,""ArrowUp,ArrowRight"":10,""ArrowDown,ArrowLeft"":8,""ArrowDown,ArrowRight"":30}","true","ArrowDown,ArrowRight","false","revaluation","1","32","","",""
"html-keyboard-response","152","782275","0.0-4.0-2.0-1.16","spark_pilot_norest","10044","6","9","Male","","","","","","","null","<div style=""font-size:60px;"">+</div>","null","fixation","","","","","","","","","33","","",""
"revaluation","153","786282","0.0-4.0-2.0-0.17","spark_pilot_norest","10044","6","9","Male","","false","","","","","[782]","./assets/img/canyon/catch/3.jpg","[""spaceBar""]","value training","canyon","0","{""ArrowUp,ArrowLeft"":23,""ArrowUp,ArrowRight"":10,""ArrowDown,ArrowLeft"":8,""ArrowDown,ArrowRight"":30}","true","spaceBar","true","revaluation","1","34","","",""
"html-keyboard-response","154","786783","0.0-4.0-2.0-1.17","spark_pilot_norest","10044","6","9","Male","","","","","","","null","<div style=""font-size:60px;"">+</div>","null","fixation","","","","","","","","","35","","",""
"revaluation","155","792788","0.0-4.0-2.0-0.18","spark_pilot_norest","10044","6","9","Male","","false","","","","","[789.1000000238419,349.19999998807907]","./assets/img/canyon/memory/17.jpg","[""ArrowDown"",""ArrowRight""]","value training","canyon","30","{""ArrowUp,ArrowLeft"":23,""ArrowUp,ArrowRight"":10,""ArrowDown,ArrowLeft"":8,""ArrowDown,ArrowRight"":30}","true","ArrowDown,ArrowRight","false","revaluation","1","36","","",""
"html-keyboard-response","156","793290","0.0-4.0-2.0-1.18","spark_pilot_norest","10044","6","9","Male","","","","","","","null","<div style=""font-size:60px;"">+</div>","null","fixation","","","","","","","","","37","","",""
"revaluation","157","799297","0.0-4.0-2.0-0.19","spark_pilot_norest","10044","6","9","Male","","false","","","","","[956,904.5999999642372]","./assets/img/canyon/memory/24.jpg","[""ArrowDown"",""ArrowRight""]","value training","canyon","30","{""ArrowUp,ArrowLeft"":23,""ArrowUp,ArrowRight"":10,""ArrowDown,ArrowLeft"":8,""ArrowDown,ArrowRight"":30}","true","ArrowDown,ArrowRight","false","revaluation","1","38","","",""
"html-keyboard-response","158","799799","0.0-4.0-2.0-1.19","spark_pilot_norest","10044","6","9","Male","","","","","","","null","<div style=""font-size:60px;"">+</div>","null","fixation","","","","","","","","","39","","",""
"revaluation","159","805804","0.0-4.0-2.0-0.20","spark_pilot_norest","10044","6","9","Male","","false","","","","","[1261.5999999642372,353.89999997615814]","./assets/img/canyon/memory/15.jpg","[""ArrowDown"",""ArrowRight""]","value training","canyon","30","{""ArrowUp,ArrowLeft"":23,""ArrowUp,ArrowRight"":10,""ArrowDown,ArrowLeft"":8,""ArrowDown,ArrowRight"":30}","true","ArrowDown,ArrowRight","false","revaluation","1","40","","",""
"html-keyboard-response","160","806305","0.0-4.0-2.0-1.20","spark_pilot_norest","10044","6","9","Male","","","","","","","null","<div style=""font-size:60px;"">+</div>","null","fixation","","","","","","","","","41","","",""
"revaluation","161","812318","0.0-4.0-2.0-0.21","spark_pilot_norest","10044","6","9","Male","","false","","","","","[701.5,528.6999999880791]","./assets/img/canyon/memory/23.jpg","[""ArrowDown"",""ArrowRight""]","value training","canyon","30","{""ArrowUp,ArrowLeft"":23,""ArrowUp,ArrowRight"":10,""ArrowDown,ArrowLeft"":8,""ArrowDown,ArrowRight"":30}","true","ArrowDown,ArrowRight","false","revaluation","1","42","","",""
"html-keyboard-response","162","812819","0.0-4.0-2.0-1.21","spark_pilot_norest","10044","6","9","Male","","","","","","","null","<div style=""font-size:60px;"">+</div>","null","fixation","","","","","","","","","43","","",""
"revaluation","163","818825","0.0-4.0-2.0-0.22","spark_pilot_norest","10044","6","9","Male","","false","","","","","[838.8000000119209,313.19999998807907]","./assets/img/canyon/memory/23.jpg","[""ArrowDown"",""ArrowRight""]","value training","canyon","30","{""ArrowUp,ArrowLeft"":23,""ArrowUp,ArrowRight"":10,""ArrowDown,ArrowLeft"":8,""ArrowDown,ArrowRight"":30}","true","ArrowDown,ArrowRight","false","revaluation","1","44","","",""
"html-keyboard-response","164","819327","0.0-4.0-2.0-1.22","spark_pilot_norest","10044","6","9","Male","","","","","","","null","<div style=""font-size:60px;"">+</div>","null","fixation","","","","","","","","","45","","",""
"revaluation","165","825334","0.0-4.0-2.0-0.23","spark_pilot_norest","10044","6","9","Male","","false","","","","","[907.1000000238419,654.6999999880791]","./assets/img/canyon/memory/2.jpg","[""ArrowDown"",""ArrowRight""]","value training","canyon","30","{""ArrowUp,ArrowLeft"":23,""ArrowUp,ArrowRight"":10,""ArrowDown,ArrowLeft"":8,""ArrowDown,ArrowRight"":30}","true","ArrowDown,ArrowRight","false","revaluation","1","46","","",""
"html-keyboard-response","166","825836","0.0-4.0-2.0-1.23","spark_pilot_norest","10044","6","9","Male","","","","","","","null","<div style=""font-size:60px;"">+</div>","null","fixation","","","","","","","","","47","","",""
"revaluation","167","829840","0.0-4.0-2.0-0.24","spark_pilot_norest","10044","6","9","Male","","false","","","","","[731]","./assets/img/canyon/catch/5.jpg","[""spaceBar""]","value training","canyon","0","{""ArrowUp,ArrowLeft"":23,""ArrowUp,ArrowRight"":10,""ArrowDown,ArrowLeft"":8,""ArrowDown,ArrowRight"":30}","true","spaceBar","true","revaluation","1","48","","",""
"html-keyboard-response","168","830341","0.0-4.0-2.0-1.24","spark_pilot_norest","10044","6","9","Male","","","","","","","null","<div style=""font-size:60px;"">+</div>","null","fixation","","","","","","","","","49","","",""
"revaluation","169","834344","0.0-4.0-2.0-0.25","spark_pilot_norest","10044","6","9","Male","","false","","","","","[1059.4000000357628]","./assets/img/canyon/catch/0.jpg","[""spaceBar""]","value training","canyon","0","{""ArrowUp,ArrowLeft"":23,""ArrowUp,ArrowRight"":10,""ArrowDown,ArrowLeft"":8,""ArrowDown,ArrowRight"":30}","true","spaceBar","true","revaluation","1","50","","",""
"html-keyboard-response","170","834846","0.0-4.0-2.0-1.25","spark_pilot_norest","10044","6","9","Male","","","","","","","null","<div style=""font-size:60px;"">+</div>","null","fixation","","","","","","","","","51","","",""
"revaluation","171","840859","0.0-4.0-2.0-0.26","spark_pilot_norest","10044","6","9","Male","","false","","","","","[777.8000000119209,313.5999999642372]","./assets/img/canyon/memory/1.jpg","[""ArrowDown"",""ArrowRight""]","value training","canyon","30","{""ArrowUp,ArrowLeft"":23,""ArrowUp,ArrowRight"":10,""ArrowDown,ArrowLeft"":8,""ArrowDown,ArrowRight"":30}","true","ArrowDown,ArrowRight","false","revaluation","1","52","","",""
"html-keyboard-response","172","841360","0.0-4.0-2.0-1.26","spark_pilot_norest","10044","6","9","Male","","","","","","","null","<div style=""font-size:60px;"">+</div>","null","fixation","","","","","","","","","53","","",""
"revaluation","173","847363","0.0-4.0-2.0-0.27","spark_pilot_norest","10044","6","9","Male","","false","","","","","[997.6000000238419,573]","./assets/img/canyon/memory/36.jpg","[""ArrowDown"",""ArrowRight""]","value training","canyon","30","{""ArrowUp,ArrowLeft"":23,""ArrowUp,ArrowRight"":10,""ArrowDown,ArrowLeft"":8,""ArrowDown,ArrowRight"":30}","true","ArrowDown,ArrowRight","false","revaluation","1","54","","",""
"html-keyboard-response","174","847864","0.0-4.0-2.0-1.27","spark_pilot_norest","10044","6","9","Male","","","","","","","null","<div style=""font-size:60px;"">+</div>","null","fixation","","","","","","","","","55","","",""
"revaluation","175","851870","0.0-4.0-2.0-0.28","spark_pilot_norest","10044","6","9","Male","","false","","","","","[989.5]","./assets/img/canyon/catch/2.jpg","[""spaceBar""]","value training","canyon","0","{""ArrowUp,ArrowLeft"":23,""ArrowUp,ArrowRight"":10,""ArrowDown,ArrowLeft"":8,""ArrowDown,ArrowRight"":30}","true","spaceBar","true","revaluation","1","56","","",""
"html-keyboard-response","176","852372","0.0-4.0-2.0-1.28","spark_pilot_norest","10044","6","9","Male","","","","","","","null","<div style=""font-size:60px;"">+</div>","null","fixation","","","","","","","","","57","","",""
"revaluation","177","858376","0.0-4.0-2.0-0.29","spark_pilot_norest","10044","6","9","Male","","false","","","","","[1373.9000000357628,480]","./assets/img/canyon/memory/14.jpg","[""ArrowDown"",""ArrowRight""]","value training","canyon","30","{""ArrowUp,ArrowLeft"":23,""ArrowUp,ArrowRight"":10,""ArrowDown,ArrowLeft"":8,""ArrowDown,ArrowRight"":30}","true","ArrowDown,ArrowRight","false","revaluation","1","58","","",""
"html-keyboard-response","178","858878","0.0-4.0-2.0-1.29","spark_pilot_norest","10044","6","9","Male","","","","","","","null","<div style=""font-size:60px;"">+</div>","null","fixation","","","","","","","","","59","","",""
"revaluation","179","864882","0.0-4.0-2.0-0.30","spark_pilot_norest","10044","6","9","Male","","false","","","","","[834.8000000119209,435.89999997615814]","./assets/img/canyon/memory/32.jpg","[""ArrowDown"",""ArrowRight""]","value training","canyon","30","{""ArrowUp,ArrowLeft"":23,""ArrowUp,ArrowRight"":10,""ArrowDown,ArrowLeft"":8,""ArrowDown,ArrowRight"":30}","true","ArrowDown,ArrowRight","false","revaluation","1","60","","",""
"html-keyboard-response","180","865383","0.0-4.0-2.0-1.30","spark_pilot_norest","10044","6","9","Male","","","","","","","null","<div style=""font-size:60px;"">+</div>","null","fixation","","","","","","","","","61","","",""
"revaluation","181","871402","0.0-4.0-2.0-0.31","spark_pilot_norest","10044","6","9","Male","","false","","","","","[712.6999999880791,628]","./assets/img/canyon/memory/7.jpg","[""ArrowDown"",""ArrowRight""]","value training","canyon","30","{""ArrowUp,ArrowLeft"":23,""ArrowUp,ArrowRight"":10,""ArrowDown,ArrowLeft"":8,""ArrowDown,ArrowRight"":30}","true","ArrowDown,ArrowRight","false","revaluation","1","62","","",""
"html-keyboard-response","182","871904","0.0-4.0-2.0-1.31","spark_pilot_norest","10044","6","9","Male","","","","","","","null","<div style=""font-size:60px;"">+</div>","null","fixation","","","","","","","","","63","","",""
"revaluation","183","877913","0.0-4.0-2.0-0.32","spark_pilot_norest","10044","6","9","Male","","false","","","","","[1098.6000000238419,531.1999999880791]","./assets/img/canyon/memory/32.jpg","[""ArrowDown"",""ArrowRight""]","value training","canyon","30","{""ArrowUp,ArrowLeft"":23,""ArrowUp,ArrowRight"":10,""ArrowDown,ArrowLeft"":8,""ArrowDown,ArrowRight"":30}","true","ArrowDown,ArrowRight","false","revaluation","1","64","","",""
"html-keyboard-response","184","878414","0.0-4.0-2.0-1.32","spark_pilot_norest","10044","6","9","Male","","","","","","","null","<div style=""font-size:60px;"">+</div>","null","fixation","","","","","","","","","65","","",""
"revaluation","185","884432","0.0-4.0-2.0-0.33","spark_pilot_norest","10044","6","9","Male","","false","","","","","[604.8000000119209,993.3000000119209]","./assets/img/canyon/memory/15.jpg","[""ArrowDown"",""ArrowRight""]","value training","canyon","30","{""ArrowUp,ArrowLeft"":23,""ArrowUp,ArrowRight"":10,""ArrowDown,ArrowLeft"":8,""ArrowDown,ArrowRight"":30}","true","ArrowDown,ArrowRight","false","revaluation","1","66","","",""
"html-keyboard-response","186","884933","0.0-4.0-2.0-1.33","spark_pilot_norest","10044","6","9","Male","","","","","","","null","<div style=""font-size:60px;"">+</div>","null","fixation","","","","","","","","","67","","",""
"revaluation","187","890939","0.0-4.0-2.0-0.34","spark_pilot_norest","10044","6","9","Male","","false","","","","","[831.5,442.7999999523163]","./assets/img/canyon/memory/19.jpg","[""ArrowDown"",""ArrowRight""]","value training","canyon","30","{""ArrowUp,ArrowLeft"":23,""ArrowUp,ArrowRight"":10,""ArrowDown,ArrowLeft"":8,""ArrowDown,ArrowRight"":30}","true","ArrowDown,ArrowRight","false","revaluation","1","68","","",""
"html-keyboard-response","188","891440","0.0-4.0-2.0-1.34","spark_pilot_norest","10044","6","9","Male","","","","","","","null","<div style=""font-size:60px;"">+</div>","null","fixation","","","","","","","","","69","","",""
"revaluation","189","897445","0.0-4.0-2.0-0.35","spark_pilot_norest","10044","6","9","Male","","false","","","","","[853.5,1026.5999999642372]","./assets/img/canyon/memory/38.jpg","[""ArrowDown"",""ArrowRight""]","value training","canyon","30","{""ArrowUp,ArrowLeft"":23,""ArrowUp,ArrowRight"":10,""ArrowDown,ArrowLeft"":8,""ArrowDown,ArrowRight"":30}","true","ArrowDown,ArrowRight","false","revaluation","1","70","","",""
"html-keyboard-response","190","897947","0.0-4.0-2.0-1.35","spark_pilot_norest","10044","6","9","Male","","","","","","","null","<div style=""font-size:60px;"">+</div>","null","fixation","","","","","","","","","71","","",""
"revaluation","191","903971","0.0-4.0-2.0-0.36","spark_pilot_norest","10044","6","9","Male","","false","","","","","[716.6999999880791,458.10000002384186]","./assets/img/canyon/memory/16.jpg","[""ArrowDown"",""ArrowRight""]","value training","canyon","30","{""ArrowUp,ArrowLeft"":23,""ArrowUp,ArrowRight"":10,""ArrowDown,ArrowLeft"":8,""ArrowDown,ArrowRight"":30}","true","ArrowDown,ArrowRight","false","revaluation","1","72","","",""
"html-keyboard-response","192","904473","0.0-4.0-2.0-1.36","spark_pilot_norest","10044","6","9","Male","","","","","","","null","<div style=""font-size:60px;"">+</div>","null","fixation","","","","","","","","","73","","",""
"revaluation","193","910480","0.0-4.0-2.0-0.37","spark_pilot_norest","10044","6","9","Male","","false","","","","","[809.4000000357628,667.1999999880791]","./assets/img/canyon/memory/0.jpg","[""ArrowDown"",""ArrowRight""]","value training","canyon","30","{""ArrowUp,ArrowLeft"":23,""ArrowUp,ArrowRight"":10,""ArrowDown,ArrowLeft"":8,""ArrowDown,ArrowRight"":30}","true","ArrowDown,ArrowRight","false","revaluation","1","74","","",""
"html-keyboard-response","194","910982","0.0-4.0-2.0-1.37","spark_pilot_norest","10044","6","9","Male","","","","","","","null","<div style=""font-size:60px;"">+</div>","null","fixation","","","","","","","","","75","","",""
"revaluation","195","916993","0.0-4.0-2.0-0.38","spark_pilot_norest","10044","6","9","Male","","false","","","","","[566.0999999642372,492.5999999642372]","./assets/img/canyon/memory/0.jpg","[""ArrowDown"",""ArrowRight""]","value training","canyon","30","{""ArrowUp,ArrowLeft"":23,""ArrowUp,ArrowRight"":10,""ArrowDown,ArrowLeft"":8,""ArrowDown,ArrowRight"":30}","true","ArrowDown,ArrowRight","false","revaluation","1","76","","",""
"html-keyboard-response","196","917493","0.0-4.0-2.0-1.38","spark_pilot_norest","10044","6","9","Male","","","","","","","null","<div style=""font-size:60px;"">+</div>","null","fixation","","","","","","","","","77","","",""
"revaluation","197","923516","0.0-4.0-2.0-0.39","spark_pilot_norest","10044","6","9","Male","","false","","","","","[736.8000000119209,346.39999997615814]","./assets/img/canyon/memory/19.jpg","[""ArrowDown"",""ArrowRight""]","value training","canyon","30","{""ArrowUp,ArrowLeft"":23,""ArrowUp,ArrowRight"":10,""ArrowDown,ArrowLeft"":8,""ArrowDown,ArrowRight"":30}","true","ArrowDown,ArrowRight","false","revaluation","1","78","","",""
"html-keyboard-response","198","924018","0.0-4.0-2.0-1.39","spark_pilot_norest","10044","6","9","Male","","","","","","","null","<div style=""font-size:60px;"">+</div>","null","fixation","","","","","","","","","79","","",""
"revaluation","199","930025","0.0-4.0-2.0-0.40","spark_pilot_norest","10044","6","9","Male","","false","","","","","[615.5,491.4000000357628]","./assets/img/canyon/memory/29.jpg","[""ArrowDown"",""ArrowRight""]","value training","canyon","30","{""ArrowUp,ArrowLeft"":23,""ArrowUp,ArrowRight"":10,""ArrowDown,ArrowLeft"":8,""ArrowDown,ArrowRight"":30}","true","ArrowDown,ArrowRight","false","revaluation","1","80","","",""
"html-keyboard-response","200","930526","0.0-4.0-2.0-1.40","spark_pilot_norest","10044","6","9","Male","","","","","","","null","<div style=""font-size:60px;"">+</div>","null","fixation","","","","","","","","","81","","",""
"revaluation","201","936534","0.0-4.0-2.0-0.41","spark_pilot_norest","10044","6","9","Male","","false","","","","","[1145.199999988079,835.8000000119209]","./assets/img/canyon/memory/3.jpg","[""ArrowDown"",""ArrowRight""]","value training","canyon","30","{""ArrowUp,ArrowLeft"":23,""ArrowUp,ArrowRight"":10,""ArrowDown,ArrowLeft"":8,""ArrowDown,ArrowRight"":30}","true","ArrowDown,ArrowRight","false","revaluation","1","82","","",""
"html-keyboard-response","202","937035","0.0-4.0-2.0-1.41","spark_pilot_norest","10044","6","9","Male","","","","","","","null","<div style=""font-size:60px;"">+</div>","null","fixation","","","","","","","","","83","","",""
"revaluation","203","943049","0.0-4.0-2.0-0.42","spark_pilot_norest","10044","6","9","Male","","false","","","","","[1319.3999999761581,572.5]","./assets/img/canyon/memory/16.jpg","[""ArrowDown"",""ArrowRight""]","value training","canyon","30","{""ArrowUp,ArrowLeft"":23,""ArrowUp,ArrowRight"":10,""ArrowDown,ArrowLeft"":8,""ArrowDown,ArrowRight"":30}","true","ArrowDown,ArrowRight","false","revaluation","1","84","","",""
"html-keyboard-response","204","943550","0.0-4.0-2.0-1.42","spark_pilot_norest","10044","6","9","Male","","","","","","","null","<div style=""font-size:60px;"">+</div>","null","fixation","","","","","","","","","85","","",""
"revaluation","205","947555","0.0-4.0-2.0-0.43","spark_pilot_norest","10044","6","9","Male","","false","","","","","[675.4000000357628]","./assets/img/canyon/catch/4.jpg","[""spaceBar""]","value training","canyon","0","{""ArrowUp,ArrowLeft"":23,""ArrowUp,ArrowRight"":10,""ArrowDown,ArrowLeft"":8,""ArrowDown,ArrowRight"":30}","true","spaceBar","true","revaluation","1","86","","",""
"html-keyboard-response","206","948057","0.0-4.0-2.0-1.43","spark_pilot_norest","10044","6","9","Male","","","","","","","null","<div style=""font-size:60px;"">+</div>","null","fixation","","","","","","","","","87","","",""
"revaluation","207","954066","0.0-4.0-2.0-0.44","spark_pilot_norest","10044","6","9","Male","","false","","","","","[1072.300000011921,684]","./assets/img/canyon/memory/2.jpg","[""ArrowDown"",""ArrowRight""]","value training","canyon","30","{""ArrowUp,ArrowLeft"":23,""ArrowUp,ArrowRight"":10,""ArrowDown,ArrowLeft"":8,""ArrowDown,ArrowRight"":30}","true","ArrowDown,ArrowRight","false","revaluation","1","88","","",""
"html-keyboard-response","208","954567","0.0-4.0-2.0-1.44","spark_pilot_norest","10044","6","9","Male","","","","","","","null","<div style=""font-size:60px;"">+</div>","null","fixation","","","","","","","","","89","","",""
"revaluation","209","958574","0.0-4.0-2.0-0.45","spark_pilot_norest","10044","6","9","Male","","false","","","","","[758]","./assets/img/canyon/catch/1.jpg","[""spaceBar""]","value training","canyon","0","{""ArrowUp,ArrowLeft"":23,""ArrowUp,ArrowRight"":10,""ArrowDown,ArrowLeft"":8,""ArrowDown,ArrowRight"":30}","true","spaceBar","true","revaluation","1","90","","",""
"html-keyboard-response","210","959075","0.0-4.0-2.0-1.45","spark_pilot_norest","10044","6","9","Male","","","","","","","null","<div style=""font-size:60px;"">+</div>","null","fixation","","","","","","","","","91","","",""
"revaluation","211","965090","0.0-4.0-2.0-0.46","spark_pilot_norest","10044","6","9","Male","","false","","","","","[837.1999999880791,571.3999999761581]","./assets/img/canyon/memory/1.jpg","[""ArrowDown"",""ArrowRight""]","value training","canyon","30","{""ArrowUp,ArrowLeft"":23,""ArrowUp,ArrowRight"":10,""ArrowDown,ArrowLeft"":8,""ArrowDown,ArrowRight"":30}","true","ArrowDown,ArrowRight","false","revaluation","1","92","","",""
"html-keyboard-response","212","965592","0.0-4.0-2.0-1.46","spark_pilot_norest","10044","6","9","Male","","","","","","","null","<div style=""font-size:60px;"">+</div>","null","fixation","","","","","","","","","93","","",""
"revaluation","213","971605","0.0-4.0-2.0-0.47","spark_pilot_norest","10044","6","9","Male","","false","","","","","[967.8000000119209,425.80000001192093]","./assets/img/canyon/memory/10.jpg","[""ArrowDown"",""ArrowRight""]","value training","canyon","30","{""ArrowUp,ArrowLeft"":23,""ArrowUp,ArrowRight"":10,""ArrowDown,ArrowLeft"":8,""ArrowDown,ArrowRight"":30}","true","ArrowDown,ArrowRight","false","revaluation","1","94","","",""
"html-keyboard-response","214","972106","0.0-4.0-2.0-1.47","spark_pilot_norest","10044","6","9","Male","","","","","","","null","<div style=""font-size:60px;"">+</div>","null","fixation","","","","","","","","","95","","",""
"revaluation","215","976111","0.0-4.0-2.0-0.48","spark_pilot_norest","10044","6","9","Male","","false","","","","","[783.2000000476837]","./assets/img/canyon/catch/6.jpg","[""spaceBar""]","value training","canyon","0","{""ArrowUp,ArrowLeft"":23,""ArrowUp,ArrowRight"":10,""ArrowDown,ArrowLeft"":8,""ArrowDown,ArrowRight"":30}","true","spaceBar","true","revaluation","1","96","","",""
"html-keyboard-response","216","976612","0.0-4.0-2.0-1.48","spark_pilot_norest","10044","6","9","Male","","","","","","","null","<div style=""font-size:60px;"">+</div>","null","fixation","","","","","","","","","97","","",""
"revaluation","217","982631","0.0-4.0-2.0-0.49","spark_pilot_norest","10044","6","9","Male","","false","","","","","[798.5999999642372,1049.6000000238419]","./assets/img/canyon/memory/38.jpg","[""ArrowDown"",""ArrowRight""]","value training","canyon","30","{""ArrowUp,ArrowLeft"":23,""ArrowUp,ArrowRight"":10,""ArrowDown,ArrowLeft"":8,""ArrowDown,ArrowRight"":30}","true","ArrowDown,ArrowRight","false","revaluation","1","98","","",""
"html-keyboard-response","218","983133","0.0-4.0-2.0-1.49","spark_pilot_norest","10044","6","9","Male","","","","","","","null","<div style=""font-size:60px;"">+</div>","null","fixation","","","","","","","","","99","","",""
"learning-instructions","219","1040207","0.0-4.0-3.0-0.0","spark_pilot_norest","10044","6","9","Male","","","","","","","43860.69999998808","<p> Now, you will travel with a friend who will choose whether you go up or down first. </p>
            <p> On these turns, you will just see the animal that they found. You will still get to choose which chest to search for treasure.</p>","","instructions","","","","","","","","","","","",""
"revaluation","220","1044211","0.0-4.0-4.0-0.0","spark_pilot_norest","10044","6","9","Male","","true","","","","","[]","./assets/img/canyon/animals/lion.jpg","[]","revaluation","canyon","-5","{""ArrowUp,ArrowLeft"":27,""ArrowUp,ArrowRight"":15,""ArrowDown,ArrowLeft"":21,""ArrowDown,ArrowRight"":7}","false","ArrowDown","","revaluation","1","0","","",""
"html-keyboard-response","221","1044715","0.0-4.0-4.0-1.0","spark_pilot_norest","10044","6","9","Male","","","","","","","null","<div style=""font-size:60px;"">+</div>","null","fixation","","","","","","","","","1","","",""
"revaluation","222","1048722","0.0-4.0-4.0-0.1","spark_pilot_norest","10044","6","9","Male","","false","","","","","[350.89999997615814]","./assets/img/canyon/animals/giraffe.jpg","[""ArrowRight""]","revaluation","canyon","15","{""ArrowUp,ArrowLeft"":27,""ArrowUp,ArrowRight"":15,""ArrowDown,ArrowLeft"":21,""ArrowDown,ArrowRight"":7}","false","ArrowUp,ArrowRight","","revaluation","1","2","","",""
"html-keyboard-response","223","1049223","0.0-4.0-4.0-1.1","spark_pilot_norest","10044","6","9","Male","","","","","","","null","<div style=""font-size:60px;"">+</div>","null","fixation","","","","","","","","","3","","",""
"revaluation","224","1053227","0.0-4.0-4.0-0.2","spark_pilot_norest","10044","6","9","Male","","false","","","","","[511.19999998807907]","./assets/img/canyon/animals/giraffe.jpg","[""ArrowRight""]","revaluation","canyon","15","{""ArrowUp,ArrowLeft"":27,""ArrowUp,ArrowRight"":15,""ArrowDown,ArrowLeft"":21,""ArrowDown,ArrowRight"":7}","false","ArrowUp,ArrowRight","","revaluation","1","4","","",""
"html-keyboard-response","225","1053730","0.0-4.0-4.0-1.2","spark_pilot_norest","10044","6","9","Male","","","","","","","null","<div style=""font-size:60px;"">+</div>","null","fixation","","","","","","","","","5","","",""
"revaluation","226","1057735","0.0-4.0-4.0-0.3","spark_pilot_norest","10044","6","9","Male","","false","","","","","[844.1999999880791]","./assets/img/canyon/animals/giraffe.jpg","[""ArrowLeft""]","revaluation","canyon","27","{""ArrowUp,ArrowLeft"":27,""ArrowUp,ArrowRight"":15,""ArrowDown,ArrowLeft"":21,""ArrowDown,ArrowRight"":7}","true","ArrowUp,ArrowLeft","","revaluation","1","6","","",""
"html-keyboard-response","227","1058236","0.0-4.0-4.0-1.3","spark_pilot_norest","10044","6","9","Male","","","","","","","null","<div style=""font-size:60px;"">+</div>","null","fixation","","","","","","","","","7","","",""
"revaluation","228","1062242","0.0-4.0-4.0-0.4","spark_pilot_norest","10044","6","9","Male","","false","","","","","[674.1000000238419]","./assets/img/canyon/animals/giraffe.jpg","[""ArrowLeft""]","revaluation","canyon","27","{""ArrowUp,ArrowLeft"":27,""ArrowUp,ArrowRight"":15,""ArrowDown,ArrowLeft"":21,""ArrowDown,ArrowRight"":7}","true","ArrowUp,ArrowLeft","","revaluation","1","8","","",""
"html-keyboard-response","229","1062743","0.0-4.0-4.0-1.4","spark_pilot_norest","10044","6","9","Male","","","","","","","null","<div style=""font-size:60px;"">+</div>","null","fixation","","","","","","","","","9","","",""
"revaluation","230","1066747","0.0-4.0-4.0-0.5","spark_pilot_norest","10044","6","9","Male","","false","","","","","[1130.2999999523163]","./assets/img/canyon/animals/lion.jpg","[""ArrowLeft""]","revaluation","canyon","21","{""ArrowUp,ArrowLeft"":27,""ArrowUp,ArrowRight"":15,""ArrowDown,ArrowLeft"":21,""ArrowDown,ArrowRight"":7}","true","ArrowDown,ArrowLeft","","revaluation","1","10","","",""
"html-keyboard-response","231","1067249","0.0-4.0-4.0-1.5","spark_pilot_norest","10044","6","9","Male","","","","","","","null","<div style=""font-size:60px;"">+</div>","null","fixation","","","","","","","","","11","","",""
"revaluation","232","1071253","0.0-4.0-4.0-0.6","spark_pilot_norest","10044","6","9","Male","","false","","","","","[840.8999999761581]","./assets/img/canyon/animals/lion.jpg","[""ArrowRight""]","revaluation","canyon","7","{""ArrowUp,ArrowLeft"":27,""ArrowUp,ArrowRight"":15,""ArrowDown,ArrowLeft"":21,""ArrowDown,ArrowRight"":7}","false","ArrowDown,ArrowRight","","revaluation","1","12","","",""
"html-keyboard-response","233","1071756","0.0-4.0-4.0-1.6","spark_pilot_norest","10044","6","9","Male","","","","","","","null","<div style=""font-size:60px;"">+</div>","null","fixation","","","","","","","","","13","","",""
"revaluation","234","1075760","0.0-4.0-4.0-0.7","spark_pilot_norest","10044","6","9","Male","","false","","","","","[1157.5]","./assets/img/canyon/animals/giraffe.jpg","[""ArrowLeft""]","revaluation","canyon","27","{""ArrowUp,ArrowLeft"":27,""ArrowUp,ArrowRight"":15,""ArrowDown,ArrowLeft"":21,""ArrowDown,ArrowRight"":7}","true","ArrowUp,ArrowLeft","","revaluation","1","14","","",""
"html-keyboard-response","235","1076261","0.0-4.0-4.0-1.7","spark_pilot_norest","10044","6","9","Male","","","","","","","null","<div style=""font-size:60px;"">+</div>","null","fixation","","","","","","","","","15","","",""
"revaluation","236","1080266","0.0-4.0-4.0-0.8","spark_pilot_norest","10044","6","9","Male","","false","","","","","[353.5]","./assets/img/canyon/animals/lion.jpg","[""ArrowLeft""]","revaluation","canyon","21","{""ArrowUp,ArrowLeft"":27,""ArrowUp,ArrowRight"":15,""ArrowDown,ArrowLeft"":21,""ArrowDown,ArrowRight"":7}","true","ArrowDown,ArrowLeft","","revaluation","1","16","","",""
"html-keyboard-response","237","1080769","0.0-4.0-4.0-1.8","spark_pilot_norest","10044","6","9","Male","","","","","","","null","<div style=""font-size:60px;"">+</div>","null","fixation","","","","","","","","","17","","",""
"revaluation","238","1084777","0.0-4.0-4.0-0.9","spark_pilot_norest","10044","6","9","Male","","false","","","","","[377.0999999642372]","./assets/img/canyon/animals/giraffe.jpg","[""ArrowLeft""]","revaluation","canyon","27","{""ArrowUp,ArrowLeft"":27,""ArrowUp,ArrowRight"":15,""ArrowDown,ArrowLeft"":21,""ArrowDown,ArrowRight"":7}","true","ArrowUp,ArrowLeft","","revaluation","1","18","","",""
"html-keyboard-response","239","1085278","0.0-4.0-4.0-1.9","spark_pilot_norest","10044","6","9","Male","","","","","","","null","<div style=""font-size:60px;"">+</div>","null","fixation","","","","","","","","","19","","",""
"revaluation","240","1089283","0.0-4.0-4.0-0.10","spark_pilot_norest","10044","6","9","Male","","false","","","","","[420]","./assets/img/canyon/animals/lion.jpg","[""ArrowLeft""]","revaluation","canyon","21","{""ArrowUp,ArrowLeft"":27,""ArrowUp,ArrowRight"":15,""ArrowDown,ArrowLeft"":21,""ArrowDown,ArrowRight"":7}","true","ArrowDown,ArrowLeft","","revaluation","1","20","","",""
"html-keyboard-response","241","1089785","0.0-4.0-4.0-1.10","spark_pilot_norest","10044","6","9","Male","","","","","","","null","<div style=""font-size:60px;"">+</div>","null","fixation","","","","","","","","","21","","",""
"revaluation","242","1093790","0.0-4.0-4.0-0.11","spark_pilot_norest","10044","6","9","Male","","false","","","","","[849.2000000476837]","./assets/img/canyon/animals/lion.jpg","[""ArrowLeft""]","revaluation","canyon","21","{""ArrowUp,ArrowLeft"":27,""ArrowUp,ArrowRight"":15,""ArrowDown,ArrowLeft"":21,""ArrowDown,ArrowRight"":7}","true","ArrowDown,ArrowLeft","","revaluation","1","22","","",""
"html-keyboard-response","243","1094295","0.0-4.0-4.0-1.11","spark_pilot_norest","10044","6","9","Male","","","","","","","null","<div style=""font-size:60px;"">+</div>","null","fixation","","","","","","","","","23","","",""
"revaluation","244","1098303","0.0-4.0-4.0-0.12","spark_pilot_norest","10044","6","9","Male","","false","","","","","[560]","./assets/img/canyon/animals/giraffe.jpg","[""ArrowLeft""]","revaluation","canyon","27","{""ArrowUp,ArrowLeft"":27,""ArrowUp,ArrowRight"":15,""ArrowDown,ArrowLeft"":21,""ArrowDown,ArrowRight"":7}","true","ArrowUp,ArrowLeft","","revaluation","1","24","","",""
"html-keyboard-response","245","1098805","0.0-4.0-4.0-1.12","spark_pilot_norest","10044","6","9","Male","","","","","","","null","<div style=""font-size:60px;"">+</div>","null","fixation","","","","","","","","","25","","",""
"revaluation","246","1102809","0.0-4.0-4.0-0.13","spark_pilot_norest","10044","6","9","Male","","false","","","","","[410.19999998807907]","./assets/img/canyon/animals/lion.jpg","[""ArrowLeft""]","revaluation","canyon","21","{""ArrowUp,ArrowLeft"":27,""ArrowUp,ArrowRight"":15,""ArrowDown,ArrowLeft"":21,""ArrowDown,ArrowRight"":7}","true","ArrowDown,ArrowLeft","","revaluation","1","26","","",""
"html-keyboard-response","247","1103310","0.0-4.0-4.0-1.13","spark_pilot_norest","10044","6","9","Male","","","","","","","null","<div style=""font-size:60px;"">+</div>","null","fixation","","","","","","","","","27","","",""
"revaluation","248","1107314","0.0-4.0-4.0-0.14","spark_pilot_norest","10044","6","9","Male","","false","","","","","[439]","./assets/img/canyon/animals/lion.jpg","[""ArrowLeft""]","revaluation","canyon","21","{""ArrowUp,ArrowLeft"":27,""ArrowUp,ArrowRight"":15,""ArrowDown,ArrowLeft"":21,""ArrowDown,ArrowRight"":7}","true","ArrowDown,ArrowLeft","","revaluation","1","28","","",""
"html-keyboard-response","249","1107815","0.0-4.0-4.0-1.14","spark_pilot_norest","10044","6","9","Male","","","","","","","null","<div style=""font-size:60px;"">+</div>","null","fixation","","","","","","","","","29","","",""
"revaluation","250","1111822","0.0-4.0-4.0-0.15","spark_pilot_norest","10044","6","9","Male","","false","","","","","[1073.300000011921]","./assets/img/canyon/animals/lion.jpg","[""ArrowLeft""]","revaluation","canyon","21","{""ArrowUp,ArrowLeft"":27,""ArrowUp,ArrowRight"":15,""ArrowDown,ArrowLeft"":21,""ArrowDown,ArrowRight"":7}","true","ArrowDown,ArrowLeft","","revaluation","1","30","","",""
"html-keyboard-response","251","1112324","0.0-4.0-4.0-1.15","spark_pilot_norest","10044","6","9","Male","","","","","","","null","<div style=""font-size:60px;"">+</div>","null","fixation","","","","","","","","","31","","",""
"revaluation","252","1116330","0.0-4.0-4.0-0.16","spark_pilot_norest","10044","6","9","Male","","false","","","","","[272.7999999523163]","./assets/img/canyon/animals/giraffe.jpg","[""ArrowLeft""]","revaluation","canyon","27","{""ArrowUp,ArrowLeft"":27,""ArrowUp,ArrowRight"":15,""ArrowDown,ArrowLeft"":21,""ArrowDown,ArrowRight"":7}","true","ArrowUp,ArrowLeft","","revaluation","1","32","","",""
"html-keyboard-response","253","1116831","0.0-4.0-4.0-1.16","spark_pilot_norest","10044","6","9","Male","","","","","","","null","<div style=""font-size:60px;"">+</div>","null","fixation","","","","","","","","","33","","",""
"revaluation","254","1120836","0.0-4.0-4.0-0.17","spark_pilot_norest","10044","6","9","Male","","false","","","","","[645.5]","./assets/img/canyon/animals/giraffe.jpg","[""ArrowLeft""]","revaluation","canyon","27","{""ArrowUp,ArrowLeft"":27,""ArrowUp,ArrowRight"":15,""ArrowDown,ArrowLeft"":21,""ArrowDown,ArrowRight"":7}","true","ArrowUp,ArrowLeft","","revaluation","1","34","","",""
"html-keyboard-response","255","1121338","0.0-4.0-4.0-1.17","spark_pilot_norest","10044","6","9","Male","","","","","","","null","<div style=""font-size:60px;"">+</div>","null","fixation","","","","","","","","","35","","",""
"learning-instructions","256","1129815","0.0-4.0-5.0-0.0","spark_pilot_norest","10044","6","9","Male","","","","","","","null","<p> You have almost finished this part of the game! </p>
            <p> We are going to ask you to make a few more choices. </p>","","instructions","","","","","","","","","","","",""
"learning-instructions","257","1145805","0.0-4.0-5.0-0.1","spark_pilot_norest","10044","6","9","Male","","","","","","","null","<p> First, you need to decide whether to go up or down. When you see each picture, use the arrow keys to make your choice. </p>
            <p><b>You will not see which animal you found, but try to get to the one that will give you the most treasure.</b></p>","","instructions","","","","","","","","","","","",""
"html-keyboard-response","258","1146825","0.0-4.0-6.0-0.0","spark_pilot_norest","10044","6","9","Male","","","","","","","null","<div style=""font-size:100px;color:red;"">Starting in...</div>","null","","","","","","","","","","","","",""
"html-keyboard-response","259","1147836","0.0-4.0-6.0-1.0","spark_pilot_norest","10044","6","9","Male","","","","","","","null","<div style=""font-size:200px;color:red;"">3</div>","null","","","","","","","","","","","","",""
"html-keyboard-response","260","1148845","0.0-4.0-6.0-2.0","spark_pilot_norest","10044","6","9","Male","","","","","","","null","<div style=""font-size:200px;color:red;"">2</div>","null","","","","","","","","","","","","",""
"html-keyboard-response","261","1149855","0.0-4.0-6.0-3.0","spark_pilot_norest","10044","6","9","Male","","","","","","","null","<div style=""font-size:200px;color:red;"">1</div>","null","","","","","","","","","","","","",""
"revaluation","262","1150177","0.0-4.0-7.0-0.0","spark_pilot_norest","10044","6","9","Male","","false","","","","","[320.19999998807907]","./assets/img/canyon/test/3.jpg","[""ArrowUp""]","first stage test","canyon","0","{""ArrowUp,ArrowLeft"":27,""ArrowUp,ArrowRight"":15,""ArrowDown,ArrowLeft"":21,""ArrowDown,ArrowRight"":7}","true","ArrowUp","false","revaluation","1","","","",""
"html-keyboard-response","263","1150695","0.0-4.0-7.0-1.0","spark_pilot_norest","10044","6","9","Male","","","","","","","null","<div style=""font-size:60px;"">+</div>","null","fixation","","","","","","","","","","","",""
"revaluation","264","1152387","0.0-4.0-7.0-0.1","spark_pilot_norest","10044","6","9","Male","","false","","","","","[1689.300000011921]","./assets/img/canyon/test/1.jpg","[""ArrowDown""]","first stage test","canyon","0","{""ArrowUp,ArrowLeft"":27,""ArrowUp,ArrowRight"":15,""ArrowDown,ArrowLeft"":21,""ArrowDown,ArrowRight"":7}","false","ArrowDown","false","revaluation","1","","","",""
"html-keyboard-response","265","1152895","0.0-4.0-7.0-1.1","spark_pilot_norest","10044","6","9","Male","","","","","","","null","<div style=""font-size:60px;"">+</div>","null","fixation","","","","","","","","","","","",""
"revaluation","266","1153747","0.0-4.0-7.0-0.2","spark_pilot_norest","10044","6","9","Male","","false","","","","","[849]","./assets/img/canyon/test/2.jpg","[""ArrowUp""]","first stage test","canyon","0","{""ArrowUp,ArrowLeft"":27,""ArrowUp,ArrowRight"":15,""ArrowDown,ArrowLeft"":21,""ArrowDown,ArrowRight"":7}","true","ArrowUp","false","revaluation","1","","","",""
"html-keyboard-response","267","1154265","0.0-4.0-7.0-1.2","spark_pilot_norest","10044","6","9","Male","","","","","","","null","<div style=""font-size:60px;"">+</div>","null","fixation","","","","","","","","","","","",""
"revaluation","268","1155717","0.0-4.0-7.0-0.3","spark_pilot_norest","10044","6","9","Male","","false","","","","","[1449.9000000357628]","./assets/img/canyon/test/0.jpg","[""ArrowUp""]","first stage test","canyon","0","{""ArrowUp,ArrowLeft"":27,""ArrowUp,ArrowRight"":15,""ArrowDown,ArrowLeft"":21,""ArrowDown,ArrowRight"":7}","true","ArrowUp","false","revaluation","1","","","",""
"html-keyboard-response","269","1156225","0.0-4.0-7.0-1.3","spark_pilot_norest","10044","6","9","Male","","","","","","","null","<div style=""font-size:60px;"">+</div>","null","fixation","","","","","","","","","","","",""
"learning-instructions","270","1169585","0.0-4.0-8.0-0.0","spark_pilot_norest","10044","6","9","Male","","","","","","","null","<p> Now you will see the animals again and can search their chests for treasure. </p>
            <p> This time, you will not see how much treasure you earned, but you will earn more bonus money for making better choices. </p>","","instructions","","","","","","","","","","","",""
"html-keyboard-response","271","1170595","0.0-4.0-9.0-0.0","spark_pilot_norest","10044","6","9","Male","","","","","","","null","<div style=""font-size:100px;color:red;"">Starting in...</div>","null","","","","","","","","","","","","",""
"html-keyboard-response","272","1171605","0.0-4.0-9.0-1.0","spark_pilot_norest","10044","6","9","Male","","","","","","","null","<div style=""font-size:200px;color:red;"">3</div>","null","","","","","","","","","","","","",""
"html-keyboard-response","273","1172625","0.0-4.0-9.0-2.0","spark_pilot_norest","10044","6","9","Male","","","","","","","null","<div style=""font-size:200px;color:red;"">2</div>","null","","","","","","","","","","","","",""
"html-keyboard-response","274","1173645","0.0-4.0-9.0-3.0","spark_pilot_norest","10044","6","9","Male","","","","","","","null","<div style=""font-size:200px;color:red;"">1</div>","null","","","","","","","","","","","","",""
"revaluation","275","1175014","0.0-4.0-10.0-0.0","spark_pilot_norest","10044","6","9","Male","","false","","","","","[1367]","./assets/img/canyon/animals/giraffe.jpg","[""ArrowLeft""]","second stage test","canyon","0","{""ArrowUp,ArrowLeft"":27,""ArrowUp,ArrowRight"":15,""ArrowDown,ArrowLeft"":21,""ArrowDown,ArrowRight"":7}","true","ArrowUp,ArrowLeft","","revaluation","1","","","",""
"html-keyboard-response","276","1175525","0.0-4.0-10.0-1.0","spark_pilot_norest","10044","6","9","Male","","","","","","","null","<div style=""font-size:60px;"">+</div>","null","fixation","","","","","","","","","","","",""
"revaluation","277","1176713","0.0-4.0-10.0-0.1","spark_pilot_norest","10044","6","9","Male","","false","","","","","[1185.8999999761581]","./assets/img/canyon/animals/giraffe.jpg","[""ArrowLeft""]","second stage test","canyon","0","{""ArrowUp,ArrowLeft"":27,""ArrowUp,ArrowRight"":15,""ArrowDown,ArrowLeft"":21,""ArrowDown,ArrowRight"":7}","true","ArrowUp,ArrowLeft","","revaluation","1","","","",""
"html-keyboard-response","278","1177215","0.0-4.0-10.0-1.1","spark_pilot_norest","10044","6","9","Male","","","","","","","null","<div style=""font-size:60px;"">+</div>","null","fixation","","","","","","","","","","","",""
"revaluation","279","1178097","0.0-4.0-10.0-0.2","spark_pilot_norest","10044","6","9","Male","","false","","","","","[879.1999999880791]","./assets/img/canyon/animals/giraffe.jpg","[""ArrowRight""]","second stage test","canyon","0","{""ArrowUp,ArrowLeft"":27,""ArrowUp,ArrowRight"":15,""ArrowDown,ArrowLeft"":21,""ArrowDown,ArrowRight"":7}","false","ArrowUp,ArrowRight","","revaluation","1","","","",""
"html-keyboard-response","280","1178605","0.0-4.0-10.0-1.2","spark_pilot_norest","10044","6","9","Male","","","","","","","null","<div style=""font-size:60px;"">+</div>","null","fixation","","","","","","","","","","","",""
"revaluation","281","1179034","0.0-4.0-10.0-0.3","spark_pilot_norest","10044","6","9","Male","","false","","","","","[427.19999998807907]","./assets/img/canyon/animals/giraffe.jpg","[""ArrowRight""]","second stage test","canyon","0","{""ArrowUp,ArrowLeft"":27,""ArrowUp,ArrowRight"":15,""ArrowDown,ArrowLeft"":21,""ArrowDown,ArrowRight"":7}","false","ArrowUp,ArrowRight","","revaluation","1","","","",""
"html-keyboard-response","282","1179545","0.0-4.0-10.0-1.3","spark_pilot_norest","10044","6","9","Male","","","","","","","null","<div style=""font-size:60px;"">+</div>","null","fixation","","","","","","","","","","","",""
"revaluation","283","1181976","0.0-4.0-10.0-0.4","spark_pilot_norest","10044","6","9","Male","","false","","","","","[2428.100000023842]","./assets/img/canyon/animals/lion.jpg","[""ArrowRight""]","second stage test","canyon","0","{""ArrowUp,ArrowLeft"":27,""ArrowUp,ArrowRight"":15,""ArrowDown,ArrowLeft"":21,""ArrowDown,ArrowRight"":7}","false","ArrowDown,ArrowRight","","revaluation","1","","","",""
"html-keyboard-response","284","1182495","0.0-4.0-10.0-1.4","spark_pilot_norest","10044","6","9","Male","","","","","","","null","<div style=""font-size:60px;"">+</div>","null","fixation","","","","","","","","","","","",""
"revaluation","285","1183075","0.0-4.0-10.0-0.5","spark_pilot_norest","10044","6","9","Male","","false","","","","","[577.8000000119209]","./assets/img/canyon/animals/lion.jpg","[""ArrowRight""]","second stage test","canyon","0","{""ArrowUp,ArrowLeft"":27,""ArrowUp,ArrowRight"":15,""ArrowDown,ArrowLeft"":21,""ArrowDown,ArrowRight"":7}","false","ArrowDown,ArrowRight","","revaluation","1","","","",""
"html-keyboard-response","286","1183585","0.0-4.0-10.0-1.5","spark_pilot_norest","10044","6","9","Male","","","","","","","null","<div style=""font-size:60px;"">+</div>","null","fixation","","","","","","","","","","","",""
"revaluation","287","1184201","0.0-4.0-10.0-0.6","spark_pilot_norest","10044","6","9","Male","","false","","","","","[613.4000000357628]","./assets/img/canyon/animals/lion.jpg","[""ArrowRight""]","second stage test","canyon","0","{""ArrowUp,ArrowLeft"":27,""ArrowUp,ArrowRight"":15,""ArrowDown,ArrowLeft"":21,""ArrowDown,ArrowRight"":7}","false","ArrowDown,ArrowRight","","revaluation","1","","","",""
"html-keyboard-response","288","1184705","0.0-4.0-10.0-1.6","spark_pilot_norest","10044","6","9","Male","","","","","","","null","<div style=""font-size:60px;"">+</div>","null","fixation","","","","","","","","","","","",""
"revaluation","289","1185818","0.0-4.0-10.0-0.7","spark_pilot_norest","10044","6","9","Male","","false","","","","","[1111.0999999642372]","./assets/img/canyon/animals/lion.jpg","[""ArrowLeft""]","second stage test","canyon","0","{""ArrowUp,ArrowLeft"":27,""ArrowUp,ArrowRight"":15,""ArrowDown,ArrowLeft"":21,""ArrowDown,ArrowRight"":7}","true","ArrowDown,ArrowLeft","","revaluation","1","","","",""
"html-keyboard-response","290","1186336","0.0-4.0-10.0-1.7","spark_pilot_norest","10044","6","9","Male","","","","","","","null","<div style=""font-size:60px;"">+</div>","null","fixation","","","","","","","","","","","",""
"learning-instructions","291","1192785","0.0-4.0-0.1-0.2","spark_pilot_norest","10044","6","9","Male","","","","","","","3739.300000011921","<p> This time you are searching for treasure in the <b>ocean</b>.</p>","","instructions","","","","","","","","","","","",""
"learning-instructions","292","1217095","0.0-4.0-0.1-0.3","spark_pilot_norest","10044","6","9","Male","","","","","","","7048.799999952316","<p><b>New</b> animals with <b>new</b> treasure chests live here. You need to explore to discover where the animal with the best treasure chest is.</p>
                    <p> Like before, once you figure out which animal has the chest with the most treasure, you should try to get to that animal and select that chest! </p>","","instructions","","","","","","","","","","","",""
"learning-instructions","293","1233278","0.0-4.0-1.1-0.1","spark_pilot_norest","10044","6","9","Male","","","","","","","1461.8999999761581","<p> Remember, when you see a picture of the place, use the up and down keys to <b>find an animal</b>.</p>
            <p> When you encounter an animal, you should use the left and right keys to <b>select a treasure chest</b>.</p>
            <p> Don't forget to look out for the robber! </p>","","instructions","","","","","","","","","","","",""
"revaluation","294","1239315","0.0-4.0-2.1-0.50","spark_pilot_norest","10044","6","9","Male","","false","","","","","[1419.800000011921,595.6999999880791]","./assets/img/ocean/memory/14.jpg","[""ArrowUp"",""ArrowRight""]","value training","ocean","10","{""ArrowUp,ArrowLeft"":26,""ArrowUp,ArrowRight"":10,""ArrowDown,ArrowLeft"":5,""ArrowDown,ArrowRight"":17}","false","ArrowUp,ArrowRight","false","original","2","0","","",""
"html-keyboard-response","295","1239824","0.0-4.0-2.1-1.50","spark_pilot_norest","10044","6","9","Male","","","","","","","null","<div style=""font-size:60px;"">+</div>","null","fixation","","","","","","","","","1","","",""
"revaluation","296","1245875","0.0-4.0-2.1-0.51","spark_pilot_norest","10044","6","9","Male","","true","","","","","[850.1999999880791]","./assets/img/ocean/memory/0.jpg","[""ArrowUp""]","value training","ocean","-5","{""ArrowUp,ArrowLeft"":26,""ArrowUp,ArrowRight"":10,""ArrowDown,ArrowLeft"":5,""ArrowDown,ArrowRight"":17}","false","ArrowUp","false","original","2","2","","",""
"html-keyboard-response","297","1246385","0.0-4.0-2.1-1.51","spark_pilot_norest","10044","6","9","Male","","","","","","","null","<div style=""font-size:60px;"">+</div>","null","fixation","","","","","","","","","3","","",""
"revaluation","298","1250414","0.0-4.0-2.1-0.52","spark_pilot_norest","10044","6","9","Male","","false","","","","","[833.3999999761581]","./assets/img/ocean/catch/4.jpg","[""ArrowUp""]","value training","ocean","-10","{""ArrowUp,ArrowLeft"":26,""ArrowUp,ArrowRight"":10,""ArrowDown,ArrowLeft"":5,""ArrowDown,ArrowRight"":17}","false","ArrowUp","true","original","2","4","","",""
"html-keyboard-response","299","1250924","0.0-4.0-2.1-1.52","spark_pilot_norest","10044","6","9","Male","","","","","","","null","<div style=""font-size:60px;"">+</div>","null","fixation","","","","","","","","","5","","",""
"revaluation","300","1256953","0.0-4.0-2.1-0.53","spark_pilot_norest","10044","6","9","Male","","false","","","","","[715.3999999761581,377.19999998807907]","./assets/img/ocean/memory/17.jpg","[""ArrowUp"",""ArrowLeft""]","value training","ocean","26","{""ArrowUp,ArrowLeft"":26,""ArrowUp,ArrowRight"":10,""ArrowDown,ArrowLeft"":5,""ArrowDown,ArrowRight"":17}","true","ArrowUp,ArrowLeft","false","original","2","6","","",""
"html-keyboard-response","301","1257455","0.0-4.0-2.1-1.53","spark_pilot_norest","10044","6","9","Male","","","","","","","null","<div style=""font-size:60px;"">+</div>","null","fixation","","","","","","","","","7","","",""
"revaluation","302","1261475","0.0-4.0-2.1-0.54","spark_pilot_norest","10044","6","9","Male","","true","","","","","[]","./assets/img/ocean/memory/24.jpg","[]","value training","ocean","-5","{""ArrowUp,ArrowLeft"":26,""ArrowUp,ArrowRight"":10,""ArrowDown,ArrowLeft"":5,""ArrowDown,ArrowRight"":17}","false","","false","original","2","8","","",""
"html-keyboard-response","303","1261976","0.0-4.0-2.1-1.54","spark_pilot_norest","10044","6","9","Male","","","","","","","null","<div style=""font-size:60px;"">+</div>","null","fixation","","","","","","","","","9","","",""
"revaluation","304","1267981","0.0-4.0-2.1-0.55","spark_pilot_norest","10044","6","9","Male","","false","","","","","[73.69999998807907,558.6000000238419]","./assets/img/ocean/memory/15.jpg","[""ArrowUp"",""ArrowLeft""]","value training","ocean","26","{""ArrowUp,ArrowLeft"":26,""ArrowUp,ArrowRight"":10,""ArrowDown,ArrowLeft"":5,""ArrowDown,ArrowRight"":17}","true","ArrowUp,ArrowLeft","false","original","2","10","","",""
"html-keyboard-response","305","1268482","0.0-4.0-2.1-1.55","spark_pilot_norest","10044","6","9","Male","","","","","","","null","<div style=""font-size:60px;"">+</div>","null","fixation","","","","","","","","","11","","",""
"revaluation","306","1274488","0.0-4.0-2.1-0.56","spark_pilot_norest","10044","6","9","Male","","false","","","","","[611.5,530.5999999642372]","./assets/img/ocean/memory/14.jpg","[""ArrowUp"",""ArrowLeft""]","value training","ocean","26","{""ArrowUp,ArrowLeft"":26,""ArrowUp,ArrowRight"":10,""ArrowDown,ArrowLeft"":5,""ArrowDown,ArrowRight"":17}","true","ArrowUp,ArrowLeft","false","original","2","12","","",""
"html-keyboard-response","307","1274989","0.0-4.0-2.1-1.56","spark_pilot_norest","10044","6","9","Male","","","","","","","null","<div style=""font-size:60px;"">+</div>","null","fixation","","","","","","","","","13","","",""
"revaluation","308","1280993","0.0-4.0-2.1-0.57","spark_pilot_norest","10044","6","9","Male","","false","","","","","[369.7000000476837,472.5]","./assets/img/ocean/memory/10.jpg","[""ArrowDown"",""ArrowLeft""]","value training","ocean","5","{""ArrowUp,ArrowLeft"":26,""ArrowUp,ArrowRight"":10,""ArrowDown,ArrowLeft"":5,""ArrowDown,ArrowRight"":17}","false","ArrowDown,ArrowLeft","false","original","2","14","","",""
"html-keyboard-response","309","1281495","0.0-4.0-2.1-1.57","spark_pilot_norest","10044","6","9","Male","","","","","","","null","<div style=""font-size:60px;"">+</div>","null","fixation","","","","","","","","","15","","",""
"revaluation","310","1287501","0.0-4.0-2.1-0.58","spark_pilot_norest","10044","6","9","Male","","false","","","","","[384,231.69999998807907]","./assets/img/ocean/memory/1.jpg","[""ArrowDown"",""ArrowRight""]","value training","ocean","17","{""ArrowUp,ArrowLeft"":26,""ArrowUp,ArrowRight"":10,""ArrowDown,ArrowLeft"":5,""ArrowDown,ArrowRight"":17}","false","ArrowDown,ArrowRight","false","original","2","16","","",""
"html-keyboard-response","311","1288003","0.0-4.0-2.1-1.58","spark_pilot_norest","10044","6","9","Male","","","","","","","null","<div style=""font-size:60px;"">+</div>","null","fixation","","","","","","","","","17","","",""
"revaluation","312","1292009","0.0-4.0-2.1-0.59","spark_pilot_norest","10044","6","9","Male","","false","","","","","[1025.7000000476837]","./assets/img/ocean/catch/7.jpg","[""ArrowUp""]","value training","ocean","-10","{""ArrowUp,ArrowLeft"":26,""ArrowUp,ArrowRight"":10,""ArrowDown,ArrowLeft"":5,""ArrowDown,ArrowRight"":17}","false","ArrowUp","true","original","2","18","","",""
"html-keyboard-response","313","1292511","0.0-4.0-2.1-1.59","spark_pilot_norest","10044","6","9","Male","","","","","","","null","<div style=""font-size:60px;"">+</div>","null","fixation","","","","","","","","","19","","",""
