"trial_type","trial_index","time_elapsed","internal_node_id","task_version","subject_id","assigned_condition","age","gender","success","timeout","failed_images","failed_audio","failed_video","browser_interaction","rt","stimulus","response","task_part","environment","score","rewardMap","correct","fullState","isCatch","condition","order","trial_num","key_press","ground_truth","bonus"
"pavlovia","0","1615","0.0-0.0","spark_pilot_norest","8368","5","20","Female","","","","","","","","","","","","","","","","","","","","","",""
"preload","1","158781","0.0-1.0","spark_pilot_norest","8368","5","20","Female","true","false","[]","[]","[]","[{""event"":""fullscreenenter"",""trial"":2,""time"":167608},{""event"":""blur"",""trial"":465,""time"":2352510},{""event"":""focus"",""trial"":465,""time"":3125120}]","","","","","","","","","","","","","","","",""
"fullscreen","2","168547","0.0-2.0","spark_pilot_norest","8368","5","20","Female","true","","","","","","","","","","","","","","","","","","","","",""
"audio-button-response","3","171644","0.0-3.0-0.0-0.0","spark_pilot_norest","8368","5","20","Female","","","","","","","2955","./assets/audio/audiotest/turtle.mp3","0","audio_test","","","","","","","","","","","",""
"audio-button-response","4","174257","0.0-3.0-0.1-0.1","spark_pilot_norest","8368","5","20","Female","","","","","","","1605","./assets/audio/audiotest/turtle.mp3","2","audio_test","","","","","","","","","","","",""
"learning-instructions","5","183043","0.0-3.0-1.0-0.0","spark_pilot_norest","8368","5","20","Female","","","","","","","1791.800000000745","<p> Welcome! Please remember to stay in fullscreen mode and don't click away from the experiment. </p>","","instructions","","","","","","","","","","","",""
"learning-instructions","6","193862","0.0-3.0-1.0-0.1","spark_pilot_norest","8368","5","20","Female","","","","","","","2407.7999999988824","<p> Today you will be playing a game to earn treasure. </p>
            <p> At the end of the experiment, you will earn a bonus based on how much treasure you find. </p>
            <img src='./assets/img/instructions/treasure.jpg' class='instructions-image'>","","instructions","","","","","","","","","","","",""
"learning-instructions","7","202631","0.0-3.0-1.0-0.2","spark_pilot_norest","8368","5","20","Female","","","","","","","510.5","<p> Animals have hidden treasure in treasure chests. </p>
            <p> You need to first find an animal and then choose which of their treasure chests to search. </p>
            <img src='./assets/img/space/animals/cat.jpg' class='instructions-image'>","","instructions","","","","","","","","","","","",""
"learning-instructions","8","216655","0.0-3.0-1.0-0.3","spark_pilot_norest","8368","5","20","Female","","","","","","","875.2000000011176","<p> In each round, you will search for treasure in a different place. In the real game, there will be two rounds. </p>
            <p> You will begin with a separate, practice round where you will search for treasure in outer space. </p>
            <img src='./assets/img/space/0.jpg' class='instructions-image'>","","instructions","","","","","","","","","","","",""
"learning-instructions","9","230311","0.0-3.0-1.0-0.4","spark_pilot_norest","8368","5","20","Female","","","","","","","2242.800000000745","<p> On every turn, you will see a picture of the place that you are in, but the specific image may be different each time. </p>
            <p> For example, both of these images mean you are in outer space. </p>
            <img src='./assets/img/instructions/outerspace.jpg' class='instructions-image'>","","instructions","","","","","","","","","","","",""
"learning-instructions","10","244844","0.0-3.0-1.0-0.5","spark_pilot_norest","8368","5","20","Female","","","","","","","6701.5","<p> You need to decide which direction to travel in. </p>
            <p> You can choose between going <b>up or down</b> by using the arrow keys. </p>
            <img src='./assets/img/instructions/updown.jpg' class='instructions-image'>","","instructions","","","","","","","","","","","",""
"learning-instructions","11","256022","0.0-3.0-1.0-0.6","spark_pilot_norest","8368","5","20","Female","","","","","","","2364.7999999988824","<p> You will have <b>2 seconds</b> to make your choice. </p>
            <p> If you do not make a choice within 2 seconds, you will not find an animal or earn treasure. </p>
            <img src='./assets/img/instructions/2seconds.jpg' class='instructions-image'>","","instructions","","","","","","","","","","","",""
"learning-instructions","12","264800","0.0-3.0-1.0-0.7","spark_pilot_norest","8368","5","20","Female","","","","","","","1745.2999999988824","<p> Let’s try practicing that now! </p>
            <p> When you see a picture of the place you are in, press the <b>up</b> key to travel up. </p>
            <img src='./assets/img/instructions/pressUp.jpg' class='instructions-image'>","","instructions","","","","","","","","","","","",""
"revaluation","13","268820","0.0-3.0-2.0-0.0","spark_pilot_norest","8368","5","20","Female","","false","","","","","[1282.5999999996275]","./assets/img/space/0.jpg","[""ArrowUp""]","first stage practice","space","0","null","null","ArrowUp","false","","","","","",""
"html-keyboard-response","14","269330","0.0-3.0-2.0-1.0","spark_pilot_norest","8368","5","20","Female","","","","","","","null","<div style=""font-size:60px;"">+</div>","null","fixation","","","","","","","","","","","",""
"revaluation","15","273345","0.0-3.0-2.0-0.1","spark_pilot_norest","8368","5","20","Female","","false","","","","","[993]","./assets/img/space/1.jpg","[""ArrowUp""]","first stage practice","space","0","null","null","ArrowUp","false","","","","","",""
"html-keyboard-response","16","273849","0.0-3.0-2.0-1.1","spark_pilot_norest","8368","5","20","Female","","","","","","","null","<div style=""font-size:60px;"">+</div>","null","fixation","","","","","","","","","","","",""
"revaluation","17","277865","0.0-3.0-2.0-0.2","spark_pilot_norest","8368","5","20","Female","","false","","","","","[730]","./assets/img/space/2.jpg","[""ArrowUp""]","first stage practice","space","0","null","null","ArrowUp","false","","","","","",""
"html-keyboard-response","18","278371","0.0-3.0-2.0-1.2","spark_pilot_norest","8368","5","20","Female","","","","","","","null","<div style=""font-size:60px;"">+</div>","null","fixation","","","","","","","","","","","",""
"learning-instructions","19","283749","0.0-3.0-3.0-0.0","spark_pilot_norest","8368","5","20","Female","","","","","","","672.0999999996275","<p> Great job! Now try pressing the <b>down</b> key to travel down. </p>
            <img src='./assets/img/instructions/pressDown.jpg' class='instructions-image'>","","instructions","","","","","","","","","","","",""
"revaluation","20","287762","0.0-3.0-4.0-0.0","spark_pilot_norest","8368","5","20","Female","","false","","","","","[680.6999999992549]","./assets/img/space/3.jpg","[""ArrowDown""]","first stage practice","space","0","null","null","ArrowDown","false","","","","","",""
"html-keyboard-response","21","288265","0.0-3.0-4.0-1.0","spark_pilot_norest","8368","5","20","Female","","","","","","","null","<div style=""font-size:60px;"">+</div>","null","fixation","","","","","","","","","","","",""
"revaluation","22","292281","0.0-3.0-4.0-0.1","spark_pilot_norest","8368","5","20","Female","","false","","","","","[393.09999999962747]","./assets/img/space/4.jpg","[""ArrowDown""]","first stage practice","space","0","null","null","ArrowDown","false","","","","","",""
"html-keyboard-response","23","292785","0.0-3.0-4.0-1.1","spark_pilot_norest","8368","5","20","Female","","","","","","","null","<div style=""font-size:60px;"">+</div>","null","fixation","","","","","","","","","","","",""
"revaluation","24","296802","0.0-3.0-4.0-0.2","spark_pilot_norest","8368","5","20","Female","","false","","","","","[357.19999999925494]","./assets/img/space/5.jpg","[""ArrowDown""]","first stage practice","space","0","null","null","ArrowDown","false","","","","","",""
"html-keyboard-response","25","297305","0.0-3.0-4.0-1.2","spark_pilot_norest","8368","5","20","Female","","","","","","","null","<div style=""font-size:60px;"">+</div>","null","fixation","","","","","","","","","","","",""
"learning-instructions","26","308170","0.0-3.0-5.0-0.0","spark_pilot_norest","8368","5","20","Female","","","","","","","1014","<p> The animals don’t move, so the animal in the upper part of a place will stay in the upper part of a place, and the animal in the lower part of a place will stay in the lower part of a place. </p>","","instructions","","","","","","","","","","","",""
"learning-instructions","27","317795","0.0-3.0-5.0-0.1","spark_pilot_norest","8368","5","20","Female","","","","","","","495.2999999988824","<p> Each animal has two treasure chests for you to choose from. </p>
            <p> The amount of treasure in each chest can range from <b> 0 to 40 pieces.</b></p>","","instructions","","","","","","","","","","","",""
"learning-instructions","28","330314","0.0-3.0-5.0-0.2","spark_pilot_norest","8368","5","20","Female","","","","","","","1333","<p> You should decide which chest to search for treasure by using the <b>left</b> and <b>right</b> arrow keys. </p>
            <p><b> Pay attention to which animal is on the screen, as the animals have different treasure chests. </b></p>
            <img src='./assets/img/instructions/leftright.jpg' class='instructions-image'>","","instructions","","","","","","","","","","","",""
"learning-instructions","29","337392","0.0-3.0-5.0-0.3","spark_pilot_norest","8368","5","20","Female","","","","","","","715.8000000007451","<p> Let’s try practicing that now. </p>
            <p> When you see an animal, choose which chest to search for treasure. </p>
            <img src='./assets/img/instructions/chooseChest.jpg' class='instructions-image'>","","instructions","","","","","","","","","","","",""
"revaluation","30","341410","0.0-3.0-6.0-0.0","spark_pilot_norest","8368","5","20","Female","","false","","","","","[819.6999999992549]","./assets/img/space/animals/cat.jpg","[""ArrowLeft""]","second stage practice","space","3","{""ArrowUp,ArrowLeft"":3,""ArrowUp,ArrowRight"":36,""ArrowDown,ArrowLeft"":15,""ArrowDown,ArrowRight"":23}","false","ArrowUp,ArrowLeft","","","","","","",""
"html-keyboard-response","31","341913","0.0-3.0-6.0-1.0","spark_pilot_norest","8368","5","20","Female","","","","","","","null","<div style=""font-size:60px;"">+</div>","null","fixation","","","","","","","","","","","",""
"revaluation","32","345930","0.0-3.0-6.0-0.1","spark_pilot_norest","8368","5","20","Female","","false","","","","","[304.2999999988824]","./assets/img/space/animals/rabbit.jpg","[""ArrowRight""]","second stage practice","space","23","{""ArrowUp,ArrowLeft"":3,""ArrowUp,ArrowRight"":36,""ArrowDown,ArrowLeft"":15,""ArrowDown,ArrowRight"":23}","true","ArrowDown,ArrowRight","","","","","","",""
"html-keyboard-response","33","346434","0.0-3.0-6.0-1.1","spark_pilot_norest","8368","5","20","Female","","","","","","","null","<div style=""font-size:60px;"">+</div>","null","fixation","","","","","","","","","","","",""
"revaluation","34","350450","0.0-3.0-6.0-0.2","spark_pilot_norest","8368","5","20","Female","","false","","","","","[645.8000000007451]","./assets/img/space/animals/cat.jpg","[""ArrowRight""]","second stage practice","space","36","{""ArrowUp,ArrowLeft"":3,""ArrowUp,ArrowRight"":36,""ArrowDown,ArrowLeft"":15,""ArrowDown,ArrowRight"":23}","true","ArrowUp,ArrowRight","","","","","","",""
"html-keyboard-response","35","350953","0.0-3.0-6.0-1.2","spark_pilot_norest","8368","5","20","Female","","","","","","","null","<div style=""font-size:60px;"">+</div>","null","fixation","","","","","","","","","","","",""
"revaluation","36","354970","0.0-3.0-6.0-0.3","spark_pilot_norest","8368","5","20","Female","","false","","","","","[335.19999999925494]","./assets/img/space/animals/rabbit.jpg","[""ArrowLeft""]","second stage practice","space","15","{""ArrowUp,ArrowLeft"":3,""ArrowUp,ArrowRight"":36,""ArrowDown,ArrowLeft"":15,""ArrowDown,ArrowRight"":23}","false","ArrowDown,ArrowLeft","","","","","","",""
"html-keyboard-response","37","355476","0.0-3.0-6.0-1.3","spark_pilot_norest","8368","5","20","Female","","","","","","","null","<div style=""font-size:60px;"">+</div>","null","fixation","","","","","","","","","","","",""
"learning-instructions","38","373466","0.0-3.0-7.0-0.0","spark_pilot_norest","8368","5","20","Female","","","","","","","1173.5999999996275","<p> Great job. Now let’s try putting it together. </p>
            <p> On each turn, you will first see a picture to remind you of the place you are in, and you need to choose whether to go up or down. </p>
            <p> Then you will see an animal and choose which of its chests to search for treasure. </p>","","instructions","","","","","","","","","","","",""
"learning-instructions","39","382647","0.0-3.0-7.0-0.1","spark_pilot_norest","8368","5","20","Female","","","","","","","914.7000000011176","<p> When you choose whether to go up or down, try to go to the animal with the chest with the most treasure. </p>
            <p> Try practicing that now! </p>","","instructions","","","","","","","","","","","",""
"revaluation","40","388673","0.0-3.0-8.0-0.0","spark_pilot_norest","8368","5","20","Female","","false","","","","","[531.1999999992549,647.9000000003725]","./assets/img/space/6.jpg","[""ArrowUp"",""ArrowRight""]","full practice","space","36","{""ArrowUp,ArrowLeft"":3,""ArrowUp,ArrowRight"":36,""ArrowDown,ArrowLeft"":15,""ArrowDown,ArrowRight"":23}","true","ArrowUp,ArrowRight","false","","","","","",""
"html-keyboard-response","41","389177","0.0-3.0-8.0-1.0","spark_pilot_norest","8368","5","20","Female","","","","","","","null","<div style=""font-size:60px;"">+</div>","null","fixation","","","","","","","","","","","",""
"revaluation","42","395201","0.0-3.0-8.0-0.1","spark_pilot_norest","8368","5","20","Female","","false","","","","","[372.59999999962747,290.09999999962747]","./assets/img/space/7.jpg","[""ArrowUp"",""ArrowRight""]","full practice","space","36","{""ArrowUp,ArrowLeft"":3,""ArrowUp,ArrowRight"":36,""ArrowDown,ArrowLeft"":15,""ArrowDown,ArrowRight"":23}","true","ArrowUp,ArrowRight","false","","","","","",""
"html-keyboard-response","43","395705","0.0-3.0-8.0-1.1","spark_pilot_norest","8368","5","20","Female","","","","","","","null","<div style=""font-size:60px;"">+</div>","null","fixation","","","","","","","","","","","",""
"revaluation","44","401732","0.0-3.0-8.0-0.2","spark_pilot_norest","8368","5","20","Female","","false","","","","","[486.5,358]","./assets/img/space/8.jpg","[""ArrowDown"",""ArrowRight""]","full practice","space","23","{""ArrowUp,ArrowLeft"":3,""ArrowUp,ArrowRight"":36,""ArrowDown,ArrowLeft"":15,""ArrowDown,ArrowRight"":23}","false","ArrowDown,ArrowRight","false","","","","","",""
"html-keyboard-response","45","402243","0.0-3.0-8.0-1.2","spark_pilot_norest","8368","5","20","Female","","","","","","","null","<div style=""font-size:60px;"">+</div>","null","fixation","","","","","","","","","","","",""
"revaluation","46","408268","0.0-3.0-8.0-0.3","spark_pilot_norest","8368","5","20","Female","","false","","","","","[311,278.09999999962747]","./assets/img/space/9.jpg","[""ArrowUp"",""ArrowRight""]","full practice","space","36","{""ArrowUp,ArrowLeft"":3,""ArrowUp,ArrowRight"":36,""ArrowDown,ArrowLeft"":15,""ArrowDown,ArrowRight"":23}","true","ArrowUp,ArrowRight","false","","","","","",""
"html-keyboard-response","47","408770","0.0-3.0-8.0-1.3","spark_pilot_norest","8368","5","20","Female","","","","","","","null","<div style=""font-size:60px;"">+</div>","null","fixation","","","","","","","","","","","",""
"revaluation","48","414794","0.0-3.0-8.0-0.4","spark_pilot_norest","8368","5","20","Female","","false","","","","","[270.30000000074506,366.6000000014901]","./assets/img/space/10.jpg","[""ArrowUp"",""ArrowRight""]","full practice","space","36","{""ArrowUp,ArrowLeft"":3,""ArrowUp,ArrowRight"":36,""ArrowDown,ArrowLeft"":15,""ArrowDown,ArrowRight"":23}","true","ArrowUp,ArrowRight","false","","","","","",""
"html-keyboard-response","49","415299","0.0-3.0-8.0-1.4","spark_pilot_norest","8368","5","20","Female","","","","","","","null","<div style=""font-size:60px;"">+</div>","null","fixation","","","","","","","","","","","",""
"learning-instructions","50","426392","0.0-3.0-9.0-0.0","spark_pilot_norest","8368","5","20","Female","","","","","","","663.5999999996275","<p> One last thing: sometimes, you will see a robber. The robber can be anywhere in the picture. </p>
            <p> If you do not stop them, you will lose treasure. </p>
            <img src='./assets/img/instructions/robber.jpg' class='instructions-image'>","","instructions","","","","","","","","","","","",""
"learning-instructions","51","435048","0.0-3.0-9.0-0.1","spark_pilot_norest","8368","5","20","Female","","","","","","","1485.5999999996275","<p> If you see the robber, you should <b>press the space bar</b> rather than using the arrow keys. </p>
            <p> Try practicing that now! </p>","","instructions","","","","","","","","","","","",""
"revaluation","52","439070","0.0-3.0-10.0-0.0","spark_pilot_norest","8368","5","20","Female","","false","","","","","[1351.300000000745]","./assets/img/space/catch/0.jpg","[""spaceBar""]","catch practice","space","0","{""ArrowUp,ArrowLeft"":3,""ArrowUp,ArrowRight"":36,""ArrowDown,ArrowLeft"":15,""ArrowDown,ArrowRight"":23}","true","spaceBar","true","","","","","",""
"html-keyboard-response","53","439578","0.0-3.0-10.0-1.0","spark_pilot_norest","8368","5","20","Female","","","","","","","null","<div style=""font-size:60px;"">+</div>","null","fixation","","","","","","","","","","","",""
"revaluation","54","443595","0.0-3.0-10.0-0.1","spark_pilot_norest","8368","5","20","Female","","false","","","","","[1048]","./assets/img/space/catch/1.jpg","[""spaceBar""]","catch practice","space","0","{""ArrowUp,ArrowLeft"":3,""ArrowUp,ArrowRight"":36,""ArrowDown,ArrowLeft"":15,""ArrowDown,ArrowRight"":23}","true","spaceBar","true","","","","","",""
"html-keyboard-response","55","444098","0.0-3.0-10.0-1.1","spark_pilot_norest","8368","5","20","Female","","","","","","","null","<div style=""font-size:60px;"">+</div>","null","fixation","","","","","","","","","","","",""
"revaluation","56","448115","0.0-3.0-10.0-0.2","spark_pilot_norest","8368","5","20","Female","","false","","","","","[443.40000000037253]","./assets/img/space/catch/2.jpg","[""spaceBar""]","catch practice","space","0","{""ArrowUp,ArrowLeft"":3,""ArrowUp,ArrowRight"":36,""ArrowDown,ArrowLeft"":15,""ArrowDown,ArrowRight"":23}","true","spaceBar","true","","","","","",""
"html-keyboard-response","57","448619","0.0-3.0-10.0-1.2","spark_pilot_norest","8368","5","20","Female","","","","","","","null","<div style=""font-size:60px;"">+</div>","null","fixation","","","","","","","","","","","",""
"learning-instructions","58","455431","0.0-3.0-11.0-0.0-0.0","spark_pilot_norest","8368","5","20","Female","","","","","","","1553","<p> Now, you will practice a shortened version of the game to get a sense of how it all fits together. </p>","","instructions","","","","","","","","","","","",""
"learning-instructions","59","459344","0.0-3.0-11.0-0.0-0.1","spark_pilot_norest","8368","5","20","Female","","","","","","","725.7000000011176","<p>This time you are searching for treasure in outer space.</p>","","instructions","","","","","","","","","","","",""
"learning-instructions","60","474866","0.0-3.0-11.0-1.0-0.0","spark_pilot_norest","8368","5","20","Female","","","","","","","748.7999999988824","<p> Remember, when you see a picture of the place, use the up and down keys to <b>find an animal</b>.</p>
            <p> When you encounter an animal, you should use the left and right keys to <b>select a treasure chest</b>.</p>
            <p> Don't forget to look out for the robber! </p>","","instructions","","","","","","","","","","","",""
"revaluation","61","480891","0.0-3.0-11.0-2.0-0.0","spark_pilot_norest","8368","5","20","Female","","false","","","","","[1481.199999999255,732.4000000003725]","./assets/img/space/11.jpg","[""ArrowUp"",""ArrowRight""]","practice block","space","36","{""ArrowUp,ArrowLeft"":3,""ArrowUp,ArrowRight"":36,""ArrowDown,ArrowLeft"":15,""ArrowDown,ArrowRight"":23}","true","ArrowUp,ArrowRight","false","","","","","",""
"html-keyboard-response","62","481397","0.0-3.0-11.0-2.0-1.0","spark_pilot_norest","8368","5","20","Female","","","","","","","null","<div style=""font-size:60px;"">+</div>","null","fixation","","","","","","","","","","","",""
"revaluation","63","487418","0.0-3.0-11.0-2.0-0.1","spark_pilot_norest","8368","5","20","Female","","false","","","","","[467.09999999962747,280.5]","./assets/img/space/12.jpg","[""ArrowUp"",""ArrowRight""]","practice block","space","36","{""ArrowUp,ArrowLeft"":3,""ArrowUp,ArrowRight"":36,""ArrowDown,ArrowLeft"":15,""ArrowDown,ArrowRight"":23}","true","ArrowUp,ArrowRight","false","","","","","",""
"html-keyboard-response","64","487925","0.0-3.0-11.0-2.0-1.1","spark_pilot_norest","8368","5","20","Female","","","","","","","null","<div style=""font-size:60px;"">+</div>","null","fixation","","","","","","","","","","","",""
"revaluation","65","493947","0.0-3.0-11.0-2.0-0.2","spark_pilot_norest","8368","5","20","Female","","false","","","","","[381,281]","./assets/img/space/13.jpg","[""ArrowDown"",""ArrowLeft""]","practice block","space","15","{""ArrowUp,ArrowLeft"":3,""ArrowUp,ArrowRight"":36,""ArrowDown,ArrowLeft"":15,""ArrowDown,ArrowRight"":23}","false","ArrowDown,ArrowLeft","false","","","","","",""
"html-keyboard-response","66","494453","0.0-3.0-11.0-2.0-1.2","spark_pilot_norest","8368","5","20","Female","","","","","","","null","<div style=""font-size:60px;"">+</div>","null","fixation","","","","","","","","","","","",""
"revaluation","67","500475","0.0-3.0-11.0-2.0-0.3","spark_pilot_norest","8368","5","20","Female","","false","","","","","[264.19999999925494,284.5]","./assets/img/space/14.jpg","[""ArrowUp"",""ArrowRight""]","practice block","space","36","{""ArrowUp,ArrowLeft"":3,""ArrowUp,ArrowRight"":36,""ArrowDown,ArrowLeft"":15,""ArrowDown,ArrowRight"":23}","true","ArrowUp,ArrowRight","false","","","","","",""
"html-keyboard-response","68","500979","0.0-3.0-11.0-2.0-1.3","spark_pilot_norest","8368","5","20","Female","","","","","","","null","<div style=""font-size:60px;"">+</div>","null","fixation","","","","","","","","","","","",""
"revaluation","69","507004","0.0-3.0-11.0-2.0-0.4","spark_pilot_norest","8368","5","20","Female","","false","","","","","[623.3000000007451,323.59999999962747]","./assets/img/space/11.jpg","[""ArrowUp"",""ArrowRight""]","practice block","space","36","{""ArrowUp,ArrowLeft"":3,""ArrowUp,ArrowRight"":36,""ArrowDown,ArrowLeft"":15,""ArrowDown,ArrowRight"":23}","true","ArrowUp,ArrowRight","false","","","","","",""
"html-keyboard-response","70","507511","0.0-3.0-11.0-2.0-1.4","spark_pilot_norest","8368","5","20","Female","","","","","","","null","<div style=""font-size:60px;"">+</div>","null","fixation","","","","","","","","","","","",""
"revaluation","71","513538","0.0-3.0-11.0-2.0-0.5","spark_pilot_norest","8368","5","20","Female","","false","","","","","[511.59999999962747,260.7999999988824]","./assets/img/space/12.jpg","[""ArrowUp"",""ArrowRight""]","practice block","space","36","{""ArrowUp,ArrowLeft"":3,""ArrowUp,ArrowRight"":36,""ArrowDown,ArrowLeft"":15,""ArrowDown,ArrowRight"":23}","true","ArrowUp,ArrowRight","false","","","","","",""
"html-keyboard-response","72","514043","0.0-3.0-11.0-2.0-1.5","spark_pilot_norest","8368","5","20","Female","","","","","","","null","<div style=""font-size:60px;"">+</div>","null","fixation","","","","","","","","","","","",""
"revaluation","73","520071","0.0-3.0-11.0-2.0-0.6","spark_pilot_norest","8368","5","20","Female","","false","","","","","[390.80000000074506,358]","./assets/img/space/13.jpg","[""ArrowUp"",""ArrowRight""]","practice block","space","36","{""ArrowUp,ArrowLeft"":3,""ArrowUp,ArrowRight"":36,""ArrowDown,ArrowLeft"":15,""ArrowDown,ArrowRight"":23}","true","ArrowUp,ArrowRight","false","","","","","",""
"html-keyboard-response","74","520582","0.0-3.0-11.0-2.0-1.6","spark_pilot_norest","8368","5","20","Female","","","","","","","null","<div style=""font-size:60px;"">+</div>","null","fixation","","","","","","","","","","","",""
"revaluation","75","526604","0.0-3.0-11.0-2.0-0.7","spark_pilot_norest","8368","5","20","Female","","false","","","","","[527.9000000003725,325.5]","./assets/img/space/14.jpg","[""ArrowUp"",""ArrowRight""]","practice block","space","36","{""ArrowUp,ArrowLeft"":3,""ArrowUp,ArrowRight"":36,""ArrowDown,ArrowLeft"":15,""ArrowDown,ArrowRight"":23}","true","ArrowUp,ArrowRight","false","","","","","",""
"html-keyboard-response","76","527108","0.0-3.0-11.0-2.0-1.7","spark_pilot_norest","8368","5","20","Female","","","","","","","null","<div style=""font-size:60px;"">+</div>","null","fixation","","","","","","","","","","","",""
"revaluation","77","531128","0.0-3.0-11.0-2.0-0.8","spark_pilot_norest","8368","5","20","Female","","false","","","","","[436.7999999988824]","./assets/img/space/catch/3.jpg","[""ArrowUp""]","practice block","space","-10","{""ArrowUp,ArrowLeft"":3,""ArrowUp,ArrowRight"":36,""ArrowDown,ArrowLeft"":15,""ArrowDown,ArrowRight"":23}","false","ArrowUp","true","","","","","",""
"html-keyboard-response","78","531634","0.0-3.0-11.0-2.0-1.8","spark_pilot_norest","8368","5","20","Female","","","","","","","null","<div style=""font-size:60px;"">+</div>","null","fixation","","","","","","","","","","","",""
"learning-instructions","79","545594","0.0-3.0-11.0-3.0-0.0","spark_pilot_norest","8368","5","20","Female","","","","","","","880.8999999985099","<p> Now, you will travel with a friend who will choose whether you go up or down first. </p>
            <p> On these turns, you will just see the animal that they found. You will still get to choose which chest to search for treasure.</p>","","instructions","","","","","","","","","","","",""
"revaluation","80","549612","0.0-3.0-11.0-4.0-0.0","spark_pilot_norest","8368","5","20","Female","","false","","","","","[771.2000000011176]","./assets/img/space/animals/rabbit.jpg","[""ArrowRight""]","practice block","space","23","{""ArrowUp,ArrowLeft"":3,""ArrowUp,ArrowRight"":36,""ArrowDown,ArrowLeft"":15,""ArrowDown,ArrowRight"":23}","true","ArrowDown,ArrowRight","","","","","","",""
"html-keyboard-response","81","550114","0.0-3.0-11.0-4.0-1.0","spark_pilot_norest","8368","5","20","Female","","","","","","","null","<div style=""font-size:60px;"">+</div>","null","fixation","","","","","","","","","","","",""
"revaluation","82","554132","0.0-3.0-11.0-4.0-0.1","spark_pilot_norest","8368","5","20","Female","","false","","","","","[620.6999999992549]","./assets/img/space/animals/cat.jpg","[""ArrowRight""]","practice block","space","36","{""ArrowUp,ArrowLeft"":3,""ArrowUp,ArrowRight"":36,""ArrowDown,ArrowLeft"":15,""ArrowDown,ArrowRight"":23}","true","ArrowUp,ArrowRight","","","","","","",""
"html-keyboard-response","83","554639","0.0-3.0-11.0-4.0-1.1","spark_pilot_norest","8368","5","20","Female","","","","","","","null","<div style=""font-size:60px;"">+</div>","null","fixation","","","","","","","","","","","",""
"revaluation","84","558653","0.0-3.0-11.0-4.0-0.2","spark_pilot_norest","8368","5","20","Female","","false","","","","","[569.2000000011176]","./assets/img/space/animals/rabbit.jpg","[""ArrowRight""]","practice block","space","23","{""ArrowUp,ArrowLeft"":3,""ArrowUp,ArrowRight"":36,""ArrowDown,ArrowLeft"":15,""ArrowDown,ArrowRight"":23}","true","ArrowDown,ArrowRight","","","","","","",""
"html-keyboard-response","85","559163","0.0-3.0-11.0-4.0-1.2","spark_pilot_norest","8368","5","20","Female","","","","","","","null","<div style=""font-size:60px;"">+</div>","null","fixation","","","","","","","","","","","",""
"revaluation","86","563179","0.0-3.0-11.0-4.0-0.3","spark_pilot_norest","8368","5","20","Female","","false","","","","","[419.90000000037253]","./assets/img/space/animals/cat.jpg","[""ArrowRight""]","practice block","space","36","{""ArrowUp,ArrowLeft"":3,""ArrowUp,ArrowRight"":36,""ArrowDown,ArrowLeft"":15,""ArrowDown,ArrowRight"":23}","true","ArrowUp,ArrowRight","","","","","","",""
"html-keyboard-response","87","563686","0.0-3.0-11.0-4.0-1.3","spark_pilot_norest","8368","5","20","Female","","","","","","","null","<div style=""font-size:60px;"">+</div>","null","fixation","","","","","","","","","","","",""
"learning-instructions","88","571819","0.0-3.0-11.0-5.0-0.0","spark_pilot_norest","8368","5","20","Female","","","","","","","null","<p> You have almost finished this part of the game! </p>
            <p> We are going to ask you to make a few more choices. </p>","","instructions","","","","","","","","","","","",""
"learning-instructions","89","587843","0.0-3.0-11.0-5.0-0.1","spark_pilot_norest","8368","5","20","Female","","","","","","","null","<p> First, you need to decide whether to go up or down. When you see each picture, use the arrow keys to make your choice. </p>
            <p><b>You will not see which animal you found, but try to get to the one that will give you the most treasure.</b></p>","","instructions","","","","","","","","","","","",""
"html-keyboard-response","90","588855","0.0-3.0-11.0-6.0-0.0","spark_pilot_norest","8368","5","20","Female","","","","","","","null","<div style=""font-size:100px;color:red;"">Starting in...</div>","null","","","","","","","","","","","","",""
"html-keyboard-response","91","589860","0.0-3.0-11.0-6.0-1.0","spark_pilot_norest","8368","5","20","Female","","","","","","","null","<div style=""font-size:200px;color:red;"">3</div>","null","","","","","","","","","","","","",""
"html-keyboard-response","92","590868","0.0-3.0-11.0-6.0-2.0","spark_pilot_norest","8368","5","20","Female","","","","","","","null","<div style=""font-size:200px;color:red;"">2</div>","null","","","","","","","","","","","","",""
"html-keyboard-response","93","591875","0.0-3.0-11.0-6.0-3.0","spark_pilot_norest","8368","5","20","Female","","","","","","","null","<div style=""font-size:200px;color:red;"">1</div>","null","","","","","","","","","","","","",""
"revaluation","94","592815","0.0-3.0-11.0-7.0","spark_pilot_norest","8368","5","20","Female","","false","","","","","[936.5]","./assets/img/space/15.jpg","[""ArrowUp""]","practice block","space","0","{""ArrowUp,ArrowLeft"":3,""ArrowUp,ArrowRight"":36,""ArrowDown,ArrowLeft"":15,""ArrowDown,ArrowRight"":23}","true","ArrowUp","false","","","","","",""
"html-keyboard-response","95","593325","0.0-3.0-11.0-8.0","spark_pilot_norest","8368","5","20","Female","","","","","","","null","<div style=""font-size:60px;"">+</div>","null","fixation","","","","","","","","","","","",""
"learning-instructions","96","606716","0.0-3.0-11.0-9.0-0.0","spark_pilot_norest","8368","5","20","Female","","","","","","","null","<p> Now you will see the animals again and can search their chests for treasure. </p>
            <p> This time, you will not see how much treasure you earned, but you will earn more bonus money for making better choices. </p>","","instructions","","","","","","","","","","","",""
"html-keyboard-response","97","607723","0.0-3.0-11.0-10.0-0.0","spark_pilot_norest","8368","5","20","Female","","","","","","","null","<div style=""font-size:100px;color:red;"">Starting in...</div>","null","","","","","","","","","","","","",""
"html-keyboard-response","98","608732","0.0-3.0-11.0-10.0-1.0","spark_pilot_norest","8368","5","20","Female","","","","","","","null","<div style=""font-size:200px;color:red;"">3</div>","null","","","","","","","","","","","","",""
"html-keyboard-response","99","609739","0.0-3.0-11.0-10.0-2.0","spark_pilot_norest","8368","5","20","Female","","","","","","","null","<div style=""font-size:200px;color:red;"">2</div>","null","","","","","","","","","","","","",""
"html-keyboard-response","100","610749","0.0-3.0-11.0-10.0-3.0","spark_pilot_norest","8368","5","20","Female","","","","","","","null","<div style=""font-size:200px;color:red;"">1</div>","null","","","","","","","","","","","","",""
"revaluation","101","611180","0.0-3.0-11.0-11.0-0.0","spark_pilot_norest","8368","5","20","Female","","false","","","","","[428.09999999962747]","./assets/img/space/animals/cat.jpg","[""ArrowRight""]","practice block","space","0","{""ArrowUp,ArrowLeft"":3,""ArrowUp,ArrowRight"":36,""ArrowDown,ArrowLeft"":15,""ArrowDown,ArrowRight"":23}","true","ArrowUp,ArrowRight","","","","","","",""
"html-keyboard-response","102","611684","0.0-3.0-11.0-11.0-1.0","spark_pilot_norest","8368","5","20","Female","","","","","","","null","<div style=""font-size:60px;"">+</div>","null","fixation","","","","","","","","","","","",""
"revaluation","103","612189","0.0-3.0-11.0-11.0-0.1","spark_pilot_norest","8368","5","20","Female","","false","","","","","[502.30000000074506]","./assets/img/space/animals/rabbit.jpg","[""ArrowRight""]","practice block","space","0","{""ArrowUp,ArrowLeft"":3,""ArrowUp,ArrowRight"":36,""ArrowDown,ArrowLeft"":15,""ArrowDown,ArrowRight"":23}","true","ArrowDown,ArrowRight","","","","","","",""
"html-keyboard-response","104","612692","0.0-3.0-11.0-11.0-1.1","spark_pilot_norest","8368","5","20","Female","","","","","","","null","<div style=""font-size:60px;"">+</div>","null","fixation","","","","","","","","","","","",""
"learning-instructions","105","622573","0.0-3.0-12.0-0.0","spark_pilot_norest","8368","5","20","Female","","","","","","","5299.5999999996275","<p> Before you start, we're going to ask you a few questions about how the game works. </p>","","instructions","","","","","","","","","","","",""
"comp-q","106","629946","0.0-3.0-13.0-0.0-0.0","spark_pilot_norest","8368","5","20","Female","","","","","","","1777.5","<p> <b> True or False? </b> </p>
            <p> There can be 50 pieces of treasure in a given animal's chest. </p>","1","comp_question","","","","true","","","","","","","",""
"comp-q","107","637713","0.0-3.0-13.0-0.0-1.0","spark_pilot_norest","8368","5","20","Female","","","","","","","1106.199999999255","<p> <b> That's right! </b> The amount of treasure in each chest can range from 0 to 40 pieces. </p>","0","comp_answer","","","","","","","","","","","",""
"comp-q","108","645373","0.0-3.0-13.0-0.1-0.1","spark_pilot_norest","8368","5","20","Female","","","","","","","536.6000000014901","<p> <b> True or False? </b> </p><p> In this game, all animals have the same amount of treasure in their left and right chests. </p>","1","comp_question","","","","true","","","","","","","",""
"comp-q","109","652481","0.0-3.0-13.0-0.1-1.1","spark_pilot_norest","8368","5","20","Female","","","","","","","1873.7999999988824","<p> <b> That's right! </b> Animals have different amounts of treasure in their treasure chests. </p>","0","comp_answer","","","","","","","","","","","",""
"comp-q","110","661309","0.0-3.0-13.0-0.2-0.2","spark_pilot_norest","8368","5","20","Female","","","","","","","2979.300000000745","<p> <b> True or False? </b> </p><p> The same animal will always be there if you go up in the same place. </p>","0","comp_question","","","","true","","","","","","","",""
"comp-q","111","681379","0.0-3.0-13.0-0.2-1.2","spark_pilot_norest","8368","5","20","Female","","","","","","","13624.599999999627","<p> <b> That's right! </b> One animal lives in the upper part and one lives in the lower part of every place. </p>","0","comp_answer","","","","","","","","","","","",""
"comp-q","112","687627","0.0-3.0-13.0-0.3-0.3","spark_pilot_norest","8368","5","20","Female","","","","","","","720.2999999988824","<p> <b> True or False? </b> </p><p> If you see a different picture, it means you are in a new place. </p>","1","comp_question","","","","true","","","","","","","",""
"comp-q","113","707004","0.0-3.0-13.0-0.3-1.3","spark_pilot_norest","8368","5","20","Female","","","","","","","8146.0999999996275","<p> <b> That's right! </b> Lots of different images may show the same place. For example,  you may see three different images that all remind you that you are in outer space. </p>","0","comp_answer","","","","","","","","","","","",""
"learning-instructions","114","718223","0.0-3.0-14.0-0.0","spark_pilot_norest","8368","5","20","Female","","","","","","","1358.7000000011176","<p> Good job. Remember to do your best because the amount of treasure you earn will be converted into bonus money. </p>
            <p> It’s time to start the real game! </p>","","instructions","","","","","","","","","","","",""
"learning-instructions","115","722511","0.0-4.0-0.0-0.0","spark_pilot_norest","8368","5","20","Female","","","","","","","1518.7000000011176","<p> This time you are searching for treasure in the <b>canyon</b>.</p>","","instructions","","","","","","","","","","","",""
"learning-instructions","116","744242","0.0-4.0-0.0-0.1","spark_pilot_norest","8368","5","20","Female","","","","","","","4423.5","<p><b>New</b> animals with <b>new</b> treasure chests live here. You need to explore to discover where the animal with the best treasure chest is.</p>
                    <p> Like before, once you figure out which animal has the chest with the most treasure, you should try to get to that animal and select that chest! </p>","","instructions","","","","","","","","","","","",""
"learning-instructions","117","763756","0.0-4.0-1.0-0.0","spark_pilot_norest","8368","5","20","Female","","","","","","","4785.200000001118","<p> Remember, when you see a picture of the place, use the up and down keys to <b>find an animal</b>.</p>
            <p> When you encounter an animal, you should use the left and right keys to <b>select a treasure chest</b>.</p>
            <p> Don't forget to look out for the robber! </p>","","instructions","","","","","","","","","","","",""
"revaluation","118","769781","0.0-4.0-2.0-0.0","spark_pilot_norest","8368","5","20","Female","","false","","","","","[1659.8999999985099,1251.5999999996275]","./assets/img/canyon/memory/4.jpg","[""ArrowUp"",""ArrowRight""]","value training","canyon","10","{""ArrowUp,ArrowLeft"":26,""ArrowUp,ArrowRight"":10,""ArrowDown,ArrowLeft"":5,""ArrowDown,ArrowRight"":17}","false","ArrowUp,ArrowRight","false","original","1","0","","",""
"html-keyboard-response","119","770294","0.0-4.0-2.0-1.0","spark_pilot_norest","8368","5","20","Female","","","","","","","null","<div style=""font-size:60px;"">+</div>","null","fixation","","","","","","","","","1","","",""
"revaluation","120","776318","0.0-4.0-2.0-0.1","spark_pilot_norest","8368","5","20","Female","","false","","","","","[454.40000000037253,1214]","./assets/img/canyon/memory/3.jpg","[""ArrowUp"",""ArrowLeft""]","value training","canyon","26","{""ArrowUp,ArrowLeft"":26,""ArrowUp,ArrowRight"":10,""ArrowDown,ArrowLeft"":5,""ArrowDown,ArrowRight"":17}","true","ArrowUp,ArrowLeft","false","original","1","2","","",""
"html-keyboard-response","121","776824","0.0-4.0-2.0-1.1","spark_pilot_norest","8368","5","20","Female","","","","","","","null","<div style=""font-size:60px;"">+</div>","null","fixation","","","","","","","","","3","","",""
"revaluation","122","782848","0.0-4.0-2.0-0.2","spark_pilot_norest","8368","5","20","Female","","false","","","","","[280,398.69999999925494]","./assets/img/canyon/memory/25.jpg","[""ArrowDown"",""ArrowLeft""]","value training","canyon","5","{""ArrowUp,ArrowLeft"":26,""ArrowUp,ArrowRight"":10,""ArrowDown,ArrowLeft"":5,""ArrowDown,ArrowRight"":17}","false","ArrowDown,ArrowLeft","false","original","1","4","","",""
"html-keyboard-response","123","783357","0.0-4.0-2.0-1.2","spark_pilot_norest","8368","5","20","Female","","","","","","","null","<div style=""font-size:60px;"">+</div>","null","fixation","","","","","","","","","5","","",""
"revaluation","124","789383","0.0-4.0-2.0-0.3","spark_pilot_norest","8368","5","20","Female","","false","","","","","[1112.5999999996275,307.69999999925494]","./assets/img/canyon/memory/1.jpg","[""ArrowDown"",""ArrowRight""]","value training","canyon","17","{""ArrowUp,ArrowLeft"":26,""ArrowUp,ArrowRight"":10,""ArrowDown,ArrowLeft"":5,""ArrowDown,ArrowRight"":17}","false","ArrowDown,ArrowRight","false","original","1","6","","",""
"html-keyboard-response","125","789889","0.0-4.0-2.0-1.3","spark_pilot_norest","8368","5","20","Female","","","","","","","null","<div style=""font-size:60px;"">+</div>","null","fixation","","","","","","","","","7","","",""
"revaluation","126","795921","0.0-4.0-2.0-0.4","spark_pilot_norest","8368","5","20","Female","","false","","","","","[501.69999999925494,870.9000000003725]","./assets/img/canyon/memory/11.jpg","[""ArrowUp"",""ArrowLeft""]","value training","canyon","26","{""ArrowUp,ArrowLeft"":26,""ArrowUp,ArrowRight"":10,""ArrowDown,ArrowLeft"":5,""ArrowDown,ArrowRight"":17}","true","ArrowUp,ArrowLeft","false","original","1","8","","",""
"html-keyboard-response","127","796433","0.0-4.0-2.0-1.4","spark_pilot_norest","8368","5","20","Female","","","","","","","null","<div style=""font-size:60px;"">+</div>","null","fixation","","","","","","","","","9","","",""
"revaluation","128","802462","0.0-4.0-2.0-0.5","spark_pilot_norest","8368","5","20","Female","","false","","","","","[477.59999999962747,536.8000000007451]","./assets/img/canyon/memory/31.jpg","[""ArrowUp"",""ArrowLeft""]","value training","canyon","26","{""ArrowUp,ArrowLeft"":26,""ArrowUp,ArrowRight"":10,""ArrowDown,ArrowLeft"":5,""ArrowDown,ArrowRight"":17}","true","ArrowUp,ArrowLeft","false","original","1","10","","",""
"html-keyboard-response","129","802967","0.0-4.0-2.0-1.5","spark_pilot_norest","8368","5","20","Female","","","","","","","null","<div style=""font-size:60px;"">+</div>","null","fixation","","","","","","","","","11","","",""
"revaluation","130","806983","0.0-4.0-2.0-0.6","spark_pilot_norest","8368","5","20","Female","","false","","","","","[934.4000000003725]","./assets/img/canyon/catch/7.jpg","[""spaceBar""]","value training","canyon","0","{""ArrowUp,ArrowLeft"":26,""ArrowUp,ArrowRight"":10,""ArrowDown,ArrowLeft"":5,""ArrowDown,ArrowRight"":17}","true","spaceBar","true","original","1","12","","",""
"html-keyboard-response","131","807489","0.0-4.0-2.0-1.6","spark_pilot_norest","8368","5","20","Female","","","","","","","null","<div style=""font-size:60px;"">+</div>","null","fixation","","","","","","","","","13","","",""
"revaluation","132","813510","0.0-4.0-2.0-0.7","spark_pilot_norest","8368","5","20","Female","","false","","","","","[1082.199999999255,327.40000000037253]","./assets/img/canyon/memory/30.jpg","[""ArrowUp"",""ArrowLeft""]","value training","canyon","26","{""ArrowUp,ArrowLeft"":26,""ArrowUp,ArrowRight"":10,""ArrowDown,ArrowLeft"":5,""ArrowDown,ArrowRight"":17}","true","ArrowUp,ArrowLeft","false","original","1","14","","",""
"html-keyboard-response","133","814014","0.0-4.0-2.0-1.7","spark_pilot_norest","8368","5","20","Female","","","","","","","null","<div style=""font-size:60px;"">+</div>","null","fixation","","","","","","","","","15","","",""
"revaluation","134","820038","0.0-4.0-2.0-0.8","spark_pilot_norest","8368","5","20","Female","","false","","","","","[478.6000000014901,297.69999999925494]","./assets/img/canyon/memory/35.jpg","[""ArrowUp"",""ArrowLeft""]","value training","canyon","26","{""ArrowUp,ArrowLeft"":26,""ArrowUp,ArrowRight"":10,""ArrowDown,ArrowLeft"":5,""ArrowDown,ArrowRight"":17}","true","ArrowUp,ArrowLeft","false","original","1","16","","",""
"html-keyboard-response","135","820545","0.0-4.0-2.0-1.8","spark_pilot_norest","8368","5","20","Female","","","","","","","null","<div style=""font-size:60px;"">+</div>","null","fixation","","","","","","","","","17","","",""
"revaluation","136","826567","0.0-4.0-2.0-0.9","spark_pilot_norest","8368","5","20","Female","","true","","","","","[514.4000000003725]","./assets/img/canyon/memory/4.jpg","[""ArrowUp""]","value training","canyon","-5","{""ArrowUp,ArrowLeft"":26,""ArrowUp,ArrowRight"":10,""ArrowDown,ArrowLeft"":5,""ArrowDown,ArrowRight"":17}","false","ArrowUp","false","original","1","18","","",""
"html-keyboard-response","137","827070","0.0-4.0-2.0-1.9","spark_pilot_norest","8368","5","20","Female","","","","","","","null","<div style=""font-size:60px;"">+</div>","null","fixation","","","","","","","","","19","","",""
"revaluation","138","833095","0.0-4.0-2.0-0.10","spark_pilot_norest","8368","5","20","Female","","false","","","","","[294.80000000074506,351]","./assets/img/canyon/memory/11.jpg","[""ArrowUp"",""ArrowLeft""]","value training","canyon","26","{""ArrowUp,ArrowLeft"":26,""ArrowUp,ArrowRight"":10,""ArrowDown,ArrowLeft"":5,""ArrowDown,ArrowRight"":17}","true","ArrowUp,ArrowLeft","false","original","1","20","","",""
"html-keyboard-response","139","833598","0.0-4.0-2.0-1.10","spark_pilot_norest","8368","5","20","Female","","","","","","","null","<div style=""font-size:60px;"">+</div>","null","fixation","","","","","","","","","21","","",""
"revaluation","140","839623","0.0-4.0-2.0-0.11","spark_pilot_norest","8368","5","20","Female","","false","","","","","[40.80000000074506,310.19999999925494]","./assets/img/canyon/memory/10.jpg","[""ArrowUp"",""ArrowLeft""]","value training","canyon","26","{""ArrowUp,ArrowLeft"":26,""ArrowUp,ArrowRight"":10,""ArrowDown,ArrowLeft"":5,""ArrowDown,ArrowRight"":17}","true","ArrowUp,ArrowLeft","false","original","1","22","","",""
"html-keyboard-response","141","840130","0.0-4.0-2.0-1.11","spark_pilot_norest","8368","5","20","Female","","","","","","","null","<div style=""font-size:60px;"">+</div>","null","fixation","","","","","","","","","23","","",""
"revaluation","142","846162","0.0-4.0-2.0-0.12","spark_pilot_norest","8368","5","20","Female","","false","","","","","[455.59999999962747,377]","./assets/img/canyon/memory/15.jpg","[""ArrowUp"",""ArrowLeft""]","value training","canyon","26","{""ArrowUp,ArrowLeft"":26,""ArrowUp,ArrowRight"":10,""ArrowDown,ArrowLeft"":5,""ArrowDown,ArrowRight"":17}","true","ArrowUp,ArrowLeft","false","original","1","24","","",""
"html-keyboard-response","143","846671","0.0-4.0-2.0-1.12","spark_pilot_norest","8368","5","20","Female","","","","","","","null","<div style=""font-size:60px;"">+</div>","null","fixation","","","","","","","","","25","","",""
"revaluation","144","852694","0.0-4.0-2.0-0.13","spark_pilot_norest","8368","5","20","Female","","false","","","","","[285.2999999988824,511.80000000074506]","./assets/img/canyon/memory/36.jpg","[""ArrowUp"",""ArrowLeft""]","value training","canyon","26","{""ArrowUp,ArrowLeft"":26,""ArrowUp,ArrowRight"":10,""ArrowDown,ArrowLeft"":5,""ArrowDown,ArrowRight"":17}","true","ArrowUp,ArrowLeft","false","original","1","26","","",""
"html-keyboard-response","145","853202","0.0-4.0-2.0-1.13","spark_pilot_norest","8368","5","20","Female","","","","","","","null","<div style=""font-size:60px;"">+</div>","null","fixation","","","","","","","","","27","","",""
"revaluation","146","859231","0.0-4.0-2.0-0.14","spark_pilot_norest","8368","5","20","Female","","false","","","","","[256.6000000014901,495.09999999962747]","./assets/img/canyon/memory/36.jpg","[""ArrowUp"",""ArrowLeft""]","value training","canyon","26","{""ArrowUp,ArrowLeft"":26,""ArrowUp,ArrowRight"":10,""ArrowDown,ArrowLeft"":5,""ArrowDown,ArrowRight"":17}","true","ArrowUp,ArrowLeft","false","original","1","28","","",""
"html-keyboard-response","147","859734","0.0-4.0-2.0-1.14","spark_pilot_norest","8368","5","20","Female","","","","","","","null","<div style=""font-size:60px;"">+</div>","null","fixation","","","","","","","","","29","","",""
"revaluation","148","865762","0.0-4.0-2.0-0.15","spark_pilot_norest","8368","5","20","Female","","false","","","","","[406.5,276.2999999988824]","./assets/img/canyon/memory/3.jpg","[""ArrowUp"",""ArrowLeft""]","value training","canyon","26","{""ArrowUp,ArrowLeft"":26,""ArrowUp,ArrowRight"":10,""ArrowDown,ArrowLeft"":5,""ArrowDown,ArrowRight"":17}","true","ArrowUp,ArrowLeft","false","original","1","30","","",""
"html-keyboard-response","149","866273","0.0-4.0-2.0-1.15","spark_pilot_norest","8368","5","20","Female","","","","","","","null","<div style=""font-size:60px;"">+</div>","null","fixation","","","","","","","","","31","","",""
"revaluation","150","872295","0.0-4.0-2.0-0.16","spark_pilot_norest","8368","5","20","Female","","false","","","","","[290.80000000074506,474.6000000014901]","./assets/img/canyon/memory/22.jpg","[""ArrowUp"",""ArrowLeft""]","value training","canyon","26","{""ArrowUp,ArrowLeft"":26,""ArrowUp,ArrowRight"":10,""ArrowDown,ArrowLeft"":5,""ArrowDown,ArrowRight"":17}","true","ArrowUp,ArrowLeft","false","original","1","32","","",""
"html-keyboard-response","151","872802","0.0-4.0-2.0-1.16","spark_pilot_norest","8368","5","20","Female","","","","","","","null","<div style=""font-size:60px;"">+</div>","null","fixation","","","","","","","","","33","","",""
"revaluation","152","876824","0.0-4.0-2.0-0.17","spark_pilot_norest","8368","5","20","Female","","false","","","","","[639.6999999992549]","./assets/img/canyon/catch/4.jpg","[""spaceBar""]","value training","canyon","0","{""ArrowUp,ArrowLeft"":26,""ArrowUp,ArrowRight"":10,""ArrowDown,ArrowLeft"":5,""ArrowDown,ArrowRight"":17}","true","spaceBar","true","original","1","34","","",""
"html-keyboard-response","153","877335","0.0-4.0-2.0-1.17","spark_pilot_norest","8368","5","20","Female","","","","","","","null","<div style=""font-size:60px;"">+</div>","null","fixation","","","","","","","","","35","","",""
"revaluation","154","883362","0.0-4.0-2.0-0.18","spark_pilot_norest","8368","5","20","Female","","false","","","","","[372.69999999925494,300.7999999988824]","./assets/img/canyon/memory/20.jpg","[""ArrowUp"",""ArrowLeft""]","value training","canyon","26","{""ArrowUp,ArrowLeft"":26,""ArrowUp,ArrowRight"":10,""ArrowDown,ArrowLeft"":5,""ArrowDown,ArrowRight"":17}","true","ArrowUp,ArrowLeft","false","original","1","36","","",""
"html-keyboard-response","155","883874","0.0-4.0-2.0-1.18","spark_pilot_norest","8368","5","20","Female","","","","","","","null","<div style=""font-size:60px;"">+</div>","null","fixation","","","","","","","","","37","","",""
"revaluation","156","887895","0.0-4.0-2.0-0.19","spark_pilot_norest","8368","5","20","Female","","false","","","","","[662.3000000007451]","./assets/img/canyon/catch/0.jpg","[""spaceBar""]","value training","canyon","0","{""ArrowUp,ArrowLeft"":26,""ArrowUp,ArrowRight"":10,""ArrowDown,ArrowLeft"":5,""ArrowDown,ArrowRight"":17}","true","spaceBar","true","original","1","38","","",""
"html-keyboard-response","157","888397","0.0-4.0-2.0-1.19","spark_pilot_norest","8368","5","20","Female","","","","","","","null","<div style=""font-size:60px;"">+</div>","null","fixation","","","","","","","","","39","","",""
"revaluation","158","894423","0.0-4.0-2.0-0.20","spark_pilot_norest","8368","5","20","Female","","false","","","","","[503.2999999988824,550.9000000003725]","./assets/img/canyon/memory/29.jpg","[""ArrowUp"",""ArrowLeft""]","value training","canyon","26","{""ArrowUp,ArrowLeft"":26,""ArrowUp,ArrowRight"":10,""ArrowDown,ArrowLeft"":5,""ArrowDown,ArrowRight"":17}","true","ArrowUp,ArrowLeft","false","original","1","40","","",""
"html-keyboard-response","159","894926","0.0-4.0-2.0-1.20","spark_pilot_norest","8368","5","20","Female","","","","","","","null","<div style=""font-size:60px;"">+</div>","null","fixation","","","","","","","","","41","","",""
"revaluation","160","900952","0.0-4.0-2.0-0.21","spark_pilot_norest","8368","5","20","Female","","false","","","","","[675.6999999992549,828.3000000007451]","./assets/img/canyon/memory/30.jpg","[""ArrowUp"",""ArrowLeft""]","value training","canyon","26","{""ArrowUp,ArrowLeft"":26,""ArrowUp,ArrowRight"":10,""ArrowDown,ArrowLeft"":5,""ArrowDown,ArrowRight"":17}","true","ArrowUp,ArrowLeft","false","original","1","42","","",""
"html-keyboard-response","161","901458","0.0-4.0-2.0-1.21","spark_pilot_norest","8368","5","20","Female","","","","","","","null","<div style=""font-size:60px;"">+</div>","null","fixation","","","","","","","","","43","","",""
"revaluation","162","907486","0.0-4.0-2.0-0.22","spark_pilot_norest","8368","5","20","Female","","false","","","","","[569.3000000007451,621]","./assets/img/canyon/memory/17.jpg","[""ArrowUp"",""ArrowLeft""]","value training","canyon","26","{""ArrowUp,ArrowLeft"":26,""ArrowUp,ArrowRight"":10,""ArrowDown,ArrowLeft"":5,""ArrowDown,ArrowRight"":17}","true","ArrowUp,ArrowLeft","false","original","1","44","","",""
"html-keyboard-response","163","907992","0.0-4.0-2.0-1.22","spark_pilot_norest","8368","5","20","Female","","","","","","","null","<div style=""font-size:60px;"">+</div>","null","fixation","","","","","","","","","45","","",""
"revaluation","164","914008","0.0-4.0-2.0-0.23","spark_pilot_norest","8368","5","20","Female","","false","","","","","[391.2000000011176,58.40000000037253]","./assets/img/canyon/memory/17.jpg","[""ArrowUp"",""ArrowLeft""]","value training","canyon","26","{""ArrowUp,ArrowLeft"":26,""ArrowUp,ArrowRight"":10,""ArrowDown,ArrowLeft"":5,""ArrowDown,ArrowRight"":17}","true","ArrowUp,ArrowLeft","false","original","1","46","","",""
"html-keyboard-response","165","914514","0.0-4.0-2.0-1.23","spark_pilot_norest","8368","5","20","Female","","","","","","","null","<div style=""font-size:60px;"">+</div>","null","fixation","","","","","","","","","47","","",""
"revaluation","166","920547","0.0-4.0-2.0-0.24","spark_pilot_norest","8368","5","20","Female","","false","","","","","[678.2000000011176,609]","./assets/img/canyon/memory/22.jpg","[""ArrowUp"",""ArrowLeft""]","value training","canyon","26","{""ArrowUp,ArrowLeft"":26,""ArrowUp,ArrowRight"":10,""ArrowDown,ArrowLeft"":5,""ArrowDown,ArrowRight"":17}","true","ArrowUp,ArrowLeft","false","original","1","48","","",""
"html-keyboard-response","167","921055","0.0-4.0-2.0-1.24","spark_pilot_norest","8368","5","20","Female","","","","","","","null","<div style=""font-size:60px;"">+</div>","null","fixation","","","","","","","","","49","","",""
"revaluation","168","925075","0.0-4.0-2.0-0.25","spark_pilot_norest","8368","5","20","Female","","false","","","","","[422.2999999988824]","./assets/img/canyon/catch/5.jpg","[""ArrowUp""]","value training","canyon","-10","{""ArrowUp,ArrowLeft"":26,""ArrowUp,ArrowRight"":10,""ArrowDown,ArrowLeft"":5,""ArrowDown,ArrowRight"":17}","false","ArrowUp","true","original","1","50","","",""
"html-keyboard-response","169","925586","0.0-4.0-2.0-1.25","spark_pilot_norest","8368","5","20","Female","","","","","","","null","<div style=""font-size:60px;"">+</div>","null","fixation","","","","","","","","","51","","",""
"revaluation","170","929608","0.0-4.0-2.0-0.26","spark_pilot_norest","8368","5","20","Female","","false","","","","","[628.5]","./assets/img/canyon/catch/3.jpg","[""spaceBar""]","value training","canyon","0","{""ArrowUp,ArrowLeft"":26,""ArrowUp,ArrowRight"":10,""ArrowDown,ArrowLeft"":5,""ArrowDown,ArrowRight"":17}","true","spaceBar","true","original","1","52","","",""
"html-keyboard-response","171","930114","0.0-4.0-2.0-1.26","spark_pilot_norest","8368","5","20","Female","","","","","","","null","<div style=""font-size:60px;"">+</div>","null","fixation","","","","","","","","","53","","",""
"revaluation","172","936146","0.0-4.0-2.0-0.27","spark_pilot_norest","8368","5","20","Female","","false","","","","","[684.1999999992549,342.90000000037253]","./assets/img/canyon/memory/16.jpg","[""ArrowUp"",""ArrowLeft""]","value training","canyon","26","{""ArrowUp,ArrowLeft"":26,""ArrowUp,ArrowRight"":10,""ArrowDown,ArrowLeft"":5,""ArrowDown,ArrowRight"":17}","true","ArrowUp,ArrowLeft","false","original","1","54","","",""
"html-keyboard-response","173","936658","0.0-4.0-2.0-1.27","spark_pilot_norest","8368","5","20","Female","","","","","","","null","<div style=""font-size:60px;"">+</div>","null","fixation","","","","","","","","","55","","",""
"revaluation","174","942690","0.0-4.0-2.0-0.28","spark_pilot_norest","8368","5","20","Female","","false","","","","","[649.5,984.4000000003725]","./assets/img/canyon/memory/10.jpg","[""ArrowUp"",""ArrowLeft""]","value training","canyon","26","{""ArrowUp,ArrowLeft"":26,""ArrowUp,ArrowRight"":10,""ArrowDown,ArrowLeft"":5,""ArrowDown,ArrowRight"":17}","true","ArrowUp,ArrowLeft","false","original","1","56","","",""
"html-keyboard-response","175","943198","0.0-4.0-2.0-1.28","spark_pilot_norest","8368","5","20","Female","","","","","","","null","<div style=""font-size:60px;"">+</div>","null","fixation","","","","","","","","","57","","",""
"revaluation","176","949223","0.0-4.0-2.0-0.29","spark_pilot_norest","8368","5","20","Female","","false","","","","","[611.0999999996275,293.7000000011176]","./assets/img/canyon/memory/24.jpg","[""ArrowUp"",""ArrowLeft""]","value training","canyon","26","{""ArrowUp,ArrowLeft"":26,""ArrowUp,ArrowRight"":10,""ArrowDown,ArrowLeft"":5,""ArrowDown,ArrowRight"":17}","true","ArrowUp,ArrowLeft","false","original","1","58","","",""
"html-keyboard-response","177","949731","0.0-4.0-2.0-1.29","spark_pilot_norest","8368","5","20","Female","","","","","","","null","<div style=""font-size:60px;"">+</div>","null","fixation","","","","","","","","","59","","",""
"revaluation","178","955755","0.0-4.0-2.0-0.30","spark_pilot_norest","8368","5","20","Female","","false","","","","","[476.5,475.59999999962747]","./assets/img/canyon/memory/5.jpg","[""ArrowUp"",""ArrowLeft""]","value training","canyon","26","{""ArrowUp,ArrowLeft"":26,""ArrowUp,ArrowRight"":10,""ArrowDown,ArrowLeft"":5,""ArrowDown,ArrowRight"":17}","true","ArrowUp,ArrowLeft","false","original","1","60","","",""
"html-keyboard-response","179","956263","0.0-4.0-2.0-1.30","spark_pilot_norest","8368","5","20","Female","","","","","","","null","<div style=""font-size:60px;"">+</div>","null","fixation","","","","","","","","","61","","",""
"revaluation","180","960279","0.0-4.0-2.0-0.31","spark_pilot_norest","8368","5","20","Female","","false","","","","","[495.59999999962747]","./assets/img/canyon/catch/2.jpg","[""ArrowUp""]","value training","canyon","-10","{""ArrowUp,ArrowLeft"":26,""ArrowUp,ArrowRight"":10,""ArrowDown,ArrowLeft"":5,""ArrowDown,ArrowRight"":17}","false","ArrowUp","true","original","1","62","","",""
"html-keyboard-response","181","960787","0.0-4.0-2.0-1.31","spark_pilot_norest","8368","5","20","Female","","","","","","","null","<div style=""font-size:60px;"">+</div>","null","fixation","","","","","","","","","63","","",""
"revaluation","182","966819","0.0-4.0-2.0-0.32","spark_pilot_norest","8368","5","20","Female","","false","","","","","[465.2999999988824,276.30000000074506]","./assets/img/canyon/memory/25.jpg","[""ArrowUp"",""ArrowLeft""]","value training","canyon","26","{""ArrowUp,ArrowLeft"":26,""ArrowUp,ArrowRight"":10,""ArrowDown,ArrowLeft"":5,""ArrowDown,ArrowRight"":17}","true","ArrowUp,ArrowLeft","false","original","1","64","","",""
"html-keyboard-response","183","967331","0.0-4.0-2.0-1.32","spark_pilot_norest","8368","5","20","Female","","","","","","","null","<div style=""font-size:60px;"">+</div>","null","fixation","","","","","","","","","65","","",""
"revaluation","184","973358","0.0-4.0-2.0-0.33","spark_pilot_norest","8368","5","20","Female","","false","","","","","[703,454.59999999962747]","./assets/img/canyon/memory/24.jpg","[""ArrowUp"",""ArrowLeft""]","value training","canyon","26","{""ArrowUp,ArrowLeft"":26,""ArrowUp,ArrowRight"":10,""ArrowDown,ArrowLeft"":5,""ArrowDown,ArrowRight"":17}","true","ArrowUp,ArrowLeft","false","original","1","66","","",""
"html-keyboard-response","185","973864","0.0-4.0-2.0-1.33","spark_pilot_norest","8368","5","20","Female","","","","","","","null","<div style=""font-size:60px;"">+</div>","null","fixation","","","","","","","","","67","","",""
"revaluation","186","979888","0.0-4.0-2.0-0.34","spark_pilot_norest","8368","5","20","Female","","false","","","","","[508.40000000037253,283.90000000037253]","./assets/img/canyon/memory/29.jpg","[""ArrowUp"",""ArrowLeft""]","value training","canyon","26","{""ArrowUp,ArrowLeft"":26,""ArrowUp,ArrowRight"":10,""ArrowDown,ArrowLeft"":5,""ArrowDown,ArrowRight"":17}","true","ArrowUp,ArrowLeft","false","original","1","68","","",""
"html-keyboard-response","187","980391","0.0-4.0-2.0-1.34","spark_pilot_norest","8368","5","20","Female","","","","","","","null","<div style=""font-size:60px;"">+</div>","null","fixation","","","","","","","","","69","","",""
"revaluation","188","986418","0.0-4.0-2.0-0.35","spark_pilot_norest","8368","5","20","Female","","false","","","","","[488.90000000037253,733.4000000003725]","./assets/img/canyon/memory/5.jpg","[""ArrowUp"",""ArrowLeft""]","value training","canyon","26","{""ArrowUp,ArrowLeft"":26,""ArrowUp,ArrowRight"":10,""ArrowDown,ArrowLeft"":5,""ArrowDown,ArrowRight"":17}","true","ArrowUp,ArrowLeft","false","original","1","70","","",""
"html-keyboard-response","189","986931","0.0-4.0-2.0-1.35","spark_pilot_norest","8368","5","20","Female","","","","","","","null","<div style=""font-size:60px;"">+</div>","null","fixation","","","","","","","","","71","","",""
"revaluation","190","992963","0.0-4.0-2.0-0.36","spark_pilot_norest","8368","5","20","Female","","false","","","","","[501.1000000014901,370.40000000037253]","./assets/img/canyon/memory/16.jpg","[""ArrowUp"",""ArrowLeft""]","value training","canyon","26","{""ArrowUp,ArrowLeft"":26,""ArrowUp,ArrowRight"":10,""ArrowDown,ArrowLeft"":5,""ArrowDown,ArrowRight"":17}","true","ArrowUp,ArrowLeft","false","original","1","72","","",""
"html-keyboard-response","191","993475","0.0-4.0-2.0-1.36","spark_pilot_norest","8368","5","20","Female","","","","","","","null","<div style=""font-size:60px;"">+</div>","null","fixation","","","","","","","","","73","","",""
"revaluation","192","997491","0.0-4.0-2.0-0.37","spark_pilot_norest","8368","5","20","Female","","false","","","","","[676.7000000011176]","./assets/img/canyon/catch/6.jpg","[""spaceBar""]","value training","canyon","0","{""ArrowUp,ArrowLeft"":26,""ArrowUp,ArrowRight"":10,""ArrowDown,ArrowLeft"":5,""ArrowDown,ArrowRight"":17}","true","spaceBar","true","original","1","74","","",""
"html-keyboard-response","193","998003","0.0-4.0-2.0-1.37","spark_pilot_norest","8368","5","20","Female","","","","","","","null","<div style=""font-size:60px;"">+</div>","null","fixation","","","","","","","","","75","","",""
"revaluation","194","1004025","0.0-4.0-2.0-0.38","spark_pilot_norest","8368","5","20","Female","","false","","","","","[534.5999999996275,684.3000000007451]","./assets/img/canyon/memory/7.jpg","[""ArrowUp"",""ArrowLeft""]","value training","canyon","26","{""ArrowUp,ArrowLeft"":26,""ArrowUp,ArrowRight"":10,""ArrowDown,ArrowLeft"":5,""ArrowDown,ArrowRight"":17}","true","ArrowUp,ArrowLeft","false","original","1","76","","",""
"html-keyboard-response","195","1004531","0.0-4.0-2.0-1.38","spark_pilot_norest","8368","5","20","Female","","","","","","","null","<div style=""font-size:60px;"">+</div>","null","fixation","","","","","","","","","77","","",""
"revaluation","196","1010562","0.0-4.0-2.0-0.39","spark_pilot_norest","8368","5","20","Female","","false","","","","","[739.6000000014901,455.90000000037253]","./assets/img/canyon/memory/14.jpg","[""ArrowUp"",""ArrowLeft""]","value training","canyon","26","{""ArrowUp,ArrowLeft"":26,""ArrowUp,ArrowRight"":10,""ArrowDown,ArrowLeft"":5,""ArrowDown,ArrowRight"":17}","true","ArrowUp,ArrowLeft","false","original","1","78","","",""
"html-keyboard-response","197","1011075","0.0-4.0-2.0-1.39","spark_pilot_norest","8368","5","20","Female","","","","","","","null","<div style=""font-size:60px;"">+</div>","null","fixation","","","","","","","","","79","","",""
"revaluation","198","1017107","0.0-4.0-2.0-0.40","spark_pilot_norest","8368","5","20","Female","","false","","","","","[462.30000000074506,579.8000000007451]","./assets/img/canyon/memory/35.jpg","[""ArrowUp"",""ArrowLeft""]","value training","canyon","26","{""ArrowUp,ArrowLeft"":26,""ArrowUp,ArrowRight"":10,""ArrowDown,ArrowLeft"":5,""ArrowDown,ArrowRight"":17}","true","ArrowUp,ArrowLeft","false","original","1","80","","",""
"html-keyboard-response","199","1017619","0.0-4.0-2.0-1.40","spark_pilot_norest","8368","5","20","Female","","","","","","","null","<div style=""font-size:60px;"">+</div>","null","fixation","","","","","","","","","81","","",""
"revaluation","200","1023640","0.0-4.0-2.0-0.41","spark_pilot_norest","8368","5","20","Female","","false","","","","","[497.5,254.7000000011176]","./assets/img/canyon/memory/14.jpg","[""ArrowUp"",""ArrowLeft""]","value training","canyon","26","{""ArrowUp,ArrowLeft"":26,""ArrowUp,ArrowRight"":10,""ArrowDown,ArrowLeft"":5,""ArrowDown,ArrowRight"":17}","true","ArrowUp,ArrowLeft","false","original","1","82","","",""
"html-keyboard-response","201","1024142","0.0-4.0-2.0-1.41","spark_pilot_norest","8368","5","20","Female","","","","","","","null","<div style=""font-size:60px;"">+</div>","null","fixation","","","","","","","","","83","","",""
"revaluation","202","1030168","0.0-4.0-2.0-0.42","spark_pilot_norest","8368","5","20","Female","","false","","","","","[425,229.09999999962747]","./assets/img/canyon/memory/7.jpg","[""ArrowUp"",""ArrowLeft""]","value training","canyon","26","{""ArrowUp,ArrowLeft"":26,""ArrowUp,ArrowRight"":10,""ArrowDown,ArrowLeft"":5,""ArrowDown,ArrowRight"":17}","true","ArrowUp,ArrowLeft","false","original","1","84","","",""
"html-keyboard-response","203","1030675","0.0-4.0-2.0-1.42","spark_pilot_norest","8368","5","20","Female","","","","","","","null","<div style=""font-size:60px;"">+</div>","null","fixation","","","","","","","","","85","","",""
"revaluation","204","1036697","0.0-4.0-2.0-0.43","spark_pilot_norest","8368","5","20","Female","","false","","","","","[306.2000000011176,216]","./assets/img/canyon/memory/1.jpg","[""ArrowUp"",""ArrowLeft""]","value training","canyon","26","{""ArrowUp,ArrowLeft"":26,""ArrowUp,ArrowRight"":10,""ArrowDown,ArrowLeft"":5,""ArrowDown,ArrowRight"":17}","true","ArrowUp,ArrowLeft","false","original","1","86","","",""
"html-keyboard-response","205","1037203","0.0-4.0-2.0-1.43","spark_pilot_norest","8368","5","20","Female","","","","","","","null","<div style=""font-size:60px;"">+</div>","null","fixation","","","","","","","","","87","","",""
"revaluation","206","1043236","0.0-4.0-2.0-0.44","spark_pilot_norest","8368","5","20","Female","","false","","","","","[408,544.3999999985099]","./assets/img/canyon/memory/20.jpg","[""ArrowUp"",""ArrowLeft""]","value training","canyon","26","{""ArrowUp,ArrowLeft"":26,""ArrowUp,ArrowRight"":10,""ArrowDown,ArrowLeft"":5,""ArrowDown,ArrowRight"":17}","true","ArrowUp,ArrowLeft","false","original","1","88","","",""
"html-keyboard-response","207","1043744","0.0-4.0-2.0-1.44","spark_pilot_norest","8368","5","20","Female","","","","","","","null","<div style=""font-size:60px;"">+</div>","null","fixation","","","","","","","","","89","","",""
"revaluation","208","1049768","0.0-4.0-2.0-0.45","spark_pilot_norest","8368","5","20","Female","","false","","","","","[269.8999999985099,1169.3999999985099]","./assets/img/canyon/memory/13.jpg","[""ArrowUp"",""ArrowLeft""]","value training","canyon","26","{""ArrowUp,ArrowLeft"":26,""ArrowUp,ArrowRight"":10,""ArrowDown,ArrowLeft"":5,""ArrowDown,ArrowRight"":17}","true","ArrowUp,ArrowLeft","false","original","1","90","","",""
"html-keyboard-response","209","1050275","0.0-4.0-2.0-1.45","spark_pilot_norest","8368","5","20","Female","","","","","","","null","<div style=""font-size:60px;"">+</div>","null","fixation","","","","","","","","","91","","",""
"revaluation","210","1056312","0.0-4.0-2.0-0.46","spark_pilot_norest","8368","5","20","Female","","false","","","","","[793,561.7999999988824]","./assets/img/canyon/memory/15.jpg","[""ArrowUp"",""ArrowLeft""]","value training","canyon","26","{""ArrowUp,ArrowLeft"":26,""ArrowUp,ArrowRight"":10,""ArrowDown,ArrowLeft"":5,""ArrowDown,ArrowRight"":17}","true","ArrowUp,ArrowLeft","false","original","1","92","","",""
"html-keyboard-response","211","1056819","0.0-4.0-2.0-1.46","spark_pilot_norest","8368","5","20","Female","","","","","","","null","<div style=""font-size:60px;"">+</div>","null","fixation","","","","","","","","","93","","",""
"revaluation","212","1062841","0.0-4.0-2.0-0.47","spark_pilot_norest","8368","5","20","Female","","false","","","","","[584.1999999992549,880.3000000007451]","./assets/img/canyon/memory/31.jpg","[""ArrowUp"",""ArrowLeft""]","value training","canyon","26","{""ArrowUp,ArrowLeft"":26,""ArrowUp,ArrowRight"":10,""ArrowDown,ArrowLeft"":5,""ArrowDown,ArrowRight"":17}","true","ArrowUp,ArrowLeft","false","original","1","94","","",""
"html-keyboard-response","213","1063348","0.0-4.0-2.0-1.47","spark_pilot_norest","8368","5","20","Female","","","","","","","null","<div style=""font-size:60px;"">+</div>","null","fixation","","","","","","","","","95","","",""
"revaluation","214","1069380","0.0-4.0-2.0-0.48","spark_pilot_norest","8368","5","20","Female","","false","","","","","[521.0999999996275,757.4000000003725]","./assets/img/canyon/memory/13.jpg","[""ArrowUp"",""ArrowLeft""]","value training","canyon","26","{""ArrowUp,ArrowLeft"":26,""ArrowUp,ArrowRight"":10,""ArrowDown,ArrowLeft"":5,""ArrowDown,ArrowRight"":17}","true","ArrowUp,ArrowLeft","false","original","1","96","","",""
"html-keyboard-response","215","1069891","0.0-4.0-2.0-1.48","spark_pilot_norest","8368","5","20","Female","","","","","","","null","<div style=""font-size:60px;"">+</div>","null","fixation","","","","","","","","","97","","",""
"revaluation","216","1073908","0.0-4.0-2.0-0.49","spark_pilot_norest","8368","5","20","Female","","false","","","","","[1333.5999999996275]","./assets/img/canyon/catch/1.jpg","[""spaceBar""]","value training","canyon","0","{""ArrowUp,ArrowLeft"":26,""ArrowUp,ArrowRight"":10,""ArrowDown,ArrowLeft"":5,""ArrowDown,ArrowRight"":17}","true","spaceBar","true","original","1","98","","",""
"html-keyboard-response","217","1074419","0.0-4.0-2.0-1.49","spark_pilot_norest","8368","5","20","Female","","","","","","","null","<div style=""font-size:60px;"">+</div>","null","fixation","","","","","","","","","99","","",""
"learning-instructions","218","1088751","0.0-4.0-3.0-0.0","spark_pilot_norest","8368","5","20","Female","","","","","","","1398.5","<p> Now, you will travel with a friend who will choose whether you go up or down first. </p>
            <p> On these turns, you will just see the animal that they found. You will still get to choose which chest to search for treasure.</p>","","instructions","","","","","","","","","","","",""
"revaluation","219","1092769","0.0-4.0-4.0-0.0","spark_pilot_norest","8368","5","20","Female","","false","","","","","[778.8000000007451]","./assets/img/canyon/animals/lion.jpg","[""ArrowRight""]","revaluation","canyon","17","{""ArrowUp,ArrowLeft"":26,""ArrowUp,ArrowRight"":10,""ArrowDown,ArrowLeft"":5,""ArrowDown,ArrowRight"":17}","true","ArrowDown,ArrowRight","","original","1","0","","",""
"html-keyboard-response","220","1093280","0.0-4.0-4.0-1.0","spark_pilot_norest","8368","5","20","Female","","","","","","","null","<div style=""font-size:60px;"">+</div>","null","fixation","","","","","","","","","1","","",""
"revaluation","221","1097295","0.0-4.0-4.0-0.1","spark_pilot_norest","8368","5","20","Female","","false","","","","","[538.4000000003725]","./assets/img/canyon/animals/lion.jpg","[""ArrowRight""]","revaluation","canyon","17","{""ArrowUp,ArrowLeft"":26,""ArrowUp,ArrowRight"":10,""ArrowDown,ArrowLeft"":5,""ArrowDown,ArrowRight"":17}","true","ArrowDown,ArrowRight","","original","1","2","","",""
"html-keyboard-response","222","1097800","0.0-4.0-4.0-1.1","spark_pilot_norest","8368","5","20","Female","","","","","","","null","<div style=""font-size:60px;"">+</div>","null","fixation","","","","","","","","","3","","",""
"revaluation","223","1101815","0.0-4.0-4.0-0.2","spark_pilot_norest","8368","5","20","Female","","false","","","","","[425.30000000074506]","./assets/img/canyon/animals/giraffe.jpg","[""ArrowLeft""]","revaluation","canyon","26","{""ArrowUp,ArrowLeft"":26,""ArrowUp,ArrowRight"":10,""ArrowDown,ArrowLeft"":5,""ArrowDown,ArrowRight"":17}","true","ArrowUp,ArrowLeft","","original","1","4","","",""
"html-keyboard-response","224","1102321","0.0-4.0-4.0-1.2","spark_pilot_norest","8368","5","20","Female","","","","","","","null","<div style=""font-size:60px;"">+</div>","null","fixation","","","","","","","","","5","","",""
"revaluation","225","1106337","0.0-4.0-4.0-0.3","spark_pilot_norest","8368","5","20","Female","","false","","","","","[467.8999999985099]","./assets/img/canyon/animals/giraffe.jpg","[""ArrowLeft""]","revaluation","canyon","26","{""ArrowUp,ArrowLeft"":26,""ArrowUp,ArrowRight"":10,""ArrowDown,ArrowLeft"":5,""ArrowDown,ArrowRight"":17}","true","ArrowUp,ArrowLeft","","original","1","6","","",""
"html-keyboard-response","226","1106839","0.0-4.0-4.0-1.3","spark_pilot_norest","8368","5","20","Female","","","","","","","null","<div style=""font-size:60px;"">+</div>","null","fixation","","","","","","","","","7","","",""
"revaluation","227","1110860","0.0-4.0-4.0-0.4","spark_pilot_norest","8368","5","20","Female","","true","","","","","[]","./assets/img/canyon/animals/lion.jpg","[]","revaluation","canyon","-5","{""ArrowUp,ArrowLeft"":26,""ArrowUp,ArrowRight"":10,""ArrowDown,ArrowLeft"":5,""ArrowDown,ArrowRight"":17}","false","ArrowDown","","original","1","8","","",""
"html-keyboard-response","228","1111370","0.0-4.0-4.0-1.4","spark_pilot_norest","8368","5","20","Female","","","","","","","null","<div style=""font-size:60px;"">+</div>","null","fixation","","","","","","","","","9","","",""
"revaluation","229","1115384","0.0-4.0-4.0-0.5","spark_pilot_norest","8368","5","20","Female","","false","","","","","[885.1999999992549]","./assets/img/canyon/animals/giraffe.jpg","[""ArrowLeft""]","revaluation","canyon","26","{""ArrowUp,ArrowLeft"":26,""ArrowUp,ArrowRight"":10,""ArrowDown,ArrowLeft"":5,""ArrowDown,ArrowRight"":17}","true","ArrowUp,ArrowLeft","","original","1","10","","",""
"html-keyboard-response","230","1115888","0.0-4.0-4.0-1.5","spark_pilot_norest","8368","5","20","Female","","","","","","","null","<div style=""font-size:60px;"">+</div>","null","fixation","","","","","","","","","11","","",""
"revaluation","231","1119908","0.0-4.0-4.0-0.6","spark_pilot_norest","8368","5","20","Female","","false","","","","","[461.19999999925494]","./assets/img/canyon/animals/lion.jpg","[""ArrowRight""]","revaluation","canyon","17","{""ArrowUp,ArrowLeft"":26,""ArrowUp,ArrowRight"":10,""ArrowDown,ArrowLeft"":5,""ArrowDown,ArrowRight"":17}","true","ArrowDown,ArrowRight","","original","1","12","","",""
"html-keyboard-response","232","1120419","0.0-4.0-4.0-1.6","spark_pilot_norest","8368","5","20","Female","","","","","","","null","<div style=""font-size:60px;"">+</div>","null","fixation","","","","","","","","","13","","",""
"revaluation","233","1124436","0.0-4.0-4.0-0.7","spark_pilot_norest","8368","5","20","Female","","false","","","","","[429.30000000074506]","./assets/img/canyon/animals/giraffe.jpg","[""ArrowLeft""]","revaluation","canyon","26","{""ArrowUp,ArrowLeft"":26,""ArrowUp,ArrowRight"":10,""ArrowDown,ArrowLeft"":5,""ArrowDown,ArrowRight"":17}","true","ArrowUp,ArrowLeft","","original","1","14","","",""
"html-keyboard-response","234","1124947","0.0-4.0-4.0-1.7","spark_pilot_norest","8368","5","20","Female","","","","","","","null","<div style=""font-size:60px;"">+</div>","null","fixation","","","","","","","","","15","","",""
"revaluation","235","1128963","0.0-4.0-4.0-0.8","spark_pilot_norest","8368","5","20","Female","","false","","","","","[483.09999999962747]","./assets/img/canyon/animals/lion.jpg","[""ArrowRight""]","revaluation","canyon","17","{""ArrowUp,ArrowLeft"":26,""ArrowUp,ArrowRight"":10,""ArrowDown,ArrowLeft"":5,""ArrowDown,ArrowRight"":17}","true","ArrowDown,ArrowRight","","original","1","16","","",""
"html-keyboard-response","236","1129475","0.0-4.0-4.0-1.8","spark_pilot_norest","8368","5","20","Female","","","","","","","null","<div style=""font-size:60px;"">+</div>","null","fixation","","","","","","","","","17","","",""
"revaluation","237","1133492","0.0-4.0-4.0-0.9","spark_pilot_norest","8368","5","20","Female","","false","","","","","[614.5]","./assets/img/canyon/animals/giraffe.jpg","[""ArrowLeft""]","revaluation","canyon","26","{""ArrowUp,ArrowLeft"":26,""ArrowUp,ArrowRight"":10,""ArrowDown,ArrowLeft"":5,""ArrowDown,ArrowRight"":17}","true","ArrowUp,ArrowLeft","","original","1","18","","",""
"html-keyboard-response","238","1134004","0.0-4.0-4.0-1.9","spark_pilot_norest","8368","5","20","Female","","","","","","","null","<div style=""font-size:60px;"">+</div>","null","fixation","","","","","","","","","19","","",""
"revaluation","239","1138017","0.0-4.0-4.0-0.10","spark_pilot_norest","8368","5","20","Female","","false","","","","","[564.3000000007451]","./assets/img/canyon/animals/giraffe.jpg","[""ArrowLeft""]","revaluation","canyon","26","{""ArrowUp,ArrowLeft"":26,""ArrowUp,ArrowRight"":10,""ArrowDown,ArrowLeft"":5,""ArrowDown,ArrowRight"":17}","true","ArrowUp,ArrowLeft","","original","1","20","","",""
"html-keyboard-response","240","1138521","0.0-4.0-4.0-1.10","spark_pilot_norest","8368","5","20","Female","","","","","","","null","<div style=""font-size:60px;"">+</div>","null","fixation","","","","","","","","","21","","",""
"revaluation","241","1142537","0.0-4.0-4.0-0.11","spark_pilot_norest","8368","5","20","Female","","false","","","","","[550.8000000007451]","./assets/img/canyon/animals/giraffe.jpg","[""ArrowLeft""]","revaluation","canyon","26","{""ArrowUp,ArrowLeft"":26,""ArrowUp,ArrowRight"":10,""ArrowDown,ArrowLeft"":5,""ArrowDown,ArrowRight"":17}","true","ArrowUp,ArrowLeft","","original","1","22","","",""
"html-keyboard-response","242","1143043","0.0-4.0-4.0-1.11","spark_pilot_norest","8368","5","20","Female","","","","","","","null","<div style=""font-size:60px;"">+</div>","null","fixation","","","","","","","","","23","","",""
"revaluation","243","1147060","0.0-4.0-4.0-0.12","spark_pilot_norest","8368","5","20","Female","","false","","","","","[656.7000000011176]","./assets/img/canyon/animals/lion.jpg","[""ArrowRight""]","revaluation","canyon","17","{""ArrowUp,ArrowLeft"":26,""ArrowUp,ArrowRight"":10,""ArrowDown,ArrowLeft"":5,""ArrowDown,ArrowRight"":17}","true","ArrowDown,ArrowRight","","original","1","24","","",""
"html-keyboard-response","244","1147571","0.0-4.0-4.0-1.12","spark_pilot_norest","8368","5","20","Female","","","","","","","null","<div style=""font-size:60px;"">+</div>","null","fixation","","","","","","","","","25","","",""
"revaluation","245","1151587","0.0-4.0-4.0-0.13","spark_pilot_norest","8368","5","20","Female","","false","","","","","[519.5]","./assets/img/canyon/animals/giraffe.jpg","[""ArrowLeft""]","revaluation","canyon","26","{""ArrowUp,ArrowLeft"":26,""ArrowUp,ArrowRight"":10,""ArrowDown,ArrowLeft"":5,""ArrowDown,ArrowRight"":17}","true","ArrowUp,ArrowLeft","","original","1","26","","",""
"html-keyboard-response","246","1152099","0.0-4.0-4.0-1.13","spark_pilot_norest","8368","5","20","Female","","","","","","","null","<div style=""font-size:60px;"">+</div>","null","fixation","","","","","","","","","27","","",""
"revaluation","247","1156116","0.0-4.0-4.0-0.14","spark_pilot_norest","8368","5","20","Female","","false","","","","","[348.40000000037253]","./assets/img/canyon/animals/giraffe.jpg","[""ArrowRight""]","revaluation","canyon","10","{""ArrowUp,ArrowLeft"":26,""ArrowUp,ArrowRight"":10,""ArrowDown,ArrowLeft"":5,""ArrowDown,ArrowRight"":17}","false","ArrowUp,ArrowRight","","original","1","28","","",""
"html-keyboard-response","248","1156627","0.0-4.0-4.0-1.14","spark_pilot_norest","8368","5","20","Female","","","","","","","null","<div style=""font-size:60px;"">+</div>","null","fixation","","","","","","","","","29","","",""
"revaluation","249","1160644","0.0-4.0-4.0-0.15","spark_pilot_norest","8368","5","20","Female","","false","","","","","[1505.7999999988824]","./assets/img/canyon/animals/lion.jpg","[""ArrowLeft""]","revaluation","canyon","5","{""ArrowUp,ArrowLeft"":26,""ArrowUp,ArrowRight"":10,""ArrowDown,ArrowLeft"":5,""ArrowDown,ArrowRight"":17}","false","ArrowDown,ArrowLeft","","original","1","30","","",""
"html-keyboard-response","250","1161156","0.0-4.0-4.0-1.15","spark_pilot_norest","8368","5","20","Female","","","","","","","null","<div style=""font-size:60px;"">+</div>","null","fixation","","","","","","","","","31","","",""
"revaluation","251","1165172","0.0-4.0-4.0-0.16","spark_pilot_norest","8368","5","20","Female","","false","","","","","[700.4000000003725]","./assets/img/canyon/animals/lion.jpg","[""ArrowRight""]","revaluation","canyon","17","{""ArrowUp,ArrowLeft"":26,""ArrowUp,ArrowRight"":10,""ArrowDown,ArrowLeft"":5,""ArrowDown,ArrowRight"":17}","true","ArrowDown,ArrowRight","","original","1","32","","",""
"html-keyboard-response","252","1165684","0.0-4.0-4.0-1.16","spark_pilot_norest","8368","5","20","Female","","","","","","","null","<div style=""font-size:60px;"">+</div>","null","fixation","","","","","","","","","33","","",""
"revaluation","253","1169700","0.0-4.0-4.0-0.17","spark_pilot_norest","8368","5","20","Female","","false","","","","","[694]","./assets/img/canyon/animals/lion.jpg","[""ArrowRight""]","revaluation","canyon","17","{""ArrowUp,ArrowLeft"":26,""ArrowUp,ArrowRight"":10,""ArrowDown,ArrowLeft"":5,""ArrowDown,ArrowRight"":17}","true","ArrowDown,ArrowRight","","original","1","34","","",""
"html-keyboard-response","254","1170212","0.0-4.0-4.0-1.17","spark_pilot_norest","8368","5","20","Female","","","","","","","null","<div style=""font-size:60px;"">+</div>","null","fixation","","","","","","","","","35","","",""
"learning-instructions","255","1178381","0.0-4.0-5.0-0.0","spark_pilot_norest","8368","5","20","Female","","","","","","","null","<p> You have almost finished this part of the game! </p>
            <p> We are going to ask you to make a few more choices. </p>","","instructions","","","","","","","","","","","",""
"learning-instructions","256","1194361","0.0-4.0-5.0-0.1","spark_pilot_norest","8368","5","20","Female","","","","","","","null","<p> First, you need to decide whether to go up or down. When you see each picture, use the arrow keys to make your choice. </p>
            <p><b>You will not see which animal you found, but try to get to the one that will give you the most treasure.</b></p>","","instructions","","","","","","","","","","","",""
"html-keyboard-response","257","1195372","0.0-4.0-6.0-0.0","spark_pilot_norest","8368","5","20","Female","","","","","","","null","<div style=""font-size:100px;color:red;"">Starting in...</div>","null","","","","","","","","","","","","",""
"html-keyboard-response","258","1196381","0.0-4.0-6.0-1.0","spark_pilot_norest","8368","5","20","Female","","","","","","","null","<div style=""font-size:200px;color:red;"">3</div>","null","","","","","","","","","","","","",""
"html-keyboard-response","259","1197384","0.0-4.0-6.0-2.0","spark_pilot_norest","8368","5","20","Female","","","","","","","null","<div style=""font-size:200px;color:red;"">2</div>","null","","","","","","","","","","","","",""
"html-keyboard-response","260","1198393","0.0-4.0-6.0-3.0","spark_pilot_norest","8368","5","20","Female","","","","","","","null","<div style=""font-size:200px;color:red;"">1</div>","null","","","","","","","","","","","","",""
"revaluation","261","1199086","0.0-4.0-7.0-0.0","spark_pilot_norest","8368","5","20","Female","","false","","","","","[690.1000000014901]","./assets/img/canyon/test/2.jpg","[""ArrowUp""]","first stage test","canyon","0","{""ArrowUp,ArrowLeft"":26,""ArrowUp,ArrowRight"":10,""ArrowDown,ArrowLeft"":5,""ArrowDown,ArrowRight"":17}","true","ArrowUp","false","original","1","","","",""
"html-keyboard-response","262","1199592","0.0-4.0-7.0-1.0","spark_pilot_norest","8368","5","20","Female","","","","","","","null","<div style=""font-size:60px;"">+</div>","null","fixation","","","","","","","","","","","",""
"revaluation","263","1201137","0.0-4.0-7.0-0.1","spark_pilot_norest","8368","5","20","Female","","false","","","","","[1542]","./assets/img/canyon/test/1.jpg","[""ArrowUp""]","first stage test","canyon","0","{""ArrowUp,ArrowLeft"":26,""ArrowUp,ArrowRight"":10,""ArrowDown,ArrowLeft"":5,""ArrowDown,ArrowRight"":17}","true","ArrowUp","false","original","1","","","",""
"html-keyboard-response","264","1201641","0.0-4.0-7.0-1.1","spark_pilot_norest","8368","5","20","Female","","","","","","","null","<div style=""font-size:60px;"">+</div>","null","fixation","","","","","","","","","","","",""
"revaluation","265","1202337","0.0-4.0-7.0-0.2","spark_pilot_norest","8368","5","20","Female","","false","","","","","[692.5999999996275]","./assets/img/canyon/test/0.jpg","[""ArrowUp""]","first stage test","canyon","0","{""ArrowUp,ArrowLeft"":26,""ArrowUp,ArrowRight"":10,""ArrowDown,ArrowLeft"":5,""ArrowDown,ArrowRight"":17}","true","ArrowUp","false","original","1","","","",""
"html-keyboard-response","266","1202840","0.0-4.0-7.0-1.2","spark_pilot_norest","8368","5","20","Female","","","","","","","null","<div style=""font-size:60px;"">+</div>","null","fixation","","","","","","","","","","","",""
"revaluation","267","1203733","0.0-4.0-7.0-0.3","spark_pilot_norest","8368","5","20","Female","","false","","","","","[891.5999999996275]","./assets/img/canyon/test/3.jpg","[""ArrowUp""]","first stage test","canyon","0","{""ArrowUp,ArrowLeft"":26,""ArrowUp,ArrowRight"":10,""ArrowDown,ArrowLeft"":5,""ArrowDown,ArrowRight"":17}","true","ArrowUp","false","original","1","","","",""
"html-keyboard-response","268","1204240","0.0-4.0-7.0-1.3","spark_pilot_norest","8368","5","20","Female","","","","","","","null","<div style=""font-size:60px;"">+</div>","null","fixation","","","","","","","","","","","",""
"learning-instructions","269","1217585","0.0-4.0-8.0-0.0","spark_pilot_norest","8368","5","20","Female","","","","","","","null","<p> Now you will see the animals again and can search their chests for treasure. </p>
            <p> This time, you will not see how much treasure you earned, but you will earn more bonus money for making better choices. </p>","","instructions","","","","","","","","","","","",""
"html-keyboard-response","270","1218593","0.0-4.0-9.0-0.0","spark_pilot_norest","8368","5","20","Female","","","","","","","null","<div style=""font-size:100px;color:red;"">Starting in...</div>","null","","","","","","","","","","","","",""
"html-keyboard-response","271","1219601","0.0-4.0-9.0-1.0","spark_pilot_norest","8368","5","20","Female","","","","","","","null","<div style=""font-size:200px;color:red;"">3</div>","null","","","","","","","","","","","","",""
"html-keyboard-response","272","1220609","0.0-4.0-9.0-2.0","spark_pilot_norest","8368","5","20","Female","","","","","","","null","<div style=""font-size:200px;color:red;"">2</div>","null","","","","","","","","","","","","",""
"html-keyboard-response","273","1221619","0.0-4.0-9.0-3.0","spark_pilot_norest","8368","5","20","Female","","","","","","","null","<div style=""font-size:200px;color:red;"">1</div>","null","","","","","","","","","","","","",""
"revaluation","274","1222305","0.0-4.0-10.0-0.0","spark_pilot_norest","8368","5","20","Female","","false","","","","","[682.2000000011176]","./assets/img/canyon/animals/giraffe.jpg","[""ArrowLeft""]","second stage test","canyon","0","{""ArrowUp,ArrowLeft"":26,""ArrowUp,ArrowRight"":10,""ArrowDown,ArrowLeft"":5,""ArrowDown,ArrowRight"":17}","true","ArrowUp,ArrowLeft","","original","1","","","",""
"html-keyboard-response","275","1222810","0.0-4.0-10.0-1.0","spark_pilot_norest","8368","5","20","Female","","","","","","","null","<div style=""font-size:60px;"">+</div>","null","fixation","","","","","","","","","","","",""
"revaluation","276","1223258","0.0-4.0-10.0-0.1","spark_pilot_norest","8368","5","20","Female","","false","","","","","[445.09999999962747]","./assets/img/canyon/animals/giraffe.jpg","[""ArrowLeft""]","second stage test","canyon","0","{""ArrowUp,ArrowLeft"":26,""ArrowUp,ArrowRight"":10,""ArrowDown,ArrowLeft"":5,""ArrowDown,ArrowRight"":17}","true","ArrowUp,ArrowLeft","","original","1","","","",""
"html-keyboard-response","277","1223762","0.0-4.0-10.0-1.1","spark_pilot_norest","8368","5","20","Female","","","","","","","null","<div style=""font-size:60px;"">+</div>","null","fixation","","","","","","","","","","","",""
"revaluation","278","1224387","0.0-4.0-10.0-0.2","spark_pilot_norest","8368","5","20","Female","","false","","","","","[621.7999999988824]","./assets/img/canyon/animals/giraffe.jpg","[""ArrowLeft""]","second stage test","canyon","0","{""ArrowUp,ArrowLeft"":26,""ArrowUp,ArrowRight"":10,""ArrowDown,ArrowLeft"":5,""ArrowDown,ArrowRight"":17}","true","ArrowUp,ArrowLeft","","original","1","","","",""
"html-keyboard-response","279","1224890","0.0-4.0-10.0-1.2","spark_pilot_norest","8368","5","20","Female","","","","","","","null","<div style=""font-size:60px;"">+</div>","null","fixation","","","","","","","","","","","",""
"revaluation","280","1225260","0.0-4.0-10.0-0.3","spark_pilot_norest","8368","5","20","Female","","false","","","","","[366.09999999962747]","./assets/img/canyon/animals/giraffe.jpg","[""ArrowLeft""]","second stage test","canyon","0","{""ArrowUp,ArrowLeft"":26,""ArrowUp,ArrowRight"":10,""ArrowDown,ArrowLeft"":5,""ArrowDown,ArrowRight"":17}","true","ArrowUp,ArrowLeft","","original","1","","","",""
"html-keyboard-response","281","1225761","0.0-4.0-10.0-1.3","spark_pilot_norest","8368","5","20","Female","","","","","","","null","<div style=""font-size:60px;"">+</div>","null","fixation","","","","","","","","","","","",""
"revaluation","282","1226300","0.0-4.0-10.0-0.4","spark_pilot_norest","8368","5","20","Female","","false","","","","","[535.4000000003725]","./assets/img/canyon/animals/lion.jpg","[""ArrowRight""]","second stage test","canyon","0","{""ArrowUp,ArrowLeft"":26,""ArrowUp,ArrowRight"":10,""ArrowDown,ArrowLeft"":5,""ArrowDown,ArrowRight"":17}","true","ArrowDown,ArrowRight","","original","1","","","",""
"html-keyboard-response","283","1226801","0.0-4.0-10.0-1.4","spark_pilot_norest","8368","5","20","Female","","","","","","","null","<div style=""font-size:60px;"">+</div>","null","fixation","","","","","","","","","","","",""
"revaluation","284","1227117","0.0-4.0-10.0-0.5","spark_pilot_norest","8368","5","20","Female","","false","","","","","[313.3999999985099]","./assets/img/canyon/animals/lion.jpg","[""ArrowRight""]","second stage test","canyon","0","{""ArrowUp,ArrowLeft"":26,""ArrowUp,ArrowRight"":10,""ArrowDown,ArrowLeft"":5,""ArrowDown,ArrowRight"":17}","true","ArrowDown,ArrowRight","","original","1","","","",""
"html-keyboard-response","285","1227625","0.0-4.0-10.0-1.5","spark_pilot_norest","8368","5","20","Female","","","","","","","null","<div style=""font-size:60px;"">+</div>","null","fixation","","","","","","","","","","","",""
"revaluation","286","1227988","0.0-4.0-10.0-0.6","spark_pilot_norest","8368","5","20","Female","","false","","","","","[360.09999999962747]","./assets/img/canyon/animals/lion.jpg","[""ArrowRight""]","second stage test","canyon","0","{""ArrowUp,ArrowLeft"":26,""ArrowUp,ArrowRight"":10,""ArrowDown,ArrowLeft"":5,""ArrowDown,ArrowRight"":17}","true","ArrowDown,ArrowRight","","original","1","","","",""
"html-keyboard-response","287","1228498","0.0-4.0-10.0-1.6","spark_pilot_norest","8368","5","20","Female","","","","","","","null","<div style=""font-size:60px;"">+</div>","null","fixation","","","","","","","","","","","",""
"revaluation","288","1228887","0.0-4.0-10.0-0.7","spark_pilot_norest","8368","5","20","Female","","false","","","","","[386.30000000074506]","./assets/img/canyon/animals/lion.jpg","[""ArrowRight""]","second stage test","canyon","0","{""ArrowUp,ArrowLeft"":26,""ArrowUp,ArrowRight"":10,""ArrowDown,ArrowLeft"":5,""ArrowDown,ArrowRight"":17}","true","ArrowDown,ArrowRight","","original","1","","","",""
"html-keyboard-response","289","1229393","0.0-4.0-10.0-1.7","spark_pilot_norest","8368","5","20","Female","","","","","","","null","<div style=""font-size:60px;"">+</div>","null","fixation","","","","","","","","","","","",""
"learning-instructions","290","1234212","0.0-4.0-0.1-0.2","spark_pilot_norest","8368","5","20","Female","","","","","","","2108.9000000003725","<p> This time you are searching for treasure in the <b>ocean</b>.</p>","","instructions","","","","","","","","","","","",""
"learning-instructions","291","1254980","0.0-4.0-0.1-0.3","spark_pilot_norest","8368","5","20","Female","","","","","","","3516.300000000745","<p><b>New</b> animals with <b>new</b> treasure chests live here. You need to explore to discover where the animal with the best treasure chest is.</p>
                    <p> Like before, once you figure out which animal has the chest with the most treasure, you should try to get to that animal and select that chest! </p>","","instructions","","","","","","","","","","","",""
"learning-instructions","292","1270817","0.0-4.0-1.1-0.1","spark_pilot_norest","8368","5","20","Female","","","","","","","1108.4000000003725","<p> Remember, when you see a picture of the place, use the up and down keys to <b>find an animal</b>.</p>
            <p> When you encounter an animal, you should use the left and right keys to <b>select a treasure chest</b>.</p>
            <p> Don't forget to look out for the robber! </p>","","instructions","","","","","","","","","","","",""
"revaluation","293","1274833","0.0-4.0-2.1-0.50","spark_pilot_norest","8368","5","20","Female","","false","","","","","[1325.300000000745]","./assets/img/ocean/catch/7.jpg","[""ArrowUp""]","value training","ocean","-10","{""ArrowUp,ArrowLeft"":23,""ArrowUp,ArrowRight"":10,""ArrowDown,ArrowLeft"":8,""ArrowDown,ArrowRight"":30}","false","ArrowUp","true","revaluation","2","0","","",""
"html-keyboard-response","294","1275338","0.0-4.0-2.1-1.50","spark_pilot_norest","8368","5","20","Female","","","","","","","null","<div style=""font-size:60px;"">+</div>","null","fixation","","","","","","","","","1","","",""
"revaluation","295","1281362","0.0-4.0-2.1-0.51","spark_pilot_norest","8368","5","20","Female","","false","","","","","[785.6000000014901,920.6999999992549]","./assets/img/ocean/memory/3.jpg","[""ArrowUp"",""ArrowLeft""]","value training","ocean","23","{""ArrowUp,ArrowLeft"":23,""ArrowUp,ArrowRight"":10,""ArrowDown,ArrowLeft"":8,""ArrowDown,ArrowRight"":30}","false","ArrowUp,ArrowLeft","false","revaluation","2","2","","",""
"html-keyboard-response","296","1281866","0.0-4.0-2.1-1.51","spark_pilot_norest","8368","5","20","Female","","","","","","","null","<div style=""font-size:60px;"">+</div>","null","fixation","","","","","","","","","3","","",""
"revaluation","297","1285886","0.0-4.0-2.1-0.52","spark_pilot_norest","8368","5","20","Female","","false","","","","","[797]","./assets/img/ocean/catch/5.jpg","[""spaceBar""]","value training","ocean","0","{""ArrowUp,ArrowLeft"":23,""ArrowUp,ArrowRight"":10,""ArrowDown,ArrowLeft"":8,""ArrowDown,ArrowRight"":30}","true","spaceBar","true","revaluation","2","4","","",""
"html-keyboard-response","298","1286393","0.0-4.0-2.1-1.52","spark_pilot_norest","8368","5","20","Female","","","","","","","null","<div style=""font-size:60px;"">+</div>","null","fixation","","","","","","","","","5","","",""
"revaluation","299","1290412","0.0-4.0-2.1-0.53","spark_pilot_norest","8368","5","20","Female","","false","","","","","[582.3000000007451]","./assets/img/ocean/catch/2.jpg","[""spaceBar""]","value training","ocean","0","{""ArrowUp,ArrowLeft"":23,""ArrowUp,ArrowRight"":10,""ArrowDown,ArrowLeft"":8,""ArrowDown,ArrowRight"":30}","true","spaceBar","true","revaluation","2","6","","",""
"html-keyboard-response","300","1290921","0.0-4.0-2.1-1.53","spark_pilot_norest","8368","5","20","Female","","","","","","","null","<div style=""font-size:60px;"">+</div>","null","fixation","","","","","","","","","7","","",""
"revaluation","301","1296945","0.0-4.0-2.1-0.54","spark_pilot_norest","8368","5","20","Female","","false","","","","","[731,420.80000000074506]","./assets/img/ocean/memory/24.jpg","[""ArrowUp"",""ArrowRight""]","value training","ocean","10","{""ArrowUp,ArrowLeft"":23,""ArrowUp,ArrowRight"":10,""ArrowDown,ArrowLeft"":8,""ArrowDown,ArrowRight"":30}","false","ArrowUp,ArrowRight","false","revaluation","2","8","","",""
"html-keyboard-response","302","1297451","0.0-4.0-2.1-1.54","spark_pilot_norest","8368","5","20","Female","","","","","","","null","<div style=""font-size:60px;"">+</div>","null","fixation","","","","","","","","","9","","",""
"revaluation","303","1303474","0.0-4.0-2.1-0.55","spark_pilot_norest","8368","5","20","Female","","false","","","","","[743.3999999985099,556.5]","./assets/img/ocean/memory/11.jpg","[""ArrowDown"",""ArrowLeft""]","value training","ocean","8","{""ArrowUp,ArrowLeft"":23,""ArrowUp,ArrowRight"":10,""ArrowDown,ArrowLeft"":8,""ArrowDown,ArrowRight"":30}","false","ArrowDown,ArrowLeft","false","revaluation","2","10","","",""
"html-keyboard-response","304","1303980","0.0-4.0-2.1-1.55","spark_pilot_norest","8368","5","20","Female","","","","","","","null","<div style=""font-size:60px;"">+</div>","null","fixation","","","","","","","","","11","","",""
"revaluation","305","1310002","0.0-4.0-2.1-0.56","spark_pilot_norest","8368","5","20","Female","","false","","","","","[547.5999999996275,305.69999999925494]","./assets/img/ocean/memory/1.jpg","[""ArrowDown"",""ArrowRight""]","value training","ocean","30","{""ArrowUp,ArrowLeft"":23,""ArrowUp,ArrowRight"":10,""ArrowDown,ArrowLeft"":8,""ArrowDown,ArrowRight"":30}","true","ArrowDown,ArrowRight","false","revaluation","2","12","","",""
"html-keyboard-response","306","1310508","0.0-4.0-2.1-1.56","spark_pilot_norest","8368","5","20","Female","","","","","","","null","<div style=""font-size:60px;"">+</div>","null","fixation","","","","","","","","","13","","",""
"revaluation","307","1316530","0.0-4.0-2.1-0.57","spark_pilot_norest","8368","5","20","Female","","false","","","","","[544.4000000003725,374.5]","./assets/img/ocean/memory/4.jpg","[""ArrowDown"",""ArrowRight""]","value training","ocean","30","{""ArrowUp,ArrowLeft"":23,""ArrowUp,ArrowRight"":10,""ArrowDown,ArrowLeft"":8,""ArrowDown,ArrowRight"":30}","true","ArrowDown,ArrowRight","false","revaluation","2","14","","",""
"html-keyboard-response","308","1317037","0.0-4.0-2.1-1.57","spark_pilot_norest","8368","5","20","Female","","","","","","","null","<div style=""font-size:60px;"">+</div>","null","fixation","","","","","","","","","15","","",""
"revaluation","309","1323059","0.0-4.0-2.1-0.58","spark_pilot_norest","8368","5","20","Female","","false","","","","","[401.30000000074506,413.19999999925494]","./assets/img/ocean/memory/35.jpg","[""ArrowDown"",""ArrowRight""]","value training","ocean","30","{""ArrowUp,ArrowLeft"":23,""ArrowUp,ArrowRight"":10,""ArrowDown,ArrowLeft"":8,""ArrowDown,ArrowRight"":30}","true","ArrowDown,ArrowRight","false","revaluation","2","16","","",""
"html-keyboard-response","310","1323565","0.0-4.0-2.1-1.58","spark_pilot_norest","8368","5","20","Female","","","","","","","null","<div style=""font-size:60px;"">+</div>","null","fixation","","","","","","","","","17","","",""
"revaluation","311","1329587","0.0-4.0-2.1-0.59","spark_pilot_norest","8368","5","20","Female","","false","","","","","[556,535.2999999988824]","./assets/img/ocean/memory/7.jpg","[""ArrowDown"",""ArrowRight""]","value training","ocean","30","{""ArrowUp,ArrowLeft"":23,""ArrowUp,ArrowRight"":10,""ArrowDown,ArrowLeft"":8,""ArrowDown,ArrowRight"":30}","true","ArrowDown,ArrowRight","false","revaluation","2","18","","",""
"html-keyboard-response","312","1330093","0.0-4.0-2.1-1.59","spark_pilot_norest","8368","5","20","Female","","","","","","","null","<div style=""font-size:60px;"">+</div>","null","fixation","","","","","","","","","19","","",""
