"trial_type","trial_index","time_elapsed","internal_node_id","task_version","subject_id","assigned_condition","age","gender","success","timeout","failed_images","failed_audio","failed_video","browser_interaction","rt","stimulus","response","task_part","environment","score","rewardMap","correct","fullState","isCatch","condition","order","trial_num","key_press","ground_truth","bonus"
"pavlovia","0","1730","0.0-0.0","spark_pilot_norest","11194","6","15","Female","","","","","","","","","","","","","","","","","","","","","",""
"preload","1","18128","0.0-1.0","spark_pilot_norest","11194","6","15","Female","true","false","[]","[]","[]","[{""event"":""fullscreenenter"",""trial"":2,""time"":21405}]","","","","","","","","","","","","","","","",""
"fullscreen","2","22394","0.0-2.0","spark_pilot_norest","11194","6","15","Female","true","","","","","","","","","","","","","","","","","","","","",""
"audio-button-response","3","24659","0.0-3.0-0.0-0.0","spark_pilot_norest","11194","6","15","Female","","","","","","","2240","./assets/audio/audiotest/turtle.mp3","2","audio_test","","","","","","","","","","","",""
"learning-instructions","4","33088","0.0-3.0-1.0-0.0","spark_pilot_norest","11194","6","15","Female","","","","","","","985.2999999970198","<p> Welcome! Please remember to stay in fullscreen mode and don't click away from the experiment. </p>","","instructions","","","","","","","","","","","",""
"learning-instructions","5","47412","0.0-3.0-1.0-0.1","spark_pilot_norest","11194","6","15","Female","","","","","","","5890.5","<p> Today you will be playing a game to earn treasure. </p>
            <p> At the end of the experiment, you will earn a bonus based on how much treasure you find. </p>
            <img src='./assets/img/instructions/treasure.jpg' class='instructions-image'>","","instructions","","","","","","","","","","","",""
"learning-instructions","6","56890","0.0-3.0-1.0-0.2","spark_pilot_norest","11194","6","15","Female","","","","","","","1192.6999999955297","<p> Animals have hidden treasure in treasure chests. </p>
            <p> You need to first find an animal and then choose which of their treasure chests to search. </p>
            <img src='./assets/img/space/animals/cat.jpg' class='instructions-image'>","","instructions","","","","","","","","","","","",""
"learning-instructions","7","71695","0.0-3.0-1.0-0.3","spark_pilot_norest","11194","6","15","Female","","","","","","","1630.3999999985099","<p> In each round, you will search for treasure in a different place. In the real game, there will be two rounds. </p>
            <p> You will begin with a separate, practice round where you will search for treasure in outer space. </p>
            <img src='./assets/img/space/0.jpg' class='instructions-image'>","","instructions","","","","","","","","","","","",""
"learning-instructions","8","83870","0.0-3.0-1.0-0.4","spark_pilot_norest","11194","6","15","Female","","","","","","","738.1000000014901","<p> On every turn, you will see a picture of the place that you are in, but the specific image may be different each time. </p>
            <p> For example, both of these images mean you are in outer space. </p>
            <img src='./assets/img/instructions/outerspace.jpg' class='instructions-image'>","","instructions","","","","","","","","","","","",""
"learning-instructions","9","92835","0.0-3.0-1.0-0.5","spark_pilot_norest","11194","6","15","Female","","","","","","","1115.5","<p> You need to decide which direction to travel in. </p>
            <p> You can choose between going <b>up or down</b> by using the arrow keys. </p>
            <img src='./assets/img/instructions/updown.jpg' class='instructions-image'>","","instructions","","","","","","","","","","","",""
"learning-instructions","10","102827","0.0-3.0-1.0-0.6","spark_pilot_norest","11194","6","15","Female","","","","","","","1156.8000000044703","<p> You will have <b>2 seconds</b> to make your choice. </p>
            <p> If you do not make a choice within 2 seconds, you will not find an animal or earn treasure. </p>
            <img src='./assets/img/instructions/2seconds.jpg' class='instructions-image'>","","instructions","","","","","","","","","","","",""
"learning-instructions","11","110902","0.0-3.0-1.0-0.7","spark_pilot_norest","11194","6","15","Female","","","","","","","1018.5999999940395","<p> Let’s try practicing that now! </p>
            <p> When you see a picture of the place you are in, press the <b>up</b> key to travel up. </p>
            <img src='./assets/img/instructions/pressUp.jpg' class='instructions-image'>","","instructions","","","","","","","","","","","",""
"revaluation","12","114921","0.0-3.0-2.0-0.0","spark_pilot_norest","11194","6","15","Female","","false","","","","","[803.3999999985099]","./assets/img/space/0.jpg","[""ArrowUp""]","first stage practice","space","0","null","null","ArrowUp","false","","","","","",""
"html-keyboard-response","13","115423","0.0-3.0-2.0-1.0","spark_pilot_norest","11194","6","15","Female","","","","","","","null","<div style=""font-size:60px;"">+</div>","null","fixation","","","","","","","","","","","",""
"revaluation","14","119431","0.0-3.0-2.0-0.1","spark_pilot_norest","11194","6","15","Female","","false","","","","","[610]","./assets/img/space/1.jpg","[""ArrowUp""]","first stage practice","space","0","null","null","ArrowUp","false","","","","","",""
"html-keyboard-response","15","119933","0.0-3.0-2.0-1.1","spark_pilot_norest","11194","6","15","Female","","","","","","","null","<div style=""font-size:60px;"">+</div>","null","fixation","","","","","","","","","","","",""
"revaluation","16","123939","0.0-3.0-2.0-0.2","spark_pilot_norest","11194","6","15","Female","","false","","","","","[826.3000000044703]","./assets/img/space/2.jpg","[""ArrowUp""]","first stage practice","space","0","null","null","ArrowUp","false","","","","","",""
"html-keyboard-response","17","124441","0.0-3.0-2.0-1.2","spark_pilot_norest","11194","6","15","Female","","","","","","","null","<div style=""font-size:60px;"">+</div>","null","fixation","","","","","","","","","","","",""
"learning-instructions","18","129994","0.0-3.0-3.0-0.0","spark_pilot_norest","11194","6","15","Female","","","","","","","835.5","<p> Great job! Now try pressing the <b>down</b> key to travel down. </p>
            <img src='./assets/img/instructions/pressDown.jpg' class='instructions-image'>","","instructions","","","","","","","","","","","",""
"revaluation","19","133998","0.0-3.0-4.0-0.0","spark_pilot_norest","11194","6","15","Female","","false","","","","","[908.5]","./assets/img/space/3.jpg","[""ArrowDown""]","first stage practice","space","0","null","null","ArrowDown","false","","","","","",""
"html-keyboard-response","20","134500","0.0-3.0-4.0-1.0","spark_pilot_norest","11194","6","15","Female","","","","","","","null","<div style=""font-size:60px;"">+</div>","null","fixation","","","","","","","","","","","",""
"revaluation","21","138506","0.0-3.0-4.0-0.1","spark_pilot_norest","11194","6","15","Female","","false","","","","","[985.5]","./assets/img/space/4.jpg","[""ArrowDown""]","first stage practice","space","0","null","null","ArrowDown","false","","","","","",""
"html-keyboard-response","22","139008","0.0-3.0-4.0-1.1","spark_pilot_norest","11194","6","15","Female","","","","","","","null","<div style=""font-size:60px;"">+</div>","null","fixation","","","","","","","","","","","",""
"revaluation","23","143012","0.0-3.0-4.0-0.2","spark_pilot_norest","11194","6","15","Female","","false","","","","","[1022.7000000029802]","./assets/img/space/5.jpg","[""ArrowDown""]","first stage practice","space","0","null","null","ArrowDown","false","","","","","",""
"html-keyboard-response","24","143514","0.0-3.0-4.0-1.2","spark_pilot_norest","11194","6","15","Female","","","","","","","null","<div style=""font-size:60px;"">+</div>","null","fixation","","","","","","","","","","","",""
"learning-instructions","25","155038","0.0-3.0-5.0-0.0","spark_pilot_norest","11194","6","15","Female","","","","","","","1645.5999999940395","<p> The animals don’t move, so the animal in the upper part of a place will stay in the upper part of a place, and the animal in the lower part of a place will stay in the lower part of a place. </p>","","instructions","","","","","","","","","","","",""
"learning-instructions","26","165178","0.0-3.0-5.0-0.1","spark_pilot_norest","11194","6","15","Female","","","","","","","1001.4000000059605","<p> Each animal has two treasure chests for you to choose from. </p>
            <p> The amount of treasure in each chest can range from <b> 0 to 40 pieces.</b></p>","","instructions","","","","","","","","","","","",""
"learning-instructions","27","177475","0.0-3.0-5.0-0.2","spark_pilot_norest","11194","6","15","Female","","","","","","","1094.3000000044703","<p> You should decide which chest to search for treasure by using the <b>left</b> and <b>right</b> arrow keys. </p>
            <p><b> Pay attention to which animal is on the screen, as the animals have different treasure chests. </b></p>
            <img src='./assets/img/instructions/leftright.jpg' class='instructions-image'>","","instructions","","","","","","","","","","","",""
"learning-instructions","28","185657","0.0-3.0-5.0-0.3","spark_pilot_norest","11194","6","15","Female","","","","","","","1789.3000000044703","<p> Let’s try practicing that now. </p>
            <p> When you see an animal, choose which chest to search for treasure. </p>
            <img src='./assets/img/instructions/chooseChest.jpg' class='instructions-image'>","","instructions","","","","","","","","","","","",""
"revaluation","29","189662","0.0-3.0-6.0-0.0","spark_pilot_norest","11194","6","15","Female","","false","","","","","[939.6000000014901]","./assets/img/space/animals/rabbit.jpg","[""ArrowRight""]","second stage practice","space","23","{""ArrowUp,ArrowLeft"":3,""ArrowUp,ArrowRight"":36,""ArrowDown,ArrowLeft"":15,""ArrowDown,ArrowRight"":23}","true","ArrowDown,ArrowRight","","","","","","",""
"html-keyboard-response","30","190164","0.0-3.0-6.0-1.0","spark_pilot_norest","11194","6","15","Female","","","","","","","null","<div style=""font-size:60px;"">+</div>","null","fixation","","","","","","","","","","","",""
"revaluation","31","194169","0.0-3.0-6.0-0.1","spark_pilot_norest","11194","6","15","Female","","false","","","","","[581.7000000029802]","./assets/img/space/animals/cat.jpg","[""ArrowLeft""]","second stage practice","space","3","{""ArrowUp,ArrowLeft"":3,""ArrowUp,ArrowRight"":36,""ArrowDown,ArrowLeft"":15,""ArrowDown,ArrowRight"":23}","false","ArrowUp,ArrowLeft","","","","","","",""
"html-keyboard-response","32","194670","0.0-3.0-6.0-1.1","spark_pilot_norest","11194","6","15","Female","","","","","","","null","<div style=""font-size:60px;"">+</div>","null","fixation","","","","","","","","","","","",""
"revaluation","33","198676","0.0-3.0-6.0-0.2","spark_pilot_norest","11194","6","15","Female","","false","","","","","[794]","./assets/img/space/animals/cat.jpg","[""ArrowRight""]","second stage practice","space","36","{""ArrowUp,ArrowLeft"":3,""ArrowUp,ArrowRight"":36,""ArrowDown,ArrowLeft"":15,""ArrowDown,ArrowRight"":23}","true","ArrowUp,ArrowRight","","","","","","",""
"html-keyboard-response","34","199177","0.0-3.0-6.0-1.2","spark_pilot_norest","11194","6","15","Female","","","","","","","null","<div style=""font-size:60px;"">+</div>","null","fixation","","","","","","","","","","","",""
"revaluation","35","203183","0.0-3.0-6.0-0.3","spark_pilot_norest","11194","6","15","Female","","false","","","","","[512.5]","./assets/img/space/animals/rabbit.jpg","[""ArrowRight""]","second stage practice","space","23","{""ArrowUp,ArrowLeft"":3,""ArrowUp,ArrowRight"":36,""ArrowDown,ArrowLeft"":15,""ArrowDown,ArrowRight"":23}","true","ArrowDown,ArrowRight","","","","","","",""
"html-keyboard-response","36","203685","0.0-3.0-6.0-1.3","spark_pilot_norest","11194","6","15","Female","","","","","","","null","<div style=""font-size:60px;"">+</div>","null","fixation","","","","","","","","","","","",""
"learning-instructions","37","239063","0.0-3.0-7.0-0.0","spark_pilot_norest","11194","6","15","Female","","","","","","","18534.20000000298","<p> Great job. Now let’s try putting it together. </p>
            <p> On each turn, you will first see a picture to remind you of the place you are in, and you need to choose whether to go up or down. </p>
            <p> Then you will see an animal and choose which of its chests to search for treasure. </p>","","instructions","","","","","","","","","","","",""
"learning-instructions","38","249049","0.0-3.0-7.0-0.1","spark_pilot_norest","11194","6","15","Female","","","","","","","1715.3999999985099","<p> When you choose whether to go up or down, try to go to the animal with the chest with the most treasure. </p>
            <p> Try practicing that now! </p>","","instructions","","","","","","","","","","","",""
"revaluation","39","255055","0.0-3.0-8.0-0.0","spark_pilot_norest","11194","6","15","Female","","false","","","","","[761.7999999970198,535.1000000014901]","./assets/img/space/6.jpg","[""ArrowUp"",""ArrowRight""]","full practice","space","36","{""ArrowUp,ArrowLeft"":3,""ArrowUp,ArrowRight"":36,""ArrowDown,ArrowLeft"":15,""ArrowDown,ArrowRight"":23}","true","ArrowUp,ArrowRight","false","","","","","",""
"html-keyboard-response","40","255557","0.0-3.0-8.0-1.0","spark_pilot_norest","11194","6","15","Female","","","","","","","null","<div style=""font-size:60px;"">+</div>","null","fixation","","","","","","","","","","","",""
"revaluation","41","261563","0.0-3.0-8.0-0.1","spark_pilot_norest","11194","6","15","Female","","false","","","","","[434.70000000298023,770.2000000029802]","./assets/img/space/7.jpg","[""ArrowDown"",""ArrowRight""]","full practice","space","23","{""ArrowUp,ArrowLeft"":3,""ArrowUp,ArrowRight"":36,""ArrowDown,ArrowLeft"":15,""ArrowDown,ArrowRight"":23}","false","ArrowDown,ArrowRight","false","","","","","",""
"html-keyboard-response","42","262064","0.0-3.0-8.0-1.1","spark_pilot_norest","11194","6","15","Female","","","","","","","null","<div style=""font-size:60px;"">+</div>","null","fixation","","","","","","","","","","","",""
"revaluation","43","268069","0.0-3.0-8.0-0.2","spark_pilot_norest","11194","6","15","Female","","false","","","","","[1197.1000000014901,933.6000000014901]","./assets/img/space/8.jpg","[""ArrowDown"",""ArrowRight""]","full practice","space","23","{""ArrowUp,ArrowLeft"":3,""ArrowUp,ArrowRight"":36,""ArrowDown,ArrowLeft"":15,""ArrowDown,ArrowRight"":23}","false","ArrowDown,ArrowRight","false","","","","","",""
"html-keyboard-response","44","268571","0.0-3.0-8.0-1.2","spark_pilot_norest","11194","6","15","Female","","","","","","","null","<div style=""font-size:60px;"">+</div>","null","fixation","","","","","","","","","","","",""
"revaluation","45","274576","0.0-3.0-8.0-0.3","spark_pilot_norest","11194","6","15","Female","","false","","","","","[650.6000000014901,300.8999999985099]","./assets/img/space/9.jpg","[""ArrowUp"",""ArrowLeft""]","full practice","space","3","{""ArrowUp,ArrowLeft"":3,""ArrowUp,ArrowRight"":36,""ArrowDown,ArrowLeft"":15,""ArrowDown,ArrowRight"":23}","false","ArrowUp,ArrowLeft","false","","","","","",""
"html-keyboard-response","46","275077","0.0-3.0-8.0-1.3","spark_pilot_norest","11194","6","15","Female","","","","","","","null","<div style=""font-size:60px;"">+</div>","null","fixation","","","","","","","","","","","",""
"revaluation","47","281087","0.0-3.0-8.0-0.4","spark_pilot_norest","11194","6","15","Female","","false","","","","","[943.7999999970198,276.70000000298023]","./assets/img/space/10.jpg","[""ArrowUp"",""ArrowRight""]","full practice","space","36","{""ArrowUp,ArrowLeft"":3,""ArrowUp,ArrowRight"":36,""ArrowDown,ArrowLeft"":15,""ArrowDown,ArrowRight"":23}","true","ArrowUp,ArrowRight","false","","","","","",""
"html-keyboard-response","48","281590","0.0-3.0-8.0-1.4","spark_pilot_norest","11194","6","15","Female","","","","","","","null","<div style=""font-size:60px;"">+</div>","null","fixation","","","","","","","","","","","",""
"learning-instructions","49","294821","0.0-3.0-9.0-0.0","spark_pilot_norest","11194","6","15","Female","","","","","","","2885.5999999940395","<p> One last thing: sometimes, you will see a robber. The robber can be anywhere in the picture. </p>
            <p> If you do not stop them, you will lose treasure. </p>
            <img src='./assets/img/instructions/robber.jpg' class='instructions-image'>","","instructions","","","","","","","","","","","",""
"learning-instructions","50","302532","0.0-3.0-9.0-0.1","spark_pilot_norest","11194","6","15","Female","","","","","","","516.8000000044703","<p> If you see the robber, you should <b>press the space bar</b> rather than using the arrow keys. </p>
            <p> Try practicing that now! </p>","","instructions","","","","","","","","","","","",""
"revaluation","51","306537","0.0-3.0-10.0-0.0","spark_pilot_norest","11194","6","15","Female","","false","","","","","[990.3000000044703]","./assets/img/space/catch/0.jpg","[""spaceBar""]","catch practice","space","0","{""ArrowUp,ArrowLeft"":3,""ArrowUp,ArrowRight"":36,""ArrowDown,ArrowLeft"":15,""ArrowDown,ArrowRight"":23}","true","spaceBar","true","","","","","",""
"html-keyboard-response","52","307039","0.0-3.0-10.0-1.0","spark_pilot_norest","11194","6","15","Female","","","","","","","null","<div style=""font-size:60px;"">+</div>","null","fixation","","","","","","","","","","","",""
"revaluation","53","311044","0.0-3.0-10.0-0.1","spark_pilot_norest","11194","6","15","Female","","false","","","","","[466.70000000298023]","./assets/img/space/catch/1.jpg","[""spaceBar""]","catch practice","space","0","{""ArrowUp,ArrowLeft"":3,""ArrowUp,ArrowRight"":36,""ArrowDown,ArrowLeft"":15,""ArrowDown,ArrowRight"":23}","true","spaceBar","true","","","","","",""
"html-keyboard-response","54","311545","0.0-3.0-10.0-1.1","spark_pilot_norest","11194","6","15","Female","","","","","","","null","<div style=""font-size:60px;"">+</div>","null","fixation","","","","","","","","","","","",""
"revaluation","55","315552","0.0-3.0-10.0-0.2","spark_pilot_norest","11194","6","15","Female","","false","","","","","[474.8999999985099]","./assets/img/space/catch/2.jpg","[""spaceBar""]","catch practice","space","0","{""ArrowUp,ArrowLeft"":3,""ArrowUp,ArrowRight"":36,""ArrowDown,ArrowLeft"":15,""ArrowDown,ArrowRight"":23}","true","spaceBar","true","","","","","",""
"html-keyboard-response","56","316053","0.0-3.0-10.0-1.2","spark_pilot_norest","11194","6","15","Female","","","","","","","null","<div style=""font-size:60px;"">+</div>","null","fixation","","","","","","","","","","","",""
"learning-instructions","57","324295","0.0-3.0-11.0-0.0-0.0","spark_pilot_norest","11194","6","15","Female","","","","","","","2962.39999999851","<p> Now, you will practice a shortened version of the game to get a sense of how it all fits together. </p>","","instructions","","","","","","","","","","","",""
"learning-instructions","58","329855","0.0-3.0-11.0-0.0-0.1","spark_pilot_norest","11194","6","15","Female","","","","","","","2347.39999999851","<p>This time you are searching for treasure in outer space.</p>","","instructions","","","","","","","","","","","",""
"learning-instructions","59","351760","0.0-3.0-11.0-1.0-0.0","spark_pilot_norest","11194","6","15","Female","","","","","","","7120.79999999702","<p> Remember, when you see a picture of the place, use the up and down keys to <b>find an animal</b>.</p>
            <p> When you encounter an animal, you should use the left and right keys to <b>select a treasure chest</b>.</p>
            <p> Don't forget to look out for the robber! </p>","","instructions","","","","","","","","","","","",""
"revaluation","60","357764","0.0-3.0-11.0-2.0-0.0","spark_pilot_norest","11194","6","15","Female","","false","","","","","[936.6999999955297,567.7999999970198]","./assets/img/space/11.jpg","[""ArrowUp"",""ArrowRight""]","practice block","space","36","{""ArrowUp,ArrowLeft"":3,""ArrowUp,ArrowRight"":36,""ArrowDown,ArrowLeft"":15,""ArrowDown,ArrowRight"":23}","true","ArrowUp,ArrowRight","false","","","","","",""
"html-keyboard-response","61","358266","0.0-3.0-11.0-2.0-1.0","spark_pilot_norest","11194","6","15","Female","","","","","","","null","<div style=""font-size:60px;"">+</div>","null","fixation","","","","","","","","","","","",""
"revaluation","62","364271","0.0-3.0-11.0-2.0-0.1","spark_pilot_norest","11194","6","15","Female","","false","","","","","[840,517.8999999985099]","./assets/img/space/12.jpg","[""ArrowUp"",""ArrowRight""]","practice block","space","36","{""ArrowUp,ArrowLeft"":3,""ArrowUp,ArrowRight"":36,""ArrowDown,ArrowLeft"":15,""ArrowDown,ArrowRight"":23}","true","ArrowUp,ArrowRight","false","","","","","",""
"html-keyboard-response","63","364772","0.0-3.0-11.0-2.0-1.1","spark_pilot_norest","11194","6","15","Female","","","","","","","null","<div style=""font-size:60px;"">+</div>","null","fixation","","","","","","","","","","","",""
"revaluation","64","370778","0.0-3.0-11.0-2.0-0.2","spark_pilot_norest","11194","6","15","Female","","false","","","","","[897.7000000029802,673.6000000014901]","./assets/img/space/13.jpg","[""ArrowUp"",""ArrowRight""]","practice block","space","36","{""ArrowUp,ArrowLeft"":3,""ArrowUp,ArrowRight"":36,""ArrowDown,ArrowLeft"":15,""ArrowDown,ArrowRight"":23}","true","ArrowUp,ArrowRight","false","","","","","",""
"html-keyboard-response","65","371280","0.0-3.0-11.0-2.0-1.2","spark_pilot_norest","11194","6","15","Female","","","","","","","null","<div style=""font-size:60px;"">+</div>","null","fixation","","","","","","","","","","","",""
"revaluation","66","377287","0.0-3.0-11.0-2.0-0.3","spark_pilot_norest","11194","6","15","Female","","false","","","","","[988.7000000029802,349.6000000014901]","./assets/img/space/14.jpg","[""ArrowUp"",""ArrowRight""]","practice block","space","36","{""ArrowUp,ArrowLeft"":3,""ArrowUp,ArrowRight"":36,""ArrowDown,ArrowLeft"":15,""ArrowDown,ArrowRight"":23}","true","ArrowUp,ArrowRight","false","","","","","",""
"html-keyboard-response","67","377789","0.0-3.0-11.0-2.0-1.3","spark_pilot_norest","11194","6","15","Female","","","","","","","null","<div style=""font-size:60px;"">+</div>","null","fixation","","","","","","","","","","","",""
"revaluation","68","383808","0.0-3.0-11.0-2.0-0.4","spark_pilot_norest","11194","6","15","Female","","false","","","","","[906.9000000059605,709]","./assets/img/space/11.jpg","[""ArrowUp"",""ArrowRight""]","practice block","space","36","{""ArrowUp,ArrowLeft"":3,""ArrowUp,ArrowRight"":36,""ArrowDown,ArrowLeft"":15,""ArrowDown,ArrowRight"":23}","true","ArrowUp,ArrowRight","false","","","","","",""
"html-keyboard-response","69","384311","0.0-3.0-11.0-2.0-1.4","spark_pilot_norest","11194","6","15","Female","","","","","","","null","<div style=""font-size:60px;"">+</div>","null","fixation","","","","","","","","","","","",""
"revaluation","70","390322","0.0-3.0-11.0-2.0-0.5","spark_pilot_norest","11194","6","15","Female","","false","","","","","[1056.0999999940395,409.5]","./assets/img/space/12.jpg","[""ArrowUp"",""ArrowRight""]","practice block","space","36","{""ArrowUp,ArrowLeft"":3,""ArrowUp,ArrowRight"":36,""ArrowDown,ArrowLeft"":15,""ArrowDown,ArrowRight"":23}","true","ArrowUp,ArrowRight","false","","","","","",""
"html-keyboard-response","71","390824","0.0-3.0-11.0-2.0-1.5","spark_pilot_norest","11194","6","15","Female","","","","","","","null","<div style=""font-size:60px;"">+</div>","null","fixation","","","","","","","","","","","",""
"revaluation","72","396837","0.0-3.0-11.0-2.0-0.6","spark_pilot_norest","11194","6","15","Female","","false","","","","","[648.2999999970198,493.79999999701977]","./assets/img/space/13.jpg","[""ArrowUp"",""ArrowRight""]","practice block","space","36","{""ArrowUp,ArrowLeft"":3,""ArrowUp,ArrowRight"":36,""ArrowDown,ArrowLeft"":15,""ArrowDown,ArrowRight"":23}","true","ArrowUp,ArrowRight","false","","","","","",""
"html-keyboard-response","73","397340","0.0-3.0-11.0-2.0-1.6","spark_pilot_norest","11194","6","15","Female","","","","","","","null","<div style=""font-size:60px;"">+</div>","null","fixation","","","","","","","","","","","",""
"revaluation","74","403356","0.0-3.0-11.0-2.0-0.7","spark_pilot_norest","11194","6","15","Female","","false","","","","","[874,367.6000000014901]","./assets/img/space/14.jpg","[""ArrowUp"",""ArrowRight""]","practice block","space","36","{""ArrowUp,ArrowLeft"":3,""ArrowUp,ArrowRight"":36,""ArrowDown,ArrowLeft"":15,""ArrowDown,ArrowRight"":23}","true","ArrowUp,ArrowRight","false","","","","","",""
"html-keyboard-response","75","403858","0.0-3.0-11.0-2.0-1.7","spark_pilot_norest","11194","6","15","Female","","","","","","","null","<div style=""font-size:60px;"">+</div>","null","fixation","","","","","","","","","","","",""
"revaluation","76","407863","0.0-3.0-11.0-2.0-0.8","spark_pilot_norest","11194","6","15","Female","","false","","","","","[733]","./assets/img/space/catch/3.jpg","[""spaceBar""]","practice block","space","0","{""ArrowUp,ArrowLeft"":3,""ArrowUp,ArrowRight"":36,""ArrowDown,ArrowLeft"":15,""ArrowDown,ArrowRight"":23}","true","spaceBar","true","","","","","",""
"html-keyboard-response","77","408365","0.0-3.0-11.0-2.0-1.8","spark_pilot_norest","11194","6","15","Female","","","","","","","null","<div style=""font-size:60px;"">+</div>","null","fixation","","","","","","","","","","","",""
"learning-instructions","78","425082","0.0-3.0-11.0-3.0-0.0","spark_pilot_norest","11194","6","15","Female","","","","","","","3658.89999999851","<p> Now, you will travel with a friend who will choose whether you go up or down first. </p>
            <p> On these turns, you will just see the animal that they found. You will still get to choose which chest to search for treasure.</p>","","instructions","","","","","","","","","","","",""
"revaluation","79","429087","0.0-3.0-11.0-4.0-0.0","spark_pilot_norest","11194","6","15","Female","","false","","","","","[1002.2999999970198]","./assets/img/space/animals/rabbit.jpg","[""ArrowLeft""]","practice block","space","15","{""ArrowUp,ArrowLeft"":3,""ArrowUp,ArrowRight"":36,""ArrowDown,ArrowLeft"":15,""ArrowDown,ArrowRight"":23}","false","ArrowDown,ArrowLeft","","","","","","",""
"html-keyboard-response","80","429589","0.0-3.0-11.0-4.0-1.0","spark_pilot_norest","11194","6","15","Female","","","","","","","null","<div style=""font-size:60px;"">+</div>","null","fixation","","","","","","","","","","","",""
"revaluation","81","433594","0.0-3.0-11.0-4.0-0.1","spark_pilot_norest","11194","6","15","Female","","false","","","","","[454.29999999701977]","./assets/img/space/animals/cat.jpg","[""ArrowRight""]","practice block","space","36","{""ArrowUp,ArrowLeft"":3,""ArrowUp,ArrowRight"":36,""ArrowDown,ArrowLeft"":15,""ArrowDown,ArrowRight"":23}","true","ArrowUp,ArrowRight","","","","","","",""
"html-keyboard-response","82","434095","0.0-3.0-11.0-4.0-1.1","spark_pilot_norest","11194","6","15","Female","","","","","","","null","<div style=""font-size:60px;"">+</div>","null","fixation","","","","","","","","","","","",""
"revaluation","83","438100","0.0-3.0-11.0-4.0-0.2","spark_pilot_norest","11194","6","15","Female","","false","","","","","[484.70000000298023]","./assets/img/space/animals/rabbit.jpg","[""ArrowRight""]","practice block","space","23","{""ArrowUp,ArrowLeft"":3,""ArrowUp,ArrowRight"":36,""ArrowDown,ArrowLeft"":15,""ArrowDown,ArrowRight"":23}","true","ArrowDown,ArrowRight","","","","","","",""
"html-keyboard-response","84","438601","0.0-3.0-11.0-4.0-1.2","spark_pilot_norest","11194","6","15","Female","","","","","","","null","<div style=""font-size:60px;"">+</div>","null","fixation","","","","","","","","","","","",""
"revaluation","85","442605","0.0-3.0-11.0-4.0-0.3","spark_pilot_norest","11194","6","15","Female","","false","","","","","[428]","./assets/img/space/animals/cat.jpg","[""ArrowRight""]","practice block","space","36","{""ArrowUp,ArrowLeft"":3,""ArrowUp,ArrowRight"":36,""ArrowDown,ArrowLeft"":15,""ArrowDown,ArrowRight"":23}","true","ArrowUp,ArrowRight","","","","","","",""
"html-keyboard-response","86","443108","0.0-3.0-11.0-4.0-1.3","spark_pilot_norest","11194","6","15","Female","","","","","","","null","<div style=""font-size:60px;"">+</div>","null","fixation","","","","","","","","","","","",""
"learning-instructions","87","451242","0.0-3.0-11.0-5.0-0.0","spark_pilot_norest","11194","6","15","Female","","","","","","","null","<p> You have almost finished this part of the game! </p>
            <p> We are going to ask you to make a few more choices. </p>","","instructions","","","","","","","","","","","",""
"learning-instructions","88","467274","0.0-3.0-11.0-5.0-0.1","spark_pilot_norest","11194","6","15","Female","","","","","","","null","<p> First, you need to decide whether to go up or down. When you see each picture, use the arrow keys to make your choice. </p>
            <p><b>You will not see which animal you found, but try to get to the one that will give you the most treasure.</b></p>","","instructions","","","","","","","","","","","",""
"html-keyboard-response","89","468275","0.0-3.0-11.0-6.0-0.0","spark_pilot_norest","11194","6","15","Female","","","","","","","null","<div style=""font-size:100px;color:red;"">Starting in...</div>","null","","","","","","","","","","","","",""
"html-keyboard-response","90","469276","0.0-3.0-11.0-6.0-1.0","spark_pilot_norest","11194","6","15","Female","","","","","","","null","<div style=""font-size:200px;color:red;"">3</div>","null","","","","","","","","","","","","",""
"html-keyboard-response","91","470278","0.0-3.0-11.0-6.0-2.0","spark_pilot_norest","11194","6","15","Female","","","","","","","null","<div style=""font-size:200px;color:red;"">2</div>","null","","","","","","","","","","","","",""
"html-keyboard-response","92","471279","0.0-3.0-11.0-6.0-3.0","spark_pilot_norest","11194","6","15","Female","","","","","","","null","<div style=""font-size:200px;color:red;"">1</div>","null","","","","","","","","","","","","",""
"revaluation","93","472179","0.0-3.0-11.0-7.0","spark_pilot_norest","11194","6","15","Female","","false","","","","","[894.8999999985099]","./assets/img/space/15.jpg","[""ArrowUp""]","practice block","space","0","{""ArrowUp,ArrowLeft"":3,""ArrowUp,ArrowRight"":36,""ArrowDown,ArrowLeft"":15,""ArrowDown,ArrowRight"":23}","true","ArrowUp","false","","","","","",""
"html-keyboard-response","94","472682","0.0-3.0-11.0-8.0","spark_pilot_norest","11194","6","15","Female","","","","","","","null","<div style=""font-size:60px;"">+</div>","null","fixation","","","","","","","","","","","",""
"learning-instructions","95","486079","0.0-3.0-11.0-9.0-0.0","spark_pilot_norest","11194","6","15","Female","","","","","","","null","<p> Now you will see the animals again and can search their chests for treasure. </p>
            <p> This time, you will not see how much treasure you earned, but you will earn more bonus money for making better choices. </p>","","instructions","","","","","","","","","","","",""
"html-keyboard-response","96","487080","0.0-3.0-11.0-10.0-0.0","spark_pilot_norest","11194","6","15","Female","","","","","","","null","<div style=""font-size:100px;color:red;"">Starting in...</div>","null","","","","","","","","","","","","",""
"html-keyboard-response","97","488082","0.0-3.0-11.0-10.0-1.0","spark_pilot_norest","11194","6","15","Female","","","","","","","null","<div style=""font-size:200px;color:red;"">3</div>","null","","","","","","","","","","","","",""
"html-keyboard-response","98","489083","0.0-3.0-11.0-10.0-2.0","spark_pilot_norest","11194","6","15","Female","","","","","","","null","<div style=""font-size:200px;color:red;"">2</div>","null","","","","","","","","","","","","",""
"html-keyboard-response","99","490084","0.0-3.0-11.0-10.0-3.0","spark_pilot_norest","11194","6","15","Female","","","","","","","null","<div style=""font-size:200px;color:red;"">1</div>","null","","","","","","","","","","","","",""
"revaluation","100","490639","0.0-3.0-11.0-11.0-0.0","spark_pilot_norest","11194","6","15","Female","","false","","","","","[549.5999999940395]","./assets/img/space/animals/cat.jpg","[""ArrowRight""]","practice block","space","0","{""ArrowUp,ArrowLeft"":3,""ArrowUp,ArrowRight"":36,""ArrowDown,ArrowLeft"":15,""ArrowDown,ArrowRight"":23}","true","ArrowUp,ArrowRight","","","","","","",""
"html-keyboard-response","101","491140","0.0-3.0-11.0-11.0-1.0","spark_pilot_norest","11194","6","15","Female","","","","","","","null","<div style=""font-size:60px;"">+</div>","null","fixation","","","","","","","","","","","",""
"revaluation","102","491830","0.0-3.0-11.0-11.0-0.1","spark_pilot_norest","11194","6","15","Female","","false","","","","","[682.2999999970198]","./assets/img/space/animals/rabbit.jpg","[""ArrowRight""]","practice block","space","0","{""ArrowUp,ArrowLeft"":3,""ArrowUp,ArrowRight"":36,""ArrowDown,ArrowLeft"":15,""ArrowDown,ArrowRight"":23}","true","ArrowDown,ArrowRight","","","","","","",""
"html-keyboard-response","103","492331","0.0-3.0-11.0-11.0-1.1","spark_pilot_norest","11194","6","15","Female","","","","","","","null","<div style=""font-size:60px;"">+</div>","null","fixation","","","","","","","","","","","",""
"learning-instructions","104","498803","0.0-3.0-12.0-0.0","spark_pilot_norest","11194","6","15","Female","","","","","","","1869.8999999985099","<p> Before you start, we're going to ask you a few questions about how the game works. </p>","","instructions","","","","","","","","","","","",""
"comp-q","105","505257","0.0-3.0-13.0-0.0-0.0","spark_pilot_norest","11194","6","15","Female","","","","","","","843.6000000014901","<p> <b> True or False? </b> </p>
            <p> There can be 50 pieces of treasure in a given animal's chest. </p>","1","comp_question","","","","true","","","","","","","",""
"comp-q","106","512619","0.0-3.0-13.0-0.0-1.0","spark_pilot_norest","11194","6","15","Female","","","","","","","688.5","<p> <b> That's right! </b> The amount of treasure in each chest can range from 0 to 40 pieces. </p>","0","comp_answer","","","","","","","","","","","",""
"comp-q","107","520565","0.0-3.0-13.0-0.1-0.1","spark_pilot_norest","11194","6","15","Female","","","","","","","816.1000000014901","<p> <b> True or False? </b> </p><p> In this game, all animals have the same amount of treasure in their left and right chests. </p>","1","comp_question","","","","true","","","","","","","",""
"comp-q","108","526576","0.0-3.0-13.0-0.1-1.1","spark_pilot_norest","11194","6","15","Female","","","","","","","757.3000000044703","<p> <b> That's right! </b> Animals have different amounts of treasure in their treasure chests. </p>","0","comp_answer","","","","","","","","","","","",""
"comp-q","109","533832","0.0-3.0-13.0-0.2-0.2","spark_pilot_norest","11194","6","15","Female","","","","","","","1389.6000000014901","<p> <b> True or False? </b> </p><p> The same animal will always be there if you go up in the same place. </p>","0","comp_question","","","","true","","","","","","","",""
"comp-q","110","541053","0.0-3.0-13.0-0.2-1.2","spark_pilot_norest","11194","6","15","Female","","","","","","","760.6000000014901","<p> <b> That's right! </b> One animal lives in the upper part and one lives in the lower part of every place. </p>","0","comp_answer","","","","","","","","","","","",""
"comp-q","111","547080","0.0-3.0-13.0-0.3-0.3","spark_pilot_norest","11194","6","15","Female","","","","","","","482.80000000447035","<p> <b> True or False? </b> </p><p> If you see a different picture, it means you are in a new place. </p>","1","comp_question","","","","true","","","","","","","",""
"comp-q","112","560863","0.0-3.0-13.0-0.3-1.3","spark_pilot_norest","11194","6","15","Female","","","","","","","2533","<p> <b> That's right! </b> Lots of different images may show the same place. For example,  you may see three different images that all remind you that you are in outer space. </p>","0","comp_answer","","","","","","","","","","","",""
"learning-instructions","113","601653","0.0-3.0-14.0-0.0","spark_pilot_norest","11194","6","15","Female","","","","","","","30928.30000000447","<p> Good job. Remember to do your best because the amount of treasure you earn will be converted into bonus money. </p>
            <p> It’s time to start the real game! </p>","","instructions","","","","","","","","","","","",""
"learning-instructions","114","605464","0.0-4.0-0.0-0.0","spark_pilot_norest","11194","6","15","Female","","","","","","","1028.3000000044703","<p> This time you are searching for treasure in the <b>canyon</b>.</p>","","instructions","","","","","","","","","","","",""
"learning-instructions","115","642023","0.0-4.0-0.0-0.1","spark_pilot_norest","11194","6","15","Female","","","","","","","19241.30000000447","<p><b>New</b> animals with <b>new</b> treasure chests live here. You need to explore to discover where the animal with the best treasure chest is.</p>
                    <p> Like before, once you figure out which animal has the chest with the most treasure, you should try to get to that animal and select that chest! </p>","","instructions","","","","","","","","","","","",""
"learning-instructions","116","658894","0.0-4.0-1.0-0.0","spark_pilot_norest","11194","6","15","Female","","","","","","","2138.89999999851","<p> Remember, when you see a picture of the place, use the up and down keys to <b>find an animal</b>.</p>
            <p> When you encounter an animal, you should use the left and right keys to <b>select a treasure chest</b>.</p>
            <p> Don't forget to look out for the robber! </p>","","instructions","","","","","","","","","","","",""
"revaluation","117","664900","0.0-4.0-2.0-0.0","spark_pilot_norest","11194","6","15","Female","","false","","","","","[1062.3999999985099,532.2000000029802]","./assets/img/canyon/memory/21.jpg","[""ArrowUp"",""ArrowRight""]","value training","canyon","10","{""ArrowUp,ArrowLeft"":23,""ArrowUp,ArrowRight"":10,""ArrowDown,ArrowLeft"":8,""ArrowDown,ArrowRight"":30}","false","ArrowUp,ArrowRight","false","revaluation","1","0","","",""
"html-keyboard-response","118","665404","0.0-4.0-2.0-1.0","spark_pilot_norest","11194","6","15","Female","","","","","","","null","<div style=""font-size:60px;"">+</div>","null","fixation","","","","","","","","","1","","",""
"revaluation","119","671410","0.0-4.0-2.0-0.1","spark_pilot_norest","11194","6","15","Female","","false","","","","","[544.8999999985099,526.8999999985099]","./assets/img/canyon/memory/27.jpg","[""ArrowDown"",""ArrowLeft""]","value training","canyon","8","{""ArrowUp,ArrowLeft"":23,""ArrowUp,ArrowRight"":10,""ArrowDown,ArrowLeft"":8,""ArrowDown,ArrowRight"":30}","false","ArrowDown,ArrowLeft","false","revaluation","1","2","","",""
"html-keyboard-response","120","671911","0.0-4.0-2.0-1.1","spark_pilot_norest","11194","6","15","Female","","","","","","","null","<div style=""font-size:60px;"">+</div>","null","fixation","","","","","","","","","3","","",""
"revaluation","121","677917","0.0-4.0-2.0-0.2","spark_pilot_norest","11194","6","15","Female","","false","","","","","[383.90000000596046,289]","./assets/img/canyon/memory/15.jpg","[""ArrowUp"",""ArrowLeft""]","value training","canyon","23","{""ArrowUp,ArrowLeft"":23,""ArrowUp,ArrowRight"":10,""ArrowDown,ArrowLeft"":8,""ArrowDown,ArrowRight"":30}","false","ArrowUp,ArrowLeft","false","revaluation","1","4","","",""
"html-keyboard-response","122","678418","0.0-4.0-2.0-1.2","spark_pilot_norest","11194","6","15","Female","","","","","","","null","<div style=""font-size:60px;"">+</div>","null","fixation","","","","","","","","","5","","",""
"revaluation","123","684424","0.0-4.0-2.0-0.3","spark_pilot_norest","11194","6","15","Female","","false","","","","","[455.8999999985099,777.0999999940395]","./assets/img/canyon/memory/9.jpg","[""ArrowDown"",""ArrowRight""]","value training","canyon","30","{""ArrowUp,ArrowLeft"":23,""ArrowUp,ArrowRight"":10,""ArrowDown,ArrowLeft"":8,""ArrowDown,ArrowRight"":30}","true","ArrowDown,ArrowRight","false","revaluation","1","6","","",""
"html-keyboard-response","124","684925","0.0-4.0-2.0-1.3","spark_pilot_norest","11194","6","15","Female","","","","","","","null","<div style=""font-size:60px;"">+</div>","null","fixation","","","","","","","","","7","","",""
"revaluation","125","690931","0.0-4.0-2.0-0.4","spark_pilot_norest","11194","6","15","Female","","false","","","","","[1026.8000000044703,311.5]","./assets/img/canyon/memory/34.jpg","[""ArrowUp"",""ArrowLeft""]","value training","canyon","23","{""ArrowUp,ArrowLeft"":23,""ArrowUp,ArrowRight"":10,""ArrowDown,ArrowLeft"":8,""ArrowDown,ArrowRight"":30}","false","ArrowUp,ArrowLeft","false","revaluation","1","8","","",""
"html-keyboard-response","126","691434","0.0-4.0-2.0-1.4","spark_pilot_norest","11194","6","15","Female","","","","","","","null","<div style=""font-size:60px;"">+</div>","null","fixation","","","","","","","","","9","","",""
"revaluation","127","697445","0.0-4.0-2.0-0.5","spark_pilot_norest","11194","6","15","Female","","false","","","","","[670.5,388.6000000014901]","./assets/img/canyon/memory/14.jpg","[""ArrowDown"",""ArrowRight""]","value training","canyon","30","{""ArrowUp,ArrowLeft"":23,""ArrowUp,ArrowRight"":10,""ArrowDown,ArrowLeft"":8,""ArrowDown,ArrowRight"":30}","true","ArrowDown,ArrowRight","false","revaluation","1","10","","",""
"html-keyboard-response","128","697947","0.0-4.0-2.0-1.5","spark_pilot_norest","11194","6","15","Female","","","","","","","null","<div style=""font-size:60px;"">+</div>","null","fixation","","","","","","","","","11","","",""
"revaluation","129","703958","0.0-4.0-2.0-0.6","spark_pilot_norest","11194","6","15","Female","","false","","","","","[972.4000000059605,350]","./assets/img/canyon/memory/11.jpg","[""ArrowDown"",""ArrowRight""]","value training","canyon","30","{""ArrowUp,ArrowLeft"":23,""ArrowUp,ArrowRight"":10,""ArrowDown,ArrowLeft"":8,""ArrowDown,ArrowRight"":30}","true","ArrowDown,ArrowRight","false","revaluation","1","12","","",""
"html-keyboard-response","130","704460","0.0-4.0-2.0-1.6","spark_pilot_norest","11194","6","15","Female","","","","","","","null","<div style=""font-size:60px;"">+</div>","null","fixation","","","","","","","","","13","","",""
"revaluation","131","710470","0.0-4.0-2.0-0.7","spark_pilot_norest","11194","6","15","Female","","false","","","","","[236.20000000298023,432.29999999701977]","./assets/img/canyon/memory/30.jpg","[""ArrowDown"",""ArrowRight""]","value training","canyon","30","{""ArrowUp,ArrowLeft"":23,""ArrowUp,ArrowRight"":10,""ArrowDown,ArrowLeft"":8,""ArrowDown,ArrowRight"":30}","true","ArrowDown,ArrowRight","false","revaluation","1","14","","",""
"html-keyboard-response","132","710972","0.0-4.0-2.0-1.7","spark_pilot_norest","11194","6","15","Female","","","","","","","null","<div style=""font-size:60px;"">+</div>","null","fixation","","","","","","","","","15","","",""
"revaluation","133","716988","0.0-4.0-2.0-0.8","spark_pilot_norest","11194","6","15","Female","","false","","","","","[986.4000000059605,529.7000000029802]","./assets/img/canyon/memory/37.jpg","[""ArrowDown"",""ArrowRight""]","value training","canyon","30","{""ArrowUp,ArrowLeft"":23,""ArrowUp,ArrowRight"":10,""ArrowDown,ArrowLeft"":8,""ArrowDown,ArrowRight"":30}","true","ArrowDown,ArrowRight","false","revaluation","1","16","","",""
"html-keyboard-response","134","717491","0.0-4.0-2.0-1.8","spark_pilot_norest","11194","6","15","Female","","","","","","","null","<div style=""font-size:60px;"">+</div>","null","fixation","","","","","","","","","17","","",""
"revaluation","135","721502","0.0-4.0-2.0-0.9","spark_pilot_norest","11194","6","15","Female","","false","","","","","[864.2000000029802]","./assets/img/canyon/catch/1.jpg","[""spaceBar""]","value training","canyon","0","{""ArrowUp,ArrowLeft"":23,""ArrowUp,ArrowRight"":10,""ArrowDown,ArrowLeft"":8,""ArrowDown,ArrowRight"":30}","true","spaceBar","true","revaluation","1","18","","",""
"html-keyboard-response","136","722004","0.0-4.0-2.0-1.9","spark_pilot_norest","11194","6","15","Female","","","","","","","null","<div style=""font-size:60px;"">+</div>","null","fixation","","","","","","","","","19","","",""
"revaluation","137","728018","0.0-4.0-2.0-0.10","spark_pilot_norest","11194","6","15","Female","","false","","","","","[1125.6000000014901,557.7999999970198]","./assets/img/canyon/memory/16.jpg","[""ArrowDown"",""ArrowRight""]","value training","canyon","30","{""ArrowUp,ArrowLeft"":23,""ArrowUp,ArrowRight"":10,""ArrowDown,ArrowLeft"":8,""ArrowDown,ArrowRight"":30}","true","ArrowDown,ArrowRight","false","revaluation","1","20","","",""
"html-keyboard-response","138","728521","0.0-4.0-2.0-1.10","spark_pilot_norest","11194","6","15","Female","","","","","","","null","<div style=""font-size:60px;"">+</div>","null","fixation","","","","","","","","","21","","",""
"revaluation","139","734532","0.0-4.0-2.0-0.11","spark_pilot_norest","11194","6","15","Female","","false","","","","","[471.6000000014901,932.7999999970198]","./assets/img/canyon/memory/5.jpg","[""ArrowDown"",""ArrowRight""]","value training","canyon","30","{""ArrowUp,ArrowLeft"":23,""ArrowUp,ArrowRight"":10,""ArrowDown,ArrowLeft"":8,""ArrowDown,ArrowRight"":30}","true","ArrowDown,ArrowRight","false","revaluation","1","22","","",""
"html-keyboard-response","140","735034","0.0-4.0-2.0-1.11","spark_pilot_norest","11194","6","15","Female","","","","","","","null","<div style=""font-size:60px;"">+</div>","null","fixation","","","","","","","","","23","","",""
"revaluation","141","741041","0.0-4.0-2.0-0.12","spark_pilot_norest","11194","6","15","Female","","true","","","","","[1360.6999999955297]","./assets/img/canyon/memory/39.jpg","[""ArrowDown""]","value training","canyon","-5","{""ArrowUp,ArrowLeft"":23,""ArrowUp,ArrowRight"":10,""ArrowDown,ArrowLeft"":8,""ArrowDown,ArrowRight"":30}","false","ArrowDown","false","revaluation","1","24","","",""
"html-keyboard-response","142","741543","0.0-4.0-2.0-1.12","spark_pilot_norest","11194","6","15","Female","","","","","","","null","<div style=""font-size:60px;"">+</div>","null","fixation","","","","","","","","","25","","",""
"revaluation","143","745555","0.0-4.0-2.0-0.13","spark_pilot_norest","11194","6","15","Female","","false","","","","","[671.8000000044703]","./assets/img/canyon/catch/4.jpg","[""spaceBar""]","value training","canyon","0","{""ArrowUp,ArrowLeft"":23,""ArrowUp,ArrowRight"":10,""ArrowDown,ArrowLeft"":8,""ArrowDown,ArrowRight"":30}","true","spaceBar","true","revaluation","1","26","","",""
"html-keyboard-response","144","746058","0.0-4.0-2.0-1.13","spark_pilot_norest","11194","6","15","Female","","","","","","","null","<div style=""font-size:60px;"">+</div>","null","fixation","","","","","","","","","27","","",""
"revaluation","145","750069","0.0-4.0-2.0-0.14","spark_pilot_norest","11194","6","15","Female","","false","","","","","[640.2999999970198]","./assets/img/canyon/catch/7.jpg","[""spaceBar""]","value training","canyon","0","{""ArrowUp,ArrowLeft"":23,""ArrowUp,ArrowRight"":10,""ArrowDown,ArrowLeft"":8,""ArrowDown,ArrowRight"":30}","true","spaceBar","true","revaluation","1","28","","",""
"html-keyboard-response","146","750571","0.0-4.0-2.0-1.14","spark_pilot_norest","11194","6","15","Female","","","","","","","null","<div style=""font-size:60px;"">+</div>","null","fixation","","","","","","","","","29","","",""
"revaluation","147","756579","0.0-4.0-2.0-0.15","spark_pilot_norest","11194","6","15","Female","","false","","","","","[1046.8999999985099,512.8999999985099]","./assets/img/canyon/memory/25.jpg","[""ArrowDown"",""ArrowRight""]","value training","canyon","30","{""ArrowUp,ArrowLeft"":23,""ArrowUp,ArrowRight"":10,""ArrowDown,ArrowLeft"":8,""ArrowDown,ArrowRight"":30}","true","ArrowDown,ArrowRight","false","revaluation","1","30","","",""
"html-keyboard-response","148","757081","0.0-4.0-2.0-1.15","spark_pilot_norest","11194","6","15","Female","","","","","","","null","<div style=""font-size:60px;"">+</div>","null","fixation","","","","","","","","","31","","",""
"revaluation","149","763088","0.0-4.0-2.0-0.16","spark_pilot_norest","11194","6","15","Female","","false","","","","","[826.7000000029802,627.3000000044703]","./assets/img/canyon/memory/41.jpg","[""ArrowDown"",""ArrowRight""]","value training","canyon","30","{""ArrowUp,ArrowLeft"":23,""ArrowUp,ArrowRight"":10,""ArrowDown,ArrowLeft"":8,""ArrowDown,ArrowRight"":30}","true","ArrowDown,ArrowRight","false","revaluation","1","32","","",""
"html-keyboard-response","150","763593","0.0-4.0-2.0-1.16","spark_pilot_norest","11194","6","15","Female","","","","","","","null","<div style=""font-size:60px;"">+</div>","null","fixation","","","","","","","","","33","","",""
"revaluation","151","769598","0.0-4.0-2.0-0.17","spark_pilot_norest","11194","6","15","Female","","false","","","","","[727.2000000029802,817.8000000044703]","./assets/img/canyon/memory/11.jpg","[""ArrowDown"",""ArrowRight""]","value training","canyon","30","{""ArrowUp,ArrowLeft"":23,""ArrowUp,ArrowRight"":10,""ArrowDown,ArrowLeft"":8,""ArrowDown,ArrowRight"":30}","true","ArrowDown,ArrowRight","false","revaluation","1","34","","",""
"html-keyboard-response","152","770100","0.0-4.0-2.0-1.17","spark_pilot_norest","11194","6","15","Female","","","","","","","null","<div style=""font-size:60px;"">+</div>","null","fixation","","","","","","","","","35","","",""
"revaluation","153","776107","0.0-4.0-2.0-0.18","spark_pilot_norest","11194","6","15","Female","","false","","","","","[793.6000000014901,627]","./assets/img/canyon/memory/21.jpg","[""ArrowDown"",""ArrowRight""]","value training","canyon","30","{""ArrowUp,ArrowLeft"":23,""ArrowUp,ArrowRight"":10,""ArrowDown,ArrowLeft"":8,""ArrowDown,ArrowRight"":30}","true","ArrowDown,ArrowRight","false","revaluation","1","36","","",""
"html-keyboard-response","154","776609","0.0-4.0-2.0-1.18","spark_pilot_norest","11194","6","15","Female","","","","","","","null","<div style=""font-size:60px;"">+</div>","null","fixation","","","","","","","","","37","","",""
"revaluation","155","782620","0.0-4.0-2.0-0.19","spark_pilot_norest","11194","6","15","Female","","false","","","","","[489,472.6000000014901]","./assets/img/canyon/memory/9.jpg","[""ArrowDown"",""ArrowRight""]","value training","canyon","30","{""ArrowUp,ArrowLeft"":23,""ArrowUp,ArrowRight"":10,""ArrowDown,ArrowLeft"":8,""ArrowDown,ArrowRight"":30}","true","ArrowDown,ArrowRight","false","revaluation","1","38","","",""
"html-keyboard-response","156","783121","0.0-4.0-2.0-1.19","spark_pilot_norest","11194","6","15","Female","","","","","","","null","<div style=""font-size:60px;"">+</div>","null","fixation","","","","","","","","","39","","",""
"revaluation","157","787127","0.0-4.0-2.0-0.20","spark_pilot_norest","11194","6","15","Female","","false","","","","","[556]","./assets/img/canyon/catch/5.jpg","[""spaceBar""]","value training","canyon","0","{""ArrowUp,ArrowLeft"":23,""ArrowUp,ArrowRight"":10,""ArrowDown,ArrowLeft"":8,""ArrowDown,ArrowRight"":30}","true","spaceBar","true","revaluation","1","40","","",""
"html-keyboard-response","158","787629","0.0-4.0-2.0-1.20","spark_pilot_norest","11194","6","15","Female","","","","","","","null","<div style=""font-size:60px;"">+</div>","null","fixation","","","","","","","","","41","","",""
"revaluation","159","793640","0.0-4.0-2.0-0.21","spark_pilot_norest","11194","6","15","Female","","false","","","","","[484.1000000014901,463.8999999985099]","./assets/img/canyon/memory/13.jpg","[""ArrowDown"",""ArrowRight""]","value training","canyon","30","{""ArrowUp,ArrowLeft"":23,""ArrowUp,ArrowRight"":10,""ArrowDown,ArrowLeft"":8,""ArrowDown,ArrowRight"":30}","true","ArrowDown,ArrowRight","false","revaluation","1","42","","",""
"html-keyboard-response","160","794142","0.0-4.0-2.0-1.21","spark_pilot_norest","11194","6","15","Female","","","","","","","null","<div style=""font-size:60px;"">+</div>","null","fixation","","","","","","","","","43","","",""
"revaluation","161","800153","0.0-4.0-2.0-0.22","spark_pilot_norest","11194","6","15","Female","","false","","","","","[599.6000000014901,427.19999999552965]","./assets/img/canyon/memory/16.jpg","[""ArrowDown"",""ArrowRight""]","value training","canyon","30","{""ArrowUp,ArrowLeft"":23,""ArrowUp,ArrowRight"":10,""ArrowDown,ArrowLeft"":8,""ArrowDown,ArrowRight"":30}","true","ArrowDown,ArrowRight","false","revaluation","1","44","","",""
"html-keyboard-response","162","800655","0.0-4.0-2.0-1.22","spark_pilot_norest","11194","6","15","Female","","","","","","","null","<div style=""font-size:60px;"">+</div>","null","fixation","","","","","","","","","45","","",""
"revaluation","163","806664","0.0-4.0-2.0-0.23","spark_pilot_norest","11194","6","15","Female","","false","","","","","[784.7000000029802,542.7000000029802]","./assets/img/canyon/memory/25.jpg","[""ArrowDown"",""ArrowRight""]","value training","canyon","30","{""ArrowUp,ArrowLeft"":23,""ArrowUp,ArrowRight"":10,""ArrowDown,ArrowLeft"":8,""ArrowDown,ArrowRight"":30}","true","ArrowDown,ArrowRight","false","revaluation","1","46","","",""
"html-keyboard-response","164","807166","0.0-4.0-2.0-1.23","spark_pilot_norest","11194","6","15","Female","","","","","","","null","<div style=""font-size:60px;"">+</div>","null","fixation","","","","","","","","","47","","",""
"revaluation","165","813182","0.0-4.0-2.0-0.24","spark_pilot_norest","11194","6","15","Female","","false","","","","","[488.30000000447035,664.1000000014901]","./assets/img/canyon/memory/41.jpg","[""ArrowDown"",""ArrowRight""]","value training","canyon","30","{""ArrowUp,ArrowLeft"":23,""ArrowUp,ArrowRight"":10,""ArrowDown,ArrowLeft"":8,""ArrowDown,ArrowRight"":30}","true","ArrowDown,ArrowRight","false","revaluation","1","48","","",""
"html-keyboard-response","166","813685","0.0-4.0-2.0-1.24","spark_pilot_norest","11194","6","15","Female","","","","","","","null","<div style=""font-size:60px;"">+</div>","null","fixation","","","","","","","","","49","","",""
"revaluation","167","817701","0.0-4.0-2.0-0.25","spark_pilot_norest","11194","6","15","Female","","false","","","","","[675.2999999970198]","./assets/img/canyon/catch/0.jpg","[""spaceBar""]","value training","canyon","0","{""ArrowUp,ArrowLeft"":23,""ArrowUp,ArrowRight"":10,""ArrowDown,ArrowLeft"":8,""ArrowDown,ArrowRight"":30}","true","spaceBar","true","revaluation","1","50","","",""
"html-keyboard-response","168","818204","0.0-4.0-2.0-1.25","spark_pilot_norest","11194","6","15","Female","","","","","","","null","<div style=""font-size:60px;"">+</div>","null","fixation","","","","","","","","","51","","",""
"revaluation","169","824216","0.0-4.0-2.0-0.26","spark_pilot_norest","11194","6","15","Female","","false","","","","","[1794.3999999985099,516.1000000014901]","./assets/img/canyon/memory/12.jpg","[""ArrowDown"",""ArrowRight""]","value training","canyon","30","{""ArrowUp,ArrowLeft"":23,""ArrowUp,ArrowRight"":10,""ArrowDown,ArrowLeft"":8,""ArrowDown,ArrowRight"":30}","true","ArrowDown,ArrowRight","false","revaluation","1","52","","",""
"html-keyboard-response","170","824719","0.0-4.0-2.0-1.26","spark_pilot_norest","11194","6","15","Female","","","","","","","null","<div style=""font-size:60px;"">+</div>","null","fixation","","","","","","","","","53","","",""
"revaluation","171","830731","0.0-4.0-2.0-0.27","spark_pilot_norest","11194","6","15","Female","","false","","","","","[481.5,442.6000000014901]","./assets/img/canyon/memory/5.jpg","[""ArrowDown"",""ArrowRight""]","value training","canyon","30","{""ArrowUp,ArrowLeft"":23,""ArrowUp,ArrowRight"":10,""ArrowDown,ArrowLeft"":8,""ArrowDown,ArrowRight"":30}","true","ArrowDown,ArrowRight","false","revaluation","1","54","","",""
"html-keyboard-response","172","831233","0.0-4.0-2.0-1.27","spark_pilot_norest","11194","6","15","Female","","","","","","","null","<div style=""font-size:60px;"">+</div>","null","fixation","","","","","","","","","55","","",""
"revaluation","173","837253","0.0-4.0-2.0-0.28","spark_pilot_norest","11194","6","15","Female","","false","","","","","[925.7999999970198,737.2999999970198]","./assets/img/canyon/memory/27.jpg","[""ArrowDown"",""ArrowRight""]","value training","canyon","30","{""ArrowUp,ArrowLeft"":23,""ArrowUp,ArrowRight"":10,""ArrowDown,ArrowLeft"":8,""ArrowDown,ArrowRight"":30}","true","ArrowDown,ArrowRight","false","revaluation","1","56","","",""
"html-keyboard-response","174","837755","0.0-4.0-2.0-1.28","spark_pilot_norest","11194","6","15","Female","","","","","","","null","<div style=""font-size:60px;"">+</div>","null","fixation","","","","","","","","","57","","",""
"revaluation","175","841770","0.0-4.0-2.0-0.29","spark_pilot_norest","11194","6","15","Female","","false","","","","","[425.1000000014901]","./assets/img/canyon/catch/6.jpg","[""spaceBar""]","value training","canyon","0","{""ArrowUp,ArrowLeft"":23,""ArrowUp,ArrowRight"":10,""ArrowDown,ArrowLeft"":8,""ArrowDown,ArrowRight"":30}","true","spaceBar","true","revaluation","1","58","","",""
"html-keyboard-response","176","842273","0.0-4.0-2.0-1.29","spark_pilot_norest","11194","6","15","Female","","","","","","","null","<div style=""font-size:60px;"">+</div>","null","fixation","","","","","","","","","59","","",""
"revaluation","177","848284","0.0-4.0-2.0-0.30","spark_pilot_norest","11194","6","15","Female","","false","","","","","[753.7999999970198,382.79999999701977]","./assets/img/canyon/memory/7.jpg","[""ArrowDown"",""ArrowRight""]","value training","canyon","30","{""ArrowUp,ArrowLeft"":23,""ArrowUp,ArrowRight"":10,""ArrowDown,ArrowLeft"":8,""ArrowDown,ArrowRight"":30}","true","ArrowDown,ArrowRight","false","revaluation","1","60","","",""
"html-keyboard-response","178","848786","0.0-4.0-2.0-1.30","spark_pilot_norest","11194","6","15","Female","","","","","","","null","<div style=""font-size:60px;"">+</div>","null","fixation","","","","","","","","","61","","",""
"revaluation","179","854796","0.0-4.0-2.0-0.31","spark_pilot_norest","11194","6","15","Female","","false","","","","","[719.8999999985099,664.1999999955297]","./assets/img/canyon/memory/39.jpg","[""ArrowDown"",""ArrowRight""]","value training","canyon","30","{""ArrowUp,ArrowLeft"":23,""ArrowUp,ArrowRight"":10,""ArrowDown,ArrowLeft"":8,""ArrowDown,ArrowRight"":30}","true","ArrowDown,ArrowRight","false","revaluation","1","62","","",""
"html-keyboard-response","180","855298","0.0-4.0-2.0-1.31","spark_pilot_norest","11194","6","15","Female","","","","","","","null","<div style=""font-size:60px;"">+</div>","null","fixation","","","","","","","","","63","","",""
"revaluation","181","861305","0.0-4.0-2.0-0.32","spark_pilot_norest","11194","6","15","Female","","false","","","","","[1227.7000000029802,513.8999999985099]","./assets/img/canyon/memory/29.jpg","[""ArrowDown"",""ArrowRight""]","value training","canyon","30","{""ArrowUp,ArrowLeft"":23,""ArrowUp,ArrowRight"":10,""ArrowDown,ArrowLeft"":8,""ArrowDown,ArrowRight"":30}","true","ArrowDown,ArrowRight","false","revaluation","1","64","","",""
"html-keyboard-response","182","861807","0.0-4.0-2.0-1.32","spark_pilot_norest","11194","6","15","Female","","","","","","","null","<div style=""font-size:60px;"">+</div>","null","fixation","","","","","","","","","65","","",""
"revaluation","183","867818","0.0-4.0-2.0-0.33","spark_pilot_norest","11194","6","15","Female","","false","","","","","[552.9000000059605,514]","./assets/img/canyon/memory/0.jpg","[""ArrowDown"",""ArrowRight""]","value training","canyon","30","{""ArrowUp,ArrowLeft"":23,""ArrowUp,ArrowRight"":10,""ArrowDown,ArrowLeft"":8,""ArrowDown,ArrowRight"":30}","true","ArrowDown,ArrowRight","false","revaluation","1","66","","",""
"html-keyboard-response","184","868320","0.0-4.0-2.0-1.33","spark_pilot_norest","11194","6","15","Female","","","","","","","null","<div style=""font-size:60px;"">+</div>","null","fixation","","","","","","","","","67","","",""
"revaluation","185","874326","0.0-4.0-2.0-0.34","spark_pilot_norest","11194","6","15","Female","","false","","","","","[450.80000000447035,643.7000000029802]","./assets/img/canyon/memory/7.jpg","[""ArrowDown"",""ArrowRight""]","value training","canyon","30","{""ArrowUp,ArrowLeft"":23,""ArrowUp,ArrowRight"":10,""ArrowDown,ArrowLeft"":8,""ArrowDown,ArrowRight"":30}","true","ArrowDown,ArrowRight","false","revaluation","1","68","","",""
"html-keyboard-response","186","874828","0.0-4.0-2.0-1.34","spark_pilot_norest","11194","6","15","Female","","","","","","","null","<div style=""font-size:60px;"">+</div>","null","fixation","","","","","","","","","69","","",""
"revaluation","187","880839","0.0-4.0-2.0-0.35","spark_pilot_norest","11194","6","15","Female","","false","","","","","[1020.7999999970198,993.7999999970198]","./assets/img/canyon/memory/37.jpg","[""ArrowDown"",""ArrowRight""]","value training","canyon","30","{""ArrowUp,ArrowLeft"":23,""ArrowUp,ArrowRight"":10,""ArrowDown,ArrowLeft"":8,""ArrowDown,ArrowRight"":30}","true","ArrowDown,ArrowRight","false","revaluation","1","70","","",""
"html-keyboard-response","188","881341","0.0-4.0-2.0-1.35","spark_pilot_norest","11194","6","15","Female","","","","","","","null","<div style=""font-size:60px;"">+</div>","null","fixation","","","","","","","","","71","","",""
"revaluation","189","887346","0.0-4.0-2.0-0.36","spark_pilot_norest","11194","6","15","Female","","false","","","","","[558.9000000059605,253.89999999850988]","./assets/img/canyon/memory/12.jpg","[""ArrowDown"",""ArrowRight""]","value training","canyon","30","{""ArrowUp,ArrowLeft"":23,""ArrowUp,ArrowRight"":10,""ArrowDown,ArrowLeft"":8,""ArrowDown,ArrowRight"":30}","true","ArrowDown,ArrowRight","false","revaluation","1","72","","",""
"html-keyboard-response","190","887848","0.0-4.0-2.0-1.36","spark_pilot_norest","11194","6","15","Female","","","","","","","null","<div style=""font-size:60px;"">+</div>","null","fixation","","","","","","","","","73","","",""
"revaluation","191","893860","0.0-4.0-2.0-0.37","spark_pilot_norest","11194","6","15","Female","","false","","","","","[753.3999999985099,938.4000000059605]","./assets/img/canyon/memory/24.jpg","[""ArrowDown"",""ArrowRight""]","value training","canyon","30","{""ArrowUp,ArrowLeft"":23,""ArrowUp,ArrowRight"":10,""ArrowDown,ArrowLeft"":8,""ArrowDown,ArrowRight"":30}","true","ArrowDown,ArrowRight","false","revaluation","1","74","","",""
"html-keyboard-response","192","894362","0.0-4.0-2.0-1.37","spark_pilot_norest","11194","6","15","Female","","","","","","","null","<div style=""font-size:60px;"">+</div>","null","fixation","","","","","","","","","75","","",""
"revaluation","193","898368","0.0-4.0-2.0-0.38","spark_pilot_norest","11194","6","15","Female","","false","","","","","[669.3000000044703]","./assets/img/canyon/catch/3.jpg","[""spaceBar""]","value training","canyon","0","{""ArrowUp,ArrowLeft"":23,""ArrowUp,ArrowRight"":10,""ArrowDown,ArrowLeft"":8,""ArrowDown,ArrowRight"":30}","true","spaceBar","true","revaluation","1","76","","",""
"html-keyboard-response","194","898870","0.0-4.0-2.0-1.38","spark_pilot_norest","11194","6","15","Female","","","","","","","null","<div style=""font-size:60px;"">+</div>","null","fixation","","","","","","","","","77","","",""
"revaluation","195","904882","0.0-4.0-2.0-0.39","spark_pilot_norest","11194","6","15","Female","","false","","","","","[642.2999999970198,864]","./assets/img/canyon/memory/15.jpg","[""ArrowDown"",""ArrowRight""]","value training","canyon","30","{""ArrowUp,ArrowLeft"":23,""ArrowUp,ArrowRight"":10,""ArrowDown,ArrowLeft"":8,""ArrowDown,ArrowRight"":30}","true","ArrowDown,ArrowRight","false","revaluation","1","78","","",""
"html-keyboard-response","196","905385","0.0-4.0-2.0-1.39","spark_pilot_norest","11194","6","15","Female","","","","","","","null","<div style=""font-size:60px;"">+</div>","null","fixation","","","","","","","","","79","","",""
"revaluation","197","911396","0.0-4.0-2.0-0.40","spark_pilot_norest","11194","6","15","Female","","false","","","","","[498.29999999701977,380.1000000014901]","./assets/img/canyon/memory/24.jpg","[""ArrowDown"",""ArrowRight""]","value training","canyon","30","{""ArrowUp,ArrowLeft"":23,""ArrowUp,ArrowRight"":10,""ArrowDown,ArrowLeft"":8,""ArrowDown,ArrowRight"":30}","true","ArrowDown,ArrowRight","false","revaluation","1","80","","",""
"html-keyboard-response","198","911897","0.0-4.0-2.0-1.40","spark_pilot_norest","11194","6","15","Female","","","","","","","null","<div style=""font-size:60px;"">+</div>","null","fixation","","","","","","","","","81","","",""
"revaluation","199","915902","0.0-4.0-2.0-0.41","spark_pilot_norest","11194","6","15","Female","","false","","","","","[564.5]","./assets/img/canyon/catch/2.jpg","[""spaceBar""]","value training","canyon","0","{""ArrowUp,ArrowLeft"":23,""ArrowUp,ArrowRight"":10,""ArrowDown,ArrowLeft"":8,""ArrowDown,ArrowRight"":30}","true","spaceBar","true","revaluation","1","82","","",""
"html-keyboard-response","200","916405","0.0-4.0-2.0-1.41","spark_pilot_norest","11194","6","15","Female","","","","","","","null","<div style=""font-size:60px;"">+</div>","null","fixation","","","","","","","","","83","","",""
"revaluation","201","922415","0.0-4.0-2.0-0.42","spark_pilot_norest","11194","6","15","Female","","false","","","","","[650.2000000029802,589.6000000014901]","./assets/img/canyon/memory/13.jpg","[""ArrowDown"",""ArrowRight""]","value training","canyon","30","{""ArrowUp,ArrowLeft"":23,""ArrowUp,ArrowRight"":10,""ArrowDown,ArrowLeft"":8,""ArrowDown,ArrowRight"":30}","true","ArrowDown,ArrowRight","false","revaluation","1","84","","",""
"html-keyboard-response","202","922917","0.0-4.0-2.0-1.42","spark_pilot_norest","11194","6","15","Female","","","","","","","null","<div style=""font-size:60px;"">+</div>","null","fixation","","","","","","","","","85","","",""
"revaluation","203","928929","0.0-4.0-2.0-0.43","spark_pilot_norest","11194","6","15","Female","","false","","","","","[438.5,1042.5]","./assets/img/canyon/memory/29.jpg","[""ArrowDown"",""ArrowRight""]","value training","canyon","30","{""ArrowUp,ArrowLeft"":23,""ArrowUp,ArrowRight"":10,""ArrowDown,ArrowLeft"":8,""ArrowDown,ArrowRight"":30}","true","ArrowDown,ArrowRight","false","revaluation","1","86","","",""
"html-keyboard-response","204","929431","0.0-4.0-2.0-1.43","spark_pilot_norest","11194","6","15","Female","","","","","","","null","<div style=""font-size:60px;"">+</div>","null","fixation","","","","","","","","","87","","",""
"revaluation","205","935441","0.0-4.0-2.0-0.44","spark_pilot_norest","11194","6","15","Female","","false","","","","","[797.1000000014901,404]","./assets/img/canyon/memory/34.jpg","[""ArrowDown"",""ArrowRight""]","value training","canyon","30","{""ArrowUp,ArrowLeft"":23,""ArrowUp,ArrowRight"":10,""ArrowDown,ArrowLeft"":8,""ArrowDown,ArrowRight"":30}","true","ArrowDown,ArrowRight","false","revaluation","1","88","","",""
"html-keyboard-response","206","935943","0.0-4.0-2.0-1.44","spark_pilot_norest","11194","6","15","Female","","","","","","","null","<div style=""font-size:60px;"">+</div>","null","fixation","","","","","","","","","89","","",""
"revaluation","207","941955","0.0-4.0-2.0-0.45","spark_pilot_norest","11194","6","15","Female","","false","","","","","[592.8999999985099,1149.8999999985099]","./assets/img/canyon/memory/0.jpg","[""ArrowDown"",""ArrowRight""]","value training","canyon","30","{""ArrowUp,ArrowLeft"":23,""ArrowUp,ArrowRight"":10,""ArrowDown,ArrowLeft"":8,""ArrowDown,ArrowRight"":30}","true","ArrowDown,ArrowRight","false","revaluation","1","90","","",""
"html-keyboard-response","208","942457","0.0-4.0-2.0-1.45","spark_pilot_norest","11194","6","15","Female","","","","","","","null","<div style=""font-size:60px;"">+</div>","null","fixation","","","","","","","","","91","","",""
"revaluation","209","948478","0.0-4.0-2.0-0.46","spark_pilot_norest","11194","6","15","Female","","false","","","","","[478.5,773.8999999985099]","./assets/img/canyon/memory/30.jpg","[""ArrowDown"",""ArrowRight""]","value training","canyon","30","{""ArrowUp,ArrowLeft"":23,""ArrowUp,ArrowRight"":10,""ArrowDown,ArrowLeft"":8,""ArrowDown,ArrowRight"":30}","true","ArrowDown,ArrowRight","false","revaluation","1","92","","",""
"html-keyboard-response","210","948980","0.0-4.0-2.0-1.46","spark_pilot_norest","11194","6","15","Female","","","","","","","null","<div style=""font-size:60px;"">+</div>","null","fixation","","","","","","","","","93","","",""
"revaluation","211","954991","0.0-4.0-2.0-0.47","spark_pilot_norest","11194","6","15","Female","","false","","","","","[335.59999999403954,591.6000000014901]","./assets/img/canyon/memory/10.jpg","[""ArrowDown"",""ArrowRight""]","value training","canyon","30","{""ArrowUp,ArrowLeft"":23,""ArrowUp,ArrowRight"":10,""ArrowDown,ArrowLeft"":8,""ArrowDown,ArrowRight"":30}","true","ArrowDown,ArrowRight","false","revaluation","1","94","","",""
"html-keyboard-response","212","955493","0.0-4.0-2.0-1.47","spark_pilot_norest","11194","6","15","Female","","","","","","","null","<div style=""font-size:60px;"">+</div>","null","fixation","","","","","","","","","95","","",""
"revaluation","213","961504","0.0-4.0-2.0-0.48","spark_pilot_norest","11194","6","15","Female","","false","","","","","[480.80000000447035,543.3999999985099]","./assets/img/canyon/memory/10.jpg","[""ArrowDown"",""ArrowRight""]","value training","canyon","30","{""ArrowUp,ArrowLeft"":23,""ArrowUp,ArrowRight"":10,""ArrowDown,ArrowLeft"":8,""ArrowDown,ArrowRight"":30}","true","ArrowDown,ArrowRight","false","revaluation","1","96","","",""
"html-keyboard-response","214","962006","0.0-4.0-2.0-1.48","spark_pilot_norest","11194","6","15","Female","","","","","","","null","<div style=""font-size:60px;"">+</div>","null","fixation","","","","","","","","","97","","",""
"revaluation","215","968012","0.0-4.0-2.0-0.49","spark_pilot_norest","11194","6","15","Female","","false","","","","","[536.6000000014901,625.6000000014901]","./assets/img/canyon/memory/14.jpg","[""ArrowDown"",""ArrowRight""]","value training","canyon","30","{""ArrowUp,ArrowLeft"":23,""ArrowUp,ArrowRight"":10,""ArrowDown,ArrowLeft"":8,""ArrowDown,ArrowRight"":30}","true","ArrowDown,ArrowRight","false","revaluation","1","98","","",""
"html-keyboard-response","216","968514","0.0-4.0-2.0-1.49","spark_pilot_norest","11194","6","15","Female","","","","","","","null","<div style=""font-size:60px;"">+</div>","null","fixation","","","","","","","","","99","","",""
"learning-instructions","217","983841","0.0-4.0-3.0-0.0","spark_pilot_norest","11194","6","15","Female","","","","","","","2375.7000000029802","<p> Now, you will travel with a friend who will choose whether you go up or down first. </p>
            <p> On these turns, you will just see the animal that they found. You will still get to choose which chest to search for treasure.</p>","","instructions","","","","","","","","","","","",""
"revaluation","218","987845","0.0-4.0-4.0-0.0","spark_pilot_norest","11194","6","15","Female","","false","","","","","[539.3999999985099]","./assets/img/canyon/animals/giraffe.jpg","[""ArrowRight""]","revaluation","canyon","7","{""ArrowUp,ArrowLeft"":27,""ArrowUp,ArrowRight"":15,""ArrowDown,ArrowLeft"":21,""ArrowDown,ArrowRight"":7}","false","ArrowDown,ArrowRight","","revaluation","1","0","","",""
"html-keyboard-response","219","988349","0.0-4.0-4.0-1.0","spark_pilot_norest","11194","6","15","Female","","","","","","","null","<div style=""font-size:60px;"">+</div>","null","fixation","","","","","","","","","1","","",""
"revaluation","220","992354","0.0-4.0-4.0-0.1","spark_pilot_norest","11194","6","15","Female","","false","","","","","[766.6999999955297]","./assets/img/canyon/animals/giraffe.jpg","[""ArrowLeft""]","revaluation","canyon","21","{""ArrowUp,ArrowLeft"":27,""ArrowUp,ArrowRight"":15,""ArrowDown,ArrowLeft"":21,""ArrowDown,ArrowRight"":7}","true","ArrowDown,ArrowLeft","","revaluation","1","2","","",""
"html-keyboard-response","221","992856","0.0-4.0-4.0-1.1","spark_pilot_norest","11194","6","15","Female","","","","","","","null","<div style=""font-size:60px;"">+</div>","null","fixation","","","","","","","","","3","","",""
"revaluation","222","996861","0.0-4.0-4.0-0.2","spark_pilot_norest","11194","6","15","Female","","false","","","","","[714.8000000044703]","./assets/img/canyon/animals/lion.jpg","[""ArrowLeft""]","revaluation","canyon","27","{""ArrowUp,ArrowLeft"":27,""ArrowUp,ArrowRight"":15,""ArrowDown,ArrowLeft"":21,""ArrowDown,ArrowRight"":7}","true","ArrowUp,ArrowLeft","","revaluation","1","4","","",""
"html-keyboard-response","223","997362","0.0-4.0-4.0-1.2","spark_pilot_norest","11194","6","15","Female","","","","","","","null","<div style=""font-size:60px;"">+</div>","null","fixation","","","","","","","","","5","","",""
"revaluation","224","1001366","0.0-4.0-4.0-0.3","spark_pilot_norest","11194","6","15","Female","","false","","","","","[481.6000000014901]","./assets/img/canyon/animals/lion.jpg","[""ArrowRight""]","revaluation","canyon","15","{""ArrowUp,ArrowLeft"":27,""ArrowUp,ArrowRight"":15,""ArrowDown,ArrowLeft"":21,""ArrowDown,ArrowRight"":7}","false","ArrowUp,ArrowRight","","revaluation","1","6","","",""
"html-keyboard-response","225","1001868","0.0-4.0-4.0-1.3","spark_pilot_norest","11194","6","15","Female","","","","","","","null","<div style=""font-size:60px;"">+</div>","null","fixation","","","","","","","","","7","","",""
"revaluation","226","1005873","0.0-4.0-4.0-0.4","spark_pilot_norest","11194","6","15","Female","","false","","","","","[727.7999999970198]","./assets/img/canyon/animals/lion.jpg","[""ArrowLeft""]","revaluation","canyon","27","{""ArrowUp,ArrowLeft"":27,""ArrowUp,ArrowRight"":15,""ArrowDown,ArrowLeft"":21,""ArrowDown,ArrowRight"":7}","true","ArrowUp,ArrowLeft","","revaluation","1","8","","",""
"html-keyboard-response","227","1006374","0.0-4.0-4.0-1.4","spark_pilot_norest","11194","6","15","Female","","","","","","","null","<div style=""font-size:60px;"">+</div>","null","fixation","","","","","","","","","9","","",""
"revaluation","228","1010383","0.0-4.0-4.0-0.5","spark_pilot_norest","11194","6","15","Female","","false","","","","","[503.1000000014901]","./assets/img/canyon/animals/lion.jpg","[""ArrowLeft""]","revaluation","canyon","27","{""ArrowUp,ArrowLeft"":27,""ArrowUp,ArrowRight"":15,""ArrowDown,ArrowLeft"":21,""ArrowDown,ArrowRight"":7}","true","ArrowUp,ArrowLeft","","revaluation","1","10","","",""
"html-keyboard-response","229","1010884","0.0-4.0-4.0-1.5","spark_pilot_norest","11194","6","15","Female","","","","","","","null","<div style=""font-size:60px;"">+</div>","null","fixation","","","","","","","","","11","","",""
"revaluation","230","1014892","0.0-4.0-4.0-0.6","spark_pilot_norest","11194","6","15","Female","","false","","","","","[551.8000000044703]","./assets/img/canyon/animals/giraffe.jpg","[""ArrowRight""]","revaluation","canyon","7","{""ArrowUp,ArrowLeft"":27,""ArrowUp,ArrowRight"":15,""ArrowDown,ArrowLeft"":21,""ArrowDown,ArrowRight"":7}","false","ArrowDown,ArrowRight","","revaluation","1","12","","",""
"html-keyboard-response","231","1015394","0.0-4.0-4.0-1.6","spark_pilot_norest","11194","6","15","Female","","","","","","","null","<div style=""font-size:60px;"">+</div>","null","fixation","","","","","","","","","13","","",""
"revaluation","232","1019405","0.0-4.0-4.0-0.7","spark_pilot_norest","11194","6","15","Female","","false","","","","","[333.40000000596046]","./assets/img/canyon/animals/giraffe.jpg","[""ArrowLeft""]","revaluation","canyon","21","{""ArrowUp,ArrowLeft"":27,""ArrowUp,ArrowRight"":15,""ArrowDown,ArrowLeft"":21,""ArrowDown,ArrowRight"":7}","true","ArrowDown,ArrowLeft","","revaluation","1","14","","",""
"html-keyboard-response","233","1019908","0.0-4.0-4.0-1.7","spark_pilot_norest","11194","6","15","Female","","","","","","","null","<div style=""font-size:60px;"">+</div>","null","fixation","","","","","","","","","15","","",""
"revaluation","234","1023924","0.0-4.0-4.0-0.8","spark_pilot_norest","11194","6","15","Female","","false","","","","","[344.5]","./assets/img/canyon/animals/giraffe.jpg","[""ArrowLeft""]","revaluation","canyon","21","{""ArrowUp,ArrowLeft"":27,""ArrowUp,ArrowRight"":15,""ArrowDown,ArrowLeft"":21,""ArrowDown,ArrowRight"":7}","true","ArrowDown,ArrowLeft","","revaluation","1","16","","",""
"html-keyboard-response","235","1024426","0.0-4.0-4.0-1.8","spark_pilot_norest","11194","6","15","Female","","","","","","","null","<div style=""font-size:60px;"">+</div>","null","fixation","","","","","","","","","17","","",""
"revaluation","236","1028434","0.0-4.0-4.0-0.9","spark_pilot_norest","11194","6","15","Female","","false","","","","","[719]","./assets/img/canyon/animals/lion.jpg","[""ArrowLeft""]","revaluation","canyon","27","{""ArrowUp,ArrowLeft"":27,""ArrowUp,ArrowRight"":15,""ArrowDown,ArrowLeft"":21,""ArrowDown,ArrowRight"":7}","true","ArrowUp,ArrowLeft","","revaluation","1","18","","",""
"html-keyboard-response","237","1028935","0.0-4.0-4.0-1.9","spark_pilot_norest","11194","6","15","Female","","","","","","","null","<div style=""font-size:60px;"">+</div>","null","fixation","","","","","","","","","19","","",""
"revaluation","238","1032945","0.0-4.0-4.0-0.10","spark_pilot_norest","11194","6","15","Female","","false","","","","","[506.59999999403954]","./assets/img/canyon/animals/giraffe.jpg","[""ArrowLeft""]","revaluation","canyon","21","{""ArrowUp,ArrowLeft"":27,""ArrowUp,ArrowRight"":15,""ArrowDown,ArrowLeft"":21,""ArrowDown,ArrowRight"":7}","true","ArrowDown,ArrowLeft","","revaluation","1","20","","",""
"html-keyboard-response","239","1033446","0.0-4.0-4.0-1.10","spark_pilot_norest","11194","6","15","Female","","","","","","","null","<div style=""font-size:60px;"">+</div>","null","fixation","","","","","","","","","21","","",""
"revaluation","240","1037457","0.0-4.0-4.0-0.11","spark_pilot_norest","11194","6","15","Female","","false","","","","","[826.2999999970198]","./assets/img/canyon/animals/giraffe.jpg","[""ArrowLeft""]","revaluation","canyon","21","{""ArrowUp,ArrowLeft"":27,""ArrowUp,ArrowRight"":15,""ArrowDown,ArrowLeft"":21,""ArrowDown,ArrowRight"":7}","true","ArrowDown,ArrowLeft","","revaluation","1","22","","",""
"html-keyboard-response","241","1037960","0.0-4.0-4.0-1.11","spark_pilot_norest","11194","6","15","Female","","","","","","","null","<div style=""font-size:60px;"">+</div>","null","fixation","","","","","","","","","23","","",""
"revaluation","242","1041970","0.0-4.0-4.0-0.12","spark_pilot_norest","11194","6","15","Female","","false","","","","","[528.9000000059605]","./assets/img/canyon/animals/giraffe.jpg","[""ArrowLeft""]","revaluation","canyon","21","{""ArrowUp,ArrowLeft"":27,""ArrowUp,ArrowRight"":15,""ArrowDown,ArrowLeft"":21,""ArrowDown,ArrowRight"":7}","true","ArrowDown,ArrowLeft","","revaluation","1","24","","",""
"html-keyboard-response","243","1042472","0.0-4.0-4.0-1.12","spark_pilot_norest","11194","6","15","Female","","","","","","","null","<div style=""font-size:60px;"">+</div>","null","fixation","","","","","","","","","25","","",""
"revaluation","244","1046485","0.0-4.0-4.0-0.13","spark_pilot_norest","11194","6","15","Female","","false","","","","","[590.6000000014901]","./assets/img/canyon/animals/lion.jpg","[""ArrowLeft""]","revaluation","canyon","27","{""ArrowUp,ArrowLeft"":27,""ArrowUp,ArrowRight"":15,""ArrowDown,ArrowLeft"":21,""ArrowDown,ArrowRight"":7}","true","ArrowUp,ArrowLeft","","revaluation","1","26","","",""
"html-keyboard-response","245","1046987","0.0-4.0-4.0-1.13","spark_pilot_norest","11194","6","15","Female","","","","","","","null","<div style=""font-size:60px;"">+</div>","null","fixation","","","","","","","","","27","","",""
"revaluation","246","1050998","0.0-4.0-4.0-0.14","spark_pilot_norest","11194","6","15","Female","","false","","","","","[403.69999999552965]","./assets/img/canyon/animals/lion.jpg","[""ArrowLeft""]","revaluation","canyon","27","{""ArrowUp,ArrowLeft"":27,""ArrowUp,ArrowRight"":15,""ArrowDown,ArrowLeft"":21,""ArrowDown,ArrowRight"":7}","true","ArrowUp,ArrowLeft","","revaluation","1","28","","",""
"html-keyboard-response","247","1051499","0.0-4.0-4.0-1.14","spark_pilot_norest","11194","6","15","Female","","","","","","","null","<div style=""font-size:60px;"">+</div>","null","fixation","","","","","","","","","29","","",""
"revaluation","248","1055514","0.0-4.0-4.0-0.15","spark_pilot_norest","11194","6","15","Female","","false","","","","","[683.4000000059605]","./assets/img/canyon/animals/lion.jpg","[""ArrowLeft""]","revaluation","canyon","27","{""ArrowUp,ArrowLeft"":27,""ArrowUp,ArrowRight"":15,""ArrowDown,ArrowLeft"":21,""ArrowDown,ArrowRight"":7}","true","ArrowUp,ArrowLeft","","revaluation","1","30","","",""
"html-keyboard-response","249","1056016","0.0-4.0-4.0-1.15","spark_pilot_norest","11194","6","15","Female","","","","","","","null","<div style=""font-size:60px;"">+</div>","null","fixation","","","","","","","","","31","","",""
"revaluation","250","1060024","0.0-4.0-4.0-0.16","spark_pilot_norest","11194","6","15","Female","","false","","","","","[573.2000000029802]","./assets/img/canyon/animals/giraffe.jpg","[""ArrowLeft""]","revaluation","canyon","21","{""ArrowUp,ArrowLeft"":27,""ArrowUp,ArrowRight"":15,""ArrowDown,ArrowLeft"":21,""ArrowDown,ArrowRight"":7}","true","ArrowDown,ArrowLeft","","revaluation","1","32","","",""
"html-keyboard-response","251","1060526","0.0-4.0-4.0-1.16","spark_pilot_norest","11194","6","15","Female","","","","","","","null","<div style=""font-size:60px;"">+</div>","null","fixation","","","","","","","","","33","","",""
"revaluation","252","1064534","0.0-4.0-4.0-0.17","spark_pilot_norest","11194","6","15","Female","","false","","","","","[458.90000000596046]","./assets/img/canyon/animals/lion.jpg","[""ArrowLeft""]","revaluation","canyon","27","{""ArrowUp,ArrowLeft"":27,""ArrowUp,ArrowRight"":15,""ArrowDown,ArrowLeft"":21,""ArrowDown,ArrowRight"":7}","true","ArrowUp,ArrowLeft","","revaluation","1","34","","",""
"html-keyboard-response","253","1065037","0.0-4.0-4.0-1.17","spark_pilot_norest","11194","6","15","Female","","","","","","","null","<div style=""font-size:60px;"">+</div>","null","fixation","","","","","","","","","35","","",""
"learning-instructions","254","1073203","0.0-4.0-5.0-0.0","spark_pilot_norest","11194","6","15","Female","","","","","","","null","<p> You have almost finished this part of the game! </p>
            <p> We are going to ask you to make a few more choices. </p>","","instructions","","","","","","","","","","","",""
"learning-instructions","255","1089170","0.0-4.0-5.0-0.1","spark_pilot_norest","11194","6","15","Female","","","","","","","null","<p> First, you need to decide whether to go up or down. When you see each picture, use the arrow keys to make your choice. </p>
            <p><b>You will not see which animal you found, but try to get to the one that will give you the most treasure.</b></p>","","instructions","","","","","","","","","","","",""
"html-keyboard-response","256","1090172","0.0-4.0-6.0-0.0","spark_pilot_norest","11194","6","15","Female","","","","","","","null","<div style=""font-size:100px;color:red;"">Starting in...</div>","null","","","","","","","","","","","","",""
"html-keyboard-response","257","1091173","0.0-4.0-6.0-1.0","spark_pilot_norest","11194","6","15","Female","","","","","","","null","<div style=""font-size:200px;color:red;"">3</div>","null","","","","","","","","","","","","",""
"html-keyboard-response","258","1092174","0.0-4.0-6.0-2.0","spark_pilot_norest","11194","6","15","Female","","","","","","","null","<div style=""font-size:200px;color:red;"">2</div>","null","","","","","","","","","","","","",""
"html-keyboard-response","259","1093175","0.0-4.0-6.0-3.0","spark_pilot_norest","11194","6","15","Female","","","","","","","null","<div style=""font-size:200px;color:red;"">1</div>","null","","","","","","","","","","","","",""
"revaluation","260","1093530","0.0-4.0-7.0-0.0","spark_pilot_norest","11194","6","15","Female","","false","","","","","[346.6000000014901]","./assets/img/canyon/test/0.jpg","[""ArrowDown""]","first stage test","canyon","0","{""ArrowUp,ArrowLeft"":27,""ArrowUp,ArrowRight"":15,""ArrowDown,ArrowLeft"":21,""ArrowDown,ArrowRight"":7}","false","ArrowDown","false","revaluation","1","","","",""
"html-keyboard-response","261","1094032","0.0-4.0-7.0-1.0","spark_pilot_norest","11194","6","15","Female","","","","","","","null","<div style=""font-size:60px;"">+</div>","null","fixation","","","","","","","","","","","",""
"revaluation","262","1094832","0.0-4.0-7.0-0.1","spark_pilot_norest","11194","6","15","Female","","false","","","","","[797.1999999955297]","./assets/img/canyon/test/2.jpg","[""ArrowDown""]","first stage test","canyon","0","{""ArrowUp,ArrowLeft"":27,""ArrowUp,ArrowRight"":15,""ArrowDown,ArrowLeft"":21,""ArrowDown,ArrowRight"":7}","false","ArrowDown","false","revaluation","1","","","",""
"html-keyboard-response","263","1095333","0.0-4.0-7.0-1.1","spark_pilot_norest","11194","6","15","Female","","","","","","","null","<div style=""font-size:60px;"">+</div>","null","fixation","","","","","","","","","","","",""
"revaluation","264","1096188","0.0-4.0-7.0-0.2","spark_pilot_norest","11194","6","15","Female","","false","","","","","[851.2000000029802]","./assets/img/canyon/test/3.jpg","[""ArrowDown""]","first stage test","canyon","0","{""ArrowUp,ArrowLeft"":27,""ArrowUp,ArrowRight"":15,""ArrowDown,ArrowLeft"":21,""ArrowDown,ArrowRight"":7}","false","ArrowDown","false","revaluation","1","","","",""
"html-keyboard-response","265","1096690","0.0-4.0-7.0-1.2","spark_pilot_norest","11194","6","15","Female","","","","","","","null","<div style=""font-size:60px;"">+</div>","null","fixation","","","","","","","","","","","",""
"revaluation","266","1097406","0.0-4.0-7.0-0.3","spark_pilot_norest","11194","6","15","Female","","false","","","","","[710.3000000044703]","./assets/img/canyon/test/1.jpg","[""ArrowDown""]","first stage test","canyon","0","{""ArrowUp,ArrowLeft"":27,""ArrowUp,ArrowRight"":15,""ArrowDown,ArrowLeft"":21,""ArrowDown,ArrowRight"":7}","false","ArrowDown","false","revaluation","1","","","",""
"html-keyboard-response","267","1097907","0.0-4.0-7.0-1.3","spark_pilot_norest","11194","6","15","Female","","","","","","","null","<div style=""font-size:60px;"">+</div>","null","fixation","","","","","","","","","","","",""
"learning-instructions","268","1111250","0.0-4.0-8.0-0.0","spark_pilot_norest","11194","6","15","Female","","","","","","","null","<p> Now you will see the animals again and can search their chests for treasure. </p>
            <p> This time, you will not see how much treasure you earned, but you will earn more bonus money for making better choices. </p>","","instructions","","","","","","","","","","","",""
"html-keyboard-response","269","1112251","0.0-4.0-9.0-0.0","spark_pilot_norest","11194","6","15","Female","","","","","","","null","<div style=""font-size:100px;color:red;"">Starting in...</div>","null","","","","","","","","","","","","",""
"html-keyboard-response","270","1113252","0.0-4.0-9.0-1.0","spark_pilot_norest","11194","6","15","Female","","","","","","","null","<div style=""font-size:200px;color:red;"">3</div>","null","","","","","","","","","","","","",""
"html-keyboard-response","271","1114253","0.0-4.0-9.0-2.0","spark_pilot_norest","11194","6","15","Female","","","","","","","null","<div style=""font-size:200px;color:red;"">2</div>","null","","","","","","","","","","","","",""
"html-keyboard-response","272","1115255","0.0-4.0-9.0-3.0","spark_pilot_norest","11194","6","15","Female","","","","","","","null","<div style=""font-size:200px;color:red;"">1</div>","null","","","","","","","","","","","","",""
"revaluation","273","1116421","0.0-4.0-10.0-0.0","spark_pilot_norest","11194","6","15","Female","","false","","","","","[1162.8999999985099]","./assets/img/canyon/animals/lion.jpg","[""ArrowRight""]","second stage test","canyon","0","{""ArrowUp,ArrowLeft"":27,""ArrowUp,ArrowRight"":15,""ArrowDown,ArrowLeft"":21,""ArrowDown,ArrowRight"":7}","false","ArrowUp,ArrowRight","","revaluation","1","","","",""
"html-keyboard-response","274","1116922","0.0-4.0-10.0-1.0","spark_pilot_norest","11194","6","15","Female","","","","","","","null","<div style=""font-size:60px;"">+</div>","null","fixation","","","","","","","","","","","",""
"revaluation","275","1117332","0.0-4.0-10.0-0.1","spark_pilot_norest","11194","6","15","Female","","false","","","","","[406.20000000298023]","./assets/img/canyon/animals/lion.jpg","[""ArrowRight""]","second stage test","canyon","0","{""ArrowUp,ArrowLeft"":27,""ArrowUp,ArrowRight"":15,""ArrowDown,ArrowLeft"":21,""ArrowDown,ArrowRight"":7}","false","ArrowUp,ArrowRight","","revaluation","1","","","",""
"html-keyboard-response","276","1117833","0.0-4.0-10.0-1.1","spark_pilot_norest","11194","6","15","Female","","","","","","","null","<div style=""font-size:60px;"">+</div>","null","fixation","","","","","","","","","","","",""
"revaluation","277","1118225","0.0-4.0-10.0-0.2","spark_pilot_norest","11194","6","15","Female","","false","","","","","[387.09999999403954]","./assets/img/canyon/animals/lion.jpg","[""ArrowLeft""]","second stage test","canyon","0","{""ArrowUp,ArrowLeft"":27,""ArrowUp,ArrowRight"":15,""ArrowDown,ArrowLeft"":21,""ArrowDown,ArrowRight"":7}","true","ArrowUp,ArrowLeft","","revaluation","1","","","",""
"html-keyboard-response","278","1118726","0.0-4.0-10.0-1.2","spark_pilot_norest","11194","6","15","Female","","","","","","","null","<div style=""font-size:60px;"">+</div>","null","fixation","","","","","","","","","","","",""
"revaluation","279","1119172","0.0-4.0-10.0-0.3","spark_pilot_norest","11194","6","15","Female","","false","","","","","[441.3999999985099]","./assets/img/canyon/animals/lion.jpg","[""ArrowLeft""]","second stage test","canyon","0","{""ArrowUp,ArrowLeft"":27,""ArrowUp,ArrowRight"":15,""ArrowDown,ArrowLeft"":21,""ArrowDown,ArrowRight"":7}","true","ArrowUp,ArrowLeft","","revaluation","1","","","",""
"html-keyboard-response","280","1119674","0.0-4.0-10.0-1.3","spark_pilot_norest","11194","6","15","Female","","","","","","","null","<div style=""font-size:60px;"">+</div>","null","fixation","","","","","","","","","","","",""
"revaluation","281","1120325","0.0-4.0-10.0-0.4","spark_pilot_norest","11194","6","15","Female","","false","","","","","[647.2000000029802]","./assets/img/canyon/animals/giraffe.jpg","[""ArrowRight""]","second stage test","canyon","0","{""ArrowUp,ArrowLeft"":27,""ArrowUp,ArrowRight"":15,""ArrowDown,ArrowLeft"":21,""ArrowDown,ArrowRight"":7}","false","ArrowDown,ArrowRight","","revaluation","1","","","",""
"html-keyboard-response","282","1120826","0.0-4.0-10.0-1.4","spark_pilot_norest","11194","6","15","Female","","","","","","","null","<div style=""font-size:60px;"">+</div>","null","fixation","","","","","","","","","","","",""
"revaluation","283","1121239","0.0-4.0-10.0-0.5","spark_pilot_norest","11194","6","15","Female","","false","","","","","[409.29999999701977]","./assets/img/canyon/animals/giraffe.jpg","[""ArrowRight""]","second stage test","canyon","0","{""ArrowUp,ArrowLeft"":27,""ArrowUp,ArrowRight"":15,""ArrowDown,ArrowLeft"":21,""ArrowDown,ArrowRight"":7}","false","ArrowDown,ArrowRight","","revaluation","1","","","",""
"html-keyboard-response","284","1121740","0.0-4.0-10.0-1.5","spark_pilot_norest","11194","6","15","Female","","","","","","","null","<div style=""font-size:60px;"">+</div>","null","fixation","","","","","","","","","","","",""
"revaluation","285","1122117","0.0-4.0-10.0-0.6","spark_pilot_norest","11194","6","15","Female","","false","","","","","[368.70000000298023]","./assets/img/canyon/animals/giraffe.jpg","[""ArrowRight""]","second stage test","canyon","0","{""ArrowUp,ArrowLeft"":27,""ArrowUp,ArrowRight"":15,""ArrowDown,ArrowLeft"":21,""ArrowDown,ArrowRight"":7}","false","ArrowDown,ArrowRight","","revaluation","1","","","",""
"html-keyboard-response","286","1122619","0.0-4.0-10.0-1.6","spark_pilot_norest","11194","6","15","Female","","","","","","","null","<div style=""font-size:60px;"">+</div>","null","fixation","","","","","","","","","","","",""
"revaluation","287","1123091","0.0-4.0-10.0-0.7","spark_pilot_norest","11194","6","15","Female","","false","","","","","[468.29999999701977]","./assets/img/canyon/animals/giraffe.jpg","[""ArrowRight""]","second stage test","canyon","0","{""ArrowUp,ArrowLeft"":27,""ArrowUp,ArrowRight"":15,""ArrowDown,ArrowLeft"":21,""ArrowDown,ArrowRight"":7}","false","ArrowDown,ArrowRight","","revaluation","1","","","",""
"html-keyboard-response","288","1123594","0.0-4.0-10.0-1.7","spark_pilot_norest","11194","6","15","Female","","","","","","","null","<div style=""font-size:60px;"">+</div>","null","fixation","","","","","","","","","","","",""
"learning-instructions","289","1128659","0.0-4.0-0.1-0.2","spark_pilot_norest","11194","6","15","Female","","","","","","","2330.6999999955297","<p> This time you are searching for treasure in the <b>ocean</b>.</p>","","instructions","","","","","","","","","","","",""
"learning-instructions","290","1155397","0.0-4.0-0.1-0.3","spark_pilot_norest","11194","6","15","Female","","","","","","","9484.89999999851","<p><b>New</b> animals with <b>new</b> treasure chests live here. You need to explore to discover where the animal with the best treasure chest is.</p>
                    <p> Like before, once you figure out which animal has the chest with the most treasure, you should try to get to that animal and select that chest! </p>","","instructions","","","","","","","","","","","",""
"learning-instructions","291","1184360","0.0-4.0-1.1-0.1","spark_pilot_norest","11194","6","15","Female","","","","","","","14234.5","<p> Remember, when you see a picture of the place, use the up and down keys to <b>find an animal</b>.</p>
            <p> When you encounter an animal, you should use the left and right keys to <b>select a treasure chest</b>.</p>
            <p> Don't forget to look out for the robber! </p>","","instructions","","","","","","","","","","","",""
"revaluation","292","1190365","0.0-4.0-2.1-0.50","spark_pilot_norest","11194","6","15","Female","","false","","","","","[653.3999999985099,652.5]","./assets/img/ocean/memory/39.jpg","[""ArrowUp"",""ArrowRight""]","value training","ocean","10","{""ArrowUp,ArrowLeft"":26,""ArrowUp,ArrowRight"":10,""ArrowDown,ArrowLeft"":5,""ArrowDown,ArrowRight"":17}","false","ArrowUp,ArrowRight","false","original","2","0","","",""
"html-keyboard-response","293","1190867","0.0-4.0-2.1-1.50","spark_pilot_norest","11194","6","15","Female","","","","","","","null","<div style=""font-size:60px;"">+</div>","null","fixation","","","","","","","","","1","","",""
"revaluation","294","1196872","0.0-4.0-2.1-0.51","spark_pilot_norest","11194","6","15","Female","","false","","","","","[283.6000000014901,343]","./assets/img/ocean/memory/12.jpg","[""ArrowUp"",""ArrowLeft""]","value training","ocean","26","{""ArrowUp,ArrowLeft"":26,""ArrowUp,ArrowRight"":10,""ArrowDown,ArrowLeft"":5,""ArrowDown,ArrowRight"":17}","true","ArrowUp,ArrowLeft","false","original","2","2","","",""
"html-keyboard-response","295","1197374","0.0-4.0-2.1-1.51","spark_pilot_norest","11194","6","15","Female","","","","","","","null","<div style=""font-size:60px;"">+</div>","null","fixation","","","","","","","","","3","","",""
"revaluation","296","1203381","0.0-4.0-2.1-0.52","spark_pilot_norest","11194","6","15","Female","","false","","","","","[579,940.2999999970198]","./assets/img/ocean/memory/30.jpg","[""ArrowDown"",""ArrowRight""]","value training","ocean","17","{""ArrowUp,ArrowLeft"":26,""ArrowUp,ArrowRight"":10,""ArrowDown,ArrowLeft"":5,""ArrowDown,ArrowRight"":17}","false","ArrowDown,ArrowRight","false","original","2","4","","",""
"html-keyboard-response","297","1203883","0.0-4.0-2.1-1.52","spark_pilot_norest","11194","6","15","Female","","","","","","","null","<div style=""font-size:60px;"">+</div>","null","fixation","","","","","","","","","5","","",""
"revaluation","298","1209894","0.0-4.0-2.1-0.53","spark_pilot_norest","11194","6","15","Female","","false","","","","","[549.8999999985099,939.9000000059605]","./assets/img/ocean/memory/5.jpg","[""ArrowDown"",""ArrowLeft""]","value training","ocean","5","{""ArrowUp,ArrowLeft"":26,""ArrowUp,ArrowRight"":10,""ArrowDown,ArrowLeft"":5,""ArrowDown,ArrowRight"":17}","false","ArrowDown,ArrowLeft","false","original","2","6","","",""
"html-keyboard-response","299","1210396","0.0-4.0-2.1-1.53","spark_pilot_norest","11194","6","15","Female","","","","","","","null","<div style=""font-size:60px;"">+</div>","null","fixation","","","","","","","","","7","","",""
"revaluation","300","1216408","0.0-4.0-2.1-0.54","spark_pilot_norest","11194","6","15","Female","","false","","","","","[437.6000000014901,415]","./assets/img/ocean/memory/37.jpg","[""ArrowUp"",""ArrowLeft""]","value training","ocean","26","{""ArrowUp,ArrowLeft"":26,""ArrowUp,ArrowRight"":10,""ArrowDown,ArrowLeft"":5,""ArrowDown,ArrowRight"":17}","true","ArrowUp,ArrowLeft","false","original","2","8","","",""
"html-keyboard-response","301","1216910","0.0-4.0-2.1-1.54","spark_pilot_norest","11194","6","15","Female","","","","","","","null","<div style=""font-size:60px;"">+</div>","null","fixation","","","","","","","","","9","","",""
"revaluation","302","1222921","0.0-4.0-2.1-0.55","spark_pilot_norest","11194","6","15","Female","","false","","","","","[802.5,587.7000000029802]","./assets/img/ocean/memory/24.jpg","[""ArrowUp"",""ArrowLeft""]","value training","ocean","26","{""ArrowUp,ArrowLeft"":26,""ArrowUp,ArrowRight"":10,""ArrowDown,ArrowLeft"":5,""ArrowDown,ArrowRight"":17}","true","ArrowUp,ArrowLeft","false","original","2","10","","",""
"html-keyboard-response","303","1223423","0.0-4.0-2.1-1.55","spark_pilot_norest","11194","6","15","Female","","","","","","","null","<div style=""font-size:60px;"">+</div>","null","fixation","","","","","","","","","11","","",""
"revaluation","304","1229435","0.0-4.0-2.1-0.56","spark_pilot_norest","11194","6","15","Female","","false","","","","","[605.5,945.7999999970198]","./assets/img/ocean/memory/12.jpg","[""ArrowUp"",""ArrowLeft""]","value training","ocean","26","{""ArrowUp,ArrowLeft"":26,""ArrowUp,ArrowRight"":10,""ArrowDown,ArrowLeft"":5,""ArrowDown,ArrowRight"":17}","true","ArrowUp,ArrowLeft","false","original","2","12","","",""
"html-keyboard-response","305","1229937","0.0-4.0-2.1-1.56","spark_pilot_norest","11194","6","15","Female","","","","","","","null","<div style=""font-size:60px;"">+</div>","null","fixation","","","","","","","","","13","","",""
"revaluation","306","1235947","0.0-4.0-2.1-0.57","spark_pilot_norest","11194","6","15","Female","","false","","","","","[435.1000000014901,561.1000000014901]","./assets/img/ocean/memory/16.jpg","[""ArrowUp"",""ArrowLeft""]","value training","ocean","26","{""ArrowUp,ArrowLeft"":26,""ArrowUp,ArrowRight"":10,""ArrowDown,ArrowLeft"":5,""ArrowDown,ArrowRight"":17}","true","ArrowUp,ArrowLeft","false","original","2","14","","",""
"html-keyboard-response","307","1236448","0.0-4.0-2.1-1.57","spark_pilot_norest","11194","6","15","Female","","","","","","","null","<div style=""font-size:60px;"">+</div>","null","fixation","","","","","","","","","15","","",""
"revaluation","308","1242461","0.0-4.0-2.1-0.58","spark_pilot_norest","11194","6","15","Female","","false","","","","","[546.9000000059605,797.1999999955297]","./assets/img/ocean/memory/10.jpg","[""ArrowUp"",""ArrowLeft""]","value training","ocean","26","{""ArrowUp,ArrowLeft"":26,""ArrowUp,ArrowRight"":10,""ArrowDown,ArrowLeft"":5,""ArrowDown,ArrowRight"":17}","true","ArrowUp,ArrowLeft","false","original","2","16","","",""
"html-keyboard-response","309","1242964","0.0-4.0-2.1-1.58","spark_pilot_norest","11194","6","15","Female","","","","","","","null","<div style=""font-size:60px;"">+</div>","null","fixation","","","","","","","","","17","","",""
