"trial_type","trial_index","time_elapsed","internal_node_id","task_version","subject_id","assigned_condition","age","gender","success","timeout","failed_images","failed_audio","failed_video","browser_interaction","rt","stimulus","response","task_part","environment","score","rewardMap","correct","fullState","isCatch","condition","order","trial_num","key_press","ground_truth","bonus"
"pavlovia","0","860","0.0-0.0","spark_pilot_norest","8819","3","18","Male","","","","","","","","","","","","","","","","","","","","","",""
"preload","1","6637","0.0-1.0","spark_pilot_norest","8819","3","18","Male","true","false","[]","[]","[]","[{""event"":""fullscreenenter"",""trial"":2,""time"":37937}]","","","","","","","","","","","","","","","",""
"fullscreen","2","38913","0.0-2.0","spark_pilot_norest","8819","3","18","Male","true","","","","","","","","","","","","","","","","","","","","",""
"audio-button-response","3","42537","0.0-3.0-0.0-0.0","spark_pilot_norest","8819","3","18","Male","","","","","","","3189","./assets/audio/audiotest/turtle.mp3","2","audio_test","","","","","","","","","","","",""
"learning-instructions","4","51704","0.0-3.0-1.0-0.0","spark_pilot_norest","8819","3","18","Male","","","","","","","2176.7999999523163","<p> Welcome! Please remember to stay in fullscreen mode and don't click away from the experiment. </p>","","instructions","","","","","","","","","","","",""
"learning-instructions","5","61499","0.0-3.0-1.0-0.1","spark_pilot_norest","8819","3","18","Male","","","","","","","1383.3999999761581","<p> Today you will be playing a game to earn treasure. </p>
            <p> At the end of the experiment, you will earn a bonus based on how much treasure you find. </p>
            <img src='./assets/img/instructions/treasure.jpg' class='instructions-image'>","","instructions","","","","","","","","","","","",""
"learning-instructions","6","71169","0.0-3.0-1.0-0.2","spark_pilot_norest","8819","3","18","Male","","","","","","","1403.2000000476837","<p> Animals have hidden treasure in treasure chests. </p>
            <p> You need to first find an animal and then choose which of their treasure chests to search. </p>
            <img src='./assets/img/space/animals/cat.jpg' class='instructions-image'>","","instructions","","","","","","","","","","","",""
"learning-instructions","7","85609","0.0-3.0-1.0-0.3","spark_pilot_norest","8819","3","18","Male","","","","","","","1283.8999999761581","<p> In each round, you will search for treasure in a different place. In the real game, there will be two rounds. </p>
            <p> You will begin with a separate, practice round where you will search for treasure in outer space. </p>
            <img src='./assets/img/space/0.jpg' class='instructions-image'>","","instructions","","","","","","","","","","","",""
"learning-instructions","8","97614","0.0-3.0-1.0-0.4","spark_pilot_norest","8819","3","18","Male","","","","","","","577.9000000953674","<p> On every turn, you will see a picture of the place that you are in, but the specific image may be different each time. </p>
            <p> For example, both of these images mean you are in outer space. </p>
            <img src='./assets/img/instructions/outerspace.jpg' class='instructions-image'>","","instructions","","","","","","","","","","","",""
"learning-instructions","9","106709","0.0-3.0-1.0-0.5","spark_pilot_norest","8819","3","18","Male","","","","","","","1273.2000000476837","<p> You need to decide which direction to travel in. </p>
            <p> You can choose between going <b>up or down</b> by using the arrow keys. </p>
            <img src='./assets/img/instructions/updown.jpg' class='instructions-image'>","","instructions","","","","","","","","","","","",""
"learning-instructions","10","116539","0.0-3.0-1.0-0.6","spark_pilot_norest","8819","3","18","Male","","","","","","","1022.3000000715256","<p> You will have <b>2 seconds</b> to make your choice. </p>
            <p> If you do not make a choice within 2 seconds, you will not find an animal or earn treasure. </p>
            <img src='./assets/img/instructions/2seconds.jpg' class='instructions-image'>","","instructions","","","","","","","","","","","",""
"learning-instructions","11","125319","0.0-3.0-1.0-0.7","spark_pilot_norest","8819","3","18","Male","","","","","","","1732.6999999284744","<p> Let’s try practicing that now! </p>
            <p> When you see a picture of the place you are in, press the <b>up</b> key to travel up. </p>
            <img src='./assets/img/instructions/pressUp.jpg' class='instructions-image'>","","instructions","","","","","","","","","","","",""
"revaluation","12","129347","0.0-3.0-2.0-0.0","spark_pilot_norest","8819","3","18","Male","","false","","","","","[831.3999999761581]","./assets/img/space/0.jpg","[""ArrowUp""]","first stage practice","space","0","null","null","ArrowUp","false","","","","","",""
"html-keyboard-response","13","129858","0.0-3.0-2.0-1.0","spark_pilot_norest","8819","3","18","Male","","","","","","","null","<div style=""font-size:60px;"">+</div>","null","fixation","","","","","","","","","","","",""
"revaluation","14","133864","0.0-3.0-2.0-0.1","spark_pilot_norest","8819","3","18","Male","","false","","","","","[1726.1000000238419]","./assets/img/space/1.jpg","[""ArrowUp""]","first stage practice","space","0","null","null","ArrowUp","false","","","","","",""
"html-keyboard-response","15","134365","0.0-3.0-2.0-1.1","spark_pilot_norest","8819","3","18","Male","","","","","","","null","<div style=""font-size:60px;"">+</div>","null","fixation","","","","","","","","","","","",""
"revaluation","16","138388","0.0-3.0-2.0-0.2","spark_pilot_norest","8819","3","18","Male","","false","","","","","[1560.2000000476837]","./assets/img/space/2.jpg","[""ArrowUp""]","first stage practice","space","0","null","null","ArrowUp","false","","","","","",""
"html-keyboard-response","17","138889","0.0-3.0-2.0-1.2","spark_pilot_norest","8819","3","18","Male","","","","","","","null","<div style=""font-size:60px;"">+</div>","null","fixation","","","","","","","","","","","",""
"learning-instructions","18","144706","0.0-3.0-3.0-0.0","spark_pilot_norest","8819","3","18","Male","","","","","","","1121","<p> Great job! Now try pressing the <b>down</b> key to travel down. </p>
            <img src='./assets/img/instructions/pressDown.jpg' class='instructions-image'>","","instructions","","","","","","","","","","","",""
"revaluation","19","148724","0.0-3.0-4.0-0.0","spark_pilot_norest","8819","3","18","Male","","false","","","","","[254.30000007152557]","./assets/img/space/3.jpg","[""ArrowDown""]","first stage practice","space","0","null","null","ArrowDown","false","","","","","",""
"html-keyboard-response","20","149239","0.0-3.0-4.0-1.0","spark_pilot_norest","8819","3","18","Male","","","","","","","null","<div style=""font-size:60px;"">+</div>","null","fixation","","","","","","","","","","","",""
"revaluation","21","153258","0.0-3.0-4.0-0.1","spark_pilot_norest","8819","3","18","Male","","false","","","","","[153.5]","./assets/img/space/4.jpg","[""ArrowDown""]","first stage practice","space","0","null","null","ArrowDown","false","","","","","",""
"html-keyboard-response","22","153768","0.0-3.0-4.0-1.1","spark_pilot_norest","8819","3","18","Male","","","","","","","null","<div style=""font-size:60px;"">+</div>","null","fixation","","","","","","","","","","","",""
"revaluation","23","157787","0.0-3.0-4.0-0.2","spark_pilot_norest","8819","3","18","Male","","false","","","","","[13.5]","./assets/img/space/5.jpg","[""ArrowDown""]","first stage practice","space","0","null","null","ArrowDown","false","","","","","",""
"html-keyboard-response","24","158298","0.0-3.0-4.0-1.2","spark_pilot_norest","8819","3","18","Male","","","","","","","null","<div style=""font-size:60px;"">+</div>","null","fixation","","","","","","","","","","","",""
"learning-instructions","25","170493","0.0-3.0-5.0-0.0","spark_pilot_norest","8819","3","18","Male","","","","","","","2336.5","<p> The animals don’t move, so the animal in the upper part of a place will stay in the upper part of a place, and the animal in the lower part of a place will stay in the lower part of a place. </p>","","instructions","","","","","","","","","","","",""
"learning-instructions","26","181054","0.0-3.0-5.0-0.1","spark_pilot_norest","8819","3","18","Male","","","","","","","1418.5","<p> Each animal has two treasure chests for you to choose from. </p>
            <p> The amount of treasure in each chest can range from <b> 0 to 40 pieces.</b></p>","","instructions","","","","","","","","","","","",""
"learning-instructions","27","193565","0.0-3.0-5.0-0.2","spark_pilot_norest","8819","3","18","Male","","","","","","","1319.7000000476837","<p> You should decide which chest to search for treasure by using the <b>left</b> and <b>right</b> arrow keys. </p>
            <p><b> Pay attention to which animal is on the screen, as the animals have different treasure chests. </b></p>
            <img src='./assets/img/instructions/leftright.jpg' class='instructions-image'>","","instructions","","","","","","","","","","","",""
"learning-instructions","28","200878","0.0-3.0-5.0-0.3","spark_pilot_norest","8819","3","18","Male","","","","","","","952.2000000476837","<p> Let’s try practicing that now. </p>
            <p> When you see an animal, choose which chest to search for treasure. </p>
            <img src='./assets/img/instructions/chooseChest.jpg' class='instructions-image'>","","instructions","","","","","","","","","","","",""
"revaluation","29","204886","0.0-3.0-6.0-0.0","spark_pilot_norest","8819","3","18","Male","","false","","","","","[917]","./assets/img/space/animals/cat.jpg","[""ArrowRight""]","second stage practice","space","36","{""ArrowUp,ArrowLeft"":3,""ArrowUp,ArrowRight"":36,""ArrowDown,ArrowLeft"":15,""ArrowDown,ArrowRight"":23}","true","ArrowUp,ArrowRight","","","","","","",""
"html-keyboard-response","30","205387","0.0-3.0-6.0-1.0","spark_pilot_norest","8819","3","18","Male","","","","","","","null","<div style=""font-size:60px;"">+</div>","null","fixation","","","","","","","","","","","",""
"revaluation","31","209403","0.0-3.0-6.0-0.1","spark_pilot_norest","8819","3","18","Male","","false","","","","","[256]","./assets/img/space/animals/cat.jpg","[""ArrowLeft""]","second stage practice","space","3","{""ArrowUp,ArrowLeft"":3,""ArrowUp,ArrowRight"":36,""ArrowDown,ArrowLeft"":15,""ArrowDown,ArrowRight"":23}","false","ArrowUp,ArrowLeft","","","","","","",""
"html-keyboard-response","32","209914","0.0-3.0-6.0-1.1","spark_pilot_norest","8819","3","18","Male","","","","","","","null","<div style=""font-size:60px;"">+</div>","null","fixation","","","","","","","","","","","",""
"revaluation","33","213932","0.0-3.0-6.0-0.2","spark_pilot_norest","8819","3","18","Male","","false","","","","","[270.10000002384186]","./assets/img/space/animals/rabbit.jpg","[""ArrowLeft""]","second stage practice","space","15","{""ArrowUp,ArrowLeft"":3,""ArrowUp,ArrowRight"":36,""ArrowDown,ArrowLeft"":15,""ArrowDown,ArrowRight"":23}","false","ArrowDown,ArrowLeft","","","","","","",""
"html-keyboard-response","34","214444","0.0-3.0-6.0-1.2","spark_pilot_norest","8819","3","18","Male","","","","","","","null","<div style=""font-size:60px;"">+</div>","null","fixation","","","","","","","","","","","",""
"revaluation","35","218461","0.0-3.0-6.0-0.3","spark_pilot_norest","8819","3","18","Male","","false","","","","","[362.90000009536743]","./assets/img/space/animals/rabbit.jpg","[""ArrowRight""]","second stage practice","space","23","{""ArrowUp,ArrowLeft"":3,""ArrowUp,ArrowRight"":36,""ArrowDown,ArrowLeft"":15,""ArrowDown,ArrowRight"":23}","true","ArrowDown,ArrowRight","","","","","","",""
"html-keyboard-response","36","218969","0.0-3.0-6.0-1.3","spark_pilot_norest","8819","3","18","Male","","","","","","","null","<div style=""font-size:60px;"">+</div>","null","fixation","","","","","","","","","","","",""
"learning-instructions","37","236609","0.0-3.0-7.0-0.0","spark_pilot_norest","8819","3","18","Male","","","","","","","823.6000000238419","<p> Great job. Now let’s try putting it together. </p>
            <p> On each turn, you will first see a picture to remind you of the place you are in, and you need to choose whether to go up or down. </p>
            <p> Then you will see an animal and choose which of its chests to search for treasure. </p>","","instructions","","","","","","","","","","","",""
"learning-instructions","38","245913","0.0-3.0-7.0-0.1","spark_pilot_norest","8819","3","18","Male","","","","","","","1036.6000000238419","<p> When you choose whether to go up or down, try to go to the animal with the chest with the most treasure. </p>
            <p> Try practicing that now! </p>","","instructions","","","","","","","","","","","",""
"revaluation","39","251937","0.0-3.0-8.0-0.0","spark_pilot_norest","8819","3","18","Male","","false","","","","","[1497.5,870.2999999523163]","./assets/img/space/6.jpg","[""ArrowDown"",""ArrowRight""]","full practice","space","23","{""ArrowUp,ArrowLeft"":3,""ArrowUp,ArrowRight"":36,""ArrowDown,ArrowLeft"":15,""ArrowDown,ArrowRight"":23}","false","ArrowDown,ArrowRight","false","","","","","",""
"html-keyboard-response","40","252438","0.0-3.0-8.0-1.0","spark_pilot_norest","8819","3","18","Male","","","","","","","null","<div style=""font-size:60px;"">+</div>","null","fixation","","","","","","","","","","","",""
"revaluation","41","258467","0.0-3.0-8.0-0.1","spark_pilot_norest","8819","3","18","Male","","false","","","","","[964.5,587.7999999523163]","./assets/img/space/7.jpg","[""ArrowUp"",""ArrowLeft""]","full practice","space","3","{""ArrowUp,ArrowLeft"":3,""ArrowUp,ArrowRight"":36,""ArrowDown,ArrowLeft"":15,""ArrowDown,ArrowRight"":23}","false","ArrowUp,ArrowLeft","false","","","","","",""
"html-keyboard-response","42","258981","0.0-3.0-8.0-1.1","spark_pilot_norest","8819","3","18","Male","","","","","","","null","<div style=""font-size:60px;"">+</div>","null","fixation","","","","","","","","","","","",""
"revaluation","43","265018","0.0-3.0-8.0-0.2","spark_pilot_norest","8819","3","18","Male","","false","","","","","[721.8999999761581,413.2999999523163]","./assets/img/space/8.jpg","[""ArrowUp"",""ArrowRight""]","full practice","space","36","{""ArrowUp,ArrowLeft"":3,""ArrowUp,ArrowRight"":36,""ArrowDown,ArrowLeft"":15,""ArrowDown,ArrowRight"":23}","true","ArrowUp,ArrowRight","false","","","","","",""
"html-keyboard-response","44","265519","0.0-3.0-8.0-1.2","spark_pilot_norest","8819","3","18","Male","","","","","","","null","<div style=""font-size:60px;"">+</div>","null","fixation","","","","","","","","","","","",""
"revaluation","45","271562","0.0-3.0-8.0-0.3","spark_pilot_norest","8819","3","18","Male","","false","","","","","[455,460.7999999523163]","./assets/img/space/9.jpg","[""ArrowUp"",""ArrowRight""]","full practice","space","36","{""ArrowUp,ArrowLeft"":3,""ArrowUp,ArrowRight"":36,""ArrowDown,ArrowLeft"":15,""ArrowDown,ArrowRight"":23}","true","ArrowUp,ArrowRight","false","","","","","",""
"html-keyboard-response","46","272074","0.0-3.0-8.0-1.3","spark_pilot_norest","8819","3","18","Male","","","","","","","null","<div style=""font-size:60px;"">+</div>","null","fixation","","","","","","","","","","","",""
"revaluation","47","278085","0.0-3.0-8.0-0.4","spark_pilot_norest","8819","3","18","Male","","false","","","","","[290.2000000476837,317.09999990463257]","./assets/img/space/10.jpg","[""ArrowUp"",""ArrowRight""]","full practice","space","36","{""ArrowUp,ArrowLeft"":3,""ArrowUp,ArrowRight"":36,""ArrowDown,ArrowLeft"":15,""ArrowDown,ArrowRight"":23}","true","ArrowUp,ArrowRight","false","","","","","",""
"html-keyboard-response","48","278586","0.0-3.0-8.0-1.4","spark_pilot_norest","8819","3","18","Male","","","","","","","null","<div style=""font-size:60px;"">+</div>","null","fixation","","","","","","","","","","","",""
"learning-instructions","49","290269","0.0-3.0-9.0-0.0","spark_pilot_norest","8819","3","18","Male","","","","","","","1380","<p> One last thing: sometimes, you will see a robber. The robber can be anywhere in the picture. </p>
            <p> If you do not stop them, you will lose treasure. </p>
            <img src='./assets/img/instructions/robber.jpg' class='instructions-image'>","","instructions","","","","","","","","","","","",""
"learning-instructions","50","298412","0.0-3.0-9.0-0.1","spark_pilot_norest","8819","3","18","Male","","","","","","","982.7000000476837","<p> If you see the robber, you should <b>press the space bar</b> rather than using the arrow keys. </p>
            <p> Try practicing that now! </p>","","instructions","","","","","","","","","","","",""
"revaluation","51","302439","0.0-3.0-10.0-0.0","spark_pilot_norest","8819","3","18","Male","","false","","","","","[1837.7999999523163]","./assets/img/space/catch/0.jpg","[""spaceBar""]","catch practice","space","0","{""ArrowUp,ArrowLeft"":3,""ArrowUp,ArrowRight"":36,""ArrowDown,ArrowLeft"":15,""ArrowDown,ArrowRight"":23}","true","spaceBar","true","","","","","",""
"html-keyboard-response","52","302950","0.0-3.0-10.0-1.0","spark_pilot_norest","8819","3","18","Male","","","","","","","null","<div style=""font-size:60px;"">+</div>","null","fixation","","","","","","","","","","","",""
"revaluation","53","306969","0.0-3.0-10.0-0.1","spark_pilot_norest","8819","3","18","Male","","false","","","","","[690.7999999523163]","./assets/img/space/catch/1.jpg","[""spaceBar""]","catch practice","space","0","{""ArrowUp,ArrowLeft"":3,""ArrowUp,ArrowRight"":36,""ArrowDown,ArrowLeft"":15,""ArrowDown,ArrowRight"":23}","true","spaceBar","true","","","","","",""
"html-keyboard-response","54","307483","0.0-3.0-10.0-1.1","spark_pilot_norest","8819","3","18","Male","","","","","","","null","<div style=""font-size:60px;"">+</div>","null","fixation","","","","","","","","","","","",""
"revaluation","55","311513","0.0-3.0-10.0-0.2","spark_pilot_norest","8819","3","18","Male","","false","","","","","[543.1999999284744]","./assets/img/space/catch/2.jpg","[""spaceBar""]","catch practice","space","0","{""ArrowUp,ArrowLeft"":3,""ArrowUp,ArrowRight"":36,""ArrowDown,ArrowLeft"":15,""ArrowDown,ArrowRight"":23}","true","spaceBar","true","","","","","",""
"html-keyboard-response","56","312023","0.0-3.0-10.0-1.2","spark_pilot_norest","8819","3","18","Male","","","","","","","null","<div style=""font-size:60px;"">+</div>","null","fixation","","","","","","","","","","","",""
"learning-instructions","57","318329","0.0-3.0-11.0-0.0-0.0","spark_pilot_norest","8819","3","18","Male","","","","","","","1040.5","<p> Now, you will practice a shortened version of the game to get a sense of how it all fits together. </p>","","instructions","","","","","","","","","","","",""
"learning-instructions","58","323012","0.0-3.0-11.0-0.0-0.1","spark_pilot_norest","8819","3","18","Male","","","","","","","1503.3999999761581","<p>This time you are searching for treasure in outer space.</p>","","instructions","","","","","","","","","","","",""
"learning-instructions","59","338809","0.0-3.0-11.0-1.0-0.0","spark_pilot_norest","8819","3","18","Male","","","","","","","1030.1000000238419","<p> Remember, when you see a picture of the place, use the up and down keys to <b>find an animal</b>.</p>
            <p> When you encounter an animal, you should use the left and right keys to <b>select a treasure chest</b>.</p>
            <p> Don't forget to look out for the robber! </p>","","instructions","","","","","","","","","","","",""
"revaluation","60","342816","0.0-3.0-11.0-2.0-0.0","spark_pilot_norest","8819","3","18","Male","","true","","","","","[]","./assets/img/space/11.jpg","[]","practice block","space","-5","{""ArrowUp,ArrowLeft"":3,""ArrowUp,ArrowRight"":36,""ArrowDown,ArrowLeft"":15,""ArrowDown,ArrowRight"":23}","false","","false","","","","","",""
"html-keyboard-response","61","343327","0.0-3.0-11.0-2.0-1.0","spark_pilot_norest","8819","3","18","Male","","","","","","","null","<div style=""font-size:60px;"">+</div>","null","fixation","","","","","","","","","","","",""
"revaluation","62","349360","0.0-3.0-11.0-2.0-0.1","spark_pilot_norest","8819","3","18","Male","","false","","","","","[455.8000000715256,428.6999999284744]","./assets/img/space/12.jpg","[""ArrowUp"",""ArrowRight""]","practice block","space","36","{""ArrowUp,ArrowLeft"":3,""ArrowUp,ArrowRight"":36,""ArrowDown,ArrowLeft"":15,""ArrowDown,ArrowRight"":23}","true","ArrowUp,ArrowRight","false","","","","","",""
"html-keyboard-response","63","349871","0.0-3.0-11.0-2.0-1.1","spark_pilot_norest","8819","3","18","Male","","","","","","","null","<div style=""font-size:60px;"">+</div>","null","fixation","","","","","","","","","","","",""
"revaluation","64","355897","0.0-3.0-11.0-2.0-0.2","spark_pilot_norest","8819","3","18","Male","","false","","","","","[1193.0999999046326,527]","./assets/img/space/13.jpg","[""ArrowUp"",""ArrowRight""]","practice block","space","36","{""ArrowUp,ArrowLeft"":3,""ArrowUp,ArrowRight"":36,""ArrowDown,ArrowLeft"":15,""ArrowDown,ArrowRight"":23}","true","ArrowUp,ArrowRight","false","","","","","",""
"html-keyboard-response","65","356408","0.0-3.0-11.0-2.0-1.2","spark_pilot_norest","8819","3","18","Male","","","","","","","null","<div style=""font-size:60px;"">+</div>","null","fixation","","","","","","","","","","","",""
"revaluation","66","362434","0.0-3.0-11.0-2.0-0.3","spark_pilot_norest","8819","3","18","Male","","false","","","","","[802.1000000238419,377.3000000715256]","./assets/img/space/14.jpg","[""ArrowUp"",""ArrowRight""]","practice block","space","36","{""ArrowUp,ArrowLeft"":3,""ArrowUp,ArrowRight"":36,""ArrowDown,ArrowLeft"":15,""ArrowDown,ArrowRight"":23}","true","ArrowUp,ArrowRight","false","","","","","",""
"html-keyboard-response","67","362936","0.0-3.0-11.0-2.0-1.3","spark_pilot_norest","8819","3","18","Male","","","","","","","null","<div style=""font-size:60px;"">+</div>","null","fixation","","","","","","","","","","","",""
"revaluation","68","368947","0.0-3.0-11.0-2.0-0.4","spark_pilot_norest","8819","3","18","Male","","false","","","","","[900.6999999284744,494]","./assets/img/space/11.jpg","[""ArrowUp"",""ArrowRight""]","practice block","space","36","{""ArrowUp,ArrowLeft"":3,""ArrowUp,ArrowRight"":36,""ArrowDown,ArrowLeft"":15,""ArrowDown,ArrowRight"":23}","true","ArrowUp,ArrowRight","false","","","","","",""
"html-keyboard-response","69","369449","0.0-3.0-11.0-2.0-1.4","spark_pilot_norest","8819","3","18","Male","","","","","","","null","<div style=""font-size:60px;"">+</div>","null","fixation","","","","","","","","","","","",""
"revaluation","70","375459","0.0-3.0-11.0-2.0-0.5","spark_pilot_norest","8819","3","18","Male","","false","","","","","[880.3999999761581,417.10000002384186]","./assets/img/space/12.jpg","[""ArrowUp"",""ArrowRight""]","practice block","space","36","{""ArrowUp,ArrowLeft"":3,""ArrowUp,ArrowRight"":36,""ArrowDown,ArrowLeft"":15,""ArrowDown,ArrowRight"":23}","true","ArrowUp,ArrowRight","false","","","","","",""
"html-keyboard-response","71","375961","0.0-3.0-11.0-2.0-1.5","spark_pilot_norest","8819","3","18","Male","","","","","","","null","<div style=""font-size:60px;"">+</div>","null","fixation","","","","","","","","","","","",""
"revaluation","72","381965","0.0-3.0-11.0-2.0-0.6","spark_pilot_norest","8819","3","18","Male","","false","","","","","[1439,608.1000000238419]","./assets/img/space/13.jpg","[""ArrowUp"",""ArrowRight""]","practice block","space","36","{""ArrowUp,ArrowLeft"":3,""ArrowUp,ArrowRight"":36,""ArrowDown,ArrowLeft"":15,""ArrowDown,ArrowRight"":23}","true","ArrowUp,ArrowRight","false","","","","","",""
"html-keyboard-response","73","382466","0.0-3.0-11.0-2.0-1.6","spark_pilot_norest","8819","3","18","Male","","","","","","","null","<div style=""font-size:60px;"">+</div>","null","fixation","","","","","","","","","","","",""
"revaluation","74","388470","0.0-3.0-11.0-2.0-0.7","spark_pilot_norest","8819","3","18","Male","","false","","","","","[607.5,318.60000002384186]","./assets/img/space/14.jpg","[""ArrowUp"",""ArrowRight""]","practice block","space","36","{""ArrowUp,ArrowLeft"":3,""ArrowUp,ArrowRight"":36,""ArrowDown,ArrowLeft"":15,""ArrowDown,ArrowRight"":23}","true","ArrowUp,ArrowRight","false","","","","","",""
"html-keyboard-response","75","388972","0.0-3.0-11.0-2.0-1.7","spark_pilot_norest","8819","3","18","Male","","","","","","","null","<div style=""font-size:60px;"">+</div>","null","fixation","","","","","","","","","","","",""
"revaluation","76","392976","0.0-3.0-11.0-2.0-0.8","spark_pilot_norest","8819","3","18","Male","","false","","","","","[608.5]","./assets/img/space/catch/3.jpg","[""spaceBar""]","practice block","space","0","{""ArrowUp,ArrowLeft"":3,""ArrowUp,ArrowRight"":36,""ArrowDown,ArrowLeft"":15,""ArrowDown,ArrowRight"":23}","true","spaceBar","true","","","","","",""
"html-keyboard-response","77","393478","0.0-3.0-11.0-2.0-1.8","spark_pilot_norest","8819","3","18","Male","","","","","","","null","<div style=""font-size:60px;"">+</div>","null","fixation","","","","","","","","","","","",""
"learning-instructions","78","409109","0.0-3.0-11.0-3.0-0.0","spark_pilot_norest","8819","3","18","Male","","","","","","","2029.8999999761581","<p> Now, you will travel with a friend who will choose whether you go up or down first. </p>
            <p> On these turns, you will just see the animal that they found. You will still get to choose which chest to search for treasure.</p>","","instructions","","","","","","","","","","","",""
"revaluation","79","413119","0.0-3.0-11.0-4.0-0.0","spark_pilot_norest","8819","3","18","Male","","false","","","","","[694.3000000715256]","./assets/img/space/animals/cat.jpg","[""ArrowRight""]","practice block","space","36","{""ArrowUp,ArrowLeft"":3,""ArrowUp,ArrowRight"":36,""ArrowDown,ArrowLeft"":15,""ArrowDown,ArrowRight"":23}","true","ArrowUp,ArrowRight","","","","","","",""
"html-keyboard-response","80","413629","0.0-3.0-11.0-4.0-1.0","spark_pilot_norest","8819","3","18","Male","","","","","","","null","<div style=""font-size:60px;"">+</div>","null","fixation","","","","","","","","","","","",""
"revaluation","81","417639","0.0-3.0-11.0-4.0-0.1","spark_pilot_norest","8819","3","18","Male","","false","","","","","[410.1999999284744]","./assets/img/space/animals/rabbit.jpg","[""ArrowRight""]","practice block","space","23","{""ArrowUp,ArrowLeft"":3,""ArrowUp,ArrowRight"":36,""ArrowDown,ArrowLeft"":15,""ArrowDown,ArrowRight"":23}","true","ArrowDown,ArrowRight","","","","","","",""
"html-keyboard-response","82","418150","0.0-3.0-11.0-4.0-1.1","spark_pilot_norest","8819","3","18","Male","","","","","","","null","<div style=""font-size:60px;"">+</div>","null","fixation","","","","","","","","","","","",""
"revaluation","83","422162","0.0-3.0-11.0-4.0-0.2","spark_pilot_norest","8819","3","18","Male","","false","","","","","[232.20000004768372]","./assets/img/space/animals/rabbit.jpg","[""ArrowRight""]","practice block","space","23","{""ArrowUp,ArrowLeft"":3,""ArrowUp,ArrowRight"":36,""ArrowDown,ArrowLeft"":15,""ArrowDown,ArrowRight"":23}","true","ArrowDown,ArrowRight","","","","","","",""
"html-keyboard-response","84","422676","0.0-3.0-11.0-4.0-1.2","spark_pilot_norest","8819","3","18","Male","","","","","","","null","<div style=""font-size:60px;"">+</div>","null","fixation","","","","","","","","","","","",""
"revaluation","85","426694","0.0-3.0-11.0-4.0-0.3","spark_pilot_norest","8819","3","18","Male","","false","","","","","[263]","./assets/img/space/animals/cat.jpg","[""ArrowRight""]","practice block","space","36","{""ArrowUp,ArrowLeft"":3,""ArrowUp,ArrowRight"":36,""ArrowDown,ArrowLeft"":15,""ArrowDown,ArrowRight"":23}","true","ArrowUp,ArrowRight","","","","","","",""
"html-keyboard-response","86","427207","0.0-3.0-11.0-4.0-1.3","spark_pilot_norest","8819","3","18","Male","","","","","","","null","<div style=""font-size:60px;"">+</div>","null","fixation","","","","","","","","","","","",""
"learning-instructions","87","435349","0.0-3.0-11.0-5.0-0.0","spark_pilot_norest","8819","3","18","Male","","","","","","","null","<p> You have almost finished this part of the game! </p>
            <p> We are going to ask you to make a few more choices. </p>","","instructions","","","","","","","","","","","",""
"learning-instructions","88","451370","0.0-3.0-11.0-5.0-0.1","spark_pilot_norest","8819","3","18","Male","","","","","","","null","<p> First, you need to decide whether to go up or down. When you see each picture, use the arrow keys to make your choice. </p>
            <p><b>You will not see which animal you found, but try to get to the one that will give you the most treasure.</b></p>","","instructions","","","","","","","","","","","",""
"html-keyboard-response","89","452374","0.0-3.0-11.0-6.0-0.0","spark_pilot_norest","8819","3","18","Male","","","","","","","null","<div style=""font-size:100px;color:red;"">Starting in...</div>","null","","","","","","","","","","","","",""
"html-keyboard-response","90","453375","0.0-3.0-11.0-6.0-1.0","spark_pilot_norest","8819","3","18","Male","","","","","","","null","<div style=""font-size:200px;color:red;"">3</div>","null","","","","","","","","","","","","",""
"html-keyboard-response","91","454381","0.0-3.0-11.0-6.0-2.0","spark_pilot_norest","8819","3","18","Male","","","","","","","null","<div style=""font-size:200px;color:red;"">2</div>","null","","","","","","","","","","","","",""
"html-keyboard-response","92","455393","0.0-3.0-11.0-6.0-3.0","spark_pilot_norest","8819","3","18","Male","","","","","","","null","<div style=""font-size:200px;color:red;"">1</div>","null","","","","","","","","","","","","",""
"revaluation","93","455894","0.0-3.0-11.0-7.0","spark_pilot_norest","8819","3","18","Male","","false","","","","","[499.10000002384186]","./assets/img/space/15.jpg","[""ArrowUp""]","practice block","space","0","{""ArrowUp,ArrowLeft"":3,""ArrowUp,ArrowRight"":36,""ArrowDown,ArrowLeft"":15,""ArrowDown,ArrowRight"":23}","true","ArrowUp","false","","","","","",""
"html-keyboard-response","94","456401","0.0-3.0-11.0-8.0","spark_pilot_norest","8819","3","18","Male","","","","","","","null","<div style=""font-size:60px;"">+</div>","null","fixation","","","","","","","","","","","",""
"learning-instructions","95","469787","0.0-3.0-11.0-9.0-0.0","spark_pilot_norest","8819","3","18","Male","","","","","","","null","<p> Now you will see the animals again and can search their chests for treasure. </p>
            <p> This time, you will not see how much treasure you earned, but you will earn more bonus money for making better choices. </p>","","instructions","","","","","","","","","","","",""
"html-keyboard-response","96","470797","0.0-3.0-11.0-10.0-0.0","spark_pilot_norest","8819","3","18","Male","","","","","","","null","<div style=""font-size:100px;color:red;"">Starting in...</div>","null","","","","","","","","","","","","",""
"html-keyboard-response","97","471810","0.0-3.0-11.0-10.0-1.0","spark_pilot_norest","8819","3","18","Male","","","","","","","null","<div style=""font-size:200px;color:red;"">3</div>","null","","","","","","","","","","","","",""
"html-keyboard-response","98","472817","0.0-3.0-11.0-10.0-2.0","spark_pilot_norest","8819","3","18","Male","","","","","","","null","<div style=""font-size:200px;color:red;"">2</div>","null","","","","","","","","","","","","",""
"html-keyboard-response","99","473825","0.0-3.0-11.0-10.0-3.0","spark_pilot_norest","8819","3","18","Male","","","","","","","null","<div style=""font-size:200px;color:red;"">1</div>","null","","","","","","","","","","","","",""
"revaluation","100","474138","0.0-3.0-11.0-11.0-0.0","spark_pilot_norest","8819","3","18","Male","","false","","","","","[310.6999999284744]","./assets/img/space/animals/cat.jpg","[""ArrowRight""]","practice block","space","0","{""ArrowUp,ArrowLeft"":3,""ArrowUp,ArrowRight"":36,""ArrowDown,ArrowLeft"":15,""ArrowDown,ArrowRight"":23}","true","ArrowUp,ArrowRight","","","","","","",""
"html-keyboard-response","101","474645","0.0-3.0-11.0-11.0-1.0","spark_pilot_norest","8819","3","18","Male","","","","","","","null","<div style=""font-size:60px;"">+</div>","null","fixation","","","","","","","","","","","",""
"revaluation","102","474656","0.0-3.0-11.0-11.0-0.1","spark_pilot_norest","8819","3","18","Male","","false","","","","","[7.800000071525574]","./assets/img/space/animals/rabbit.jpg","[""ArrowRight""]","practice block","space","0","{""ArrowUp,ArrowLeft"":3,""ArrowUp,ArrowRight"":36,""ArrowDown,ArrowLeft"":15,""ArrowDown,ArrowRight"":23}","true","ArrowDown,ArrowRight","","","","","","",""
"html-keyboard-response","103","475171","0.0-3.0-11.0-11.0-1.1","spark_pilot_norest","8819","3","18","Male","","","","","","","null","<div style=""font-size:60px;"">+</div>","null","fixation","","","","","","","","","","","",""
"learning-instructions","104","481154","0.0-3.0-12.0-0.0","spark_pilot_norest","8819","3","18","Male","","","","","","","1404.2000000476837","<p> Before you start, we're going to ask you a few questions about how the game works. </p>","","instructions","","","","","","","","","","","",""
"comp-q","105","488510","0.0-3.0-13.0-0.0-0.0","spark_pilot_norest","8819","3","18","Male","","","","","","","1768.1000000238419","<p> <b> True or False? </b> </p>
            <p> There can be 50 pieces of treasure in a given animal's chest. </p>","0","comp_question","","","","false","","","","","","","",""
"comp-q","106","496805","0.0-3.0-13.0-0.0-1.0","spark_pilot_norest","8819","3","18","Male","","","","","","","1776.1000000238419","<p> <b>Incorrect.</b> The amount of treasure in each chest can range from 0 to 40 pieces. </p>","0","comp_answer","","","","","","","","","","","",""
"comp-q","107","503132","0.0-3.0-13.0-0.1-0.1","spark_pilot_norest","8819","3","18","Male","","","","","","","772.6000000238419","<p> <b> True or False? </b> </p>
            <p> There can be 50 pieces of treasure in a given animal's chest. </p>","1","comp_question","","","","true","","","","","","","",""
"comp-q","108","511102","0.0-3.0-13.0-0.1-1.1","spark_pilot_norest","8819","3","18","Male","","","","","","","1312.6000000238419","<p> <b> That's right! </b> The amount of treasure in each chest can range from 0 to 40 pieces. </p>","0","comp_answer","","","","","","","","","","","",""
"comp-q","109","519295","0.0-3.0-13.0-0.2-0.2","spark_pilot_norest","8819","3","18","Male","","","","","","","1084.2000000476837","<p> <b> True or False? </b> </p><p> In this game, all animals have the same amount of treasure in their left and right chests. </p>","1","comp_question","","","","true","","","","","","","",""
"comp-q","110","525751","0.0-3.0-13.0-0.2-1.2","spark_pilot_norest","8819","3","18","Male","","","","","","","1221.1000000238419","<p> <b> That's right! </b> Animals have different amounts of treasure in their treasure chests. </p>","0","comp_answer","","","","","","","","","","","",""
"comp-q","111","532559","0.0-3.0-13.0-0.3-0.3","spark_pilot_norest","8819","3","18","Male","","","","","","","969.6999999284744","<p> <b> True or False? </b> </p><p> The same animal will always be there if you go up in the same place. </p>","1","comp_question","","","","false","","","","","","","",""
"comp-q","112","541311","0.0-3.0-13.0-0.3-1.3","spark_pilot_norest","8819","3","18","Male","","","","","","","2451.7999999523163","<p> <b>Incorrect.</b> One animal lives in the upper part and one lives in the lower part of every place. </p>","0","comp_answer","","","","","","","","","","","",""
"comp-q","113","547767","0.0-3.0-13.0-0.4-0.4","spark_pilot_norest","8819","3","18","Male","","","","","","","628.1000000238419","<p> <b> True or False? </b> </p><p> The same animal will always be there if you go up in the same place. </p>","0","comp_question","","","","true","","","","","","","",""
"comp-q","114","555287","0.0-3.0-13.0-0.4-1.4","spark_pilot_norest","8819","3","18","Male","","","","","","","1067.1000000238419","<p> <b> That's right! </b> One animal lives in the upper part and one lives in the lower part of every place. </p>","0","comp_answer","","","","","","","","","","","",""
"comp-q","115","563735","0.0-3.0-13.0-0.5-0.5","spark_pilot_norest","8819","3","18","Male","","","","","","","2915.8000000715256","<p> <b> True or False? </b> </p><p> If you see a different picture, it means you are in a new place. </p>","0","comp_question","","","","false","","","","","","","",""
"comp-q","116","575598","0.0-3.0-13.0-0.5-1.5","spark_pilot_norest","8819","3","18","Male","","","","","","","767.6999999284744","<p> <b>Incorrect.</b> Lots of different images may show the same place. For example,  you may see three different images that all remind you that you are in outer space. </p>","0","comp_answer","","","","","","","","","","","",""
"comp-q","117","581666","0.0-3.0-13.0-0.6-0.6","spark_pilot_norest","8819","3","18","Male","","","","","","","565.5999999046326","<p> <b> True or False? </b> </p><p> If you see a different picture, it means you are in a new place. </p>","1","comp_question","","","","true","","","","","","","",""
"comp-q","118","593971","0.0-3.0-13.0-0.6-1.6","spark_pilot_norest","8819","3","18","Male","","","","","","","1060.8999999761581","<p> <b> That's right! </b> Lots of different images may show the same place. For example,  you may see three different images that all remind you that you are in outer space. </p>","0","comp_answer","","","","","","","","","","","",""
"learning-instructions","119","605013","0.0-3.0-14.0-0.0","spark_pilot_norest","8819","3","18","Male","","","","","","","1193.6000000238419","<p> Good job. Remember to do your best because the amount of treasure you earn will be converted into bonus money. </p>
            <p> It’s time to start the real game! </p>","","instructions","","","","","","","","","","","",""
"learning-instructions","120","609601","0.0-4.0-0.0-0.0","spark_pilot_norest","8819","3","18","Male","","","","","","","1871.6000000238419","<p> This time you are searching for treasure in the <b>ocean</b>.</p>","","instructions","","","","","","","","","","","",""
"learning-instructions","121","627530","0.0-4.0-0.0-0.1","spark_pilot_norest","8819","3","18","Male","","","","","","","641","<p><b>New</b> animals with <b>new</b> treasure chests live here. You need to explore to discover where the animal with the best treasure chest is.</p>
                    <p> Like before, once you figure out which animal has the chest with the most treasure, you should try to get to that animal and select that chest! </p>","","instructions","","","","","","","","","","","",""
"learning-instructions","122","643304","0.0-4.0-1.0-0.0","spark_pilot_norest","8819","3","18","Male","","","","","","","1044.6000000238419","<p> Remember, when you see a picture of the place, use the up and down keys to <b>find an animal</b>.</p>
            <p> When you encounter an animal, you should use the left and right keys to <b>select a treasure chest</b>.</p>
            <p> Don't forget to look out for the robber! </p>","","instructions","","","","","","","","","","","",""
"revaluation","123","649327","0.0-4.0-2.0-0.0","spark_pilot_norest","8819","3","18","Male","","false","","","","","[835.1999999284744,702.5]","./assets/img/ocean/memory/27.jpg","[""ArrowUp"",""ArrowLeft""]","value training","ocean","23","{""ArrowUp,ArrowLeft"":23,""ArrowUp,ArrowRight"":10,""ArrowDown,ArrowLeft"":8,""ArrowDown,ArrowRight"":30}","false","ArrowUp,ArrowLeft","false","original","1","0","","",""
"html-keyboard-response","124","649830","0.0-4.0-2.0-1.0","spark_pilot_norest","8819","3","18","Male","","","","","","","null","<div style=""font-size:60px;"">+</div>","null","fixation","","","","","","","","","1","","",""
"revaluation","125","655856","0.0-4.0-2.0-0.1","spark_pilot_norest","8819","3","18","Male","","false","","","","","[314.7999999523163,341.8000000715256]","./assets/img/ocean/memory/18.jpg","[""ArrowUp"",""ArrowRight""]","value training","ocean","10","{""ArrowUp,ArrowLeft"":23,""ArrowUp,ArrowRight"":10,""ArrowDown,ArrowLeft"":8,""ArrowDown,ArrowRight"":30}","false","ArrowUp,ArrowRight","false","original","1","2","","",""
"html-keyboard-response","126","656357","0.0-4.0-2.0-1.1","spark_pilot_norest","8819","3","18","Male","","","","","","","null","<div style=""font-size:60px;"">+</div>","null","fixation","","","","","","","","","3","","",""
"revaluation","127","662386","0.0-4.0-2.0-0.2","spark_pilot_norest","8819","3","18","Male","","false","","","","","[482,389.3000000715256]","./assets/img/ocean/memory/3.jpg","[""ArrowDown"",""ArrowLeft""]","value training","ocean","8","{""ArrowUp,ArrowLeft"":23,""ArrowUp,ArrowRight"":10,""ArrowDown,ArrowLeft"":8,""ArrowDown,ArrowRight"":30}","false","ArrowDown,ArrowLeft","false","original","1","4","","",""
"html-keyboard-response","128","662897","0.0-4.0-2.0-1.2","spark_pilot_norest","8819","3","18","Male","","","","","","","null","<div style=""font-size:60px;"">+</div>","null","fixation","","","","","","","","","5","","",""
"revaluation","129","668918","0.0-4.0-2.0-0.3","spark_pilot_norest","8819","3","18","Male","","false","","","","","[927.2000000476837,399.60000002384186]","./assets/img/ocean/memory/24.jpg","[""ArrowDown"",""ArrowRight""]","value training","ocean","30","{""ArrowUp,ArrowLeft"":23,""ArrowUp,ArrowRight"":10,""ArrowDown,ArrowLeft"":8,""ArrowDown,ArrowRight"":30}","true","ArrowDown,ArrowRight","false","original","1","6","","",""
"html-keyboard-response","130","669430","0.0-4.0-2.0-1.3","spark_pilot_norest","8819","3","18","Male","","","","","","","null","<div style=""font-size:60px;"">+</div>","null","fixation","","","","","","","","","7","","",""
"revaluation","131","675441","0.0-4.0-2.0-0.4","spark_pilot_norest","8819","3","18","Male","","false","","","","","[363.60000002384186,267.2000000476837]","./assets/img/ocean/memory/8.jpg","[""ArrowDown"",""ArrowRight""]","value training","ocean","30","{""ArrowUp,ArrowLeft"":23,""ArrowUp,ArrowRight"":10,""ArrowDown,ArrowLeft"":8,""ArrowDown,ArrowRight"":30}","true","ArrowDown,ArrowRight","false","original","1","8","","",""
"html-keyboard-response","132","675942","0.0-4.0-2.0-1.4","spark_pilot_norest","8819","3","18","Male","","","","","","","null","<div style=""font-size:60px;"">+</div>","null","fixation","","","","","","","","","9","","",""
"revaluation","133","681947","0.0-4.0-2.0-0.5","spark_pilot_norest","8819","3","18","Male","","false","","","","","[528,349.2000000476837]","./assets/img/ocean/memory/39.jpg","[""ArrowDown"",""ArrowRight""]","value training","ocean","30","{""ArrowUp,ArrowLeft"":23,""ArrowUp,ArrowRight"":10,""ArrowDown,ArrowLeft"":8,""ArrowDown,ArrowRight"":30}","true","ArrowDown,ArrowRight","false","original","1","10","","",""
"html-keyboard-response","134","682447","0.0-4.0-2.0-1.5","spark_pilot_norest","8819","3","18","Male","","","","","","","null","<div style=""font-size:60px;"">+</div>","null","fixation","","","","","","","","","11","","",""
"revaluation","135","686452","0.0-4.0-2.0-0.6","spark_pilot_norest","8819","3","18","Male","","false","","","","","[655.8000000715256]","./assets/img/ocean/catch/2.jpg","[""spaceBar""]","value training","ocean","0","{""ArrowUp,ArrowLeft"":23,""ArrowUp,ArrowRight"":10,""ArrowDown,ArrowLeft"":8,""ArrowDown,ArrowRight"":30}","true","spaceBar","true","original","1","12","","",""
"html-keyboard-response","136","686955","0.0-4.0-2.0-1.6","spark_pilot_norest","8819","3","18","Male","","","","","","","null","<div style=""font-size:60px;"">+</div>","null","fixation","","","","","","","","","13","","",""
"revaluation","137","690957","0.0-4.0-2.0-0.7","spark_pilot_norest","8819","3","18","Male","","false","","","","","[462.90000009536743]","./assets/img/ocean/catch/0.jpg","[""spaceBar""]","value training","ocean","0","{""ArrowUp,ArrowLeft"":23,""ArrowUp,ArrowRight"":10,""ArrowDown,ArrowLeft"":8,""ArrowDown,ArrowRight"":30}","true","spaceBar","true","original","1","14","","",""
"html-keyboard-response","138","691458","0.0-4.0-2.0-1.7","spark_pilot_norest","8819","3","18","Male","","","","","","","null","<div style=""font-size:60px;"">+</div>","null","fixation","","","","","","","","","15","","",""
"revaluation","139","697462","0.0-4.0-2.0-0.8","spark_pilot_norest","8819","3","18","Male","","false","","","","","[740.8000000715256,316.59999990463257]","./assets/img/ocean/memory/13.jpg","[""ArrowDown"",""ArrowRight""]","value training","ocean","30","{""ArrowUp,ArrowLeft"":23,""ArrowUp,ArrowRight"":10,""ArrowDown,ArrowLeft"":8,""ArrowDown,ArrowRight"":30}","true","ArrowDown,ArrowRight","false","original","1","16","","",""
"html-keyboard-response","140","697964","0.0-4.0-2.0-1.8","spark_pilot_norest","8819","3","18","Male","","","","","","","null","<div style=""font-size:60px;"">+</div>","null","fixation","","","","","","","","","17","","",""
"revaluation","141","703968","0.0-4.0-2.0-0.9","spark_pilot_norest","8819","3","18","Male","","false","","","","","[912.8000000715256,456]","./assets/img/ocean/memory/15.jpg","[""ArrowDown"",""ArrowRight""]","value training","ocean","30","{""ArrowUp,ArrowLeft"":23,""ArrowUp,ArrowRight"":10,""ArrowDown,ArrowLeft"":8,""ArrowDown,ArrowRight"":30}","true","ArrowDown,ArrowRight","false","original","1","18","","",""
"html-keyboard-response","142","704468","0.0-4.0-2.0-1.9","spark_pilot_norest","8819","3","18","Male","","","","","","","null","<div style=""font-size:60px;"">+</div>","null","fixation","","","","","","","","","19","","",""
"revaluation","143","710473","0.0-4.0-2.0-0.10","spark_pilot_norest","8819","3","18","Male","","false","","","","","[881,322.89999997615814]","./assets/img/ocean/memory/24.jpg","[""ArrowDown"",""ArrowRight""]","value training","ocean","30","{""ArrowUp,ArrowLeft"":23,""ArrowUp,ArrowRight"":10,""ArrowDown,ArrowLeft"":8,""ArrowDown,ArrowRight"":30}","true","ArrowDown,ArrowRight","false","original","1","20","","",""
"html-keyboard-response","144","710973","0.0-4.0-2.0-1.10","spark_pilot_norest","8819","3","18","Male","","","","","","","null","<div style=""font-size:60px;"">+</div>","null","fixation","","","","","","","","","21","","",""
"revaluation","145","716978","0.0-4.0-2.0-0.11","spark_pilot_norest","8819","3","18","Male","","false","","","","","[626.7999999523163,324.2999999523163]","./assets/img/ocean/memory/19.jpg","[""ArrowDown"",""ArrowRight""]","value training","ocean","30","{""ArrowUp,ArrowLeft"":23,""ArrowUp,ArrowRight"":10,""ArrowDown,ArrowLeft"":8,""ArrowDown,ArrowRight"":30}","true","ArrowDown,ArrowRight","false","original","1","22","","",""
"html-keyboard-response","146","717481","0.0-4.0-2.0-1.11","spark_pilot_norest","8819","3","18","Male","","","","","","","null","<div style=""font-size:60px;"">+</div>","null","fixation","","","","","","","","","23","","",""
"revaluation","147","723488","0.0-4.0-2.0-0.12","spark_pilot_norest","8819","3","18","Male","","false","","","","","[707.7000000476837,316]","./assets/img/ocean/memory/15.jpg","[""ArrowDown"",""ArrowRight""]","value training","ocean","30","{""ArrowUp,ArrowLeft"":23,""ArrowUp,ArrowRight"":10,""ArrowDown,ArrowLeft"":8,""ArrowDown,ArrowRight"":30}","true","ArrowDown,ArrowRight","false","original","1","24","","",""
"html-keyboard-response","148","723990","0.0-4.0-2.0-1.12","spark_pilot_norest","8819","3","18","Male","","","","","","","null","<div style=""font-size:60px;"">+</div>","null","fixation","","","","","","","","","25","","",""
"revaluation","149","729993","0.0-4.0-2.0-0.13","spark_pilot_norest","8819","3","18","Male","","false","","","","","[899.8999999761581,329.5]","./assets/img/ocean/memory/7.jpg","[""ArrowDown"",""ArrowRight""]","value training","ocean","30","{""ArrowUp,ArrowLeft"":23,""ArrowUp,ArrowRight"":10,""ArrowDown,ArrowLeft"":8,""ArrowDown,ArrowRight"":30}","true","ArrowDown,ArrowRight","false","original","1","26","","",""
"html-keyboard-response","150","730495","0.0-4.0-2.0-1.13","spark_pilot_norest","8819","3","18","Male","","","","","","","null","<div style=""font-size:60px;"">+</div>","null","fixation","","","","","","","","","27","","",""
"revaluation","151","736500","0.0-4.0-2.0-0.14","spark_pilot_norest","8819","3","18","Male","","false","","","","","[583.8999999761581,267.7000000476837]","./assets/img/ocean/memory/19.jpg","[""ArrowDown"",""ArrowRight""]","value training","ocean","30","{""ArrowUp,ArrowLeft"":23,""ArrowUp,ArrowRight"":10,""ArrowDown,ArrowLeft"":8,""ArrowDown,ArrowRight"":30}","true","ArrowDown,ArrowRight","false","original","1","28","","",""
"html-keyboard-response","152","737002","0.0-4.0-2.0-1.14","spark_pilot_norest","8819","3","18","Male","","","","","","","null","<div style=""font-size:60px;"">+</div>","null","fixation","","","","","","","","","29","","",""
"revaluation","153","743006","0.0-4.0-2.0-0.15","spark_pilot_norest","8819","3","18","Male","","false","","","","","[660.7000000476837,286.2000000476837]","./assets/img/ocean/memory/14.jpg","[""ArrowDown"",""ArrowRight""]","value training","ocean","30","{""ArrowUp,ArrowLeft"":23,""ArrowUp,ArrowRight"":10,""ArrowDown,ArrowLeft"":8,""ArrowDown,ArrowRight"":30}","true","ArrowDown,ArrowRight","false","original","1","30","","",""
"html-keyboard-response","154","743508","0.0-4.0-2.0-1.15","spark_pilot_norest","8819","3","18","Male","","","","","","","null","<div style=""font-size:60px;"">+</div>","null","fixation","","","","","","","","","31","","",""
"revaluation","155","747511","0.0-4.0-2.0-0.16","spark_pilot_norest","8819","3","18","Male","","false","","","","","[817.9000000953674]","./assets/img/ocean/catch/4.jpg","[""spaceBar""]","value training","ocean","0","{""ArrowUp,ArrowLeft"":23,""ArrowUp,ArrowRight"":10,""ArrowDown,ArrowLeft"":8,""ArrowDown,ArrowRight"":30}","true","spaceBar","true","original","1","32","","",""
"html-keyboard-response","156","748012","0.0-4.0-2.0-1.16","spark_pilot_norest","8819","3","18","Male","","","","","","","null","<div style=""font-size:60px;"">+</div>","null","fixation","","","","","","","","","33","","",""
"revaluation","157","754016","0.0-4.0-2.0-0.17","spark_pilot_norest","8819","3","18","Male","","false","","","","","[932.2000000476837,321.7000000476837]","./assets/img/ocean/memory/9.jpg","[""ArrowDown"",""ArrowRight""]","value training","ocean","30","{""ArrowUp,ArrowLeft"":23,""ArrowUp,ArrowRight"":10,""ArrowDown,ArrowLeft"":8,""ArrowDown,ArrowRight"":30}","true","ArrowDown,ArrowRight","false","original","1","34","","",""
"html-keyboard-response","158","754518","0.0-4.0-2.0-1.17","spark_pilot_norest","8819","3","18","Male","","","","","","","null","<div style=""font-size:60px;"">+</div>","null","fixation","","","","","","","","","35","","",""
"revaluation","159","758522","0.0-4.0-2.0-0.18","spark_pilot_norest","8819","3","18","Male","","false","","","","","[534.3999999761581]","./assets/img/ocean/catch/5.jpg","[""ArrowDown""]","value training","ocean","-10","{""ArrowUp,ArrowLeft"":23,""ArrowUp,ArrowRight"":10,""ArrowDown,ArrowLeft"":8,""ArrowDown,ArrowRight"":30}","false","ArrowDown","true","original","1","36","","",""
"html-keyboard-response","160","759023","0.0-4.0-2.0-1.18","spark_pilot_norest","8819","3","18","Male","","","","","","","null","<div style=""font-size:60px;"">+</div>","null","fixation","","","","","","","","","37","","",""
"revaluation","161","765026","0.0-4.0-2.0-0.19","spark_pilot_norest","8819","3","18","Male","","false","","","","","[1127.7000000476837,274.7999999523163]","./assets/img/ocean/memory/21.jpg","[""ArrowDown"",""ArrowRight""]","value training","ocean","30","{""ArrowUp,ArrowLeft"":23,""ArrowUp,ArrowRight"":10,""ArrowDown,ArrowLeft"":8,""ArrowDown,ArrowRight"":30}","true","ArrowDown,ArrowRight","false","original","1","38","","",""
"html-keyboard-response","162","765528","0.0-4.0-2.0-1.19","spark_pilot_norest","8819","3","18","Male","","","","","","","null","<div style=""font-size:60px;"">+</div>","null","fixation","","","","","","","","","39","","",""
"revaluation","163","771532","0.0-4.0-2.0-0.20","spark_pilot_norest","8819","3","18","Male","","false","","","","","[583,285.59999990463257]","./assets/img/ocean/memory/3.jpg","[""ArrowDown"",""ArrowRight""]","value training","ocean","30","{""ArrowUp,ArrowLeft"":23,""ArrowUp,ArrowRight"":10,""ArrowDown,ArrowLeft"":8,""ArrowDown,ArrowRight"":30}","true","ArrowDown,ArrowRight","false","original","1","40","","",""
"html-keyboard-response","164","772033","0.0-4.0-2.0-1.20","spark_pilot_norest","8819","3","18","Male","","","","","","","null","<div style=""font-size:60px;"">+</div>","null","fixation","","","","","","","","","41","","",""
"revaluation","165","778041","0.0-4.0-2.0-0.21","spark_pilot_norest","8819","3","18","Male","","false","","","","","[716.3999999761581,307.1999999284744]","./assets/img/ocean/memory/22.jpg","[""ArrowDown"",""ArrowRight""]","value training","ocean","30","{""ArrowUp,ArrowLeft"":23,""ArrowUp,ArrowRight"":10,""ArrowDown,ArrowLeft"":8,""ArrowDown,ArrowRight"":30}","true","ArrowDown,ArrowRight","false","original","1","42","","",""
"html-keyboard-response","166","778542","0.0-4.0-2.0-1.21","spark_pilot_norest","8819","3","18","Male","","","","","","","null","<div style=""font-size:60px;"">+</div>","null","fixation","","","","","","","","","43","","",""
"revaluation","167","784546","0.0-4.0-2.0-0.22","spark_pilot_norest","8819","3","18","Male","","false","","","","","[554.2000000476837,254.5]","./assets/img/ocean/memory/16.jpg","[""ArrowDown"",""ArrowRight""]","value training","ocean","30","{""ArrowUp,ArrowLeft"":23,""ArrowUp,ArrowRight"":10,""ArrowDown,ArrowLeft"":8,""ArrowDown,ArrowRight"":30}","true","ArrowDown,ArrowRight","false","original","1","44","","",""
"html-keyboard-response","168","785048","0.0-4.0-2.0-1.22","spark_pilot_norest","8819","3","18","Male","","","","","","","null","<div style=""font-size:60px;"">+</div>","null","fixation","","","","","","","","","45","","",""
"revaluation","169","789053","0.0-4.0-2.0-0.23","spark_pilot_norest","8819","3","18","Male","","false","","","","","[605.1000000238419]","./assets/img/ocean/catch/6.jpg","[""spaceBar""]","value training","ocean","0","{""ArrowUp,ArrowLeft"":23,""ArrowUp,ArrowRight"":10,""ArrowDown,ArrowLeft"":8,""ArrowDown,ArrowRight"":30}","true","spaceBar","true","original","1","46","","",""
"html-keyboard-response","170","789554","0.0-4.0-2.0-1.23","spark_pilot_norest","8819","3","18","Male","","","","","","","null","<div style=""font-size:60px;"">+</div>","null","fixation","","","","","","","","","47","","",""
"revaluation","171","793558","0.0-4.0-2.0-0.24","spark_pilot_norest","8819","3","18","Male","","false","","","","","[735]","./assets/img/ocean/catch/7.jpg","[""spaceBar""]","value training","ocean","0","{""ArrowUp,ArrowLeft"":23,""ArrowUp,ArrowRight"":10,""ArrowDown,ArrowLeft"":8,""ArrowDown,ArrowRight"":30}","true","spaceBar","true","original","1","48","","",""
"html-keyboard-response","172","794059","0.0-4.0-2.0-1.24","spark_pilot_norest","8819","3","18","Male","","","","","","","null","<div style=""font-size:60px;"">+</div>","null","fixation","","","","","","","","","49","","",""
"revaluation","173","800062","0.0-4.0-2.0-0.25","spark_pilot_norest","8819","3","18","Male","","false","","","","","[420.3000000715256,345.2000000476837]","./assets/img/ocean/memory/8.jpg","[""ArrowDown"",""ArrowRight""]","value training","ocean","30","{""ArrowUp,ArrowLeft"":23,""ArrowUp,ArrowRight"":10,""ArrowDown,ArrowLeft"":8,""ArrowDown,ArrowRight"":30}","true","ArrowDown,ArrowRight","false","original","1","50","","",""
"html-keyboard-response","174","800563","0.0-4.0-2.0-1.25","spark_pilot_norest","8819","3","18","Male","","","","","","","null","<div style=""font-size:60px;"">+</div>","null","fixation","","","","","","","","","51","","",""
"revaluation","175","806579","0.0-4.0-2.0-0.26","spark_pilot_norest","8819","3","18","Male","","false","","","","","[676.3000000715256,270.39999997615814]","./assets/img/ocean/memory/32.jpg","[""ArrowDown"",""ArrowRight""]","value training","ocean","30","{""ArrowUp,ArrowLeft"":23,""ArrowUp,ArrowRight"":10,""ArrowDown,ArrowLeft"":8,""ArrowDown,ArrowRight"":30}","true","ArrowDown,ArrowRight","false","original","1","52","","",""
"html-keyboard-response","176","807080","0.0-4.0-2.0-1.26","spark_pilot_norest","8819","3","18","Male","","","","","","","null","<div style=""font-size:60px;"">+</div>","null","fixation","","","","","","","","","53","","",""
"revaluation","177","813098","0.0-4.0-2.0-0.27","spark_pilot_norest","8819","3","18","Male","","false","","","","","[848,454.39999997615814]","./assets/img/ocean/memory/9.jpg","[""ArrowDown"",""ArrowRight""]","value training","ocean","30","{""ArrowUp,ArrowLeft"":23,""ArrowUp,ArrowRight"":10,""ArrowDown,ArrowLeft"":8,""ArrowDown,ArrowRight"":30}","true","ArrowDown,ArrowRight","false","original","1","54","","",""
"html-keyboard-response","178","813600","0.0-4.0-2.0-1.27","spark_pilot_norest","8819","3","18","Male","","","","","","","null","<div style=""font-size:60px;"">+</div>","null","fixation","","","","","","","","","55","","",""
"revaluation","179","819606","0.0-4.0-2.0-0.28","spark_pilot_norest","8819","3","18","Male","","false","","","","","[506.2000000476837,268.5]","./assets/img/ocean/memory/28.jpg","[""ArrowDown"",""ArrowRight""]","value training","ocean","30","{""ArrowUp,ArrowLeft"":23,""ArrowUp,ArrowRight"":10,""ArrowDown,ArrowLeft"":8,""ArrowDown,ArrowRight"":30}","true","ArrowDown,ArrowRight","false","original","1","56","","",""
"html-keyboard-response","180","820107","0.0-4.0-2.0-1.28","spark_pilot_norest","8819","3","18","Male","","","","","","","null","<div style=""font-size:60px;"">+</div>","null","fixation","","","","","","","","","57","","",""
"revaluation","181","826111","0.0-4.0-2.0-0.29","spark_pilot_norest","8819","3","18","Male","","false","","","","","[757.8999999761581,310.5]","./assets/img/ocean/memory/22.jpg","[""ArrowDown"",""ArrowRight""]","value training","ocean","30","{""ArrowUp,ArrowLeft"":23,""ArrowUp,ArrowRight"":10,""ArrowDown,ArrowLeft"":8,""ArrowDown,ArrowRight"":30}","true","ArrowDown,ArrowRight","false","original","1","58","","",""
"html-keyboard-response","182","826613","0.0-4.0-2.0-1.29","spark_pilot_norest","8819","3","18","Male","","","","","","","null","<div style=""font-size:60px;"">+</div>","null","fixation","","","","","","","","","59","","",""
"revaluation","183","830618","0.0-4.0-2.0-0.30","spark_pilot_norest","8819","3","18","Male","","false","","","","","[620.6000000238419]","./assets/img/ocean/catch/3.jpg","[""spaceBar""]","value training","ocean","0","{""ArrowUp,ArrowLeft"":23,""ArrowUp,ArrowRight"":10,""ArrowDown,ArrowLeft"":8,""ArrowDown,ArrowRight"":30}","true","spaceBar","true","original","1","60","","",""
"html-keyboard-response","184","831120","0.0-4.0-2.0-1.30","spark_pilot_norest","8819","3","18","Male","","","","","","","null","<div style=""font-size:60px;"">+</div>","null","fixation","","","","","","","","","61","","",""
"revaluation","185","837125","0.0-4.0-2.0-0.31","spark_pilot_norest","8819","3","18","Male","","false","","","","","[521.3999999761581,298.60000002384186]","./assets/img/ocean/memory/29.jpg","[""ArrowDown"",""ArrowRight""]","value training","ocean","30","{""ArrowUp,ArrowLeft"":23,""ArrowUp,ArrowRight"":10,""ArrowDown,ArrowLeft"":8,""ArrowDown,ArrowRight"":30}","true","ArrowDown,ArrowRight","false","original","1","62","","",""
"html-keyboard-response","186","837626","0.0-4.0-2.0-1.31","spark_pilot_norest","8819","3","18","Male","","","","","","","null","<div style=""font-size:60px;"">+</div>","null","fixation","","","","","","","","","63","","",""
"revaluation","187","843630","0.0-4.0-2.0-0.32","spark_pilot_norest","8819","3","18","Male","","false","","","","","[569.5,424.3000000715256]","./assets/img/ocean/memory/18.jpg","[""ArrowDown"",""ArrowRight""]","value training","ocean","30","{""ArrowUp,ArrowLeft"":23,""ArrowUp,ArrowRight"":10,""ArrowDown,ArrowLeft"":8,""ArrowDown,ArrowRight"":30}","true","ArrowDown,ArrowRight","false","original","1","64","","",""
"html-keyboard-response","188","844132","0.0-4.0-2.0-1.32","spark_pilot_norest","8819","3","18","Male","","","","","","","null","<div style=""font-size:60px;"">+</div>","null","fixation","","","","","","","","","65","","",""
"revaluation","189","850135","0.0-4.0-2.0-0.33","spark_pilot_norest","8819","3","18","Male","","false","","","","","[937.2000000476837,257.7999999523163]","./assets/img/ocean/memory/39.jpg","[""ArrowDown"",""ArrowRight""]","value training","ocean","30","{""ArrowUp,ArrowLeft"":23,""ArrowUp,ArrowRight"":10,""ArrowDown,ArrowLeft"":8,""ArrowDown,ArrowRight"":30}","true","ArrowDown,ArrowRight","false","original","1","66","","",""
"html-keyboard-response","190","850637","0.0-4.0-2.0-1.33","spark_pilot_norest","8819","3","18","Male","","","","","","","null","<div style=""font-size:60px;"">+</div>","null","fixation","","","","","","","","","67","","",""
"revaluation","191","856641","0.0-4.0-2.0-0.34","spark_pilot_norest","8819","3","18","Male","","false","","","","","[784.5,316.09999990463257]","./assets/img/ocean/memory/26.jpg","[""ArrowDown"",""ArrowRight""]","value training","ocean","30","{""ArrowUp,ArrowLeft"":23,""ArrowUp,ArrowRight"":10,""ArrowDown,ArrowLeft"":8,""ArrowDown,ArrowRight"":30}","true","ArrowDown,ArrowRight","false","original","1","68","","",""
"html-keyboard-response","192","857142","0.0-4.0-2.0-1.34","spark_pilot_norest","8819","3","18","Male","","","","","","","null","<div style=""font-size:60px;"">+</div>","null","fixation","","","","","","","","","69","","",""
"revaluation","193","863147","0.0-4.0-2.0-0.35","spark_pilot_norest","8819","3","18","Male","","false","","","","","[761.2000000476837,251.29999995231628]","./assets/img/ocean/memory/16.jpg","[""ArrowDown"",""ArrowRight""]","value training","ocean","30","{""ArrowUp,ArrowLeft"":23,""ArrowUp,ArrowRight"":10,""ArrowDown,ArrowLeft"":8,""ArrowDown,ArrowRight"":30}","true","ArrowDown,ArrowRight","false","original","1","70","","",""
"html-keyboard-response","194","863648","0.0-4.0-2.0-1.35","spark_pilot_norest","8819","3","18","Male","","","","","","","null","<div style=""font-size:60px;"">+</div>","null","fixation","","","","","","","","","71","","",""
"revaluation","195","869652","0.0-4.0-2.0-0.36","spark_pilot_norest","8819","3","18","Male","","false","","","","","[598.8999999761581,239.10000002384186]","./assets/img/ocean/memory/14.jpg","[""ArrowDown"",""ArrowRight""]","value training","ocean","30","{""ArrowUp,ArrowLeft"":23,""ArrowUp,ArrowRight"":10,""ArrowDown,ArrowLeft"":8,""ArrowDown,ArrowRight"":30}","true","ArrowDown,ArrowRight","false","original","1","72","","",""
"html-keyboard-response","196","870153","0.0-4.0-2.0-1.36","spark_pilot_norest","8819","3","18","Male","","","","","","","null","<div style=""font-size:60px;"">+</div>","null","fixation","","","","","","","","","73","","",""
"revaluation","197","876158","0.0-4.0-2.0-0.37","spark_pilot_norest","8819","3","18","Male","","false","","","","","[610.1999999284744,325.2999999523163]","./assets/img/ocean/memory/28.jpg","[""ArrowDown"",""ArrowRight""]","value training","ocean","30","{""ArrowUp,ArrowLeft"":23,""ArrowUp,ArrowRight"":10,""ArrowDown,ArrowLeft"":8,""ArrowDown,ArrowRight"":30}","true","ArrowDown,ArrowRight","false","original","1","74","","",""
"html-keyboard-response","198","876660","0.0-4.0-2.0-1.37","spark_pilot_norest","8819","3","18","Male","","","","","","","null","<div style=""font-size:60px;"">+</div>","null","fixation","","","","","","","","","75","","",""
"revaluation","199","882666","0.0-4.0-2.0-0.38","spark_pilot_norest","8819","3","18","Male","","false","","","","","[805.8999999761581,266.60000002384186]","./assets/img/ocean/memory/32.jpg","[""ArrowDown"",""ArrowRight""]","value training","ocean","30","{""ArrowUp,ArrowLeft"":23,""ArrowUp,ArrowRight"":10,""ArrowDown,ArrowLeft"":8,""ArrowDown,ArrowRight"":30}","true","ArrowDown,ArrowRight","false","original","1","76","","",""
"html-keyboard-response","200","883168","0.0-4.0-2.0-1.38","spark_pilot_norest","8819","3","18","Male","","","","","","","null","<div style=""font-size:60px;"">+</div>","null","fixation","","","","","","","","","77","","",""
"revaluation","201","889172","0.0-4.0-2.0-0.39","spark_pilot_norest","8819","3","18","Male","","false","","","","","[687.2999999523163,387.2000000476837]","./assets/img/ocean/memory/29.jpg","[""ArrowDown"",""ArrowRight""]","value training","ocean","30","{""ArrowUp,ArrowLeft"":23,""ArrowUp,ArrowRight"":10,""ArrowDown,ArrowLeft"":8,""ArrowDown,ArrowRight"":30}","true","ArrowDown,ArrowRight","false","original","1","78","","",""
"html-keyboard-response","202","889673","0.0-4.0-2.0-1.39","spark_pilot_norest","8819","3","18","Male","","","","","","","null","<div style=""font-size:60px;"">+</div>","null","fixation","","","","","","","","","79","","",""
"revaluation","203","895678","0.0-4.0-2.0-0.40","spark_pilot_norest","8819","3","18","Male","","false","","","","","[606.2999999523163,419.89999997615814]","./assets/img/ocean/memory/26.jpg","[""ArrowDown"",""ArrowRight""]","value training","ocean","30","{""ArrowUp,ArrowLeft"":23,""ArrowUp,ArrowRight"":10,""ArrowDown,ArrowLeft"":8,""ArrowDown,ArrowRight"":30}","true","ArrowDown,ArrowRight","false","original","1","80","","",""
"html-keyboard-response","204","896180","0.0-4.0-2.0-1.40","spark_pilot_norest","8819","3","18","Male","","","","","","","null","<div style=""font-size:60px;"">+</div>","null","fixation","","","","","","","","","81","","",""
"revaluation","205","902183","0.0-4.0-2.0-0.41","spark_pilot_norest","8819","3","18","Male","","false","","","","","[506.1999999284744,450.2000000476837]","./assets/img/ocean/memory/27.jpg","[""ArrowDown"",""ArrowRight""]","value training","ocean","30","{""ArrowUp,ArrowLeft"":23,""ArrowUp,ArrowRight"":10,""ArrowDown,ArrowLeft"":8,""ArrowDown,ArrowRight"":30}","true","ArrowDown,ArrowRight","false","original","1","82","","",""
"html-keyboard-response","206","902684","0.0-4.0-2.0-1.41","spark_pilot_norest","8819","3","18","Male","","","","","","","null","<div style=""font-size:60px;"">+</div>","null","fixation","","","","","","","","","83","","",""
"revaluation","207","908691","0.0-4.0-2.0-0.42","spark_pilot_norest","8819","3","18","Male","","false","","","","","[759.6999999284744,428.60000002384186]","./assets/img/ocean/memory/7.jpg","[""ArrowDown"",""ArrowRight""]","value training","ocean","30","{""ArrowUp,ArrowLeft"":23,""ArrowUp,ArrowRight"":10,""ArrowDown,ArrowLeft"":8,""ArrowDown,ArrowRight"":30}","true","ArrowDown,ArrowRight","false","original","1","84","","",""
"html-keyboard-response","208","909194","0.0-4.0-2.0-1.42","spark_pilot_norest","8819","3","18","Male","","","","","","","null","<div style=""font-size:60px;"">+</div>","null","fixation","","","","","","","","","85","","",""
"revaluation","209","915198","0.0-4.0-2.0-0.43","spark_pilot_norest","8819","3","18","Male","","false","","","","","[916.8999999761581,314.2999999523163]","./assets/img/ocean/memory/30.jpg","[""ArrowDown"",""ArrowRight""]","value training","ocean","30","{""ArrowUp,ArrowLeft"":23,""ArrowUp,ArrowRight"":10,""ArrowDown,ArrowLeft"":8,""ArrowDown,ArrowRight"":30}","true","ArrowDown,ArrowRight","false","original","1","86","","",""
"html-keyboard-response","210","915700","0.0-4.0-2.0-1.43","spark_pilot_norest","8819","3","18","Male","","","","","","","null","<div style=""font-size:60px;"">+</div>","null","fixation","","","","","","","","","87","","",""
"revaluation","211","919704","0.0-4.0-2.0-0.44","spark_pilot_norest","8819","3","18","Male","","false","","","","","[706.7999999523163]","./assets/img/ocean/catch/1.jpg","[""spaceBar""]","value training","ocean","0","{""ArrowUp,ArrowLeft"":23,""ArrowUp,ArrowRight"":10,""ArrowDown,ArrowLeft"":8,""ArrowDown,ArrowRight"":30}","true","spaceBar","true","original","1","88","","",""
"html-keyboard-response","212","920205","0.0-4.0-2.0-1.44","spark_pilot_norest","8819","3","18","Male","","","","","","","null","<div style=""font-size:60px;"">+</div>","null","fixation","","","","","","","","","89","","",""
"revaluation","213","926208","0.0-4.0-2.0-0.45","spark_pilot_norest","8819","3","18","Male","","false","","","","","[703.1000000238419,693.2999999523163]","./assets/img/ocean/memory/13.jpg","[""ArrowDown"",""ArrowRight""]","value training","ocean","30","{""ArrowUp,ArrowLeft"":23,""ArrowUp,ArrowRight"":10,""ArrowDown,ArrowLeft"":8,""ArrowDown,ArrowRight"":30}","true","ArrowDown,ArrowRight","false","original","1","90","","",""
"html-keyboard-response","214","926710","0.0-4.0-2.0-1.45","spark_pilot_norest","8819","3","18","Male","","","","","","","null","<div style=""font-size:60px;"">+</div>","null","fixation","","","","","","","","","91","","",""
"revaluation","215","932728","0.0-4.0-2.0-0.46","spark_pilot_norest","8819","3","18","Male","","false","","","","","[950,728]","./assets/img/ocean/memory/30.jpg","[""ArrowDown"",""ArrowRight""]","value training","ocean","30","{""ArrowUp,ArrowLeft"":23,""ArrowUp,ArrowRight"":10,""ArrowDown,ArrowLeft"":8,""ArrowDown,ArrowRight"":30}","true","ArrowDown,ArrowRight","false","original","1","92","","",""
"html-keyboard-response","216","933229","0.0-4.0-2.0-1.46","spark_pilot_norest","8819","3","18","Male","","","","","","","null","<div style=""font-size:60px;"">+</div>","null","fixation","","","","","","","","","93","","",""
"revaluation","217","939234","0.0-4.0-2.0-0.47","spark_pilot_norest","8819","3","18","Male","","false","","","","","[990.2000000476837,248.80000007152557]","./assets/img/ocean/memory/31.jpg","[""ArrowDown"",""ArrowRight""]","value training","ocean","30","{""ArrowUp,ArrowLeft"":23,""ArrowUp,ArrowRight"":10,""ArrowDown,ArrowLeft"":8,""ArrowDown,ArrowRight"":30}","true","ArrowDown,ArrowRight","false","original","1","94","","",""
"html-keyboard-response","218","939736","0.0-4.0-2.0-1.47","spark_pilot_norest","8819","3","18","Male","","","","","","","null","<div style=""font-size:60px;"">+</div>","null","fixation","","","","","","","","","95","","",""
"revaluation","219","945738","0.0-4.0-2.0-0.48","spark_pilot_norest","8819","3","18","Male","","false","","","","","[613.2999999523163,94.29999995231628]","./assets/img/ocean/memory/31.jpg","[""ArrowDown"",""ArrowRight""]","value training","ocean","30","{""ArrowUp,ArrowLeft"":23,""ArrowUp,ArrowRight"":10,""ArrowDown,ArrowLeft"":8,""ArrowDown,ArrowRight"":30}","true","ArrowDown,ArrowRight","false","original","1","96","","",""
"html-keyboard-response","220","946240","0.0-4.0-2.0-1.48","spark_pilot_norest","8819","3","18","Male","","","","","","","null","<div style=""font-size:60px;"">+</div>","null","fixation","","","","","","","","","97","","",""
"revaluation","221","952245","0.0-4.0-2.0-0.49","spark_pilot_norest","8819","3","18","Male","","false","","","","","[896.9000000953674,355.89999997615814]","./assets/img/ocean/memory/21.jpg","[""ArrowDown"",""ArrowRight""]","value training","ocean","30","{""ArrowUp,ArrowLeft"":23,""ArrowUp,ArrowRight"":10,""ArrowDown,ArrowLeft"":8,""ArrowDown,ArrowRight"":30}","true","ArrowDown,ArrowRight","false","original","1","98","","",""
"html-keyboard-response","222","952747","0.0-4.0-2.0-1.49","spark_pilot_norest","8819","3","18","Male","","","","","","","null","<div style=""font-size:60px;"">+</div>","null","fixation","","","","","","","","","99","","",""
"learning-instructions","223","969349","0.0-4.0-3.0-0.0","spark_pilot_norest","8819","3","18","Male","","","","","","","3025.9000000953674","<p> Now, you will travel with a friend who will choose whether you go up or down first. </p>
            <p> On these turns, you will just see the animal that they found. You will still get to choose which chest to search for treasure.</p>","","instructions","","","","","","","","","","","",""
"revaluation","224","973363","0.0-4.0-4.0-0.0","spark_pilot_norest","8819","3","18","Male","","false","","","","","[1169.3999999761581]","./assets/img/ocean/animals/octopus.jpg","[""ArrowRight""]","revaluation","ocean","30","{""ArrowUp,ArrowLeft"":23,""ArrowUp,ArrowRight"":10,""ArrowDown,ArrowLeft"":8,""ArrowDown,ArrowRight"":30}","true","ArrowDown,ArrowRight","","original","1","0","","",""
"html-keyboard-response","225","973874","0.0-4.0-4.0-1.0","spark_pilot_norest","8819","3","18","Male","","","","","","","null","<div style=""font-size:60px;"">+</div>","null","fixation","","","","","","","","","1","","",""
"revaluation","226","977902","0.0-4.0-4.0-0.1","spark_pilot_norest","8819","3","18","Male","","false","","","","","[346.60000002384186]","./assets/img/ocean/animals/octopus.jpg","[""ArrowRight""]","revaluation","ocean","30","{""ArrowUp,ArrowLeft"":23,""ArrowUp,ArrowRight"":10,""ArrowDown,ArrowLeft"":8,""ArrowDown,ArrowRight"":30}","true","ArrowDown,ArrowRight","","original","1","2","","",""
"html-keyboard-response","227","978414","0.0-4.0-4.0-1.1","spark_pilot_norest","8819","3","18","Male","","","","","","","null","<div style=""font-size:60px;"">+</div>","null","fixation","","","","","","","","","3","","",""
"revaluation","228","982429","0.0-4.0-4.0-0.2","spark_pilot_norest","8819","3","18","Male","","false","","","","","[1139.6000000238419]","./assets/img/ocean/animals/seahorse.jpg","[""ArrowRight""]","revaluation","ocean","10","{""ArrowUp,ArrowLeft"":23,""ArrowUp,ArrowRight"":10,""ArrowDown,ArrowLeft"":8,""ArrowDown,ArrowRight"":30}","false","ArrowUp,ArrowRight","","original","1","4","","",""
"html-keyboard-response","229","982940","0.0-4.0-4.0-1.2","spark_pilot_norest","8819","3","18","Male","","","","","","","null","<div style=""font-size:60px;"">+</div>","null","fixation","","","","","","","","","5","","",""
"revaluation","230","986952","0.0-4.0-4.0-0.3","spark_pilot_norest","8819","3","18","Male","","false","","","","","[383.5]","./assets/img/ocean/animals/seahorse.jpg","[""ArrowLeft""]","revaluation","ocean","23","{""ArrowUp,ArrowLeft"":23,""ArrowUp,ArrowRight"":10,""ArrowDown,ArrowLeft"":8,""ArrowDown,ArrowRight"":30}","true","ArrowUp,ArrowLeft","","original","1","6","","",""
"html-keyboard-response","231","987464","0.0-4.0-4.0-1.3","spark_pilot_norest","8819","3","18","Male","","","","","","","null","<div style=""font-size:60px;"">+</div>","null","fixation","","","","","","","","","7","","",""
"revaluation","232","991480","0.0-4.0-4.0-0.4","spark_pilot_norest","8819","3","18","Male","","false","","","","","[480]","./assets/img/ocean/animals/octopus.jpg","[""ArrowRight""]","revaluation","ocean","30","{""ArrowUp,ArrowLeft"":23,""ArrowUp,ArrowRight"":10,""ArrowDown,ArrowLeft"":8,""ArrowDown,ArrowRight"":30}","true","ArrowDown,ArrowRight","","original","1","8","","",""
"html-keyboard-response","233","991992","0.0-4.0-4.0-1.4","spark_pilot_norest","8819","3","18","Male","","","","","","","null","<div style=""font-size:60px;"">+</div>","null","fixation","","","","","","","","","9","","",""
"revaluation","234","996003","0.0-4.0-4.0-0.5","spark_pilot_norest","8819","3","18","Male","","false","","","","","[924.5999999046326]","./assets/img/ocean/animals/seahorse.jpg","[""ArrowLeft""]","revaluation","ocean","23","{""ArrowUp,ArrowLeft"":23,""ArrowUp,ArrowRight"":10,""ArrowDown,ArrowLeft"":8,""ArrowDown,ArrowRight"":30}","true","ArrowUp,ArrowLeft","","original","1","10","","",""
"html-keyboard-response","235","996511","0.0-4.0-4.0-1.5","spark_pilot_norest","8819","3","18","Male","","","","","","","null","<div style=""font-size:60px;"">+</div>","null","fixation","","","","","","","","","11","","",""
"revaluation","236","1000515","0.0-4.0-4.0-0.6","spark_pilot_norest","8819","3","18","Male","","false","","","","","[345.89999997615814]","./assets/img/ocean/animals/octopus.jpg","[""ArrowRight""]","revaluation","ocean","30","{""ArrowUp,ArrowLeft"":23,""ArrowUp,ArrowRight"":10,""ArrowDown,ArrowLeft"":8,""ArrowDown,ArrowRight"":30}","true","ArrowDown,ArrowRight","","original","1","12","","",""
"html-keyboard-response","237","1001016","0.0-4.0-4.0-1.6","spark_pilot_norest","8819","3","18","Male","","","","","","","null","<div style=""font-size:60px;"">+</div>","null","fixation","","","","","","","","","13","","",""
"revaluation","238","1005020","0.0-4.0-4.0-0.7","spark_pilot_norest","8819","3","18","Male","","false","","","","","[578.7000000476837]","./assets/img/ocean/animals/octopus.jpg","[""ArrowRight""]","revaluation","ocean","30","{""ArrowUp,ArrowLeft"":23,""ArrowUp,ArrowRight"":10,""ArrowDown,ArrowLeft"":8,""ArrowDown,ArrowRight"":30}","true","ArrowDown,ArrowRight","","original","1","14","","",""
"html-keyboard-response","239","1005522","0.0-4.0-4.0-1.7","spark_pilot_norest","8819","3","18","Male","","","","","","","null","<div style=""font-size:60px;"">+</div>","null","fixation","","","","","","","","","15","","",""
"revaluation","240","1009527","0.0-4.0-4.0-0.8","spark_pilot_norest","8819","3","18","Male","","false","","","","","[1046.7000000476837]","./assets/img/ocean/animals/seahorse.jpg","[""ArrowLeft""]","revaluation","ocean","23","{""ArrowUp,ArrowLeft"":23,""ArrowUp,ArrowRight"":10,""ArrowDown,ArrowLeft"":8,""ArrowDown,ArrowRight"":30}","true","ArrowUp,ArrowLeft","","original","1","16","","",""
"html-keyboard-response","241","1010029","0.0-4.0-4.0-1.8","spark_pilot_norest","8819","3","18","Male","","","","","","","null","<div style=""font-size:60px;"">+</div>","null","fixation","","","","","","","","","17","","",""
"revaluation","242","1014033","0.0-4.0-4.0-0.9","spark_pilot_norest","8819","3","18","Male","","false","","","","","[534.8999999761581]","./assets/img/ocean/animals/octopus.jpg","[""ArrowRight""]","revaluation","ocean","30","{""ArrowUp,ArrowLeft"":23,""ArrowUp,ArrowRight"":10,""ArrowDown,ArrowLeft"":8,""ArrowDown,ArrowRight"":30}","true","ArrowDown,ArrowRight","","original","1","18","","",""
"html-keyboard-response","243","1014534","0.0-4.0-4.0-1.9","spark_pilot_norest","8819","3","18","Male","","","","","","","null","<div style=""font-size:60px;"">+</div>","null","fixation","","","","","","","","","19","","",""
"revaluation","244","1018538","0.0-4.0-4.0-0.10","spark_pilot_norest","8819","3","18","Male","","false","","","","","[713.1000000238419]","./assets/img/ocean/animals/seahorse.jpg","[""ArrowLeft""]","revaluation","ocean","23","{""ArrowUp,ArrowLeft"":23,""ArrowUp,ArrowRight"":10,""ArrowDown,ArrowLeft"":8,""ArrowDown,ArrowRight"":30}","true","ArrowUp,ArrowLeft","","original","1","20","","",""
"html-keyboard-response","245","1019039","0.0-4.0-4.0-1.10","spark_pilot_norest","8819","3","18","Male","","","","","","","null","<div style=""font-size:60px;"">+</div>","null","fixation","","","","","","","","","21","","",""
"revaluation","246","1023043","0.0-4.0-4.0-0.11","spark_pilot_norest","8819","3","18","Male","","false","","","","","[707]","./assets/img/ocean/animals/seahorse.jpg","[""ArrowLeft""]","revaluation","ocean","23","{""ArrowUp,ArrowLeft"":23,""ArrowUp,ArrowRight"":10,""ArrowDown,ArrowLeft"":8,""ArrowDown,ArrowRight"":30}","true","ArrowUp,ArrowLeft","","original","1","22","","",""
"html-keyboard-response","247","1023545","0.0-4.0-4.0-1.11","spark_pilot_norest","8819","3","18","Male","","","","","","","null","<div style=""font-size:60px;"">+</div>","null","fixation","","","","","","","","","23","","",""
"revaluation","248","1027547","0.0-4.0-4.0-0.12","spark_pilot_norest","8819","3","18","Male","","false","","","","","[1033.6999999284744]","./assets/img/ocean/animals/octopus.jpg","[""ArrowRight""]","revaluation","ocean","30","{""ArrowUp,ArrowLeft"":23,""ArrowUp,ArrowRight"":10,""ArrowDown,ArrowLeft"":8,""ArrowDown,ArrowRight"":30}","true","ArrowDown,ArrowRight","","original","1","24","","",""
"html-keyboard-response","249","1028049","0.0-4.0-4.0-1.12","spark_pilot_norest","8819","3","18","Male","","","","","","","null","<div style=""font-size:60px;"">+</div>","null","fixation","","","","","","","","","25","","",""
"revaluation","250","1032055","0.0-4.0-4.0-0.13","spark_pilot_norest","8819","3","18","Male","","false","","","","","[1478.6999999284744]","./assets/img/ocean/animals/seahorse.jpg","[""ArrowRight""]","revaluation","ocean","10","{""ArrowUp,ArrowLeft"":23,""ArrowUp,ArrowRight"":10,""ArrowDown,ArrowLeft"":8,""ArrowDown,ArrowRight"":30}","false","ArrowUp,ArrowRight","","original","1","26","","",""
"html-keyboard-response","251","1032557","0.0-4.0-4.0-1.13","spark_pilot_norest","8819","3","18","Male","","","","","","","null","<div style=""font-size:60px;"">+</div>","null","fixation","","","","","","","","","27","","",""
"revaluation","252","1036561","0.0-4.0-4.0-0.14","spark_pilot_norest","8819","3","18","Male","","false","","","","","[516.1000000238419]","./assets/img/ocean/animals/seahorse.jpg","[""ArrowLeft""]","revaluation","ocean","23","{""ArrowUp,ArrowLeft"":23,""ArrowUp,ArrowRight"":10,""ArrowDown,ArrowLeft"":8,""ArrowDown,ArrowRight"":30}","true","ArrowUp,ArrowLeft","","original","1","28","","",""
"html-keyboard-response","253","1037062","0.0-4.0-4.0-1.14","spark_pilot_norest","8819","3","18","Male","","","","","","","null","<div style=""font-size:60px;"">+</div>","null","fixation","","","","","","","","","29","","",""
"revaluation","254","1041066","0.0-4.0-4.0-0.15","spark_pilot_norest","8819","3","18","Male","","false","","","","","[1256.5]","./assets/img/ocean/animals/octopus.jpg","[""ArrowRight""]","revaluation","ocean","30","{""ArrowUp,ArrowLeft"":23,""ArrowUp,ArrowRight"":10,""ArrowDown,ArrowLeft"":8,""ArrowDown,ArrowRight"":30}","true","ArrowDown,ArrowRight","","original","1","30","","",""
"html-keyboard-response","255","1041567","0.0-4.0-4.0-1.15","spark_pilot_norest","8819","3","18","Male","","","","","","","null","<div style=""font-size:60px;"">+</div>","null","fixation","","","","","","","","","31","","",""
"revaluation","256","1045571","0.0-4.0-4.0-0.16","spark_pilot_norest","8819","3","18","Male","","false","","","","","[557]","./assets/img/ocean/animals/seahorse.jpg","[""ArrowLeft""]","revaluation","ocean","23","{""ArrowUp,ArrowLeft"":23,""ArrowUp,ArrowRight"":10,""ArrowDown,ArrowLeft"":8,""ArrowDown,ArrowRight"":30}","true","ArrowUp,ArrowLeft","","original","1","32","","",""
"html-keyboard-response","257","1046072","0.0-4.0-4.0-1.16","spark_pilot_norest","8819","3","18","Male","","","","","","","null","<div style=""font-size:60px;"">+</div>","null","fixation","","","","","","","","","33","","",""
"revaluation","258","1050075","0.0-4.0-4.0-0.17","spark_pilot_norest","8819","3","18","Male","","false","","","","","[833.5]","./assets/img/ocean/animals/octopus.jpg","[""ArrowRight""]","revaluation","ocean","30","{""ArrowUp,ArrowLeft"":23,""ArrowUp,ArrowRight"":10,""ArrowDown,ArrowLeft"":8,""ArrowDown,ArrowRight"":30}","true","ArrowDown,ArrowRight","","original","1","34","","",""
"html-keyboard-response","259","1050576","0.0-4.0-4.0-1.17","spark_pilot_norest","8819","3","18","Male","","","","","","","null","<div style=""font-size:60px;"">+</div>","null","fixation","","","","","","","","","35","","",""
"learning-instructions","260","1059359","0.0-4.0-5.0-0.0","spark_pilot_norest","8819","3","18","Male","","","","","","","null","<p> You have almost finished this part of the game! </p>
            <p> We are going to ask you to make a few more choices. </p>","","instructions","","","","","","","","","","","",""
"learning-instructions","261","1075345","0.0-4.0-5.0-0.1","spark_pilot_norest","8819","3","18","Male","","","","","","","null","<p> First, you need to decide whether to go up or down. When you see each picture, use the arrow keys to make your choice. </p>
            <p><b>You will not see which animal you found, but try to get to the one that will give you the most treasure.</b></p>","","instructions","","","","","","","","","","","",""
"html-keyboard-response","262","1076346","0.0-4.0-6.0-0.0","spark_pilot_norest","8819","3","18","Male","","","","","","","null","<div style=""font-size:100px;color:red;"">Starting in...</div>","null","","","","","","","","","","","","",""
"html-keyboard-response","263","1077356","0.0-4.0-6.0-1.0","spark_pilot_norest","8819","3","18","Male","","","","","","","null","<div style=""font-size:200px;color:red;"">3</div>","null","","","","","","","","","","","","",""
"html-keyboard-response","264","1078357","0.0-4.0-6.0-2.0","spark_pilot_norest","8819","3","18","Male","","","","","","","null","<div style=""font-size:200px;color:red;"">2</div>","null","","","","","","","","","","","","",""
"html-keyboard-response","265","1079358","0.0-4.0-6.0-3.0","spark_pilot_norest","8819","3","18","Male","","","","","","","null","<div style=""font-size:200px;color:red;"">1</div>","null","","","","","","","","","","","","",""
"revaluation","266","1080474","0.0-4.0-7.0-0.0","spark_pilot_norest","8819","3","18","Male","","false","","","","","[1112.8000000715256]","./assets/img/ocean/test/3.jpg","[""ArrowDown""]","first stage test","ocean","0","{""ArrowUp,ArrowLeft"":23,""ArrowUp,ArrowRight"":10,""ArrowDown,ArrowLeft"":8,""ArrowDown,ArrowRight"":30}","true","ArrowDown","false","original","1","","","",""
"html-keyboard-response","267","1080985","0.0-4.0-7.0-1.0","spark_pilot_norest","8819","3","18","Male","","","","","","","null","<div style=""font-size:60px;"">+</div>","null","fixation","","","","","","","","","","","",""
"revaluation","268","1081002","0.0-4.0-7.0-0.1","spark_pilot_norest","8819","3","18","Male","","false","","","","","[15.299999952316284]","./assets/img/ocean/test/2.jpg","[""ArrowDown""]","first stage test","ocean","0","{""ArrowUp,ArrowLeft"":23,""ArrowUp,ArrowRight"":10,""ArrowDown,ArrowLeft"":8,""ArrowDown,ArrowRight"":30}","true","ArrowDown","false","original","1","","","",""
"html-keyboard-response","269","1081512","0.0-4.0-7.0-1.1","spark_pilot_norest","8819","3","18","Male","","","","","","","null","<div style=""font-size:60px;"">+</div>","null","fixation","","","","","","","","","","","",""
"revaluation","270","1082073","0.0-4.0-7.0-0.2","spark_pilot_norest","8819","3","18","Male","","false","","","","","[559.2999999523163]","./assets/img/ocean/test/1.jpg","[""ArrowDown""]","first stage test","ocean","0","{""ArrowUp,ArrowLeft"":23,""ArrowUp,ArrowRight"":10,""ArrowDown,ArrowLeft"":8,""ArrowDown,ArrowRight"":30}","true","ArrowDown","false","original","1","","","",""
"html-keyboard-response","271","1082580","0.0-4.0-7.0-1.2","spark_pilot_norest","8819","3","18","Male","","","","","","","null","<div style=""font-size:60px;"">+</div>","null","fixation","","","","","","","","","","","",""
"revaluation","272","1082592","0.0-4.0-7.0-0.3","spark_pilot_norest","8819","3","18","Male","","false","","","","","[10.399999976158142]","./assets/img/ocean/test/0.jpg","[""ArrowDown""]","first stage test","ocean","0","{""ArrowUp,ArrowLeft"":23,""ArrowUp,ArrowRight"":10,""ArrowDown,ArrowLeft"":8,""ArrowDown,ArrowRight"":30}","true","ArrowDown","false","original","1","","","",""
"html-keyboard-response","273","1083108","0.0-4.0-7.0-1.3","spark_pilot_norest","8819","3","18","Male","","","","","","","null","<div style=""font-size:60px;"">+</div>","null","fixation","","","","","","","","","","","",""
"learning-instructions","274","1096465","0.0-4.0-8.0-0.0","spark_pilot_norest","8819","3","18","Male","","","","","","","null","<p> Now you will see the animals again and can search their chests for treasure. </p>
            <p> This time, you will not see how much treasure you earned, but you will earn more bonus money for making better choices. </p>","","instructions","","","","","","","","","","","",""
"html-keyboard-response","275","1097469","0.0-4.0-9.0-0.0","spark_pilot_norest","8819","3","18","Male","","","","","","","null","<div style=""font-size:100px;color:red;"">Starting in...</div>","null","","","","","","","","","","","","",""
"html-keyboard-response","276","1098475","0.0-4.0-9.0-1.0","spark_pilot_norest","8819","3","18","Male","","","","","","","null","<div style=""font-size:200px;color:red;"">3</div>","null","","","","","","","","","","","","",""
"html-keyboard-response","277","1099488","0.0-4.0-9.0-2.0","spark_pilot_norest","8819","3","18","Male","","","","","","","null","<div style=""font-size:200px;color:red;"">2</div>","null","","","","","","","","","","","","",""
"html-keyboard-response","278","1100489","0.0-4.0-9.0-3.0","spark_pilot_norest","8819","3","18","Male","","","","","","","null","<div style=""font-size:200px;color:red;"">1</div>","null","","","","","","","","","","","","",""
"revaluation","279","1101111","0.0-4.0-10.0-0.0","spark_pilot_norest","8819","3","18","Male","","false","","","","","[619.6000000238419]","./assets/img/ocean/animals/seahorse.jpg","[""ArrowLeft""]","second stage test","ocean","0","{""ArrowUp,ArrowLeft"":23,""ArrowUp,ArrowRight"":10,""ArrowDown,ArrowLeft"":8,""ArrowDown,ArrowRight"":30}","true","ArrowUp,ArrowLeft","","original","1","","","",""
"html-keyboard-response","280","1101615","0.0-4.0-10.0-1.0","spark_pilot_norest","8819","3","18","Male","","","","","","","null","<div style=""font-size:60px;"">+</div>","null","fixation","","","","","","","","","","","",""
"revaluation","281","1101628","0.0-4.0-10.0-0.1","spark_pilot_norest","8819","3","18","Male","","false","","","","","[11.299999952316284]","./assets/img/ocean/animals/seahorse.jpg","[""ArrowLeft""]","second stage test","ocean","0","{""ArrowUp,ArrowLeft"":23,""ArrowUp,ArrowRight"":10,""ArrowDown,ArrowLeft"":8,""ArrowDown,ArrowRight"":30}","true","ArrowUp,ArrowLeft","","original","1","","","",""
"html-keyboard-response","282","1102141","0.0-4.0-10.0-1.1","spark_pilot_norest","8819","3","18","Male","","","","","","","null","<div style=""font-size:60px;"">+</div>","null","fixation","","","","","","","","","","","",""
"revaluation","283","1102791","0.0-4.0-10.0-0.2","spark_pilot_norest","8819","3","18","Male","","false","","","","","[647.3999999761581]","./assets/img/ocean/animals/seahorse.jpg","[""ArrowLeft""]","second stage test","ocean","0","{""ArrowUp,ArrowLeft"":23,""ArrowUp,ArrowRight"":10,""ArrowDown,ArrowLeft"":8,""ArrowDown,ArrowRight"":30}","true","ArrowUp,ArrowLeft","","original","1","","","",""
"html-keyboard-response","284","1103301","0.0-4.0-10.0-1.2","spark_pilot_norest","8819","3","18","Male","","","","","","","null","<div style=""font-size:60px;"">+</div>","null","fixation","","","","","","","","","","","",""
"revaluation","285","1103743","0.0-4.0-10.0-0.3","spark_pilot_norest","8819","3","18","Male","","false","","","","","[438.5]","./assets/img/ocean/animals/seahorse.jpg","[""ArrowLeft""]","second stage test","ocean","0","{""ArrowUp,ArrowLeft"":23,""ArrowUp,ArrowRight"":10,""ArrowDown,ArrowLeft"":8,""ArrowDown,ArrowRight"":30}","true","ArrowUp,ArrowLeft","","original","1","","","",""
"html-keyboard-response","286","1104248","0.0-4.0-10.0-1.3","spark_pilot_norest","8819","3","18","Male","","","","","","","null","<div style=""font-size:60px;"">+</div>","null","fixation","","","","","","","","","","","",""
"revaluation","287","1104804","0.0-4.0-10.0-0.4","spark_pilot_norest","8819","3","18","Male","","false","","","","","[552.6000000238419]","./assets/img/ocean/animals/octopus.jpg","[""ArrowRight""]","second stage test","ocean","0","{""ArrowUp,ArrowLeft"":23,""ArrowUp,ArrowRight"":10,""ArrowDown,ArrowLeft"":8,""ArrowDown,ArrowRight"":30}","true","ArrowDown,ArrowRight","","original","1","","","",""
"html-keyboard-response","288","1105316","0.0-4.0-10.0-1.4","spark_pilot_norest","8819","3","18","Male","","","","","","","null","<div style=""font-size:60px;"">+</div>","null","fixation","","","","","","","","","","","",""
"revaluation","289","1105708","0.0-4.0-10.0-0.5","spark_pilot_norest","8819","3","18","Male","","false","","","","","[389.89999997615814]","./assets/img/ocean/animals/octopus.jpg","[""ArrowRight""]","second stage test","ocean","0","{""ArrowUp,ArrowLeft"":23,""ArrowUp,ArrowRight"":10,""ArrowDown,ArrowLeft"":8,""ArrowDown,ArrowRight"":30}","true","ArrowDown,ArrowRight","","original","1","","","",""
"html-keyboard-response","290","1106213","0.0-4.0-10.0-1.5","spark_pilot_norest","8819","3","18","Male","","","","","","","null","<div style=""font-size:60px;"">+</div>","null","fixation","","","","","","","","","","","",""
"revaluation","291","1106494","0.0-4.0-10.0-0.6","spark_pilot_norest","8819","3","18","Male","","false","","","","","[279.1999999284744]","./assets/img/ocean/animals/octopus.jpg","[""ArrowRight""]","second stage test","ocean","0","{""ArrowUp,ArrowLeft"":23,""ArrowUp,ArrowRight"":10,""ArrowDown,ArrowLeft"":8,""ArrowDown,ArrowRight"":30}","true","ArrowDown,ArrowRight","","original","1","","","",""
"html-keyboard-response","292","1107002","0.0-4.0-10.0-1.6","spark_pilot_norest","8819","3","18","Male","","","","","","","null","<div style=""font-size:60px;"">+</div>","null","fixation","","","","","","","","","","","",""
"revaluation","293","1107295","0.0-4.0-10.0-0.7","spark_pilot_norest","8819","3","18","Male","","false","","","","","[290.59999990463257]","./assets/img/ocean/animals/octopus.jpg","[""ArrowRight""]","second stage test","ocean","0","{""ArrowUp,ArrowLeft"":23,""ArrowUp,ArrowRight"":10,""ArrowDown,ArrowLeft"":8,""ArrowDown,ArrowRight"":30}","true","ArrowDown,ArrowRight","","original","1","","","",""
"html-keyboard-response","294","1107810","0.0-4.0-10.0-1.7","spark_pilot_norest","8819","3","18","Male","","","","","","","null","<div style=""font-size:60px;"">+</div>","null","fixation","","","","","","","","","","","",""
"learning-instructions","295","1113325","0.0-4.0-0.1-0.2","spark_pilot_norest","8819","3","18","Male","","","","","","","2747.7999999523163","<p> This time you are searching for treasure in the <b>canyon</b>.</p>","","instructions","","","","","","","","","","","",""
"learning-instructions","296","1132324","0.0-4.0-0.1-0.3","spark_pilot_norest","8819","3","18","Male","","","","","","","1745.8999999761581","<p><b>New</b> animals with <b>new</b> treasure chests live here. You need to explore to discover where the animal with the best treasure chest is.</p>
                    <p> Like before, once you figure out which animal has the chest with the most treasure, you should try to get to that animal and select that chest! </p>","","instructions","","","","","","","","","","","",""
"learning-instructions","297","1148416","0.0-4.0-1.1-0.1","spark_pilot_norest","8819","3","18","Male","","","","","","","1358.1999999284744","<p> Remember, when you see a picture of the place, use the up and down keys to <b>find an animal</b>.</p>
            <p> When you encounter an animal, you should use the left and right keys to <b>select a treasure chest</b>.</p>
            <p> Don't forget to look out for the robber! </p>","","instructions","","","","","","","","","","","",""
"revaluation","298","1152435","0.0-4.0-2.1-0.50","spark_pilot_norest","8819","3","18","Male","","true","","","","","[]","./assets/img/canyon/memory/14.jpg","[]","value training","canyon","-5","{""ArrowUp,ArrowLeft"":26,""ArrowUp,ArrowRight"":10,""ArrowDown,ArrowLeft"":5,""ArrowDown,ArrowRight"":17}","false","","false","revaluation","2","0","","",""
"html-keyboard-response","299","1152948","0.0-4.0-2.1-1.50","spark_pilot_norest","8819","3","18","Male","","","","","","","null","<div style=""font-size:60px;"">+</div>","null","fixation","","","","","","","","","1","","",""
"revaluation","300","1156964","0.0-4.0-2.1-0.51","spark_pilot_norest","8819","3","18","Male","","false","","","","","[678.6000000238419]","./assets/img/canyon/catch/1.jpg","[""ArrowDown""]","value training","canyon","-10","{""ArrowUp,ArrowLeft"":26,""ArrowUp,ArrowRight"":10,""ArrowDown,ArrowLeft"":5,""ArrowDown,ArrowRight"":17}","false","ArrowDown","true","revaluation","2","2","","",""
"html-keyboard-response","301","1157479","0.0-4.0-2.1-1.51","spark_pilot_norest","8819","3","18","Male","","","","","","","null","<div style=""font-size:60px;"">+</div>","null","fixation","","","","","","","","","3","","",""
"revaluation","302","1163509","0.0-4.0-2.1-0.52","spark_pilot_norest","8819","3","18","Male","","false","","","","","[641,810.7000000476837]","./assets/img/canyon/memory/7.jpg","[""ArrowDown"",""ArrowRight""]","value training","canyon","17","{""ArrowUp,ArrowLeft"":26,""ArrowUp,ArrowRight"":10,""ArrowDown,ArrowLeft"":5,""ArrowDown,ArrowRight"":17}","false","ArrowDown,ArrowRight","false","revaluation","2","4","","",""
"html-keyboard-response","303","1164011","0.0-4.0-2.1-1.52","spark_pilot_norest","8819","3","18","Male","","","","","","","null","<div style=""font-size:60px;"">+</div>","null","fixation","","","","","","","","","5","","",""
"revaluation","304","1170040","0.0-4.0-2.1-0.53","spark_pilot_norest","8819","3","18","Male","","false","","","","","[532.1999999284744,493.59999990463257]","./assets/img/canyon/memory/28.jpg","[""ArrowDown"",""ArrowLeft""]","value training","canyon","5","{""ArrowUp,ArrowLeft"":26,""ArrowUp,ArrowRight"":10,""ArrowDown,ArrowLeft"":5,""ArrowDown,ArrowRight"":17}","false","ArrowDown,ArrowLeft","false","revaluation","2","6","","",""
"html-keyboard-response","305","1170555","0.0-4.0-2.1-1.53","spark_pilot_norest","8819","3","18","Male","","","","","","","null","<div style=""font-size:60px;"">+</div>","null","fixation","","","","","","","","","7","","",""
"revaluation","306","1176574","0.0-4.0-2.1-0.54","spark_pilot_norest","8819","3","18","Male","","false","","","","","[429.5,333]","./assets/img/canyon/memory/18.jpg","[""ArrowUp"",""ArrowRight""]","value training","canyon","10","{""ArrowUp,ArrowLeft"":26,""ArrowUp,ArrowRight"":10,""ArrowDown,ArrowLeft"":5,""ArrowDown,ArrowRight"":17}","false","ArrowUp,ArrowRight","false","revaluation","2","8","","",""
"html-keyboard-response","307","1177077","0.0-4.0-2.1-1.54","spark_pilot_norest","8819","3","18","Male","","","","","","","null","<div style=""font-size:60px;"">+</div>","null","fixation","","","","","","","","","9","","",""
"revaluation","308","1183089","0.0-4.0-2.1-0.55","spark_pilot_norest","8819","3","18","Male","","false","","","","","[490.89999997615814,401.5]","./assets/img/canyon/memory/7.jpg","[""ArrowUp"",""ArrowLeft""]","value training","canyon","26","{""ArrowUp,ArrowLeft"":26,""ArrowUp,ArrowRight"":10,""ArrowDown,ArrowLeft"":5,""ArrowDown,ArrowRight"":17}","true","ArrowUp,ArrowLeft","false","revaluation","2","10","","",""
"html-keyboard-response","309","1183590","0.0-4.0-2.1-1.55","spark_pilot_norest","8819","3","18","Male","","","","","","","null","<div style=""font-size:60px;"">+</div>","null","fixation","","","","","","","","","11","","",""
"revaluation","310","1189594","0.0-4.0-2.1-0.56","spark_pilot_norest","8819","3","18","Male","","false","","","","","[576.1000000238419,510.09999990463257]","./assets/img/canyon/memory/15.jpg","[""ArrowUp"",""ArrowLeft""]","value training","canyon","26","{""ArrowUp,ArrowLeft"":26,""ArrowUp,ArrowRight"":10,""ArrowDown,ArrowLeft"":5,""ArrowDown,ArrowRight"":17}","true","ArrowUp,ArrowLeft","false","revaluation","2","12","","",""
"html-keyboard-response","311","1190096","0.0-4.0-2.1-1.56","spark_pilot_norest","8819","3","18","Male","","","","","","","null","<div style=""font-size:60px;"">+</div>","null","fixation","","","","","","","","","13","","",""
"revaluation","312","1196100","0.0-4.0-2.1-0.57","spark_pilot_norest","8819","3","18","Male","","false","","","","","[1611.8999999761581,731.1000000238419]","./assets/img/canyon/memory/24.jpg","[""ArrowDown"",""ArrowRight""]","value training","canyon","17","{""ArrowUp,ArrowLeft"":26,""ArrowUp,ArrowRight"":10,""ArrowDown,ArrowLeft"":5,""ArrowDown,ArrowRight"":17}","false","ArrowDown,ArrowRight","false","revaluation","2","14","","",""
"html-keyboard-response","313","1196601","0.0-4.0-2.1-1.57","spark_pilot_norest","8819","3","18","Male","","","","","","","null","<div style=""font-size:60px;"">+</div>","null","fixation","","","","","","","","","15","","",""
