"trial_type","trial_index","time_elapsed","internal_node_id","task_version","subject_id","assigned_condition","age","gender","success","timeout","failed_images","failed_audio","failed_video","browser_interaction","rt","stimulus","response","task_part","environment","score","rewardMap","correct","fullState","isCatch","condition","order","trial_num","key_press","ground_truth","bonus"
"pavlovia","0","1022","0.0-0.0","spark_pilot_norest","12455","7","9","Male","","","","","","","","","","","","","","","","","","","","","",""
"preload","1","25738","0.0-1.0","spark_pilot_norest","12455","7","9","Male","true","false","[]","[]","[]","[{""event"":""fullscreenenter"",""trial"":2,""time"":36664},{""event"":""blur"",""trial"":4,""time"":50665},{""event"":""fullscreenexit"",""trial"":4,""time"":50666},{""event"":""focus"",""trial"":4,""time"":50678},{""event"":""blur"",""trial"":4,""time"":53286},{""event"":""focus"",""trial"":4,""time"":60051},{""event"":""blur"",""trial"":5,""time"":66289},{""event"":""focus"",""trial"":5,""time"":71225}]","","","","","","","","","","","","","","","",""
"fullscreen","2","37632","0.0-2.0","spark_pilot_norest","12455","7","9","Male","true","","","","","","","","","","","","","","","","","","","","",""
"audio-button-response","3","42019","0.0-3.0-0.0-0.0","spark_pilot_norest","12455","7","9","Male","","","","","","[{""event"":""fullscreenenter"",""trial"":2,""time"":36664},{""event"":""blur"",""trial"":4,""time"":50665},{""event"":""fullscreenexit"",""trial"":4,""time"":50666},{""event"":""focus"",""trial"":4,""time"":50678},{""event"":""blur"",""trial"":4,""time"":53286},{""event"":""focus"",""trial"":4,""time"":60051},{""event"":""blur"",""trial"":5,""time"":66289},{""event"":""focus"",""trial"":5,""time"":71225}]","4149","./assets/audio/audiotest/turtle.mp3","2","audio_test","","","","","","","","","","","",""
"learning-instructions","4","61550","0.0-3.0-1.0-0.0","spark_pilot_norest","12455","7","9","Male","","","","","","[{""event"":""fullscreenenter"",""trial"":2,""time"":36664},{""event"":""blur"",""trial"":4,""time"":50665},{""event"":""fullscreenexit"",""trial"":4,""time"":50666},{""event"":""focus"",""trial"":4,""time"":50678},{""event"":""blur"",""trial"":4,""time"":53286},{""event"":""focus"",""trial"":4,""time"":60051},{""event"":""blur"",""trial"":5,""time"":66289},{""event"":""focus"",""trial"":5,""time"":71225}]","10869","<p> Welcome! Please remember to stay in fullscreen mode and don't click away from the experiment. </p>","","instructions","","","","","","","","","","","",""
"learning-instructions","5","72389","0.0-3.0-1.0-0.1","spark_pilot_norest","12455","7","9","Male","","","","","","","2392.300000190735","<p> Today you will be playing a game to earn treasure. </p>
            <p> At the end of the experiment, you will earn a bonus based on how much treasure you find. </p>
            <img src='./assets/img/instructions/treasure.jpg' class='instructions-image'>","","instructions","","","","","","","","","","","",""
"learning-instructions","6","84076","0.0-3.0-1.0-0.2","spark_pilot_norest","12455","7","9","Male","","","","","","","3410.5","<p> Animals have hidden treasure in treasure chests. </p>
            <p> You need to first find an animal and then choose which of their treasure chests to search. </p>
            <img src='./assets/img/space/animals/cat.jpg' class='instructions-image'>","","instructions","","","","","","","","","","","",""
"learning-instructions","7","110077","0.0-3.0-1.0-0.3","spark_pilot_norest","12455","7","9","Male","","","","","","","12842.300000190735","<p> In each round, you will search for treasure in a different place. In the real game, there will be two rounds. </p>
            <p> You will begin with a separate, practice round where you will search for treasure in outer space. </p>
            <img src='./assets/img/space/0.jpg' class='instructions-image'>","","instructions","","","","","","","","","","","",""
"learning-instructions","8","136665","0.0-3.0-1.0-0.4","spark_pilot_norest","12455","7","9","Male","","","","","","","15179.39999961853","<p> On every turn, you will see a picture of the place that you are in, but the specific image may be different each time. </p>
            <p> For example, both of these images mean you are in outer space. </p>
            <img src='./assets/img/instructions/outerspace.jpg' class='instructions-image'>","","instructions","","","","","","","","","","","",""
"learning-instructions","9","152282","0.0-3.0-1.0-0.5","spark_pilot_norest","12455","7","9","Male","","","","","","","7786.39999961853","<p> You need to decide which direction to travel in. </p>
            <p> You can choose between going <b>up or down</b> by using the arrow keys. </p>
            <img src='./assets/img/instructions/updown.jpg' class='instructions-image'>","","instructions","","","","","","","","","","","",""
"learning-instructions","10","164033","0.0-3.0-1.0-0.6","spark_pilot_norest","12455","7","9","Male","","","","","","","2926.5999994277954","<p> You will have <b>2 seconds</b> to make your choice. </p>
            <p> If you do not make a choice within 2 seconds, you will not find an animal or earn treasure. </p>
            <img src='./assets/img/instructions/2seconds.jpg' class='instructions-image'>","","instructions","","","","","","","","","","","",""
"learning-instructions","11","176559","0.0-3.0-1.0-0.7","spark_pilot_norest","12455","7","9","Male","","","","","","","5482.199999809265","<p> Let’s try practicing that now! </p>
            <p> When you see a picture of the place you are in, press the <b>up</b> key to travel up. </p>
            <img src='./assets/img/instructions/pressUp.jpg' class='instructions-image'>","","instructions","","","","","","","","","","","",""
"revaluation","12","180599","0.0-3.0-2.0-0.0","spark_pilot_norest","12455","7","9","Male","","false","","","","","[1863]","./assets/img/space/0.jpg","[""ArrowUp""]","first stage practice","space","0","null","null","ArrowUp","false","","","","","",""
"html-keyboard-response","13","181115","0.0-3.0-2.0-1.0","spark_pilot_norest","12455","7","9","Male","","","","","","","null","<div style=""font-size:60px;"">+</div>","null","fixation","","","","","","","","","","","",""
"revaluation","14","185134","0.0-3.0-2.0-0.1","spark_pilot_norest","12455","7","9","Male","","true","","","","","[]","./assets/img/space/1.jpg","[]","first stage practice","space","-5","null","null","","false","","","","","",""
"html-keyboard-response","15","185646","0.0-3.0-2.0-1.1","spark_pilot_norest","12455","7","9","Male","","","","","","","null","<div style=""font-size:60px;"">+</div>","null","fixation","","","","","","","","","","","",""
"revaluation","16","189663","0.0-3.0-2.0-0.2","spark_pilot_norest","12455","7","9","Male","","false","","","","","[500.79999923706055]","./assets/img/space/2.jpg","[""ArrowUp""]","first stage practice","space","0","null","null","ArrowUp","false","","","","","",""
"html-keyboard-response","17","190175","0.0-3.0-2.0-1.2","spark_pilot_norest","12455","7","9","Male","","","","","","","null","<div style=""font-size:60px;"">+</div>","null","fixation","","","","","","","","","","","",""
"learning-instructions","18","196270","0.0-3.0-3.0-0.0","spark_pilot_norest","12455","7","9","Male","","","","","","","1383.5999994277954","<p> Great job! Now try pressing the <b>down</b> key to travel down. </p>
            <img src='./assets/img/instructions/pressDown.jpg' class='instructions-image'>","","instructions","","","","","","","","","","","",""
"revaluation","19","200287","0.0-3.0-4.0-0.0","spark_pilot_norest","12455","7","9","Male","","false","","","","","[719.1000003814697]","./assets/img/space/3.jpg","[""ArrowDown""]","first stage practice","space","0","null","null","ArrowDown","false","","","","","",""
"html-keyboard-response","20","200794","0.0-3.0-4.0-1.0","spark_pilot_norest","12455","7","9","Male","","","","","","","null","<div style=""font-size:60px;"">+</div>","null","fixation","","","","","","","","","","","",""
"revaluation","21","204816","0.0-3.0-4.0-0.1","spark_pilot_norest","12455","7","9","Male","","false","","","","","[1404.3000001907349]","./assets/img/space/4.jpg","[""ArrowDown""]","first stage practice","space","0","null","null","ArrowDown","false","","","","","",""
"html-keyboard-response","22","205322","0.0-3.0-4.0-1.1","spark_pilot_norest","12455","7","9","Male","","","","","","","null","<div style=""font-size:60px;"">+</div>","null","fixation","","","","","","","","","","","",""
"revaluation","23","209346","0.0-3.0-4.0-0.2","spark_pilot_norest","12455","7","9","Male","","false","","","","","[794.6000003814697]","./assets/img/space/5.jpg","[""ArrowDown""]","first stage practice","space","0","null","null","ArrowDown","false","","","","","",""
"html-keyboard-response","24","209847","0.0-3.0-4.0-1.2","spark_pilot_norest","12455","7","9","Male","","","","","","","null","<div style=""font-size:60px;"">+</div>","null","fixation","","","","","","","","","","","",""
"learning-instructions","25","222206","0.0-3.0-5.0-0.0","spark_pilot_norest","12455","7","9","Male","","","","","","","2489.300000190735","<p> The animals don’t move, so the animal in the upper part of a place will stay in the upper part of a place, and the animal in the lower part of a place will stay in the lower part of a place. </p>","","instructions","","","","","","","","","","","",""
"learning-instructions","26","233904","0.0-3.0-5.0-0.1","spark_pilot_norest","12455","7","9","Male","","","","","","","2547.8999996185303","<p> Each animal has two treasure chests for you to choose from. </p>
            <p> The amount of treasure in each chest can range from <b> 0 to 40 pieces.</b></p>","","instructions","","","","","","","","","","","",""
"learning-instructions","27","247607","0.0-3.0-5.0-0.2","spark_pilot_norest","12455","7","9","Male","","","","","","","2499.7999992370605","<p> You should decide which chest to search for treasure by using the <b>left</b> and <b>right</b> arrow keys. </p>
            <p><b> Pay attention to which animal is on the screen, as the animals have different treasure chests. </b></p>
            <img src='./assets/img/instructions/leftright.jpg' class='instructions-image'>","","instructions","","","","","","","","","","","",""
"learning-instructions","28","256247","0.0-3.0-5.0-0.3","spark_pilot_norest","12455","7","9","Male","","","","","","","2259.9000005722046","<p> Let’s try practicing that now. </p>
            <p> When you see an animal, choose which chest to search for treasure. </p>
            <img src='./assets/img/instructions/chooseChest.jpg' class='instructions-image'>","","instructions","","","","","","","","","","","",""
"revaluation","29","260271","0.0-3.0-6.0-0.0","spark_pilot_norest","12455","7","9","Male","","false","","","","","[869.3999996185303]","./assets/img/space/animals/rabbit.jpg","[""ArrowLeft""]","second stage practice","space","15","{""ArrowUp,ArrowLeft"":3,""ArrowUp,ArrowRight"":36,""ArrowDown,ArrowLeft"":15,""ArrowDown,ArrowRight"":23}","false","ArrowDown,ArrowLeft","","","","","","",""
"html-keyboard-response","30","260786","0.0-3.0-6.0-1.0","spark_pilot_norest","12455","7","9","Male","","","","","","","null","<div style=""font-size:60px;"">+</div>","null","fixation","","","","","","","","","","","",""
"revaluation","31","264811","0.0-3.0-6.0-0.1","spark_pilot_norest","12455","7","9","Male","","false","","","","","[848.7000007629395]","./assets/img/space/animals/rabbit.jpg","[""ArrowRight""]","second stage practice","space","23","{""ArrowUp,ArrowLeft"":3,""ArrowUp,ArrowRight"":36,""ArrowDown,ArrowLeft"":15,""ArrowDown,ArrowRight"":23}","true","ArrowDown,ArrowRight","","","","","","",""
"html-keyboard-response","32","265325","0.0-3.0-6.0-1.1","spark_pilot_norest","12455","7","9","Male","","","","","","","null","<div style=""font-size:60px;"">+</div>","null","fixation","","","","","","","","","","","",""
"revaluation","33","269360","0.0-3.0-6.0-0.2","spark_pilot_norest","12455","7","9","Male","","false","","","","","[729.5999994277954]","./assets/img/space/animals/cat.jpg","[""ArrowRight""]","second stage practice","space","36","{""ArrowUp,ArrowLeft"":3,""ArrowUp,ArrowRight"":36,""ArrowDown,ArrowLeft"":15,""ArrowDown,ArrowRight"":23}","true","ArrowUp,ArrowRight","","","","","","",""
"html-keyboard-response","34","269862","0.0-3.0-6.0-1.2","spark_pilot_norest","12455","7","9","Male","","","","","","","null","<div style=""font-size:60px;"">+</div>","null","fixation","","","","","","","","","","","",""
"revaluation","35","273884","0.0-3.0-6.0-0.3","spark_pilot_norest","12455","7","9","Male","","false","","","","","[1113]","./assets/img/space/animals/cat.jpg","[""ArrowLeft""]","second stage practice","space","3","{""ArrowUp,ArrowLeft"":3,""ArrowUp,ArrowRight"":36,""ArrowDown,ArrowLeft"":15,""ArrowDown,ArrowRight"":23}","false","ArrowUp,ArrowLeft","","","","","","",""
"html-keyboard-response","36","274401","0.0-3.0-6.0-1.3","spark_pilot_norest","12455","7","9","Male","","","","","","","null","<div style=""font-size:60px;"">+</div>","null","fixation","","","","","","","","","","","",""
"learning-instructions","37","293425","0.0-3.0-7.0-0.0","spark_pilot_norest","12455","7","9","Male","","","","","","","2197.3999996185303","<p> Great job. Now let’s try putting it together. </p>
            <p> On each turn, you will first see a picture to remind you of the place you are in, and you need to choose whether to go up or down. </p>
            <p> Then you will see an animal and choose which of its chests to search for treasure. </p>","","instructions","","","","","","","","","","","",""
"learning-instructions","38","303143","0.0-3.0-7.0-0.1","spark_pilot_norest","12455","7","9","Male","","","","","","","1436.1000003814697","<p> When you choose whether to go up or down, try to go to the animal with the chest with the most treasure. </p>
            <p> Try practicing that now! </p>","","instructions","","","","","","","","","","","",""
"revaluation","39","309172","0.0-3.0-8.0-0.0","spark_pilot_norest","12455","7","9","Male","","false","","","","","[1479.0999994277954,896.7000007629395]","./assets/img/space/6.jpg","[""ArrowUp"",""ArrowLeft""]","full practice","space","3","{""ArrowUp,ArrowLeft"":3,""ArrowUp,ArrowRight"":36,""ArrowDown,ArrowLeft"":15,""ArrowDown,ArrowRight"":23}","false","ArrowUp,ArrowLeft","false","","","","","",""
"html-keyboard-response","40","309687","0.0-3.0-8.0-1.0","spark_pilot_norest","12455","7","9","Male","","","","","","","null","<div style=""font-size:60px;"">+</div>","null","fixation","","","","","","","","","","","",""
"revaluation","41","315728","0.0-3.0-8.0-0.1","spark_pilot_norest","12455","7","9","Male","","false","","","","","[838.6999998092651,853.5999994277954]","./assets/img/space/7.jpg","[""ArrowDown"",""ArrowRight""]","full practice","space","23","{""ArrowUp,ArrowLeft"":3,""ArrowUp,ArrowRight"":36,""ArrowDown,ArrowLeft"":15,""ArrowDown,ArrowRight"":23}","false","ArrowDown,ArrowRight","false","","","","","",""
"html-keyboard-response","42","316238","0.0-3.0-8.0-1.1","spark_pilot_norest","12455","7","9","Male","","","","","","","null","<div style=""font-size:60px;"">+</div>","null","fixation","","","","","","","","","","","",""
"revaluation","43","322270","0.0-3.0-8.0-0.2","spark_pilot_norest","12455","7","9","Male","","false","","","","","[1566.9000005722046,1182.1999998092651]","./assets/img/space/8.jpg","[""ArrowDown"",""ArrowLeft""]","full practice","space","15","{""ArrowUp,ArrowLeft"":3,""ArrowUp,ArrowRight"":36,""ArrowDown,ArrowLeft"":15,""ArrowDown,ArrowRight"":23}","false","ArrowDown,ArrowLeft","false","","","","","",""
"html-keyboard-response","44","322777","0.0-3.0-8.0-1.2","spark_pilot_norest","12455","7","9","Male","","","","","","","null","<div style=""font-size:60px;"">+</div>","null","fixation","","","","","","","","","","","",""
"revaluation","45","328802","0.0-3.0-8.0-0.3","spark_pilot_norest","12455","7","9","Male","","false","","","","","[1549.5,894.6999998092651]","./assets/img/space/9.jpg","[""ArrowDown"",""ArrowRight""]","full practice","space","23","{""ArrowUp,ArrowLeft"":3,""ArrowUp,ArrowRight"":36,""ArrowDown,ArrowLeft"":15,""ArrowDown,ArrowRight"":23}","false","ArrowDown,ArrowRight","false","","","","","",""
"html-keyboard-response","46","329313","0.0-3.0-8.0-1.3","spark_pilot_norest","12455","7","9","Male","","","","","","","null","<div style=""font-size:60px;"">+</div>","null","fixation","","","","","","","","","","","",""
"revaluation","47","335337","0.0-3.0-8.0-0.4","spark_pilot_norest","12455","7","9","Male","","false","","","","","[1242,1814.8999996185303]","./assets/img/space/10.jpg","[""ArrowUp"",""ArrowRight""]","full practice","space","36","{""ArrowUp,ArrowLeft"":3,""ArrowUp,ArrowRight"":36,""ArrowDown,ArrowLeft"":15,""ArrowDown,ArrowRight"":23}","true","ArrowUp,ArrowRight","false","","","","","",""
"html-keyboard-response","48","335842","0.0-3.0-8.0-1.4","spark_pilot_norest","12455","7","9","Male","","","","","","","null","<div style=""font-size:60px;"">+</div>","null","fixation","","","","","","","","","","","",""
"learning-instructions","49","347995","0.0-3.0-9.0-0.0","spark_pilot_norest","12455","7","9","Male","","","","","","","1821.8000001907349","<p> One last thing: sometimes, you will see a robber. The robber can be anywhere in the picture. </p>
            <p> If you do not stop them, you will lose treasure. </p>
            <img src='./assets/img/instructions/robber.jpg' class='instructions-image'>","","instructions","","","","","","","","","","","",""
"learning-instructions","50","356496","0.0-3.0-9.0-0.1","spark_pilot_norest","12455","7","9","Male","","","","","","","1322.5999994277954","<p> If you see the robber, you should <b>press the space bar</b> rather than using the arrow keys. </p>
            <p> Try practicing that now! </p>","","instructions","","","","","","","","","","","",""
"revaluation","51","360516","0.0-3.0-10.0-0.0","spark_pilot_norest","12455","7","9","Male","","false","","","","","[1023.6999998092651]","./assets/img/space/catch/0.jpg","[""spaceBar""]","catch practice","space","0","{""ArrowUp,ArrowLeft"":3,""ArrowUp,ArrowRight"":36,""ArrowDown,ArrowLeft"":15,""ArrowDown,ArrowRight"":23}","true","spaceBar","true","","","","","",""
"html-keyboard-response","52","361027","0.0-3.0-10.0-1.0","spark_pilot_norest","12455","7","9","Male","","","","","","","null","<div style=""font-size:60px;"">+</div>","null","fixation","","","","","","","","","","","",""
"revaluation","53","365057","0.0-3.0-10.0-0.1","spark_pilot_norest","12455","7","9","Male","","false","","","","","[799.1000003814697]","./assets/img/space/catch/1.jpg","[""spaceBar""]","catch practice","space","0","{""ArrowUp,ArrowLeft"":3,""ArrowUp,ArrowRight"":36,""ArrowDown,ArrowLeft"":15,""ArrowDown,ArrowRight"":23}","true","spaceBar","true","","","","","",""
"html-keyboard-response","54","365559","0.0-3.0-10.0-1.1","spark_pilot_norest","12455","7","9","Male","","","","","","","null","<div style=""font-size:60px;"">+</div>","null","fixation","","","","","","","","","","","",""
"revaluation","55","369581","0.0-3.0-10.0-0.2","spark_pilot_norest","12455","7","9","Male","","false","","","","","[706.9000005722046]","./assets/img/space/catch/2.jpg","[""spaceBar""]","catch practice","space","0","{""ArrowUp,ArrowLeft"":3,""ArrowUp,ArrowRight"":36,""ArrowDown,ArrowLeft"":15,""ArrowDown,ArrowRight"":23}","true","spaceBar","true","","","","","",""
"html-keyboard-response","56","370083","0.0-3.0-10.0-1.2","spark_pilot_norest","12455","7","9","Male","","","","","","","null","<div style=""font-size:60px;"">+</div>","null","fixation","","","","","","","","","","","",""
"learning-instructions","57","376743","0.0-3.0-11.0-0.0-0.0","spark_pilot_norest","12455","7","9","Male","","","","","","","1370.2000007629395","<p> Now, you will practice a shortened version of the game to get a sense of how it all fits together. </p>","","instructions","","","","","","","","","","","",""
"learning-instructions","58","381723","0.0-3.0-11.0-0.0-0.1","spark_pilot_norest","12455","7","9","Male","","","","","","","1790.3000001907349","<p>This time you are searching for treasure in outer space.</p>","","instructions","","","","","","","","","","","",""
"learning-instructions","59","398145","0.0-3.0-11.0-1.0-0.0","spark_pilot_norest","12455","7","9","Male","","","","","","","1641.8999996185303","<p> Remember, when you see a picture of the place, use the up and down keys to <b>find an animal</b>.</p>
            <p> When you encounter an animal, you should use the left and right keys to <b>select a treasure chest</b>.</p>
            <p> Don't forget to look out for the robber! </p>","","instructions","","","","","","","","","","","",""
"revaluation","60","404168","0.0-3.0-11.0-2.0-0.0","spark_pilot_norest","12455","7","9","Male","","false","","","","","[1332.6999998092651,1031.1000003814697]","./assets/img/space/11.jpg","[""ArrowUp"",""ArrowLeft""]","practice block","space","3","{""ArrowUp,ArrowLeft"":3,""ArrowUp,ArrowRight"":36,""ArrowDown,ArrowLeft"":15,""ArrowDown,ArrowRight"":23}","false","ArrowUp,ArrowLeft","false","","","","","",""
"html-keyboard-response","61","404670","0.0-3.0-11.0-2.0-1.0","spark_pilot_norest","12455","7","9","Male","","","","","","","null","<div style=""font-size:60px;"">+</div>","null","fixation","","","","","","","","","","","",""
"revaluation","62","410696","0.0-3.0-11.0-2.0-0.1","spark_pilot_norest","12455","7","9","Male","","false","","","","","[1195.5999994277954,890.4000005722046]","./assets/img/space/12.jpg","[""ArrowDown"",""ArrowRight""]","practice block","space","23","{""ArrowUp,ArrowLeft"":3,""ArrowUp,ArrowRight"":36,""ArrowDown,ArrowLeft"":15,""ArrowDown,ArrowRight"":23}","false","ArrowDown,ArrowRight","false","","","","","",""
"html-keyboard-response","63","411211","0.0-3.0-11.0-2.0-1.1","spark_pilot_norest","12455","7","9","Male","","","","","","","null","<div style=""font-size:60px;"">+</div>","null","fixation","","","","","","","","","","","",""
"revaluation","64","417239","0.0-3.0-11.0-2.0-0.2","spark_pilot_norest","12455","7","9","Male","","false","","","","","[1534.6000003814697,756.1000003814697]","./assets/img/space/13.jpg","[""ArrowDown"",""ArrowRight""]","practice block","space","23","{""ArrowUp,ArrowLeft"":3,""ArrowUp,ArrowRight"":36,""ArrowDown,ArrowLeft"":15,""ArrowDown,ArrowRight"":23}","false","ArrowDown,ArrowRight","false","","","","","",""
"html-keyboard-response","65","417754","0.0-3.0-11.0-2.0-1.2","spark_pilot_norest","12455","7","9","Male","","","","","","","null","<div style=""font-size:60px;"">+</div>","null","fixation","","","","","","","","","","","",""
"revaluation","66","423790","0.0-3.0-11.0-2.0-0.3","spark_pilot_norest","12455","7","9","Male","","false","","","","","[1232.3999996185303,843.3000001907349]","./assets/img/space/14.jpg","[""ArrowDown"",""ArrowRight""]","practice block","space","23","{""ArrowUp,ArrowLeft"":3,""ArrowUp,ArrowRight"":36,""ArrowDown,ArrowLeft"":15,""ArrowDown,ArrowRight"":23}","false","ArrowDown,ArrowRight","false","","","","","",""
"html-keyboard-response","67","424306","0.0-3.0-11.0-2.0-1.3","spark_pilot_norest","12455","7","9","Male","","","","","","","null","<div style=""font-size:60px;"">+</div>","null","fixation","","","","","","","","","","","",""
"revaluation","68","430331","0.0-3.0-11.0-2.0-0.4","spark_pilot_norest","12455","7","9","Male","","false","","","","","[1360.5999994277954,869]","./assets/img/space/11.jpg","[""ArrowUp"",""ArrowRight""]","practice block","space","36","{""ArrowUp,ArrowLeft"":3,""ArrowUp,ArrowRight"":36,""ArrowDown,ArrowLeft"":15,""ArrowDown,ArrowRight"":23}","true","ArrowUp,ArrowRight","false","","","","","",""
"html-keyboard-response","69","430833","0.0-3.0-11.0-2.0-1.4","spark_pilot_norest","12455","7","9","Male","","","","","","","null","<div style=""font-size:60px;"">+</div>","null","fixation","","","","","","","","","","","",""
"revaluation","70","436854","0.0-3.0-11.0-2.0-0.5","spark_pilot_norest","12455","7","9","Male","","false","","","","","[1191.4000005722046,1027.8000001907349]","./assets/img/space/12.jpg","[""ArrowUp"",""ArrowRight""]","practice block","space","36","{""ArrowUp,ArrowLeft"":3,""ArrowUp,ArrowRight"":36,""ArrowDown,ArrowLeft"":15,""ArrowDown,ArrowRight"":23}","true","ArrowUp,ArrowRight","false","","","","","",""
"html-keyboard-response","71","437367","0.0-3.0-11.0-2.0-1.5","spark_pilot_norest","12455","7","9","Male","","","","","","","null","<div style=""font-size:60px;"">+</div>","null","fixation","","","","","","","","","","","",""
"revaluation","72","443385","0.0-3.0-11.0-2.0-0.6","spark_pilot_norest","12455","7","9","Male","","false","","","","","[990.6999998092651,1366.1999998092651]","./assets/img/space/13.jpg","[""ArrowUp"",""ArrowLeft""]","practice block","space","3","{""ArrowUp,ArrowLeft"":3,""ArrowUp,ArrowRight"":36,""ArrowDown,ArrowLeft"":15,""ArrowDown,ArrowRight"":23}","false","ArrowUp,ArrowLeft","false","","","","","",""
"html-keyboard-response","73","443890","0.0-3.0-11.0-2.0-1.6","spark_pilot_norest","12455","7","9","Male","","","","","","","null","<div style=""font-size:60px;"">+</div>","null","fixation","","","","","","","","","","","",""
"revaluation","74","449920","0.0-3.0-11.0-2.0-0.7","spark_pilot_norest","12455","7","9","Male","","false","","","","","[1587.3000001907349,924.1999998092651]","./assets/img/space/14.jpg","[""ArrowDown"",""ArrowRight""]","practice block","space","23","{""ArrowUp,ArrowLeft"":3,""ArrowUp,ArrowRight"":36,""ArrowDown,ArrowLeft"":15,""ArrowDown,ArrowRight"":23}","false","ArrowDown,ArrowRight","false","","","","","",""
"html-keyboard-response","75","450429","0.0-3.0-11.0-2.0-1.7","spark_pilot_norest","12455","7","9","Male","","","","","","","null","<div style=""font-size:60px;"">+</div>","null","fixation","","","","","","","","","","","",""
"revaluation","76","454450","0.0-3.0-11.0-2.0-0.8","spark_pilot_norest","12455","7","9","Male","","false","","","","","[818.6999998092651]","./assets/img/space/catch/3.jpg","[""spaceBar""]","practice block","space","0","{""ArrowUp,ArrowLeft"":3,""ArrowUp,ArrowRight"":36,""ArrowDown,ArrowLeft"":15,""ArrowDown,ArrowRight"":23}","true","spaceBar","true","","","","","",""
"html-keyboard-response","77","454960","0.0-3.0-11.0-2.0-1.8","spark_pilot_norest","12455","7","9","Male","","","","","","","null","<div style=""font-size:60px;"">+</div>","null","fixation","","","","","","","","","","","",""
"learning-instructions","78","471042","0.0-3.0-11.0-3.0-0.0","spark_pilot_norest","12455","7","9","Male","","","","","","","2832","<p> Now, you will travel with a friend who will choose whether you go up or down first. </p>
            <p> On these turns, you will just see the animal that they found. You will still get to choose which chest to search for treasure.</p>","","instructions","","","","","","","","","","","",""
"revaluation","79","475052","0.0-3.0-11.0-4.0-0.0","spark_pilot_norest","12455","7","9","Male","","false","","","","","[1958.4000005722046]","./assets/img/space/animals/rabbit.jpg","[""ArrowRight""]","practice block","space","23","{""ArrowUp,ArrowLeft"":3,""ArrowUp,ArrowRight"":36,""ArrowDown,ArrowLeft"":15,""ArrowDown,ArrowRight"":23}","true","ArrowDown,ArrowRight","","","","","","",""
"html-keyboard-response","80","475559","0.0-3.0-11.0-4.0-1.0","spark_pilot_norest","12455","7","9","Male","","","","","","","null","<div style=""font-size:60px;"">+</div>","null","fixation","","","","","","","","","","","",""
"revaluation","81","479584","0.0-3.0-11.0-4.0-0.1","spark_pilot_norest","12455","7","9","Male","","false","","","","","[1108.6999998092651]","./assets/img/space/animals/rabbit.jpg","[""ArrowRight""]","practice block","space","23","{""ArrowUp,ArrowLeft"":3,""ArrowUp,ArrowRight"":36,""ArrowDown,ArrowLeft"":15,""ArrowDown,ArrowRight"":23}","true","ArrowDown,ArrowRight","","","","","","",""
"html-keyboard-response","82","480102","0.0-3.0-11.0-4.0-1.1","spark_pilot_norest","12455","7","9","Male","","","","","","","null","<div style=""font-size:60px;"">+</div>","null","fixation","","","","","","","","","","","",""
"revaluation","83","484126","0.0-3.0-11.0-4.0-0.2","spark_pilot_norest","12455","7","9","Male","","false","","","","","[946.6999998092651]","./assets/img/space/animals/cat.jpg","[""ArrowLeft""]","practice block","space","3","{""ArrowUp,ArrowLeft"":3,""ArrowUp,ArrowRight"":36,""ArrowDown,ArrowLeft"":15,""ArrowDown,ArrowRight"":23}","false","ArrowUp,ArrowLeft","","","","","","",""
"html-keyboard-response","84","484640","0.0-3.0-11.0-4.0-1.2","spark_pilot_norest","12455","7","9","Male","","","","","","","null","<div style=""font-size:60px;"">+</div>","null","fixation","","","","","","","","","","","",""
"revaluation","85","488672","0.0-3.0-11.0-4.0-0.3","spark_pilot_norest","12455","7","9","Male","","false","","","","","[568.1999998092651]","./assets/img/space/animals/cat.jpg","[""ArrowRight""]","practice block","space","36","{""ArrowUp,ArrowLeft"":3,""ArrowUp,ArrowRight"":36,""ArrowDown,ArrowLeft"":15,""ArrowDown,ArrowRight"":23}","true","ArrowUp,ArrowRight","","","","","","",""
"html-keyboard-response","86","489176","0.0-3.0-11.0-4.0-1.3","spark_pilot_norest","12455","7","9","Male","","","","","","","null","<div style=""font-size:60px;"">+</div>","null","fixation","","","","","","","","","","","",""
"learning-instructions","87","497336","0.0-3.0-11.0-5.0-0.0","spark_pilot_norest","12455","7","9","Male","","","","","","","null","<p> You have almost finished this part of the game! </p>
            <p> We are going to ask you to make a few more choices. </p>","","instructions","","","","","","","","","","","",""
"learning-instructions","88","513370","0.0-3.0-11.0-5.0-0.1","spark_pilot_norest","12455","7","9","Male","","","","","","","null","<p> First, you need to decide whether to go up or down. When you see each picture, use the arrow keys to make your choice. </p>
            <p><b>You will not see which animal you found, but try to get to the one that will give you the most treasure.</b></p>","","instructions","","","","","","","","","","","",""
"html-keyboard-response","89","514380","0.0-3.0-11.0-6.0-0.0","spark_pilot_norest","12455","7","9","Male","","","","","","","null","<div style=""font-size:100px;color:red;"">Starting in...</div>","null","","","","","","","","","","","","",""
"html-keyboard-response","90","515391","0.0-3.0-11.0-6.0-1.0","spark_pilot_norest","12455","7","9","Male","","","","","","","null","<div style=""font-size:200px;color:red;"">3</div>","null","","","","","","","","","","","","",""
"html-keyboard-response","91","516402","0.0-3.0-11.0-6.0-2.0","spark_pilot_norest","12455","7","9","Male","","","","","","","null","<div style=""font-size:200px;color:red;"">2</div>","null","","","","","","","","","","","","",""
"html-keyboard-response","92","517408","0.0-3.0-11.0-6.0-3.0","spark_pilot_norest","12455","7","9","Male","","","","","","","null","<div style=""font-size:200px;color:red;"">1</div>","null","","","","","","","","","","","","",""
"revaluation","93","518473","0.0-3.0-11.0-7.0","spark_pilot_norest","12455","7","9","Male","","false","","","","","[1058.9000005722046]","./assets/img/space/15.jpg","[""ArrowUp""]","practice block","space","0","{""ArrowUp,ArrowLeft"":3,""ArrowUp,ArrowRight"":36,""ArrowDown,ArrowLeft"":15,""ArrowDown,ArrowRight"":23}","true","ArrowUp","false","","","","","",""
"html-keyboard-response","94","518979","0.0-3.0-11.0-8.0","spark_pilot_norest","12455","7","9","Male","","","","","","","null","<div style=""font-size:60px;"">+</div>","null","fixation","","","","","","","","","","","",""
"learning-instructions","95","532380","0.0-3.0-11.0-9.0-0.0","spark_pilot_norest","12455","7","9","Male","","","","","","","null","<p> Now you will see the animals again and can search their chests for treasure. </p>
            <p> This time, you will not see how much treasure you earned, but you will earn more bonus money for making better choices. </p>","","instructions","","","","","","","","","","","",""
"html-keyboard-response","96","533384","0.0-3.0-11.0-10.0-0.0","spark_pilot_norest","12455","7","9","Male","","","","","","","null","<div style=""font-size:100px;color:red;"">Starting in...</div>","null","","","","","","","","","","","","",""
"html-keyboard-response","97","534400","0.0-3.0-11.0-10.0-1.0","spark_pilot_norest","12455","7","9","Male","","","","","","","null","<div style=""font-size:200px;color:red;"">3</div>","null","","","","","","","","","","","","",""
"html-keyboard-response","98","535404","0.0-3.0-11.0-10.0-2.0","spark_pilot_norest","12455","7","9","Male","","","","","","","null","<div style=""font-size:200px;color:red;"">2</div>","null","","","","","","","","","","","","",""
"html-keyboard-response","99","536408","0.0-3.0-11.0-10.0-3.0","spark_pilot_norest","12455","7","9","Male","","","","","","","null","<div style=""font-size:200px;color:red;"">1</div>","null","","","","","","","","","","","","",""
"revaluation","100","537883","0.0-3.0-11.0-11.0-0.0","spark_pilot_norest","12455","7","9","Male","","false","","","","","[1469.7000007629395]","./assets/img/space/animals/cat.jpg","[""ArrowRight""]","practice block","space","0","{""ArrowUp,ArrowLeft"":3,""ArrowUp,ArrowRight"":36,""ArrowDown,ArrowLeft"":15,""ArrowDown,ArrowRight"":23}","true","ArrowUp,ArrowRight","","","","","","",""
"html-keyboard-response","101","538385","0.0-3.0-11.0-11.0-1.0","spark_pilot_norest","12455","7","9","Male","","","","","","","null","<div style=""font-size:60px;"">+</div>","null","fixation","","","","","","","","","","","",""
"revaluation","102","539383","0.0-3.0-11.0-11.0-0.1","spark_pilot_norest","12455","7","9","Male","","false","","","","","[993.0999994277954]","./assets/img/space/animals/rabbit.jpg","[""ArrowRight""]","practice block","space","0","{""ArrowUp,ArrowLeft"":3,""ArrowUp,ArrowRight"":36,""ArrowDown,ArrowLeft"":15,""ArrowDown,ArrowRight"":23}","true","ArrowDown,ArrowRight","","","","","","",""
"html-keyboard-response","103","539886","0.0-3.0-11.0-11.0-1.1","spark_pilot_norest","12455","7","9","Male","","","","","","","null","<div style=""font-size:60px;"">+</div>","null","fixation","","","","","","","","","","","",""
"learning-instructions","104","546954","0.0-3.0-12.0-0.0","spark_pilot_norest","12455","7","9","Male","","","","","","","2483.6000003814697","<p> Before you start, we're going to ask you a few questions about how the game works. </p>","","instructions","","","","","","","","","","","",""
"comp-q","105","554643","0.0-3.0-13.0-0.0-0.0","spark_pilot_norest","12455","7","9","Male","","","","","","","2087.8999996185303","<p> <b> True or False? </b> </p>
            <p> There can be 50 pieces of treasure in a given animal's chest. </p>","0","comp_question","","","","false","","","","","","","",""
"comp-q","106","562432","0.0-3.0-13.0-0.0-1.0","spark_pilot_norest","12455","7","9","Male","","","","","","","1251.5999994277954","<p> <b>Incorrect.</b> The amount of treasure in each chest can range from 0 to 40 pieces. </p>","0","comp_answer","","","","","","","","","","","",""
"comp-q","107","568672","0.0-3.0-13.0-0.1-0.1","spark_pilot_norest","12455","7","9","Male","","","","","","","671.8000001907349","<p> <b> True or False? </b> </p>
            <p> There can be 50 pieces of treasure in a given animal's chest. </p>","1","comp_question","","","","true","","","","","","","",""
"comp-q","108","578958","0.0-3.0-13.0-0.1-1.1","spark_pilot_norest","12455","7","9","Male","","","","","","","3618.1000003814697","<p> <b> That's right! </b> The amount of treasure in each chest can range from 0 to 40 pieces. </p>","0","comp_answer","","","","","","","","","","","",""
"comp-q","109","587482","0.0-3.0-13.0-0.2-0.2","spark_pilot_norest","12455","7","9","Male","","","","","","","1401.3999996185303","<p> <b> True or False? </b> </p><p> In this game, all animals have the same amount of treasure in their left and right chests. </p>","1","comp_question","","","","true","","","","","","","",""
"comp-q","110","594421","0.0-3.0-13.0-0.2-1.2","spark_pilot_norest","12455","7","9","Male","","","","","","","1701","<p> <b> That's right! </b> Animals have different amounts of treasure in their treasure chests. </p>","0","comp_answer","","","","","","","","","","","",""
"comp-q","111","601661","0.0-3.0-13.0-0.3-0.3","spark_pilot_norest","12455","7","9","Male","","","","","","","1400.3000001907349","<p> <b> True or False? </b> </p><p> The same animal will always be there if you go up in the same place. </p>","1","comp_question","","","","false","","","","","","","",""
"comp-q","112","608978","0.0-3.0-13.0-0.3-1.3","spark_pilot_norest","12455","7","9","Male","","","","","","","1007.1000003814697","<p> <b>Incorrect.</b> One animal lives in the upper part and one lives in the lower part of every place. </p>","0","comp_answer","","","","","","","","","","","",""
"comp-q","113","626185","0.0-3.0-13.0-0.4-0.4","spark_pilot_norest","12455","7","9","Male","","","","","","","11385.29999923706","<p> <b> True or False? </b> </p><p> The same animal will always be there if you go up in the same place. </p>","0","comp_question","","","","true","","","","","","","",""
"comp-q","114","634846","0.0-3.0-13.0-0.4-1.4","spark_pilot_norest","12455","7","9","Male","","","","","","","2205.199999809265","<p> <b> That's right! </b> One animal lives in the upper part and one lives in the lower part of every place. </p>","0","comp_answer","","","","","","","","","","","",""
"comp-q","115","641212","0.0-3.0-13.0-0.5-0.5","spark_pilot_norest","12455","7","9","Male","","","","","","","840.5","<p> <b> True or False? </b> </p><p> If you see a different picture, it means you are in a new place. </p>","0","comp_question","","","","false","","","","","","","",""
"comp-q","116","654784","0.0-3.0-13.0-0.5-1.5","spark_pilot_norest","12455","7","9","Male","","","","","","","2462.5","<p> <b>Incorrect.</b> Lots of different images may show the same place. For example,  you may see three different images that all remind you that you are in outer space. </p>","0","comp_answer","","","","","","","","","","","",""
"comp-q","117","661173","0.0-3.0-13.0-0.6-0.6","spark_pilot_norest","12455","7","9","Male","","","","","","","882.0999994277954","<p> <b> True or False? </b> </p><p> If you see a different picture, it means you are in a new place. </p>","1","comp_question","","","","true","","","","","","","",""
"comp-q","118","674959","0.0-3.0-13.0-0.6-1.6","spark_pilot_norest","12455","7","9","Male","","","","","","","2548.4000005722046","<p> <b> That's right! </b> Lots of different images may show the same place. For example,  you may see three different images that all remind you that you are in outer space. </p>","0","comp_answer","","","","","","","","","","","",""
"learning-instructions","119","688087","0.0-3.0-14.0-0.0","spark_pilot_norest","12455","7","9","Male","","","","","","","3267","<p> Good job. Remember to do your best because the amount of treasure you earn will be converted into bonus money. </p>
            <p> It’s time to start the real game! </p>","","instructions","","","","","","","","","","","",""
"learning-instructions","120","692786","0.0-4.0-0.0-0.0","spark_pilot_norest","12455","7","9","Male","","","","","","","1924.4000005722046","<p> This time you are searching for treasure in the <b>canyon</b>.</p>","","instructions","","","","","","","","","","","",""
"learning-instructions","121","712323","0.0-4.0-0.0-0.1","spark_pilot_norest","12455","7","9","Male","","","","","","","2230.8999996185303","<p><b>New</b> animals with <b>new</b> treasure chests live here. You need to explore to discover where the animal with the best treasure chest is.</p>
                    <p> Like before, once you figure out which animal has the chest with the most treasure, you should try to get to that animal and select that chest! </p>","","instructions","","","","","","","","","","","",""
"learning-instructions","122","728656","0.0-4.0-1.0-0.0","spark_pilot_norest","12455","7","9","Male","","","","","","","1605.1999998092651","<p> Remember, when you see a picture of the place, use the up and down keys to <b>find an animal</b>.</p>
            <p> When you encounter an animal, you should use the left and right keys to <b>select a treasure chest</b>.</p>
            <p> Don't forget to look out for the robber! </p>","","instructions","","","","","","","","","","","",""
"revaluation","123","734693","0.0-4.0-2.0-0.0","spark_pilot_norest","12455","7","9","Male","","false","","","","","[1516.5,1213.8999996185303]","./assets/img/canyon/memory/16.jpg","[""ArrowUp"",""ArrowRight""]","value training","canyon","10","{""ArrowUp,ArrowLeft"":23,""ArrowUp,ArrowRight"":10,""ArrowDown,ArrowLeft"":8,""ArrowDown,ArrowRight"":30}","false","ArrowUp,ArrowRight","false","original","1","0","","",""
"html-keyboard-response","124","735203","0.0-4.0-2.0-1.0","spark_pilot_norest","12455","7","9","Male","","","","","","","null","<div style=""font-size:60px;"">+</div>","null","fixation","","","","","","","","","1","","",""
"revaluation","125","741242","0.0-4.0-2.0-0.1","spark_pilot_norest","12455","7","9","Male","","false","","","","","[1407.2000007629395,813.5999994277954]","./assets/img/canyon/memory/21.jpg","[""ArrowUp"",""ArrowLeft""]","value training","canyon","23","{""ArrowUp,ArrowLeft"":23,""ArrowUp,ArrowRight"":10,""ArrowDown,ArrowLeft"":8,""ArrowDown,ArrowRight"":30}","false","ArrowUp,ArrowLeft","false","original","1","2","","",""
"html-keyboard-response","126","741748","0.0-4.0-2.0-1.1","spark_pilot_norest","12455","7","9","Male","","","","","","","null","<div style=""font-size:60px;"">+</div>","null","fixation","","","","","","","","","3","","",""
"revaluation","127","747781","0.0-4.0-2.0-0.2","spark_pilot_norest","12455","7","9","Male","","false","","","","","[1463.1000003814697,1666.6999998092651]","./assets/img/canyon/memory/18.jpg","[""ArrowDown"",""ArrowRight""]","value training","canyon","30","{""ArrowUp,ArrowLeft"":23,""ArrowUp,ArrowRight"":10,""ArrowDown,ArrowLeft"":8,""ArrowDown,ArrowRight"":30}","true","ArrowDown,ArrowRight","false","original","1","4","","",""
"html-keyboard-response","128","748283","0.0-4.0-2.0-1.2","spark_pilot_norest","12455","7","9","Male","","","","","","","null","<div style=""font-size:60px;"">+</div>","null","fixation","","","","","","","","","5","","",""
"revaluation","129","754316","0.0-4.0-2.0-0.3","spark_pilot_norest","12455","7","9","Male","","true","","","","","[1828.9000005722046]","./assets/img/canyon/memory/41.jpg","[""ArrowUp""]","value training","canyon","-5","{""ArrowUp,ArrowLeft"":23,""ArrowUp,ArrowRight"":10,""ArrowDown,ArrowLeft"":8,""ArrowDown,ArrowRight"":30}","false","ArrowUp","false","original","1","6","","",""
"html-keyboard-response","130","754828","0.0-4.0-2.0-1.3","spark_pilot_norest","12455","7","9","Male","","","","","","","null","<div style=""font-size:60px;"">+</div>","null","fixation","","","","","","","","","7","","",""
"revaluation","131","760854","0.0-4.0-2.0-0.4","spark_pilot_norest","12455","7","9","Male","","false","","","","","[914,911.4000005722046]","./assets/img/canyon/memory/37.jpg","[""ArrowDown"",""ArrowLeft""]","value training","canyon","8","{""ArrowUp,ArrowLeft"":23,""ArrowUp,ArrowRight"":10,""ArrowDown,ArrowLeft"":8,""ArrowDown,ArrowRight"":30}","false","ArrowDown,ArrowLeft","false","original","1","8","","",""
"html-keyboard-response","132","761359","0.0-4.0-2.0-1.4","spark_pilot_norest","12455","7","9","Male","","","","","","","null","<div style=""font-size:60px;"">+</div>","null","fixation","","","","","","","","","9","","",""
"revaluation","133","765380","0.0-4.0-2.0-0.5","spark_pilot_norest","12455","7","9","Male","","false","","","","","[681.5]","./assets/img/canyon/catch/2.jpg","[""ArrowDown""]","value training","canyon","-10","{""ArrowUp,ArrowLeft"":23,""ArrowUp,ArrowRight"":10,""ArrowDown,ArrowLeft"":8,""ArrowDown,ArrowRight"":30}","false","ArrowDown","true","original","1","10","","",""
"html-keyboard-response","134","765895","0.0-4.0-2.0-1.5","spark_pilot_norest","12455","7","9","Male","","","","","","","null","<div style=""font-size:60px;"">+</div>","null","fixation","","","","","","","","","11","","",""
"revaluation","135","771926","0.0-4.0-2.0-0.6","spark_pilot_norest","12455","7","9","Male","","false","","","","","[1407.8999996185303,1229]","./assets/img/canyon/memory/19.jpg","[""ArrowDown"",""ArrowRight""]","value training","canyon","30","{""ArrowUp,ArrowLeft"":23,""ArrowUp,ArrowRight"":10,""ArrowDown,ArrowLeft"":8,""ArrowDown,ArrowRight"":30}","true","ArrowDown,ArrowRight","false","original","1","12","","",""
"html-keyboard-response","136","772432","0.0-4.0-2.0-1.6","spark_pilot_norest","12455","7","9","Male","","","","","","","null","<div style=""font-size:60px;"">+</div>","null","fixation","","","","","","","","","13","","",""
"revaluation","137","778447","0.0-4.0-2.0-0.7","spark_pilot_norest","12455","7","9","Male","","false","","","","","[851,596.1999998092651]","./assets/img/canyon/memory/6.jpg","[""ArrowUp"",""ArrowLeft""]","value training","canyon","23","{""ArrowUp,ArrowLeft"":23,""ArrowUp,ArrowRight"":10,""ArrowDown,ArrowLeft"":8,""ArrowDown,ArrowRight"":30}","false","ArrowUp,ArrowLeft","false","original","1","14","","",""
"html-keyboard-response","138","778964","0.0-4.0-2.0-1.7","spark_pilot_norest","12455","7","9","Male","","","","","","","null","<div style=""font-size:60px;"">+</div>","null","fixation","","","","","","","","","15","","",""
"revaluation","139","784996","0.0-4.0-2.0-0.8","spark_pilot_norest","12455","7","9","Male","","false","","","","","[1298.6000003814697,830.8999996185303]","./assets/img/canyon/memory/23.jpg","[""ArrowDown"",""ArrowRight""]","value training","canyon","30","{""ArrowUp,ArrowLeft"":23,""ArrowUp,ArrowRight"":10,""ArrowDown,ArrowLeft"":8,""ArrowDown,ArrowRight"":30}","true","ArrowDown,ArrowRight","false","original","1","16","","",""
"html-keyboard-response","140","785498","0.0-4.0-2.0-1.8","spark_pilot_norest","12455","7","9","Male","","","","","","","null","<div style=""font-size:60px;"">+</div>","null","fixation","","","","","","","","","17","","",""
"revaluation","141","791529","0.0-4.0-2.0-0.9","spark_pilot_norest","12455","7","9","Male","","false","","","","","[1073.5999994277954,795.1999998092651]","./assets/img/canyon/memory/22.jpg","[""ArrowUp"",""ArrowLeft""]","value training","canyon","23","{""ArrowUp,ArrowLeft"":23,""ArrowUp,ArrowRight"":10,""ArrowDown,ArrowLeft"":8,""ArrowDown,ArrowRight"":30}","false","ArrowUp,ArrowLeft","false","original","1","18","","",""
"html-keyboard-response","142","792046","0.0-4.0-2.0-1.9","spark_pilot_norest","12455","7","9","Male","","","","","","","null","<div style=""font-size:60px;"">+</div>","null","fixation","","","","","","","","","19","","",""
"revaluation","143","796067","0.0-4.0-2.0-0.10","spark_pilot_norest","12455","7","9","Male","","false","","","","","[685.0999994277954]","./assets/img/canyon/catch/4.jpg","[""spaceBar""]","value training","canyon","0","{""ArrowUp,ArrowLeft"":23,""ArrowUp,ArrowRight"":10,""ArrowDown,ArrowLeft"":8,""ArrowDown,ArrowRight"":30}","true","spaceBar","true","original","1","20","","",""
"html-keyboard-response","144","796572","0.0-4.0-2.0-1.10","spark_pilot_norest","12455","7","9","Male","","","","","","","null","<div style=""font-size:60px;"">+</div>","null","fixation","","","","","","","","","21","","",""
"revaluation","145","802590","0.0-4.0-2.0-0.11","spark_pilot_norest","12455","7","9","Male","","false","","","","","[719.1999998092651,623.1000003814697]","./assets/img/canyon/memory/7.jpg","[""ArrowDown"",""ArrowRight""]","value training","canyon","30","{""ArrowUp,ArrowLeft"":23,""ArrowUp,ArrowRight"":10,""ArrowDown,ArrowLeft"":8,""ArrowDown,ArrowRight"":30}","true","ArrowDown,ArrowRight","false","original","1","22","","",""
"html-keyboard-response","146","803094","0.0-4.0-2.0-1.11","spark_pilot_norest","12455","7","9","Male","","","","","","","null","<div style=""font-size:60px;"">+</div>","null","fixation","","","","","","","","","23","","",""
"revaluation","147","809120","0.0-4.0-2.0-0.12","spark_pilot_norest","12455","7","9","Male","","false","","","","","[1037.8999996185303,1075]","./assets/img/canyon/memory/25.jpg","[""ArrowUp"",""ArrowLeft""]","value training","canyon","23","{""ArrowUp,ArrowLeft"":23,""ArrowUp,ArrowRight"":10,""ArrowDown,ArrowLeft"":8,""ArrowDown,ArrowRight"":30}","false","ArrowUp,ArrowLeft","false","original","1","24","","",""
"html-keyboard-response","148","809624","0.0-4.0-2.0-1.12","spark_pilot_norest","12455","7","9","Male","","","","","","","null","<div style=""font-size:60px;"">+</div>","null","fixation","","","","","","","","","25","","",""
"revaluation","149","815652","0.0-4.0-2.0-0.13","spark_pilot_norest","12455","7","9","Male","","false","","","","","[1135.5,514.8999996185303]","./assets/img/canyon/memory/27.jpg","[""ArrowDown"",""ArrowRight""]","value training","canyon","30","{""ArrowUp,ArrowLeft"":23,""ArrowUp,ArrowRight"":10,""ArrowDown,ArrowLeft"":8,""ArrowDown,ArrowRight"":30}","true","ArrowDown,ArrowRight","false","original","1","26","","",""
"html-keyboard-response","150","816167","0.0-4.0-2.0-1.13","spark_pilot_norest","12455","7","9","Male","","","","","","","null","<div style=""font-size:60px;"">+</div>","null","fixation","","","","","","","","","27","","",""
"revaluation","151","820179","0.0-4.0-2.0-0.14","spark_pilot_norest","12455","7","9","Male","","false","","","","","[1133]","./assets/img/canyon/catch/1.jpg","[""spaceBar""]","value training","canyon","0","{""ArrowUp,ArrowLeft"":23,""ArrowUp,ArrowRight"":10,""ArrowDown,ArrowLeft"":8,""ArrowDown,ArrowRight"":30}","true","spaceBar","true","original","1","28","","",""
"html-keyboard-response","152","820684","0.0-4.0-2.0-1.14","spark_pilot_norest","12455","7","9","Male","","","","","","","null","<div style=""font-size:60px;"">+</div>","null","fixation","","","","","","","","","29","","",""
"revaluation","153","826704","0.0-4.0-2.0-0.15","spark_pilot_norest","12455","7","9","Male","","false","","","","","[995.6000003814697,615.6000003814697]","./assets/img/canyon/memory/36.jpg","[""ArrowDown"",""ArrowRight""]","value training","canyon","30","{""ArrowUp,ArrowLeft"":23,""ArrowUp,ArrowRight"":10,""ArrowDown,ArrowLeft"":8,""ArrowDown,ArrowRight"":30}","true","ArrowDown,ArrowRight","false","original","1","30","","",""
"html-keyboard-response","154","827208","0.0-4.0-2.0-1.15","spark_pilot_norest","12455","7","9","Male","","","","","","","null","<div style=""font-size:60px;"">+</div>","null","fixation","","","","","","","","","31","","",""
"revaluation","155","833238","0.0-4.0-2.0-0.16","spark_pilot_norest","12455","7","9","Male","","false","","","","","[862.1000003814697,544.3000001907349]","./assets/img/canyon/memory/35.jpg","[""ArrowDown"",""ArrowRight""]","value training","canyon","30","{""ArrowUp,ArrowLeft"":23,""ArrowUp,ArrowRight"":10,""ArrowDown,ArrowLeft"":8,""ArrowDown,ArrowRight"":30}","true","ArrowDown,ArrowRight","false","original","1","32","","",""
"html-keyboard-response","156","833749","0.0-4.0-2.0-1.16","spark_pilot_norest","12455","7","9","Male","","","","","","","null","<div style=""font-size:60px;"">+</div>","null","fixation","","","","","","","","","33","","",""
"revaluation","157","837772","0.0-4.0-2.0-0.17","spark_pilot_norest","12455","7","9","Male","","true","","","","","[]","./assets/img/canyon/memory/3.jpg","[]","value training","canyon","-5","{""ArrowUp,ArrowLeft"":23,""ArrowUp,ArrowRight"":10,""ArrowDown,ArrowLeft"":8,""ArrowDown,ArrowRight"":30}","false","","false","original","1","34","","",""
"html-keyboard-response","158","838283","0.0-4.0-2.0-1.17","spark_pilot_norest","12455","7","9","Male","","","","","","","null","<div style=""font-size:60px;"">+</div>","null","fixation","","","","","","","","","35","","",""
"revaluation","159","844316","0.0-4.0-2.0-0.18","spark_pilot_norest","12455","7","9","Male","","false","","","","","[906.9000005722046,612.3999996185303]","./assets/img/canyon/memory/27.jpg","[""ArrowUp"",""ArrowLeft""]","value training","canyon","23","{""ArrowUp,ArrowLeft"":23,""ArrowUp,ArrowRight"":10,""ArrowDown,ArrowLeft"":8,""ArrowDown,ArrowRight"":30}","false","ArrowUp,ArrowLeft","false","original","1","36","","",""
"html-keyboard-response","160","844819","0.0-4.0-2.0-1.18","spark_pilot_norest","12455","7","9","Male","","","","","","","null","<div style=""font-size:60px;"">+</div>","null","fixation","","","","","","","","","37","","",""
"revaluation","161","850841","0.0-4.0-2.0-0.19","spark_pilot_norest","12455","7","9","Male","","false","","","","","[1190.6999998092651,849]","./assets/img/canyon/memory/19.jpg","[""ArrowUp"",""ArrowRight""]","value training","canyon","10","{""ArrowUp,ArrowLeft"":23,""ArrowUp,ArrowRight"":10,""ArrowDown,ArrowLeft"":8,""ArrowDown,ArrowRight"":30}","false","ArrowUp,ArrowRight","false","original","1","38","","",""
"html-keyboard-response","162","851350","0.0-4.0-2.0-1.19","spark_pilot_norest","12455","7","9","Male","","","","","","","null","<div style=""font-size:60px;"">+</div>","null","fixation","","","","","","","","","39","","",""
"revaluation","163","857373","0.0-4.0-2.0-0.20","spark_pilot_norest","12455","7","9","Male","","false","","","","","[580.8000001907349,565]","./assets/img/canyon/memory/4.jpg","[""ArrowDown"",""ArrowRight""]","value training","canyon","30","{""ArrowUp,ArrowLeft"":23,""ArrowUp,ArrowRight"":10,""ArrowDown,ArrowLeft"":8,""ArrowDown,ArrowRight"":30}","true","ArrowDown,ArrowRight","false","original","1","40","","",""
"html-keyboard-response","164","857875","0.0-4.0-2.0-1.20","spark_pilot_norest","12455","7","9","Male","","","","","","","null","<div style=""font-size:60px;"">+</div>","null","fixation","","","","","","","","","41","","",""
"revaluation","165","863895","0.0-4.0-2.0-0.21","spark_pilot_norest","12455","7","9","Male","","false","","","","","[732.8999996185303,653.6000003814697]","./assets/img/canyon/memory/15.jpg","[""ArrowDown"",""ArrowLeft""]","value training","canyon","8","{""ArrowUp,ArrowLeft"":23,""ArrowUp,ArrowRight"":10,""ArrowDown,ArrowLeft"":8,""ArrowDown,ArrowRight"":30}","false","ArrowDown,ArrowLeft","false","original","1","42","","",""
"html-keyboard-response","166","864413","0.0-4.0-2.0-1.21","spark_pilot_norest","12455","7","9","Male","","","","","","","null","<div style=""font-size:60px;"">+</div>","null","fixation","","","","","","","","","43","","",""
"revaluation","167","870445","0.0-4.0-2.0-0.22","spark_pilot_norest","12455","7","9","Male","","false","","","","","[713.8000001907349,569]","./assets/img/canyon/memory/7.jpg","[""ArrowDown"",""ArrowRight""]","value training","canyon","30","{""ArrowUp,ArrowLeft"":23,""ArrowUp,ArrowRight"":10,""ArrowDown,ArrowLeft"":8,""ArrowDown,ArrowRight"":30}","true","ArrowDown,ArrowRight","false","original","1","44","","",""
"html-keyboard-response","168","870957","0.0-4.0-2.0-1.22","spark_pilot_norest","12455","7","9","Male","","","","","","","null","<div style=""font-size:60px;"">+</div>","null","fixation","","","","","","","","","45","","",""
"revaluation","169","876982","0.0-4.0-2.0-0.23","spark_pilot_norest","12455","7","9","Male","","false","","","","","[680.8999996185303,588.7000007629395]","./assets/img/canyon/memory/23.jpg","[""ArrowDown"",""ArrowRight""]","value training","canyon","30","{""ArrowUp,ArrowLeft"":23,""ArrowUp,ArrowRight"":10,""ArrowDown,ArrowLeft"":8,""ArrowDown,ArrowRight"":30}","true","ArrowDown,ArrowRight","false","original","1","46","","",""
"html-keyboard-response","170","877498","0.0-4.0-2.0-1.23","spark_pilot_norest","12455","7","9","Male","","","","","","","null","<div style=""font-size:60px;"">+</div>","null","fixation","","","","","","","","","47","","",""
"revaluation","171","883514","0.0-4.0-2.0-0.24","spark_pilot_norest","12455","7","9","Male","","false","","","","","[611.7000007629395,528.3000001907349]","./assets/img/canyon/memory/6.jpg","[""ArrowDown"",""ArrowRight""]","value training","canyon","30","{""ArrowUp,ArrowLeft"":23,""ArrowUp,ArrowRight"":10,""ArrowDown,ArrowLeft"":8,""ArrowDown,ArrowRight"":30}","true","ArrowDown,ArrowRight","false","original","1","48","","",""
"html-keyboard-response","172","884022","0.0-4.0-2.0-1.24","spark_pilot_norest","12455","7","9","Male","","","","","","","null","<div style=""font-size:60px;"">+</div>","null","fixation","","","","","","","","","49","","",""
"revaluation","173","890046","0.0-4.0-2.0-0.25","spark_pilot_norest","12455","7","9","Male","","false","","","","","[615.5,608.5999994277954]","./assets/img/canyon/memory/37.jpg","[""ArrowDown"",""ArrowRight""]","value training","canyon","30","{""ArrowUp,ArrowLeft"":23,""ArrowUp,ArrowRight"":10,""ArrowDown,ArrowLeft"":8,""ArrowDown,ArrowRight"":30}","true","ArrowDown,ArrowRight","false","original","1","50","","",""
"html-keyboard-response","174","890551","0.0-4.0-2.0-1.25","spark_pilot_norest","12455","7","9","Male","","","","","","","null","<div style=""font-size:60px;"">+</div>","null","fixation","","","","","","","","","51","","",""
"revaluation","175","896582","0.0-4.0-2.0-0.26","spark_pilot_norest","12455","7","9","Male","","false","","","","","[1118.1999998092651,412.30000019073486]","./assets/img/canyon/memory/36.jpg","[""ArrowDown"",""ArrowRight""]","value training","canyon","30","{""ArrowUp,ArrowLeft"":23,""ArrowUp,ArrowRight"":10,""ArrowDown,ArrowLeft"":8,""ArrowDown,ArrowRight"":30}","true","ArrowDown,ArrowRight","false","original","1","52","","",""
"html-keyboard-response","176","897099","0.0-4.0-2.0-1.26","spark_pilot_norest","12455","7","9","Male","","","","","","","null","<div style=""font-size:60px;"">+</div>","null","fixation","","","","","","","","","53","","",""
"revaluation","177","903120","0.0-4.0-2.0-0.27","spark_pilot_norest","12455","7","9","Male","","false","","","","","[738.5,930.8000001907349]","./assets/img/canyon/memory/16.jpg","[""ArrowDown"",""ArrowRight""]","value training","canyon","30","{""ArrowUp,ArrowLeft"":23,""ArrowUp,ArrowRight"":10,""ArrowDown,ArrowLeft"":8,""ArrowDown,ArrowRight"":30}","true","ArrowDown,ArrowRight","false","original","1","54","","",""
"html-keyboard-response","178","903636","0.0-4.0-2.0-1.27","spark_pilot_norest","12455","7","9","Male","","","","","","","null","<div style=""font-size:60px;"">+</div>","null","fixation","","","","","","","","","55","","",""
"revaluation","179","909672","0.0-4.0-2.0-0.28","spark_pilot_norest","12455","7","9","Male","","false","","","","","[673.4000005722046,516.0999994277954]","./assets/img/canyon/memory/3.jpg","[""ArrowDown"",""ArrowRight""]","value training","canyon","30","{""ArrowUp,ArrowLeft"":23,""ArrowUp,ArrowRight"":10,""ArrowDown,ArrowLeft"":8,""ArrowDown,ArrowRight"":30}","true","ArrowDown,ArrowRight","false","original","1","56","","",""
"html-keyboard-response","180","910190","0.0-4.0-2.0-1.28","spark_pilot_norest","12455","7","9","Male","","","","","","","null","<div style=""font-size:60px;"">+</div>","null","fixation","","","","","","","","","57","","",""
"revaluation","181","916212","0.0-4.0-2.0-0.29","spark_pilot_norest","12455","7","9","Male","","false","","","","","[457.5,752.7000007629395]","./assets/img/canyon/memory/12.jpg","[""ArrowDown"",""ArrowRight""]","value training","canyon","30","{""ArrowUp,ArrowLeft"":23,""ArrowUp,ArrowRight"":10,""ArrowDown,ArrowLeft"":8,""ArrowDown,ArrowRight"":30}","true","ArrowDown,ArrowRight","false","original","1","58","","",""
"html-keyboard-response","182","916719","0.0-4.0-2.0-1.29","spark_pilot_norest","12455","7","9","Male","","","","","","","null","<div style=""font-size:60px;"">+</div>","null","fixation","","","","","","","","","59","","",""
"revaluation","183","922744","0.0-4.0-2.0-0.30","spark_pilot_norest","12455","7","9","Male","","false","","","","","[729.6999998092651,657.1000003814697]","./assets/img/canyon/memory/1.jpg","[""ArrowDown"",""ArrowRight""]","value training","canyon","30","{""ArrowUp,ArrowLeft"":23,""ArrowUp,ArrowRight"":10,""ArrowDown,ArrowLeft"":8,""ArrowDown,ArrowRight"":30}","true","ArrowDown,ArrowRight","false","original","1","60","","",""
"html-keyboard-response","184","923251","0.0-4.0-2.0-1.30","spark_pilot_norest","12455","7","9","Male","","","","","","","null","<div style=""font-size:60px;"">+</div>","null","fixation","","","","","","","","","61","","",""
"revaluation","185","929265","0.0-4.0-2.0-0.31","spark_pilot_norest","12455","7","9","Male","","false","","","","","[548.8999996185303,515.1000003814697]","./assets/img/canyon/memory/35.jpg","[""ArrowDown"",""ArrowRight""]","value training","canyon","30","{""ArrowUp,ArrowLeft"":23,""ArrowUp,ArrowRight"":10,""ArrowDown,ArrowLeft"":8,""ArrowDown,ArrowRight"":30}","true","ArrowDown,ArrowRight","false","original","1","62","","",""
"html-keyboard-response","186","929772","0.0-4.0-2.0-1.31","spark_pilot_norest","12455","7","9","Male","","","","","","","null","<div style=""font-size:60px;"">+</div>","null","fixation","","","","","","","","","63","","",""
"revaluation","187","935787","0.0-4.0-2.0-0.32","spark_pilot_norest","12455","7","9","Male","","false","","","","","[577.6999998092651,422.1000003814697]","./assets/img/canyon/memory/15.jpg","[""ArrowDown"",""ArrowRight""]","value training","canyon","30","{""ArrowUp,ArrowLeft"":23,""ArrowUp,ArrowRight"":10,""ArrowDown,ArrowLeft"":8,""ArrowDown,ArrowRight"":30}","true","ArrowDown,ArrowRight","false","original","1","64","","",""
"html-keyboard-response","188","936294","0.0-4.0-2.0-1.32","spark_pilot_norest","12455","7","9","Male","","","","","","","null","<div style=""font-size:60px;"">+</div>","null","fixation","","","","","","","","","65","","",""
"revaluation","189","940312","0.0-4.0-2.0-0.33","spark_pilot_norest","12455","7","9","Male","","false","","","","","[825.5999994277954]","./assets/img/canyon/catch/0.jpg","[""spaceBar""]","value training","canyon","0","{""ArrowUp,ArrowLeft"":23,""ArrowUp,ArrowRight"":10,""ArrowDown,ArrowLeft"":8,""ArrowDown,ArrowRight"":30}","true","spaceBar","true","original","1","66","","",""
"html-keyboard-response","190","940820","0.0-4.0-2.0-1.33","spark_pilot_norest","12455","7","9","Male","","","","","","","null","<div style=""font-size:60px;"">+</div>","null","fixation","","","","","","","","","67","","",""
"revaluation","191","946849","0.0-4.0-2.0-0.34","spark_pilot_norest","12455","7","9","Male","","false","","","","","[971.1000003814697,614.8999996185303]","./assets/img/canyon/memory/25.jpg","[""ArrowDown"",""ArrowRight""]","value training","canyon","30","{""ArrowUp,ArrowLeft"":23,""ArrowUp,ArrowRight"":10,""ArrowDown,ArrowLeft"":8,""ArrowDown,ArrowRight"":30}","true","ArrowDown,ArrowRight","false","original","1","68","","",""
"html-keyboard-response","192","947354","0.0-4.0-2.0-1.34","spark_pilot_norest","12455","7","9","Male","","","","","","","null","<div style=""font-size:60px;"">+</div>","null","fixation","","","","","","","","","69","","",""
"revaluation","193","953374","0.0-4.0-2.0-0.35","spark_pilot_norest","12455","7","9","Male","","false","","","","","[585.3999996185303,567.5]","./assets/img/canyon/memory/1.jpg","[""ArrowDown"",""ArrowRight""]","value training","canyon","30","{""ArrowUp,ArrowLeft"":23,""ArrowUp,ArrowRight"":10,""ArrowDown,ArrowLeft"":8,""ArrowDown,ArrowRight"":30}","true","ArrowDown,ArrowRight","false","original","1","70","","",""
"html-keyboard-response","194","953877","0.0-4.0-2.0-1.35","spark_pilot_norest","12455","7","9","Male","","","","","","","null","<div style=""font-size:60px;"">+</div>","null","fixation","","","","","","","","","71","","",""
"revaluation","195","959902","0.0-4.0-2.0-0.36","spark_pilot_norest","12455","7","9","Male","","false","","","","","[991.3999996185303,574.1000003814697]","./assets/img/canyon/memory/12.jpg","[""ArrowDown"",""ArrowRight""]","value training","canyon","30","{""ArrowUp,ArrowLeft"":23,""ArrowUp,ArrowRight"":10,""ArrowDown,ArrowLeft"":8,""ArrowDown,ArrowRight"":30}","true","ArrowDown,ArrowRight","false","original","1","72","","",""
"html-keyboard-response","196","960411","0.0-4.0-2.0-1.36","spark_pilot_norest","12455","7","9","Male","","","","","","","null","<div style=""font-size:60px;"">+</div>","null","fixation","","","","","","","","","73","","",""
"revaluation","197","966435","0.0-4.0-2.0-0.37","spark_pilot_norest","12455","7","9","Male","","false","","","","","[530.3000001907349,554.1000003814697]","./assets/img/canyon/memory/22.jpg","[""ArrowDown"",""ArrowRight""]","value training","canyon","30","{""ArrowUp,ArrowLeft"":23,""ArrowUp,ArrowRight"":10,""ArrowDown,ArrowLeft"":8,""ArrowDown,ArrowRight"":30}","true","ArrowDown,ArrowRight","false","original","1","74","","",""
"html-keyboard-response","198","966938","0.0-4.0-2.0-1.37","spark_pilot_norest","12455","7","9","Male","","","","","","","null","<div style=""font-size:60px;"">+</div>","null","fixation","","","","","","","","","75","","",""
"revaluation","199","970950","0.0-4.0-2.0-0.38","spark_pilot_norest","12455","7","9","Male","","false","","","","","[744.6999998092651]","./assets/img/canyon/catch/6.jpg","[""spaceBar""]","value training","canyon","0","{""ArrowUp,ArrowLeft"":23,""ArrowUp,ArrowRight"":10,""ArrowDown,ArrowLeft"":8,""ArrowDown,ArrowRight"":30}","true","spaceBar","true","original","1","76","","",""
"html-keyboard-response","200","971460","0.0-4.0-2.0-1.38","spark_pilot_norest","12455","7","9","Male","","","","","","","null","<div style=""font-size:60px;"">+</div>","null","fixation","","","","","","","","","77","","",""
"revaluation","201","977482","0.0-4.0-2.0-0.39","spark_pilot_norest","12455","7","9","Male","","false","","","","","[561.3000001907349,566.5]","./assets/img/canyon/memory/0.jpg","[""ArrowDown"",""ArrowRight""]","value training","canyon","30","{""ArrowUp,ArrowLeft"":23,""ArrowUp,ArrowRight"":10,""ArrowDown,ArrowLeft"":8,""ArrowDown,ArrowRight"":30}","true","ArrowDown,ArrowRight","false","original","1","78","","",""
"html-keyboard-response","202","977985","0.0-4.0-2.0-1.39","spark_pilot_norest","12455","7","9","Male","","","","","","","null","<div style=""font-size:60px;"">+</div>","null","fixation","","","","","","","","","79","","",""
"revaluation","203","984001","0.0-4.0-2.0-0.40","spark_pilot_norest","12455","7","9","Male","","false","","","","","[725.3999996185303,680.8999996185303]","./assets/img/canyon/memory/41.jpg","[""ArrowDown"",""ArrowRight""]","value training","canyon","30","{""ArrowUp,ArrowLeft"":23,""ArrowUp,ArrowRight"":10,""ArrowDown,ArrowLeft"":8,""ArrowDown,ArrowRight"":30}","true","ArrowDown,ArrowRight","false","original","1","80","","",""
"html-keyboard-response","204","984510","0.0-4.0-2.0-1.40","spark_pilot_norest","12455","7","9","Male","","","","","","","null","<div style=""font-size:60px;"">+</div>","null","fixation","","","","","","","","","81","","",""
"revaluation","205","990528","0.0-4.0-2.0-0.41","spark_pilot_norest","12455","7","9","Male","","false","","","","","[741.1999998092651,839.5]","./assets/img/canyon/memory/0.jpg","[""ArrowDown"",""ArrowRight""]","value training","canyon","30","{""ArrowUp,ArrowLeft"":23,""ArrowUp,ArrowRight"":10,""ArrowDown,ArrowLeft"":8,""ArrowDown,ArrowRight"":30}","true","ArrowDown,ArrowRight","false","original","1","82","","",""
"html-keyboard-response","206","991034","0.0-4.0-2.0-1.41","spark_pilot_norest","12455","7","9","Male","","","","","","","null","<div style=""font-size:60px;"">+</div>","null","fixation","","","","","","","","","83","","",""
"revaluation","207","997069","0.0-4.0-2.0-0.42","spark_pilot_norest","12455","7","9","Male","","false","","","","","[685.6000003814697,567.5]","./assets/img/canyon/memory/11.jpg","[""ArrowDown"",""ArrowRight""]","value training","canyon","30","{""ArrowUp,ArrowLeft"":23,""ArrowUp,ArrowRight"":10,""ArrowDown,ArrowLeft"":8,""ArrowDown,ArrowRight"":30}","true","ArrowDown,ArrowRight","false","original","1","84","","",""
"html-keyboard-response","208","997578","0.0-4.0-2.0-1.42","spark_pilot_norest","12455","7","9","Male","","","","","","","null","<div style=""font-size:60px;"">+</div>","null","fixation","","","","","","","","","85","","",""
"revaluation","209","1001594","0.0-4.0-2.0-0.43","spark_pilot_norest","12455","7","9","Male","","false","","","","","[722.6999998092651]","./assets/img/canyon/catch/3.jpg","[""spaceBar""]","value training","canyon","0","{""ArrowUp,ArrowLeft"":23,""ArrowUp,ArrowRight"":10,""ArrowDown,ArrowLeft"":8,""ArrowDown,ArrowRight"":30}","true","spaceBar","true","original","1","86","","",""
"html-keyboard-response","210","1002106","0.0-4.0-2.0-1.43","spark_pilot_norest","12455","7","9","Male","","","","","","","null","<div style=""font-size:60px;"">+</div>","null","fixation","","","","","","","","","87","","",""
"revaluation","211","1006133","0.0-4.0-2.0-0.44","spark_pilot_norest","12455","7","9","Male","","false","","","","","[624]","./assets/img/canyon/catch/7.jpg","[""spaceBar""]","value training","canyon","0","{""ArrowUp,ArrowLeft"":23,""ArrowUp,ArrowRight"":10,""ArrowDown,ArrowLeft"":8,""ArrowDown,ArrowRight"":30}","true","spaceBar","true","original","1","88","","",""
"html-keyboard-response","212","1006637","0.0-4.0-2.0-1.44","spark_pilot_norest","12455","7","9","Male","","","","","","","null","<div style=""font-size:60px;"">+</div>","null","fixation","","","","","","","","","89","","",""
"revaluation","213","1012672","0.0-4.0-2.0-0.45","spark_pilot_norest","12455","7","9","Male","","false","","","","","[853.5,412.8999996185303]","./assets/img/canyon/memory/4.jpg","[""ArrowDown"",""ArrowRight""]","value training","canyon","30","{""ArrowUp,ArrowLeft"":23,""ArrowUp,ArrowRight"":10,""ArrowDown,ArrowLeft"":8,""ArrowDown,ArrowRight"":30}","true","ArrowDown,ArrowRight","false","original","1","90","","",""
"html-keyboard-response","214","1013181","0.0-4.0-2.0-1.45","spark_pilot_norest","12455","7","9","Male","","","","","","","null","<div style=""font-size:60px;"">+</div>","null","fixation","","","","","","","","","91","","",""
"revaluation","215","1019191","0.0-4.0-2.0-0.46","spark_pilot_norest","12455","7","9","Male","","false","","","","","[809.2999992370605,698]","./assets/img/canyon/memory/18.jpg","[""ArrowDown"",""ArrowRight""]","value training","canyon","30","{""ArrowUp,ArrowLeft"":23,""ArrowUp,ArrowRight"":10,""ArrowDown,ArrowLeft"":8,""ArrowDown,ArrowRight"":30}","true","ArrowDown,ArrowRight","false","original","1","92","","",""
"html-keyboard-response","216","1019705","0.0-4.0-2.0-1.46","spark_pilot_norest","12455","7","9","Male","","","","","","","null","<div style=""font-size:60px;"">+</div>","null","fixation","","","","","","","","","93","","",""
"revaluation","217","1023730","0.0-4.0-2.0-0.47","spark_pilot_norest","12455","7","9","Male","","false","","","","","[508.19999980926514]","./assets/img/canyon/catch/5.jpg","[""spaceBar""]","value training","canyon","0","{""ArrowUp,ArrowLeft"":23,""ArrowUp,ArrowRight"":10,""ArrowDown,ArrowLeft"":8,""ArrowDown,ArrowRight"":30}","true","spaceBar","true","original","1","94","","",""
"html-keyboard-response","218","1024241","0.0-4.0-2.0-1.47","spark_pilot_norest","12455","7","9","Male","","","","","","","null","<div style=""font-size:60px;"">+</div>","null","fixation","","","","","","","","","95","","",""
"revaluation","219","1030274","0.0-4.0-2.0-0.48","spark_pilot_norest","12455","7","9","Male","","false","","","","","[840.5,575.2999992370605]","./assets/img/canyon/memory/21.jpg","[""ArrowDown"",""ArrowRight""]","value training","canyon","30","{""ArrowUp,ArrowLeft"":23,""ArrowUp,ArrowRight"":10,""ArrowDown,ArrowLeft"":8,""ArrowDown,ArrowRight"":30}","true","ArrowDown,ArrowRight","false","original","1","96","","",""
"html-keyboard-response","220","1030775","0.0-4.0-2.0-1.48","spark_pilot_norest","12455","7","9","Male","","","","","","","null","<div style=""font-size:60px;"">+</div>","null","fixation","","","","","","","","","97","","",""
"revaluation","221","1036807","0.0-4.0-2.0-0.49","spark_pilot_norest","12455","7","9","Male","","false","","","","","[596.7999992370605,898]","./assets/img/canyon/memory/11.jpg","[""ArrowDown"",""ArrowRight""]","value training","canyon","30","{""ArrowUp,ArrowLeft"":23,""ArrowUp,ArrowRight"":10,""ArrowDown,ArrowLeft"":8,""ArrowDown,ArrowRight"":30}","true","ArrowDown,ArrowRight","false","original","1","98","","",""
"html-keyboard-response","222","1037323","0.0-4.0-2.0-1.49","spark_pilot_norest","12455","7","9","Male","","","","","","","null","<div style=""font-size:60px;"">+</div>","null","fixation","","","","","","","","","99","","",""
"learning-instructions","223","1053611","0.0-4.0-3.0-0.0","spark_pilot_norest","12455","7","9","Male","","","","","","","3084.9000005722046","<p> Now, you will travel with a friend who will choose whether you go up or down first. </p>
            <p> On these turns, you will just see the animal that they found. You will still get to choose which chest to search for treasure.</p>","","instructions","","","","","","","","","","","",""
"revaluation","224","1057635","0.0-4.0-4.0-0.0","spark_pilot_norest","12455","7","9","Male","","false","","","","","[1424.2000007629395]","./assets/img/canyon/animals/giraffe.jpg","[""ArrowRight""]","revaluation","canyon","10","{""ArrowUp,ArrowLeft"":23,""ArrowUp,ArrowRight"":10,""ArrowDown,ArrowLeft"":8,""ArrowDown,ArrowRight"":30}","false","ArrowUp,ArrowRight","","original","1","0","","",""
"html-keyboard-response","225","1058145","0.0-4.0-4.0-1.0","spark_pilot_norest","12455","7","9","Male","","","","","","","null","<div style=""font-size:60px;"">+</div>","null","fixation","","","","","","","","","1","","",""
"revaluation","226","1062177","0.0-4.0-4.0-0.1","spark_pilot_norest","12455","7","9","Male","","false","","","","","[1147.8000001907349]","./assets/img/canyon/animals/lion.jpg","[""ArrowRight""]","revaluation","canyon","30","{""ArrowUp,ArrowLeft"":23,""ArrowUp,ArrowRight"":10,""ArrowDown,ArrowLeft"":8,""ArrowDown,ArrowRight"":30}","true","ArrowDown,ArrowRight","","original","1","2","","",""
"html-keyboard-response","227","1062681","0.0-4.0-4.0-1.1","spark_pilot_norest","12455","7","9","Male","","","","","","","null","<div style=""font-size:60px;"">+</div>","null","fixation","","","","","","","","","3","","",""
"revaluation","228","1066709","0.0-4.0-4.0-0.2","spark_pilot_norest","12455","7","9","Male","","false","","","","","[861.6999998092651]","./assets/img/canyon/animals/lion.jpg","[""ArrowLeft""]","revaluation","canyon","8","{""ArrowUp,ArrowLeft"":23,""ArrowUp,ArrowRight"":10,""ArrowDown,ArrowLeft"":8,""ArrowDown,ArrowRight"":30}","false","ArrowDown,ArrowLeft","","original","1","4","","",""
"html-keyboard-response","229","1067213","0.0-4.0-4.0-1.2","spark_pilot_norest","12455","7","9","Male","","","","","","","null","<div style=""font-size:60px;"">+</div>","null","fixation","","","","","","","","","5","","",""
"revaluation","230","1071242","0.0-4.0-4.0-0.3","spark_pilot_norest","12455","7","9","Male","","false","","","","","[1250]","./assets/img/canyon/animals/giraffe.jpg","[""ArrowLeft""]","revaluation","canyon","23","{""ArrowUp,ArrowLeft"":23,""ArrowUp,ArrowRight"":10,""ArrowDown,ArrowLeft"":8,""ArrowDown,ArrowRight"":30}","true","ArrowUp,ArrowLeft","","original","1","6","","",""
"html-keyboard-response","231","1071750","0.0-4.0-4.0-1.3","spark_pilot_norest","12455","7","9","Male","","","","","","","null","<div style=""font-size:60px;"">+</div>","null","fixation","","","","","","","","","7","","",""
"revaluation","232","1075767","0.0-4.0-4.0-0.4","spark_pilot_norest","12455","7","9","Male","","false","","","","","[462.80000019073486]","./assets/img/canyon/animals/lion.jpg","[""ArrowRight""]","revaluation","canyon","30","{""ArrowUp,ArrowLeft"":23,""ArrowUp,ArrowRight"":10,""ArrowDown,ArrowLeft"":8,""ArrowDown,ArrowRight"":30}","true","ArrowDown,ArrowRight","","original","1","8","","",""
"html-keyboard-response","233","1076272","0.0-4.0-4.0-1.4","spark_pilot_norest","12455","7","9","Male","","","","","","","null","<div style=""font-size:60px;"">+</div>","null","fixation","","","","","","","","","9","","",""
"revaluation","234","1080294","0.0-4.0-4.0-0.5","spark_pilot_norest","12455","7","9","Male","","false","","","","","[601.3000001907349]","./assets/img/canyon/animals/giraffe.jpg","[""ArrowLeft""]","revaluation","canyon","23","{""ArrowUp,ArrowLeft"":23,""ArrowUp,ArrowRight"":10,""ArrowDown,ArrowLeft"":8,""ArrowDown,ArrowRight"":30}","true","ArrowUp,ArrowLeft","","original","1","10","","",""
"html-keyboard-response","235","1080800","0.0-4.0-4.0-1.5","spark_pilot_norest","12455","7","9","Male","","","","","","","null","<div style=""font-size:60px;"">+</div>","null","fixation","","","","","","","","","11","","",""
"revaluation","236","1084825","0.0-4.0-4.0-0.6","spark_pilot_norest","12455","7","9","Male","","false","","","","","[812.8000001907349]","./assets/img/canyon/animals/giraffe.jpg","[""ArrowLeft""]","revaluation","canyon","23","{""ArrowUp,ArrowLeft"":23,""ArrowUp,ArrowRight"":10,""ArrowDown,ArrowLeft"":8,""ArrowDown,ArrowRight"":30}","true","ArrowUp,ArrowLeft","","original","1","12","","",""
"html-keyboard-response","237","1085333","0.0-4.0-4.0-1.6","spark_pilot_norest","12455","7","9","Male","","","","","","","null","<div style=""font-size:60px;"">+</div>","null","fixation","","","","","","","","","13","","",""
"revaluation","238","1089358","0.0-4.0-4.0-0.7","spark_pilot_norest","12455","7","9","Male","","false","","","","","[740.1999998092651]","./assets/img/canyon/animals/giraffe.jpg","[""ArrowLeft""]","revaluation","canyon","23","{""ArrowUp,ArrowLeft"":23,""ArrowUp,ArrowRight"":10,""ArrowDown,ArrowLeft"":8,""ArrowDown,ArrowRight"":30}","true","ArrowUp,ArrowLeft","","original","1","14","","",""
"html-keyboard-response","239","1089864","0.0-4.0-4.0-1.7","spark_pilot_norest","12455","7","9","Male","","","","","","","null","<div style=""font-size:60px;"">+</div>","null","fixation","","","","","","","","","15","","",""
"revaluation","240","1093892","0.0-4.0-4.0-0.8","spark_pilot_norest","12455","7","9","Male","","false","","","","","[649.6000003814697]","./assets/img/canyon/animals/lion.jpg","[""ArrowRight""]","revaluation","canyon","30","{""ArrowUp,ArrowLeft"":23,""ArrowUp,ArrowRight"":10,""ArrowDown,ArrowLeft"":8,""ArrowDown,ArrowRight"":30}","true","ArrowDown,ArrowRight","","original","1","16","","",""
"html-keyboard-response","241","1094399","0.0-4.0-4.0-1.8","spark_pilot_norest","12455","7","9","Male","","","","","","","null","<div style=""font-size:60px;"">+</div>","null","fixation","","","","","","","","","17","","",""
"revaluation","242","1098422","0.0-4.0-4.0-0.9","spark_pilot_norest","12455","7","9","Male","","false","","","","","[954]","./assets/img/canyon/animals/lion.jpg","[""ArrowRight""]","revaluation","canyon","30","{""ArrowUp,ArrowLeft"":23,""ArrowUp,ArrowRight"":10,""ArrowDown,ArrowLeft"":8,""ArrowDown,ArrowRight"":30}","true","ArrowDown,ArrowRight","","original","1","18","","",""
"html-keyboard-response","243","1098925","0.0-4.0-4.0-1.9","spark_pilot_norest","12455","7","9","Male","","","","","","","null","<div style=""font-size:60px;"">+</div>","null","fixation","","","","","","","","","19","","",""
"revaluation","244","1102946","0.0-4.0-4.0-0.10","spark_pilot_norest","12455","7","9","Male","","false","","","","","[1078.6999998092651]","./assets/img/canyon/animals/lion.jpg","[""ArrowRight""]","revaluation","canyon","30","{""ArrowUp,ArrowLeft"":23,""ArrowUp,ArrowRight"":10,""ArrowDown,ArrowLeft"":8,""ArrowDown,ArrowRight"":30}","true","ArrowDown,ArrowRight","","original","1","20","","",""
"html-keyboard-response","245","1103453","0.0-4.0-4.0-1.10","spark_pilot_norest","12455","7","9","Male","","","","","","","null","<div style=""font-size:60px;"">+</div>","null","fixation","","","","","","","","","21","","",""
"revaluation","246","1107472","0.0-4.0-4.0-0.11","spark_pilot_norest","12455","7","9","Male","","false","","","","","[690.5]","./assets/img/canyon/animals/giraffe.jpg","[""ArrowLeft""]","revaluation","canyon","23","{""ArrowUp,ArrowLeft"":23,""ArrowUp,ArrowRight"":10,""ArrowDown,ArrowLeft"":8,""ArrowDown,ArrowRight"":30}","true","ArrowUp,ArrowLeft","","original","1","22","","",""
"html-keyboard-response","247","1107981","0.0-4.0-4.0-1.11","spark_pilot_norest","12455","7","9","Male","","","","","","","null","<div style=""font-size:60px;"">+</div>","null","fixation","","","","","","","","","23","","",""
"revaluation","248","1111989","0.0-4.0-4.0-0.12","spark_pilot_norest","12455","7","9","Male","","false","","","","","[842.1000003814697]","./assets/img/canyon/animals/giraffe.jpg","[""ArrowLeft""]","revaluation","canyon","23","{""ArrowUp,ArrowLeft"":23,""ArrowUp,ArrowRight"":10,""ArrowDown,ArrowLeft"":8,""ArrowDown,ArrowRight"":30}","true","ArrowUp,ArrowLeft","","original","1","24","","",""
"html-keyboard-response","249","1112491","0.0-4.0-4.0-1.12","spark_pilot_norest","12455","7","9","Male","","","","","","","null","<div style=""font-size:60px;"">+</div>","null","fixation","","","","","","","","","25","","",""
"revaluation","250","1116507","0.0-4.0-4.0-0.13","spark_pilot_norest","12455","7","9","Male","","false","","","","","[933.8000001907349]","./assets/img/canyon/animals/giraffe.jpg","[""ArrowLeft""]","revaluation","canyon","23","{""ArrowUp,ArrowLeft"":23,""ArrowUp,ArrowRight"":10,""ArrowDown,ArrowLeft"":8,""ArrowDown,ArrowRight"":30}","true","ArrowUp,ArrowLeft","","original","1","26","","",""
"html-keyboard-response","251","1117018","0.0-4.0-4.0-1.13","spark_pilot_norest","12455","7","9","Male","","","","","","","null","<div style=""font-size:60px;"">+</div>","null","fixation","","","","","","","","","27","","",""
"revaluation","252","1121035","0.0-4.0-4.0-0.14","spark_pilot_norest","12455","7","9","Male","","false","","","","","[605.1999998092651]","./assets/img/canyon/animals/lion.jpg","[""ArrowRight""]","revaluation","canyon","30","{""ArrowUp,ArrowLeft"":23,""ArrowUp,ArrowRight"":10,""ArrowDown,ArrowLeft"":8,""ArrowDown,ArrowRight"":30}","true","ArrowDown,ArrowRight","","original","1","28","","",""
"html-keyboard-response","253","1121537","0.0-4.0-4.0-1.14","spark_pilot_norest","12455","7","9","Male","","","","","","","null","<div style=""font-size:60px;"">+</div>","null","fixation","","","","","","","","","29","","",""
"revaluation","254","1125557","0.0-4.0-4.0-0.15","spark_pilot_norest","12455","7","9","Male","","false","","","","","[496.5]","./assets/img/canyon/animals/lion.jpg","[""ArrowLeft""]","revaluation","canyon","8","{""ArrowUp,ArrowLeft"":23,""ArrowUp,ArrowRight"":10,""ArrowDown,ArrowLeft"":8,""ArrowDown,ArrowRight"":30}","false","ArrowDown,ArrowLeft","","original","1","30","","",""
"html-keyboard-response","255","1126069","0.0-4.0-4.0-1.15","spark_pilot_norest","12455","7","9","Male","","","","","","","null","<div style=""font-size:60px;"">+</div>","null","fixation","","","","","","","","","31","","",""
"revaluation","256","1130085","0.0-4.0-4.0-0.16","spark_pilot_norest","12455","7","9","Male","","false","","","","","[864.5999994277954]","./assets/img/canyon/animals/lion.jpg","[""ArrowRight""]","revaluation","canyon","30","{""ArrowUp,ArrowLeft"":23,""ArrowUp,ArrowRight"":10,""ArrowDown,ArrowLeft"":8,""ArrowDown,ArrowRight"":30}","true","ArrowDown,ArrowRight","","original","1","32","","",""
"html-keyboard-response","257","1130598","0.0-4.0-4.0-1.16","spark_pilot_norest","12455","7","9","Male","","","","","","","null","<div style=""font-size:60px;"">+</div>","null","fixation","","","","","","","","","33","","",""
"revaluation","258","1134617","0.0-4.0-4.0-0.17","spark_pilot_norest","12455","7","9","Male","","false","","","","","[1055.1000003814697]","./assets/img/canyon/animals/giraffe.jpg","[""ArrowLeft""]","revaluation","canyon","23","{""ArrowUp,ArrowLeft"":23,""ArrowUp,ArrowRight"":10,""ArrowDown,ArrowLeft"":8,""ArrowDown,ArrowRight"":30}","true","ArrowUp,ArrowLeft","","original","1","34","","",""
"html-keyboard-response","259","1135127","0.0-4.0-4.0-1.17","spark_pilot_norest","12455","7","9","Male","","","","","","","null","<div style=""font-size:60px;"">+</div>","null","fixation","","","","","","","","","35","","",""
"learning-instructions","260","1143534","0.0-4.0-5.0-0.0","spark_pilot_norest","12455","7","9","Male","","","","","","","null","<p> You have almost finished this part of the game! </p>
            <p> We are going to ask you to make a few more choices. </p>","","instructions","","","","","","","","","","","",""
"learning-instructions","261","1159518","0.0-4.0-5.0-0.1","spark_pilot_norest","12455","7","9","Male","","","","","","","null","<p> First, you need to decide whether to go up or down. When you see each picture, use the arrow keys to make your choice. </p>
            <p><b>You will not see which animal you found, but try to get to the one that will give you the most treasure.</b></p>","","instructions","","","","","","","","","","","",""
"html-keyboard-response","262","1160529","0.0-4.0-6.0-0.0","spark_pilot_norest","12455","7","9","Male","","","","","","","null","<div style=""font-size:100px;color:red;"">Starting in...</div>","null","","","","","","","","","","","","",""
"html-keyboard-response","263","1161534","0.0-4.0-6.0-1.0","spark_pilot_norest","12455","7","9","Male","","","","","","","null","<div style=""font-size:200px;color:red;"">3</div>","null","","","","","","","","","","","","",""
"html-keyboard-response","264","1162547","0.0-4.0-6.0-2.0","spark_pilot_norest","12455","7","9","Male","","","","","","","null","<div style=""font-size:200px;color:red;"">2</div>","null","","","","","","","","","","","","",""
"html-keyboard-response","265","1163549","0.0-4.0-6.0-3.0","spark_pilot_norest","12455","7","9","Male","","","","","","","null","<div style=""font-size:200px;color:red;"">1</div>","null","","","","","","","","","","","","",""
"revaluation","266","1164059","0.0-4.0-7.0-0.0","spark_pilot_norest","12455","7","9","Male","","false","","","","","[505]","./assets/img/canyon/test/3.jpg","[""ArrowDown""]","first stage test","canyon","0","{""ArrowUp,ArrowLeft"":23,""ArrowUp,ArrowRight"":10,""ArrowDown,ArrowLeft"":8,""ArrowDown,ArrowRight"":30}","true","ArrowDown","false","original","1","","","",""
"html-keyboard-response","267","1164565","0.0-4.0-7.0-1.0","spark_pilot_norest","12455","7","9","Male","","","","","","","null","<div style=""font-size:60px;"">+</div>","null","fixation","","","","","","","","","","","",""
"revaluation","268","1166200","0.0-4.0-7.0-0.1","spark_pilot_norest","12455","7","9","Male","","false","","","","","[1629.3000001907349]","./assets/img/canyon/test/0.jpg","[""ArrowDown""]","first stage test","canyon","0","{""ArrowUp,ArrowLeft"":23,""ArrowUp,ArrowRight"":10,""ArrowDown,ArrowLeft"":8,""ArrowDown,ArrowRight"":30}","true","ArrowDown","false","original","1","","","",""
"html-keyboard-response","269","1166713","0.0-4.0-7.0-1.1","spark_pilot_norest","12455","7","9","Male","","","","","","","null","<div style=""font-size:60px;"">+</div>","null","fixation","","","","","","","","","","","",""
"revaluation","270","1167859","0.0-4.0-7.0-0.2","spark_pilot_norest","12455","7","9","Male","","false","","","","","[1141.1000003814697]","./assets/img/canyon/test/1.jpg","[""ArrowDown""]","first stage test","canyon","0","{""ArrowUp,ArrowLeft"":23,""ArrowUp,ArrowRight"":10,""ArrowDown,ArrowLeft"":8,""ArrowDown,ArrowRight"":30}","true","ArrowDown","false","original","1","","","",""
"html-keyboard-response","271","1168368","0.0-4.0-7.0-1.2","spark_pilot_norest","12455","7","9","Male","","","","","","","null","<div style=""font-size:60px;"">+</div>","null","fixation","","","","","","","","","","","",""
"revaluation","272","1169089","0.0-4.0-7.0-0.3","spark_pilot_norest","12455","7","9","Male","","false","","","","","[717.8999996185303]","./assets/img/canyon/test/2.jpg","[""ArrowDown""]","first stage test","canyon","0","{""ArrowUp,ArrowLeft"":23,""ArrowUp,ArrowRight"":10,""ArrowDown,ArrowLeft"":8,""ArrowDown,ArrowRight"":30}","true","ArrowDown","false","original","1","","","",""
"html-keyboard-response","273","1169603","0.0-4.0-7.0-1.3","spark_pilot_norest","12455","7","9","Male","","","","","","","null","<div style=""font-size:60px;"">+</div>","null","fixation","","","","","","","","","","","",""
"learning-instructions","274","1182962","0.0-4.0-8.0-0.0","spark_pilot_norest","12455","7","9","Male","","","","","","","null","<p> Now you will see the animals again and can search their chests for treasure. </p>
            <p> This time, you will not see how much treasure you earned, but you will earn more bonus money for making better choices. </p>","","instructions","","","","","","","","","","","",""
"html-keyboard-response","275","1183978","0.0-4.0-9.0-0.0","spark_pilot_norest","12455","7","9","Male","","","","","","","null","<div style=""font-size:100px;color:red;"">Starting in...</div>","null","","","","","","","","","","","","",""
"html-keyboard-response","276","1184988","0.0-4.0-9.0-1.0","spark_pilot_norest","12455","7","9","Male","","","","","","","null","<div style=""font-size:200px;color:red;"">3</div>","null","","","","","","","","","","","","",""
"html-keyboard-response","277","1186004","0.0-4.0-9.0-2.0","spark_pilot_norest","12455","7","9","Male","","","","","","","null","<div style=""font-size:200px;color:red;"">2</div>","null","","","","","","","","","","","","",""
"html-keyboard-response","278","1187008","0.0-4.0-9.0-3.0","spark_pilot_norest","12455","7","9","Male","","","","","","","null","<div style=""font-size:200px;color:red;"">1</div>","null","","","","","","","","","","","","",""
"revaluation","279","1187870","0.0-4.0-10.0-0.0","spark_pilot_norest","12455","7","9","Male","","false","","","","","[854.5]","./assets/img/canyon/animals/giraffe.jpg","[""ArrowLeft""]","second stage test","canyon","0","{""ArrowUp,ArrowLeft"":23,""ArrowUp,ArrowRight"":10,""ArrowDown,ArrowLeft"":8,""ArrowDown,ArrowRight"":30}","true","ArrowUp,ArrowLeft","","original","1","","","",""
"html-keyboard-response","280","1188385","0.0-4.0-10.0-1.0","spark_pilot_norest","12455","7","9","Male","","","","","","","null","<div style=""font-size:60px;"">+</div>","null","fixation","","","","","","","","","","","",""
"revaluation","281","1189129","0.0-4.0-10.0-0.1","spark_pilot_norest","12455","7","9","Male","","false","","","","","[739.8999996185303]","./assets/img/canyon/animals/giraffe.jpg","[""ArrowLeft""]","second stage test","canyon","0","{""ArrowUp,ArrowLeft"":23,""ArrowUp,ArrowRight"":10,""ArrowDown,ArrowLeft"":8,""ArrowDown,ArrowRight"":30}","true","ArrowUp,ArrowLeft","","original","1","","","",""
"html-keyboard-response","282","1189631","0.0-4.0-10.0-1.1","spark_pilot_norest","12455","7","9","Male","","","","","","","null","<div style=""font-size:60px;"">+</div>","null","fixation","","","","","","","","","","","",""
"revaluation","283","1190139","0.0-4.0-10.0-0.2","spark_pilot_norest","12455","7","9","Male","","false","","","","","[504.19999980926514]","./assets/img/canyon/animals/giraffe.jpg","[""ArrowLeft""]","second stage test","canyon","0","{""ArrowUp,ArrowLeft"":23,""ArrowUp,ArrowRight"":10,""ArrowDown,ArrowLeft"":8,""ArrowDown,ArrowRight"":30}","true","ArrowUp,ArrowLeft","","original","1","","","",""
"html-keyboard-response","284","1190647","0.0-4.0-10.0-1.2","spark_pilot_norest","12455","7","9","Male","","","","","","","null","<div style=""font-size:60px;"">+</div>","null","fixation","","","","","","","","","","","",""
"revaluation","285","1191249","0.0-4.0-10.0-0.3","spark_pilot_norest","12455","7","9","Male","","false","","","","","[597.1999998092651]","./assets/img/canyon/animals/giraffe.jpg","[""ArrowLeft""]","second stage test","canyon","0","{""ArrowUp,ArrowLeft"":23,""ArrowUp,ArrowRight"":10,""ArrowDown,ArrowLeft"":8,""ArrowDown,ArrowRight"":30}","true","ArrowUp,ArrowLeft","","original","1","","","",""
"html-keyboard-response","286","1191755","0.0-4.0-10.0-1.3","spark_pilot_norest","12455","7","9","Male","","","","","","","null","<div style=""font-size:60px;"">+</div>","null","fixation","","","","","","","","","","","",""
"revaluation","287","1192419","0.0-4.0-10.0-0.4","spark_pilot_norest","12455","7","9","Male","","false","","","","","[658.5]","./assets/img/canyon/animals/lion.jpg","[""ArrowRight""]","second stage test","canyon","0","{""ArrowUp,ArrowLeft"":23,""ArrowUp,ArrowRight"":10,""ArrowDown,ArrowLeft"":8,""ArrowDown,ArrowRight"":30}","true","ArrowDown,ArrowRight","","original","1","","","",""
"html-keyboard-response","288","1192924","0.0-4.0-10.0-1.4","spark_pilot_norest","12455","7","9","Male","","","","","","","null","<div style=""font-size:60px;"">+</div>","null","fixation","","","","","","","","","","","",""
"revaluation","289","1193519","0.0-4.0-10.0-0.5","spark_pilot_norest","12455","7","9","Male","","false","","","","","[590.1000003814697]","./assets/img/canyon/animals/lion.jpg","[""ArrowRight""]","second stage test","canyon","0","{""ArrowUp,ArrowLeft"":23,""ArrowUp,ArrowRight"":10,""ArrowDown,ArrowLeft"":8,""ArrowDown,ArrowRight"":30}","true","ArrowDown,ArrowRight","","original","1","","","",""
"html-keyboard-response","290","1194034","0.0-4.0-10.0-1.5","spark_pilot_norest","12455","7","9","Male","","","","","","","null","<div style=""font-size:60px;"">+</div>","null","fixation","","","","","","","","","","","",""
"revaluation","291","1194639","0.0-4.0-10.0-0.6","spark_pilot_norest","12455","7","9","Male","","false","","","","","[600.1999998092651]","./assets/img/canyon/animals/lion.jpg","[""ArrowRight""]","second stage test","canyon","0","{""ArrowUp,ArrowLeft"":23,""ArrowUp,ArrowRight"":10,""ArrowDown,ArrowLeft"":8,""ArrowDown,ArrowRight"":30}","true","ArrowDown,ArrowRight","","original","1","","","",""
"html-keyboard-response","292","1195153","0.0-4.0-10.0-1.6","spark_pilot_norest","12455","7","9","Male","","","","","","","null","<div style=""font-size:60px;"">+</div>","null","fixation","","","","","","","","","","","",""
"revaluation","293","1195659","0.0-4.0-10.0-0.7","spark_pilot_norest","12455","7","9","Male","","false","","","","","[500.5]","./assets/img/canyon/animals/lion.jpg","[""ArrowRight""]","second stage test","canyon","0","{""ArrowUp,ArrowLeft"":23,""ArrowUp,ArrowRight"":10,""ArrowDown,ArrowLeft"":8,""ArrowDown,ArrowRight"":30}","true","ArrowDown,ArrowRight","","original","1","","","",""
"html-keyboard-response","294","1196168","0.0-4.0-10.0-1.7","spark_pilot_norest","12455","7","9","Male","","","","","","","null","<div style=""font-size:60px;"">+</div>","null","fixation","","","","","","","","","","","",""
"learning-instructions","295","1200902","0.0-4.0-0.1-0.2","spark_pilot_norest","12455","7","9","Male","","","","","","","2026.6999998092651","<p> This time you are searching for treasure in the <b>ocean</b>.</p>","","instructions","","","","","","","","","","","",""
"learning-instructions","296","1219743","0.0-4.0-0.1-0.3","spark_pilot_norest","12455","7","9","Male","","","","","","","1587.9000005722046","<p><b>New</b> animals with <b>new</b> treasure chests live here. You need to explore to discover where the animal with the best treasure chest is.</p>
                    <p> Like before, once you figure out which animal has the chest with the most treasure, you should try to get to that animal and select that chest! </p>","","instructions","","","","","","","","","","","",""
"learning-instructions","297","1236724","0.0-4.0-1.1-0.1","spark_pilot_norest","12455","7","9","Male","","","","","","","2248.5","<p> Remember, when you see a picture of the place, use the up and down keys to <b>find an animal</b>.</p>
            <p> When you encounter an animal, you should use the left and right keys to <b>select a treasure chest</b>.</p>
            <p> Don't forget to look out for the robber! </p>","","instructions","","","","","","","","","","","",""
"revaluation","298","1242742","0.0-4.0-2.1-0.50","spark_pilot_norest","12455","7","9","Male","","false","","","","","[928.8999996185303,681.1000003814697]","./assets/img/ocean/memory/37.jpg","[""ArrowDown"",""ArrowRight""]","value training","ocean","17","{""ArrowUp,ArrowLeft"":26,""ArrowUp,ArrowRight"":10,""ArrowDown,ArrowLeft"":5,""ArrowDown,ArrowRight"":17}","false","ArrowDown,ArrowRight","false","revaluation","2","0","","",""
"html-keyboard-response","299","1243243","0.0-4.0-2.1-1.50","spark_pilot_norest","12455","7","9","Male","","","","","","","null","<div style=""font-size:60px;"">+</div>","null","fixation","","","","","","","","","1","","",""
"revaluation","300","1249284","0.0-4.0-2.1-0.51","spark_pilot_norest","12455","7","9","Male","","false","","","","","[602.5,671.6999998092651]","./assets/img/ocean/memory/16.jpg","[""ArrowDown"",""ArrowLeft""]","value training","ocean","5","{""ArrowUp,ArrowLeft"":26,""ArrowUp,ArrowRight"":10,""ArrowDown,ArrowLeft"":5,""ArrowDown,ArrowRight"":17}","false","ArrowDown,ArrowLeft","false","revaluation","2","2","","",""
"html-keyboard-response","301","1249800","0.0-4.0-2.1-1.51","spark_pilot_norest","12455","7","9","Male","","","","","","","null","<div style=""font-size:60px;"">+</div>","null","fixation","","","","","","","","","3","","",""
"revaluation","302","1255822","0.0-4.0-2.1-0.52","spark_pilot_norest","12455","7","9","Male","","false","","","","","[776.1999998092651,671.8999996185303]","./assets/img/ocean/memory/35.jpg","[""ArrowUp"",""ArrowLeft""]","value training","ocean","26","{""ArrowUp,ArrowLeft"":26,""ArrowUp,ArrowRight"":10,""ArrowDown,ArrowLeft"":5,""ArrowDown,ArrowRight"":17}","true","ArrowUp,ArrowLeft","false","revaluation","2","4","","",""
"html-keyboard-response","303","1256330","0.0-4.0-2.1-1.52","spark_pilot_norest","12455","7","9","Male","","","","","","","null","<div style=""font-size:60px;"">+</div>","null","fixation","","","","","","","","","5","","",""
"revaluation","304","1262350","0.0-4.0-2.1-0.53","spark_pilot_norest","12455","7","9","Male","","false","","","","","[836.1000003814697,464.5]","./assets/img/ocean/memory/25.jpg","[""ArrowUp"",""ArrowRight""]","value training","ocean","10","{""ArrowUp,ArrowLeft"":26,""ArrowUp,ArrowRight"":10,""ArrowDown,ArrowLeft"":5,""ArrowDown,ArrowRight"":17}","false","ArrowUp,ArrowRight","false","revaluation","2","6","","",""
"html-keyboard-response","305","1262859","0.0-4.0-2.1-1.53","spark_pilot_norest","12455","7","9","Male","","","","","","","null","<div style=""font-size:60px;"">+</div>","null","fixation","","","","","","","","","7","","",""
"revaluation","306","1268899","0.0-4.0-2.1-0.54","spark_pilot_norest","12455","7","9","Male","","false","","","","","[857.6999998092651,442.5999994277954]","./assets/img/ocean/memory/41.jpg","[""ArrowUp"",""ArrowLeft""]","value training","ocean","26","{""ArrowUp,ArrowLeft"":26,""ArrowUp,ArrowRight"":10,""ArrowDown,ArrowLeft"":5,""ArrowDown,ArrowRight"":17}","true","ArrowUp,ArrowLeft","false","revaluation","2","8","","",""
"html-keyboard-response","307","1269414","0.0-4.0-2.1-1.54","spark_pilot_norest","12455","7","9","Male","","","","","","","null","<div style=""font-size:60px;"">+</div>","null","fixation","","","","","","","","","9","","",""
"revaluation","308","1275449","0.0-4.0-2.1-0.55","spark_pilot_norest","12455","7","9","Male","","false","","","","","[693.8999996185303,409.3999996185303]","./assets/img/ocean/memory/35.jpg","[""ArrowUp"",""ArrowLeft""]","value training","ocean","26","{""ArrowUp,ArrowLeft"":26,""ArrowUp,ArrowRight"":10,""ArrowDown,ArrowLeft"":5,""ArrowDown,ArrowRight"":17}","true","ArrowUp,ArrowLeft","false","revaluation","2","10","","",""
"html-keyboard-response","309","1275953","0.0-4.0-2.1-1.55","spark_pilot_norest","12455","7","9","Male","","","","","","","null","<div style=""font-size:60px;"">+</div>","null","fixation","","","","","","","","","11","","",""
