"trial_type","trial_index","time_elapsed","internal_node_id","task_version","subject_id","assigned_condition","age","gender","success","timeout","failed_images","failed_audio","failed_video","browser_interaction","rt","stimulus","response","task_part","environment","score","rewardMap","correct","fullState","isCatch","condition","order","trial_num","key_press","ground_truth","bonus"
"pavlovia","0","670","0.0-0.0","spark_pilot_norest","8338","5","14","Female","","","","","","","","","","","","","","","","","","","","","",""
"preload","1","21197","0.0-1.0","spark_pilot_norest","8338","5","14","Female","true","false","[]","[]","[]","[{""event"":""fullscreenenter"",""trial"":2,""time"":23429}]","","","","","","","","","","","","","","","",""
"fullscreen","2","24412","0.0-2.0","spark_pilot_norest","8338","5","14","Female","true","","","","","","","","","","","","","","","","","","","","",""
"audio-button-response","3","26403","0.0-3.0-0.0-0.0","spark_pilot_norest","8338","5","14","Female","","","","","","","1400","./assets/audio/audiotest/turtle.mp3","2","audio_test","","","","","","","","","","","",""
"learning-instructions","4","40699","0.0-3.0-1.0-0.0","spark_pilot_norest","8338","5","14","Female","","","","","","","7308.299999952316","<p> Welcome! Please remember to stay in fullscreen mode and don't click away from the experiment. </p>","","instructions","","","","","","","","","","","",""
"learning-instructions","5","53929","0.0-3.0-1.0-0.1","spark_pilot_norest","8338","5","14","Female","","","","","","","4826.700000047684","<p> Today you will be playing a game to earn treasure. </p>
            <p> At the end of the experiment, you will earn a bonus based on how much treasure you find. </p>
            <img src='./assets/img/instructions/treasure.jpg' class='instructions-image'>","","instructions","","","","","","","","","","","",""
"learning-instructions","6","63594","0.0-3.0-1.0-0.2","spark_pilot_norest","8338","5","14","Female","","","","","","","1411.0999999046326","<p> Animals have hidden treasure in treasure chests. </p>
            <p> You need to first find an animal and then choose which of their treasure chests to search. </p>
            <img src='./assets/img/space/animals/cat.jpg' class='instructions-image'>","","instructions","","","","","","","","","","","",""
"learning-instructions","7","78333","0.0-3.0-1.0-0.3","spark_pilot_norest","8338","5","14","Female","","","","","","","1591.2999999523163","<p> In each round, you will search for treasure in a different place. In the real game, there will be two rounds. </p>
            <p> You will begin with a separate, practice round where you will search for treasure in outer space. </p>
            <img src='./assets/img/space/0.jpg' class='instructions-image'>","","instructions","","","","","","","","","","","",""
"learning-instructions","8","91595","0.0-3.0-1.0-0.4","spark_pilot_norest","8338","5","14","Female","","","","","","","1823.5","<p> On every turn, you will see a picture of the place that you are in, but the specific image may be different each time. </p>
            <p> For example, both of these images mean you are in outer space. </p>
            <img src='./assets/img/instructions/outerspace.jpg' class='instructions-image'>","","instructions","","","","","","","","","","","",""
"learning-instructions","9","100137","0.0-3.0-1.0-0.5","spark_pilot_norest","8338","5","14","Female","","","","","","","694","<p> You need to decide which direction to travel in. </p>
            <p> You can choose between going <b>up or down</b> by using the arrow keys. </p>
            <img src='./assets/img/instructions/updown.jpg' class='instructions-image'>","","instructions","","","","","","","","","","","",""
"learning-instructions","10","110249","0.0-3.0-1.0-0.6","spark_pilot_norest","8338","5","14","Female","","","","","","","1305.3000001907349","<p> You will have <b>2 seconds</b> to make your choice. </p>
            <p> If you do not make a choice within 2 seconds, you will not find an animal or earn treasure. </p>
            <img src='./assets/img/instructions/2seconds.jpg' class='instructions-image'>","","instructions","","","","","","","","","","","",""
"learning-instructions","11","118488","0.0-3.0-1.0-0.7","spark_pilot_norest","8338","5","14","Female","","","","","","","1203.8999998569489","<p> Let’s try practicing that now! </p>
            <p> When you see a picture of the place you are in, press the <b>up</b> key to travel up. </p>
            <img src='./assets/img/instructions/pressUp.jpg' class='instructions-image'>","","instructions","","","","","","","","","","","",""
"revaluation","12","122517","0.0-3.0-2.0-0.0","spark_pilot_norest","8338","5","14","Female","","false","","","","","[829.3999998569489]","./assets/img/space/0.jpg","[""ArrowUp""]","first stage practice","space","0","null","null","ArrowUp","false","","","","","",""
"html-keyboard-response","13","123020","0.0-3.0-2.0-1.0","spark_pilot_norest","8338","5","14","Female","","","","","","","null","<div style=""font-size:60px;"">+</div>","null","fixation","","","","","","","","","","","",""
"revaluation","14","127040","0.0-3.0-2.0-0.1","spark_pilot_norest","8338","5","14","Female","","true","","","","","[]","./assets/img/space/1.jpg","[]","first stage practice","space","-5","null","null","","false","","","","","",""
"html-keyboard-response","15","127542","0.0-3.0-2.0-1.1","spark_pilot_norest","8338","5","14","Female","","","","","","","null","<div style=""font-size:60px;"">+</div>","null","fixation","","","","","","","","","","","",""
"revaluation","16","131561","0.0-3.0-2.0-0.2","spark_pilot_norest","8338","5","14","Female","","false","","","","","[571]","./assets/img/space/2.jpg","[""ArrowUp""]","first stage practice","space","0","null","null","ArrowUp","false","","","","","",""
"html-keyboard-response","17","132070","0.0-3.0-2.0-1.2","spark_pilot_norest","8338","5","14","Female","","","","","","","null","<div style=""font-size:60px;"">+</div>","null","fixation","","","","","","","","","","","",""
"learning-instructions","18","140260","0.0-3.0-3.0-0.0","spark_pilot_norest","8338","5","14","Female","","","","","","","3466.800000190735","<p> Great job! Now try pressing the <b>down</b> key to travel down. </p>
            <img src='./assets/img/instructions/pressDown.jpg' class='instructions-image'>","","instructions","","","","","","","","","","","",""
"revaluation","19","144290","0.0-3.0-4.0-0.0","spark_pilot_norest","8338","5","14","Female","","false","","","","","[551.7000000476837]","./assets/img/space/3.jpg","[""ArrowDown""]","first stage practice","space","0","null","null","ArrowDown","false","","","","","",""
"html-keyboard-response","20","144810","0.0-3.0-4.0-1.0","spark_pilot_norest","8338","5","14","Female","","","","","","","null","<div style=""font-size:60px;"">+</div>","null","fixation","","","","","","","","","","","",""
"revaluation","21","148841","0.0-3.0-4.0-0.1","spark_pilot_norest","8338","5","14","Female","","false","","","","","[955]","./assets/img/space/4.jpg","[""ArrowDown""]","first stage practice","space","0","null","null","ArrowDown","false","","","","","",""
"html-keyboard-response","22","149350","0.0-3.0-4.0-1.1","spark_pilot_norest","8338","5","14","Female","","","","","","","null","<div style=""font-size:60px;"">+</div>","null","fixation","","","","","","","","","","","",""
"revaluation","23","153369","0.0-3.0-4.0-0.2","spark_pilot_norest","8338","5","14","Female","","false","","","","","[1235.4000000953674]","./assets/img/space/5.jpg","[""ArrowDown""]","first stage practice","space","0","null","null","ArrowDown","false","","","","","",""
"html-keyboard-response","24","153880","0.0-3.0-4.0-1.2","spark_pilot_norest","8338","5","14","Female","","","","","","","null","<div style=""font-size:60px;"">+</div>","null","fixation","","","","","","","","","","","",""
"learning-instructions","25","165527","0.0-3.0-5.0-0.0","spark_pilot_norest","8338","5","14","Female","","","","","","","1764.3000001907349","<p> The animals don’t move, so the animal in the upper part of a place will stay in the upper part of a place, and the animal in the lower part of a place will stay in the lower part of a place. </p>","","instructions","","","","","","","","","","","",""
"learning-instructions","26","176128","0.0-3.0-5.0-0.1","spark_pilot_norest","8338","5","14","Female","","","","","","","1476.4000000953674","<p> Each animal has two treasure chests for you to choose from. </p>
            <p> The amount of treasure in each chest can range from <b> 0 to 40 pieces.</b></p>","","instructions","","","","","","","","","","","",""
"learning-instructions","27","190072","0.0-3.0-5.0-0.2","spark_pilot_norest","8338","5","14","Female","","","","","","","2768.4000000953674","<p> You should decide which chest to search for treasure by using the <b>left</b> and <b>right</b> arrow keys. </p>
            <p><b> Pay attention to which animal is on the screen, as the animals have different treasure chests. </b></p>
            <img src='./assets/img/instructions/leftright.jpg' class='instructions-image'>","","instructions","","","","","","","","","","","",""
"learning-instructions","28","197742","0.0-3.0-5.0-0.3","spark_pilot_norest","8338","5","14","Female","","","","","","","1288.9000000953674","<p> Let’s try practicing that now. </p>
            <p> When you see an animal, choose which chest to search for treasure. </p>
            <img src='./assets/img/instructions/chooseChest.jpg' class='instructions-image'>","","instructions","","","","","","","","","","","",""
"revaluation","29","201752","0.0-3.0-6.0-0.0","spark_pilot_norest","8338","5","14","Female","","false","","","","","[370.59999990463257]","./assets/img/space/animals/cat.jpg","[""ArrowRight""]","second stage practice","space","36","{""ArrowUp,ArrowLeft"":3,""ArrowUp,ArrowRight"":36,""ArrowDown,ArrowLeft"":15,""ArrowDown,ArrowRight"":23}","true","ArrowUp,ArrowRight","","","","","","",""
"html-keyboard-response","30","202270","0.0-3.0-6.0-1.0","spark_pilot_norest","8338","5","14","Female","","","","","","","null","<div style=""font-size:60px;"">+</div>","null","fixation","","","","","","","","","","","",""
"revaluation","31","206300","0.0-3.0-6.0-0.1","spark_pilot_norest","8338","5","14","Female","","false","","","","","[672.8000001907349]","./assets/img/space/animals/rabbit.jpg","[""ArrowLeft""]","second stage practice","space","15","{""ArrowUp,ArrowLeft"":3,""ArrowUp,ArrowRight"":36,""ArrowDown,ArrowLeft"":15,""ArrowDown,ArrowRight"":23}","false","ArrowDown,ArrowLeft","","","","","","",""
"html-keyboard-response","32","206808","0.0-3.0-6.0-1.1","spark_pilot_norest","8338","5","14","Female","","","","","","","null","<div style=""font-size:60px;"">+</div>","null","fixation","","","","","","","","","","","",""
"revaluation","33","210840","0.0-3.0-6.0-0.2","spark_pilot_norest","8338","5","14","Female","","false","","","","","[450.40000009536743]","./assets/img/space/animals/cat.jpg","[""ArrowRight""]","second stage practice","space","36","{""ArrowUp,ArrowLeft"":3,""ArrowUp,ArrowRight"":36,""ArrowDown,ArrowLeft"":15,""ArrowDown,ArrowRight"":23}","true","ArrowUp,ArrowRight","","","","","","",""
"html-keyboard-response","34","211360","0.0-3.0-6.0-1.2","spark_pilot_norest","8338","5","14","Female","","","","","","","null","<div style=""font-size:60px;"">+</div>","null","fixation","","","","","","","","","","","",""
"revaluation","35","215380","0.0-3.0-6.0-0.3","spark_pilot_norest","8338","5","14","Female","","false","","","","","[436.09999990463257]","./assets/img/space/animals/rabbit.jpg","[""ArrowRight""]","second stage practice","space","23","{""ArrowUp,ArrowLeft"":3,""ArrowUp,ArrowRight"":36,""ArrowDown,ArrowLeft"":15,""ArrowDown,ArrowRight"":23}","true","ArrowDown,ArrowRight","","","","","","",""
"html-keyboard-response","36","215890","0.0-3.0-6.0-1.3","spark_pilot_norest","8338","5","14","Female","","","","","","","null","<div style=""font-size:60px;"">+</div>","null","fixation","","","","","","","","","","","",""
"learning-instructions","37","234932","0.0-3.0-7.0-0.0","spark_pilot_norest","8338","5","14","Female","","","","","","","2211.5","<p> Great job. Now let’s try putting it together. </p>
            <p> On each turn, you will first see a picture to remind you of the place you are in, and you need to choose whether to go up or down. </p>
            <p> Then you will see an animal and choose which of its chests to search for treasure. </p>","","instructions","","","","","","","","","","","",""
"learning-instructions","38","244424","0.0-3.0-7.0-0.1","spark_pilot_norest","8338","5","14","Female","","","","","","","1241.6000001430511","<p> When you choose whether to go up or down, try to go to the animal with the chest with the most treasure. </p>
            <p> Try practicing that now! </p>","","instructions","","","","","","","","","","","",""
"revaluation","39","250471","0.0-3.0-8.0-0.0","spark_pilot_norest","8338","5","14","Female","","false","","","","","[245.20000004768372,431.2999999523163]","./assets/img/space/6.jpg","[""ArrowUp"",""ArrowRight""]","full practice","space","36","{""ArrowUp,ArrowLeft"":3,""ArrowUp,ArrowRight"":36,""ArrowDown,ArrowLeft"":15,""ArrowDown,ArrowRight"":23}","true","ArrowUp,ArrowRight","false","","","","","",""
"html-keyboard-response","40","250989","0.0-3.0-8.0-1.0","spark_pilot_norest","8338","5","14","Female","","","","","","","null","<div style=""font-size:60px;"">+</div>","null","fixation","","","","","","","","","","","",""
"revaluation","41","257030","0.0-3.0-8.0-0.1","spark_pilot_norest","8338","5","14","Female","","false","","","","","[913.9000000953674,437.5]","./assets/img/space/7.jpg","[""ArrowDown"",""ArrowLeft""]","full practice","space","15","{""ArrowUp,ArrowLeft"":3,""ArrowUp,ArrowRight"":36,""ArrowDown,ArrowLeft"":15,""ArrowDown,ArrowRight"":23}","false","ArrowDown,ArrowLeft","false","","","","","",""
"html-keyboard-response","42","257549","0.0-3.0-8.0-1.1","spark_pilot_norest","8338","5","14","Female","","","","","","","null","<div style=""font-size:60px;"">+</div>","null","fixation","","","","","","","","","","","",""
"revaluation","43","263580","0.0-3.0-8.0-0.2","spark_pilot_norest","8338","5","14","Female","","false","","","","","[972,362.2999999523163]","./assets/img/space/8.jpg","[""ArrowUp"",""ArrowRight""]","full practice","space","36","{""ArrowUp,ArrowLeft"":3,""ArrowUp,ArrowRight"":36,""ArrowDown,ArrowLeft"":15,""ArrowDown,ArrowRight"":23}","true","ArrowUp,ArrowRight","false","","","","","",""
"html-keyboard-response","44","264100","0.0-3.0-8.0-1.2","spark_pilot_norest","8338","5","14","Female","","","","","","","null","<div style=""font-size:60px;"">+</div>","null","fixation","","","","","","","","","","","",""
"revaluation","45","270130","0.0-3.0-8.0-0.3","spark_pilot_norest","8338","5","14","Female","","false","","","","","[686,340.89999985694885]","./assets/img/space/9.jpg","[""ArrowDown"",""ArrowRight""]","full practice","space","23","{""ArrowUp,ArrowLeft"":3,""ArrowUp,ArrowRight"":36,""ArrowDown,ArrowLeft"":15,""ArrowDown,ArrowRight"":23}","false","ArrowDown,ArrowRight","false","","","","","",""
"html-keyboard-response","46","270640","0.0-3.0-8.0-1.3","spark_pilot_norest","8338","5","14","Female","","","","","","","null","<div style=""font-size:60px;"">+</div>","null","fixation","","","","","","","","","","","",""
"revaluation","47","276663","0.0-3.0-8.0-0.4","spark_pilot_norest","8338","5","14","Female","","false","","","","","[335,344.2000000476837]","./assets/img/space/10.jpg","[""ArrowUp"",""ArrowRight""]","full practice","space","36","{""ArrowUp,ArrowLeft"":3,""ArrowUp,ArrowRight"":36,""ArrowDown,ArrowLeft"":15,""ArrowDown,ArrowRight"":23}","true","ArrowUp,ArrowRight","false","","","","","",""
"html-keyboard-response","48","277164","0.0-3.0-8.0-1.4","spark_pilot_norest","8338","5","14","Female","","","","","","","null","<div style=""font-size:60px;"">+</div>","null","fixation","","","","","","","","","","","",""
"learning-instructions","49","288790","0.0-3.0-9.0-0.0","spark_pilot_norest","8338","5","14","Female","","","","","","","1284.8000001907349","<p> One last thing: sometimes, you will see a robber. The robber can be anywhere in the picture. </p>
            <p> If you do not stop them, you will lose treasure. </p>
            <img src='./assets/img/instructions/robber.jpg' class='instructions-image'>","","instructions","","","","","","","","","","","",""
"learning-instructions","50","296474","0.0-3.0-9.0-0.1","spark_pilot_norest","8338","5","14","Female","","","","","","","519.7999999523163","<p> If you see the robber, you should <b>press the space bar</b> rather than using the arrow keys. </p>
            <p> Try practicing that now! </p>","","instructions","","","","","","","","","","","",""
"revaluation","51","300501","0.0-3.0-10.0-0.0","spark_pilot_norest","8338","5","14","Female","","false","","","","","[1797.4000000953674]","./assets/img/space/catch/0.jpg","[""spaceBar""]","catch practice","space","0","{""ArrowUp,ArrowLeft"":3,""ArrowUp,ArrowRight"":36,""ArrowDown,ArrowLeft"":15,""ArrowDown,ArrowRight"":23}","true","spaceBar","true","","","","","",""
"html-keyboard-response","52","301011","0.0-3.0-10.0-1.0","spark_pilot_norest","8338","5","14","Female","","","","","","","null","<div style=""font-size:60px;"">+</div>","null","fixation","","","","","","","","","","","",""
"revaluation","53","305022","0.0-3.0-10.0-0.1","spark_pilot_norest","8338","5","14","Female","","false","","","","","[672.9000000953674]","./assets/img/space/catch/1.jpg","[""spaceBar""]","catch practice","space","0","{""ArrowUp,ArrowLeft"":3,""ArrowUp,ArrowRight"":36,""ArrowDown,ArrowLeft"":15,""ArrowDown,ArrowRight"":23}","true","spaceBar","true","","","","","",""
"html-keyboard-response","54","305527","0.0-3.0-10.0-1.1","spark_pilot_norest","8338","5","14","Female","","","","","","","null","<div style=""font-size:60px;"">+</div>","null","fixation","","","","","","","","","","","",""
"revaluation","55","309561","0.0-3.0-10.0-0.2","spark_pilot_norest","8338","5","14","Female","","false","","","","","[789.6999998092651]","./assets/img/space/catch/2.jpg","[""spaceBar""]","catch practice","space","0","{""ArrowUp,ArrowLeft"":3,""ArrowUp,ArrowRight"":36,""ArrowDown,ArrowLeft"":15,""ArrowDown,ArrowRight"":23}","true","spaceBar","true","","","","","",""
"html-keyboard-response","56","310071","0.0-3.0-10.0-1.2","spark_pilot_norest","8338","5","14","Female","","","","","","","null","<div style=""font-size:60px;"">+</div>","null","fixation","","","","","","","","","","","",""
"learning-instructions","57","317762","0.0-3.0-11.0-0.0-0.0","spark_pilot_norest","8338","5","14","Female","","","","","","","2397.600000143051","<p> Now, you will practice a shortened version of the game to get a sense of how it all fits together. </p>","","instructions","","","","","","","","","","","",""
"learning-instructions","58","323608","0.0-3.0-11.0-0.0-0.1","spark_pilot_norest","8338","5","14","Female","","","","","","","2654.4000000953674","<p>This time you are searching for treasure in outer space.</p>","","instructions","","","","","","","","","","","",""
"learning-instructions","59","340729","0.0-3.0-11.0-1.0-0.0","spark_pilot_norest","8338","5","14","Female","","","","","","","2346","<p> Remember, when you see a picture of the place, use the up and down keys to <b>find an animal</b>.</p>
            <p> When you encounter an animal, you should use the left and right keys to <b>select a treasure chest</b>.</p>
            <p> Don't forget to look out for the robber! </p>","","instructions","","","","","","","","","","","",""
"revaluation","60","346752","0.0-3.0-11.0-2.0-0.0","spark_pilot_norest","8338","5","14","Female","","false","","","","","[764.0999999046326,495.59999990463257]","./assets/img/space/11.jpg","[""ArrowUp"",""ArrowLeft""]","practice block","space","3","{""ArrowUp,ArrowLeft"":3,""ArrowUp,ArrowRight"":36,""ArrowDown,ArrowLeft"":15,""ArrowDown,ArrowRight"":23}","false","ArrowUp,ArrowLeft","false","","","","","",""
"html-keyboard-response","61","347262","0.0-3.0-11.0-2.0-1.0","spark_pilot_norest","8338","5","14","Female","","","","","","","null","<div style=""font-size:60px;"">+</div>","null","fixation","","","","","","","","","","","",""
"revaluation","62","353293","0.0-3.0-11.0-2.0-0.1","spark_pilot_norest","8338","5","14","Female","","false","","","","","[878.8999998569489,271.2999999523163]","./assets/img/space/12.jpg","[""ArrowUp"",""ArrowRight""]","practice block","space","36","{""ArrowUp,ArrowLeft"":3,""ArrowUp,ArrowRight"":36,""ArrowDown,ArrowLeft"":15,""ArrowDown,ArrowRight"":23}","true","ArrowUp,ArrowRight","false","","","","","",""
"html-keyboard-response","63","353799","0.0-3.0-11.0-2.0-1.1","spark_pilot_norest","8338","5","14","Female","","","","","","","null","<div style=""font-size:60px;"">+</div>","null","fixation","","","","","","","","","","","",""
"revaluation","64","359832","0.0-3.0-11.0-2.0-0.2","spark_pilot_norest","8338","5","14","Female","","false","","","","","[511.7999999523163,198.29999995231628]","./assets/img/space/13.jpg","[""ArrowUp"",""ArrowRight""]","practice block","space","36","{""ArrowUp,ArrowLeft"":3,""ArrowUp,ArrowRight"":36,""ArrowDown,ArrowLeft"":15,""ArrowDown,ArrowRight"":23}","true","ArrowUp,ArrowRight","false","","","","","",""
"html-keyboard-response","65","360347","0.0-3.0-11.0-2.0-1.2","spark_pilot_norest","8338","5","14","Female","","","","","","","null","<div style=""font-size:60px;"">+</div>","null","fixation","","","","","","","","","","","",""
"revaluation","66","366383","0.0-3.0-11.0-2.0-0.3","spark_pilot_norest","8338","5","14","Female","","false","","","","","[702.8999998569489,293]","./assets/img/space/14.jpg","[""ArrowUp"",""ArrowRight""]","practice block","space","36","{""ArrowUp,ArrowLeft"":3,""ArrowUp,ArrowRight"":36,""ArrowDown,ArrowLeft"":15,""ArrowDown,ArrowRight"":23}","true","ArrowUp,ArrowRight","false","","","","","",""
"html-keyboard-response","67","366902","0.0-3.0-11.0-2.0-1.3","spark_pilot_norest","8338","5","14","Female","","","","","","","null","<div style=""font-size:60px;"">+</div>","null","fixation","","","","","","","","","","","",""
"revaluation","68","372909","0.0-3.0-11.0-2.0-0.4","spark_pilot_norest","8338","5","14","Female","","false","","","","","[949,400.2000000476837]","./assets/img/space/11.jpg","[""ArrowUp"",""ArrowRight""]","practice block","space","36","{""ArrowUp,ArrowLeft"":3,""ArrowUp,ArrowRight"":36,""ArrowDown,ArrowLeft"":15,""ArrowDown,ArrowRight"":23}","true","ArrowUp,ArrowRight","false","","","","","",""
"html-keyboard-response","69","373411","0.0-3.0-11.0-2.0-1.4","spark_pilot_norest","8338","5","14","Female","","","","","","","null","<div style=""font-size:60px;"">+</div>","null","fixation","","","","","","","","","","","",""
"revaluation","70","379419","0.0-3.0-11.0-2.0-0.5","spark_pilot_norest","8338","5","14","Female","","false","","","","","[904.1000001430511,355.19999980926514]","./assets/img/space/12.jpg","[""ArrowUp"",""ArrowRight""]","practice block","space","36","{""ArrowUp,ArrowLeft"":3,""ArrowUp,ArrowRight"":36,""ArrowDown,ArrowLeft"":15,""ArrowDown,ArrowRight"":23}","true","ArrowUp,ArrowRight","false","","","","","",""
"html-keyboard-response","71","379921","0.0-3.0-11.0-2.0-1.5","spark_pilot_norest","8338","5","14","Female","","","","","","","null","<div style=""font-size:60px;"">+</div>","null","fixation","","","","","","","","","","","",""
"revaluation","72","385927","0.0-3.0-11.0-2.0-0.6","spark_pilot_norest","8338","5","14","Female","","false","","","","","[721.6000001430511,484.7000000476837]","./assets/img/space/13.jpg","[""ArrowUp"",""ArrowRight""]","practice block","space","36","{""ArrowUp,ArrowLeft"":3,""ArrowUp,ArrowRight"":36,""ArrowDown,ArrowLeft"":15,""ArrowDown,ArrowRight"":23}","true","ArrowUp,ArrowRight","false","","","","","",""
"html-keyboard-response","73","386429","0.0-3.0-11.0-2.0-1.6","spark_pilot_norest","8338","5","14","Female","","","","","","","null","<div style=""font-size:60px;"">+</div>","null","fixation","","","","","","","","","","","",""
"revaluation","74","392434","0.0-3.0-11.0-2.0-0.7","spark_pilot_norest","8338","5","14","Female","","false","","","","","[483.40000009536743,415]","./assets/img/space/14.jpg","[""ArrowUp"",""ArrowRight""]","practice block","space","36","{""ArrowUp,ArrowLeft"":3,""ArrowUp,ArrowRight"":36,""ArrowDown,ArrowLeft"":15,""ArrowDown,ArrowRight"":23}","true","ArrowUp,ArrowRight","false","","","","","",""
"html-keyboard-response","75","392936","0.0-3.0-11.0-2.0-1.7","spark_pilot_norest","8338","5","14","Female","","","","","","","null","<div style=""font-size:60px;"">+</div>","null","fixation","","","","","","","","","","","",""
"revaluation","76","396951","0.0-3.0-11.0-2.0-0.8","spark_pilot_norest","8338","5","14","Female","","false","","","","","[558.0999999046326]","./assets/img/space/catch/3.jpg","[""spaceBar""]","practice block","space","0","{""ArrowUp,ArrowLeft"":3,""ArrowUp,ArrowRight"":36,""ArrowDown,ArrowLeft"":15,""ArrowDown,ArrowRight"":23}","true","spaceBar","true","","","","","",""
"html-keyboard-response","77","397452","0.0-3.0-11.0-2.0-1.8","spark_pilot_norest","8338","5","14","Female","","","","","","","null","<div style=""font-size:60px;"">+</div>","null","fixation","","","","","","","","","","","",""
"learning-instructions","78","414428","0.0-3.0-11.0-3.0-0.0","spark_pilot_norest","8338","5","14","Female","","","","","","","3437.4000000953674","<p> Now, you will travel with a friend who will choose whether you go up or down first. </p>
            <p> On these turns, you will just see the animal that they found. You will still get to choose which chest to search for treasure.</p>","","instructions","","","","","","","","","","","",""
"revaluation","79","418468","0.0-3.0-11.0-4.0-0.0","spark_pilot_norest","8338","5","14","Female","","false","","","","","[734.5]","./assets/img/space/animals/cat.jpg","[""ArrowRight""]","practice block","space","36","{""ArrowUp,ArrowLeft"":3,""ArrowUp,ArrowRight"":36,""ArrowDown,ArrowLeft"":15,""ArrowDown,ArrowRight"":23}","true","ArrowUp,ArrowRight","","","","","","",""
"html-keyboard-response","80","418973","0.0-3.0-11.0-4.0-1.0","spark_pilot_norest","8338","5","14","Female","","","","","","","null","<div style=""font-size:60px;"">+</div>","null","fixation","","","","","","","","","","","",""
"revaluation","81","422998","0.0-3.0-11.0-4.0-0.1","spark_pilot_norest","8338","5","14","Female","","false","","","","","[430.10000014305115]","./assets/img/space/animals/rabbit.jpg","[""ArrowRight""]","practice block","space","23","{""ArrowUp,ArrowLeft"":3,""ArrowUp,ArrowRight"":36,""ArrowDown,ArrowLeft"":15,""ArrowDown,ArrowRight"":23}","true","ArrowDown,ArrowRight","","","","","","",""
"html-keyboard-response","82","423508","0.0-3.0-11.0-4.0-1.1","spark_pilot_norest","8338","5","14","Female","","","","","","","null","<div style=""font-size:60px;"">+</div>","null","fixation","","","","","","","","","","","",""
"revaluation","83","427538","0.0-3.0-11.0-4.0-0.2","spark_pilot_norest","8338","5","14","Female","","false","","","","","[381.10000014305115]","./assets/img/space/animals/rabbit.jpg","[""ArrowRight""]","practice block","space","23","{""ArrowUp,ArrowLeft"":3,""ArrowUp,ArrowRight"":36,""ArrowDown,ArrowLeft"":15,""ArrowDown,ArrowRight"":23}","true","ArrowDown,ArrowRight","","","","","","",""
"html-keyboard-response","84","428058","0.0-3.0-11.0-4.0-1.2","spark_pilot_norest","8338","5","14","Female","","","","","","","null","<div style=""font-size:60px;"">+</div>","null","fixation","","","","","","","","","","","",""
"revaluation","85","432089","0.0-3.0-11.0-4.0-0.3","spark_pilot_norest","8338","5","14","Female","","false","","","","","[405.2999999523163]","./assets/img/space/animals/cat.jpg","[""ArrowRight""]","practice block","space","36","{""ArrowUp,ArrowLeft"":3,""ArrowUp,ArrowRight"":36,""ArrowDown,ArrowLeft"":15,""ArrowDown,ArrowRight"":23}","true","ArrowUp,ArrowRight","","","","","","",""
"html-keyboard-response","86","432598","0.0-3.0-11.0-4.0-1.3","spark_pilot_norest","8338","5","14","Female","","","","","","","null","<div style=""font-size:60px;"">+</div>","null","fixation","","","","","","","","","","","",""
"learning-instructions","87","440749","0.0-3.0-11.0-5.0-0.0","spark_pilot_norest","8338","5","14","Female","","","","","","","null","<p> You have almost finished this part of the game! </p>
            <p> We are going to ask you to make a few more choices. </p>","","instructions","","","","","","","","","","","",""
"learning-instructions","88","456799","0.0-3.0-11.0-5.0-0.1","spark_pilot_norest","8338","5","14","Female","","","","","","","null","<p> First, you need to decide whether to go up or down. When you see each picture, use the arrow keys to make your choice. </p>
            <p><b>You will not see which animal you found, but try to get to the one that will give you the most treasure.</b></p>","","instructions","","","","","","","","","","","",""
"html-keyboard-response","89","457805","0.0-3.0-11.0-6.0-0.0","spark_pilot_norest","8338","5","14","Female","","","","","","","null","<div style=""font-size:100px;color:red;"">Starting in...</div>","null","","","","","","","","","","","","",""
"html-keyboard-response","90","458818","0.0-3.0-11.0-6.0-1.0","spark_pilot_norest","8338","5","14","Female","","","","","","","null","<div style=""font-size:200px;color:red;"">3</div>","null","","","","","","","","","","","","",""
"html-keyboard-response","91","459828","0.0-3.0-11.0-6.0-2.0","spark_pilot_norest","8338","5","14","Female","","","","","","","null","<div style=""font-size:200px;color:red;"">2</div>","null","","","","","","","","","","","","",""
"html-keyboard-response","92","460840","0.0-3.0-11.0-6.0-3.0","spark_pilot_norest","8338","5","14","Female","","","","","","","null","<div style=""font-size:200px;color:red;"">1</div>","null","","","","","","","","","","","","",""
"revaluation","93","461321","0.0-3.0-11.0-7.0","spark_pilot_norest","8338","5","14","Female","","false","","","","","[476.2999999523163]","./assets/img/space/15.jpg","[""ArrowUp""]","practice block","space","0","{""ArrowUp,ArrowLeft"":3,""ArrowUp,ArrowRight"":36,""ArrowDown,ArrowLeft"":15,""ArrowDown,ArrowRight"":23}","true","ArrowUp","false","","","","","",""
"html-keyboard-response","94","461828","0.0-3.0-11.0-8.0","spark_pilot_norest","8338","5","14","Female","","","","","","","null","<div style=""font-size:60px;"">+</div>","null","fixation","","","","","","","","","","","",""
"learning-instructions","95","475238","0.0-3.0-11.0-9.0-0.0","spark_pilot_norest","8338","5","14","Female","","","","","","","null","<p> Now you will see the animals again and can search their chests for treasure. </p>
            <p> This time, you will not see how much treasure you earned, but you will earn more bonus money for making better choices. </p>","","instructions","","","","","","","","","","","",""
"html-keyboard-response","96","476258","0.0-3.0-11.0-10.0-0.0","spark_pilot_norest","8338","5","14","Female","","","","","","","null","<div style=""font-size:100px;color:red;"">Starting in...</div>","null","","","","","","","","","","","","",""
"html-keyboard-response","97","477270","0.0-3.0-11.0-10.0-1.0","spark_pilot_norest","8338","5","14","Female","","","","","","","null","<div style=""font-size:200px;color:red;"">3</div>","null","","","","","","","","","","","","",""
"html-keyboard-response","98","478288","0.0-3.0-11.0-10.0-2.0","spark_pilot_norest","8338","5","14","Female","","","","","","","null","<div style=""font-size:200px;color:red;"">2</div>","null","","","","","","","","","","","","",""
"html-keyboard-response","99","479308","0.0-3.0-11.0-10.0-3.0","spark_pilot_norest","8338","5","14","Female","","","","","","","null","<div style=""font-size:200px;color:red;"">1</div>","null","","","","","","","","","","","","",""
"revaluation","100","479961","0.0-3.0-11.0-11.0-0.0","spark_pilot_norest","8338","5","14","Female","","false","","","","","[647.7000000476837]","./assets/img/space/animals/cat.jpg","[""ArrowRight""]","practice block","space","0","{""ArrowUp,ArrowLeft"":3,""ArrowUp,ArrowRight"":36,""ArrowDown,ArrowLeft"":15,""ArrowDown,ArrowRight"":23}","true","ArrowUp,ArrowRight","","","","","","",""
"html-keyboard-response","101","480465","0.0-3.0-11.0-11.0-1.0","spark_pilot_norest","8338","5","14","Female","","","","","","","null","<div style=""font-size:60px;"">+</div>","null","fixation","","","","","","","","","","","",""
"revaluation","102","481267","0.0-3.0-11.0-11.0-0.1","spark_pilot_norest","8338","5","14","Female","","false","","","","","[800.7000000476837]","./assets/img/space/animals/rabbit.jpg","[""ArrowRight""]","practice block","space","0","{""ArrowUp,ArrowLeft"":3,""ArrowUp,ArrowRight"":36,""ArrowDown,ArrowLeft"":15,""ArrowDown,ArrowRight"":23}","true","ArrowDown,ArrowRight","","","","","","",""
"html-keyboard-response","103","481774","0.0-3.0-11.0-11.0-1.1","spark_pilot_norest","8338","5","14","Female","","","","","","","null","<div style=""font-size:60px;"">+</div>","null","fixation","","","","","","","","","","","",""
"learning-instructions","104","488481","0.0-3.0-12.0-0.0","spark_pilot_norest","8338","5","14","Female","","","","","","","2130.199999809265","<p> Before you start, we're going to ask you a few questions about how the game works. </p>","","instructions","","","","","","","","","","","",""
"comp-q","105","495885","0.0-3.0-13.0-0.0-0.0","spark_pilot_norest","8338","5","14","Female","","","","","","","1821.0999999046326","<p> <b> True or False? </b> </p>
            <p> There can be 50 pieces of treasure in a given animal's chest. </p>","1","comp_question","","","","true","","","","","","","",""
"comp-q","106","505185","0.0-3.0-13.0-0.0-1.0","spark_pilot_norest","8338","5","14","Female","","","","","","","2646.2000000476837","<p> <b> That's right! </b> The amount of treasure in each chest can range from 0 to 40 pieces. </p>","0","comp_answer","","","","","","","","","","","",""
"comp-q","107","514057","0.0-3.0-13.0-0.1-0.1","spark_pilot_norest","8338","5","14","Female","","","","","","","1756.7000000476837","<p> <b> True or False? </b> </p><p> In this game, all animals have the same amount of treasure in their left and right chests. </p>","1","comp_question","","","","true","","","","","","","",""
"comp-q","108","520978","0.0-3.0-13.0-0.1-1.1","spark_pilot_norest","8338","5","14","Female","","","","","","","1676.2999999523163","<p> <b> That's right! </b> Animals have different amounts of treasure in their treasure chests. </p>","0","comp_answer","","","","","","","","","","","",""
"comp-q","109","527790","0.0-3.0-13.0-0.2-0.2","spark_pilot_norest","8338","5","14","Female","","","","","","","970.0999999046326","<p> <b> True or False? </b> </p><p> The same animal will always be there if you go up in the same place. </p>","0","comp_question","","","","true","","","","","","","",""
"comp-q","110","536892","0.0-3.0-13.0-0.2-1.2","spark_pilot_norest","8338","5","14","Female","","","","","","","2640.7000000476837","<p> <b> That's right! </b> One animal lives in the upper part and one lives in the lower part of every place. </p>","0","comp_answer","","","","","","","","","","","",""
"comp-q","111","543236","0.0-3.0-13.0-0.3-0.3","spark_pilot_norest","8338","5","14","Female","","","","","","","806.1999998092651","<p> <b> True or False? </b> </p><p> If you see a different picture, it means you are in a new place. </p>","1","comp_question","","","","true","","","","","","","",""
"comp-q","112","556329","0.0-3.0-13.0-0.3-1.3","spark_pilot_norest","8338","5","14","Female","","","","","","","1868.4000000953674","<p> <b> That's right! </b> Lots of different images may show the same place. For example,  you may see three different images that all remind you that you are in outer space. </p>","0","comp_answer","","","","","","","","","","","",""
"learning-instructions","113","567720","0.0-3.0-14.0-0.0","spark_pilot_norest","8338","5","14","Female","","","","","","","1500.5999999046326","<p> Good job. Remember to do your best because the amount of treasure you earn will be converted into bonus money. </p>
            <p> It’s time to start the real game! </p>","","instructions","","","","","","","","","","","",""
"learning-instructions","114","571969","0.0-4.0-0.0-0.0","spark_pilot_norest","8338","5","14","Female","","","","","","","1469","<p> This time you are searching for treasure in the <b>canyon</b>.</p>","","instructions","","","","","","","","","","","",""
"learning-instructions","115","591250","0.0-4.0-0.0-0.1","spark_pilot_norest","8338","5","14","Female","","","","","","","1959.0999999046326","<p><b>New</b> animals with <b>new</b> treasure chests live here. You need to explore to discover where the animal with the best treasure chest is.</p>
                    <p> Like before, once you figure out which animal has the chest with the most treasure, you should try to get to that animal and select that chest! </p>","","instructions","","","","","","","","","","","",""
"learning-instructions","116","609699","0.0-4.0-1.0-0.0","spark_pilot_norest","8338","5","14","Female","","","","","","","3718.5999999046326","<p> Remember, when you see a picture of the place, use the up and down keys to <b>find an animal</b>.</p>
            <p> When you encounter an animal, you should use the left and right keys to <b>select a treasure chest</b>.</p>
            <p> Don't forget to look out for the robber! </p>","","instructions","","","","","","","","","","","",""
"revaluation","117","615733","0.0-4.0-2.0-0.0","spark_pilot_norest","8338","5","14","Female","","false","","","","","[841.9000000953674,278.5]","./assets/img/canyon/memory/8.jpg","[""ArrowDown"",""ArrowLeft""]","value training","canyon","5","{""ArrowUp,ArrowLeft"":26,""ArrowUp,ArrowRight"":10,""ArrowDown,ArrowLeft"":5,""ArrowDown,ArrowRight"":17}","false","ArrowDown,ArrowLeft","false","original","1","0","","",""
"html-keyboard-response","118","616248","0.0-4.0-2.0-1.0","spark_pilot_norest","8338","5","14","Female","","","","","","","null","<div style=""font-size:60px;"">+</div>","null","fixation","","","","","","","","","1","","",""
"revaluation","119","622283","0.0-4.0-2.0-0.1","spark_pilot_norest","8338","5","14","Female","","false","","","","","[1135.7999999523163,326.2000000476837]","./assets/img/canyon/memory/2.jpg","[""ArrowDown"",""ArrowRight""]","value training","canyon","17","{""ArrowUp,ArrowLeft"":26,""ArrowUp,ArrowRight"":10,""ArrowDown,ArrowLeft"":5,""ArrowDown,ArrowRight"":17}","false","ArrowDown,ArrowRight","false","original","1","2","","",""
"html-keyboard-response","120","622798","0.0-4.0-2.0-1.1","spark_pilot_norest","8338","5","14","Female","","","","","","","null","<div style=""font-size:60px;"">+</div>","null","fixation","","","","","","","","","3","","",""
"revaluation","121","626813","0.0-4.0-2.0-0.2","spark_pilot_norest","8338","5","14","Female","","false","","","","","[373.7000000476837]","./assets/img/canyon/catch/4.jpg","[""ArrowUp""]","value training","canyon","-10","{""ArrowUp,ArrowLeft"":26,""ArrowUp,ArrowRight"":10,""ArrowDown,ArrowLeft"":5,""ArrowDown,ArrowRight"":17}","false","ArrowUp","true","original","1","4","","",""
"html-keyboard-response","122","627323","0.0-4.0-2.0-1.2","spark_pilot_norest","8338","5","14","Female","","","","","","","null","<div style=""font-size:60px;"">+</div>","null","fixation","","","","","","","","","5","","",""
"revaluation","123","633358","0.0-4.0-2.0-0.3","spark_pilot_norest","8338","5","14","Female","","false","","","","","[533.3999998569489,378.19999980926514]","./assets/img/canyon/memory/34.jpg","[""ArrowUp"",""ArrowRight""]","value training","canyon","10","{""ArrowUp,ArrowLeft"":26,""ArrowUp,ArrowRight"":10,""ArrowDown,ArrowLeft"":5,""ArrowDown,ArrowRight"":17}","false","ArrowUp,ArrowRight","false","original","1","6","","",""
"html-keyboard-response","124","633877","0.0-4.0-2.0-1.3","spark_pilot_norest","8338","5","14","Female","","","","","","","null","<div style=""font-size:60px;"">+</div>","null","fixation","","","","","","","","","7","","",""
"revaluation","125","639892","0.0-4.0-2.0-0.4","spark_pilot_norest","8338","5","14","Female","","false","","","","","[569.7000000476837,263.2000000476837]","./assets/img/canyon/memory/27.jpg","[""ArrowUp"",""ArrowLeft""]","value training","canyon","26","{""ArrowUp,ArrowLeft"":26,""ArrowUp,ArrowRight"":10,""ArrowDown,ArrowLeft"":5,""ArrowDown,ArrowRight"":17}","true","ArrowUp,ArrowLeft","false","original","1","8","","",""
"html-keyboard-response","126","640393","0.0-4.0-2.0-1.4","spark_pilot_norest","8338","5","14","Female","","","","","","","null","<div style=""font-size:60px;"">+</div>","null","fixation","","","","","","","","","9","","",""
"revaluation","127","646398","0.0-4.0-2.0-0.5","spark_pilot_norest","8338","5","14","Female","","false","","","","","[373.69999980926514,360.7000000476837]","./assets/img/canyon/memory/29.jpg","[""ArrowUp"",""ArrowLeft""]","value training","canyon","26","{""ArrowUp,ArrowLeft"":26,""ArrowUp,ArrowRight"":10,""ArrowDown,ArrowLeft"":5,""ArrowDown,ArrowRight"":17}","true","ArrowUp,ArrowLeft","false","original","1","10","","",""
"html-keyboard-response","128","646901","0.0-4.0-2.0-1.5","spark_pilot_norest","8338","5","14","Female","","","","","","","null","<div style=""font-size:60px;"">+</div>","null","fixation","","","","","","","","","11","","",""
"revaluation","129","652907","0.0-4.0-2.0-0.6","spark_pilot_norest","8338","5","14","Female","","false","","","","","[568.9000000953674,372.5]","./assets/img/canyon/memory/23.jpg","[""ArrowUp"",""ArrowLeft""]","value training","canyon","26","{""ArrowUp,ArrowLeft"":26,""ArrowUp,ArrowRight"":10,""ArrowDown,ArrowLeft"":5,""ArrowDown,ArrowRight"":17}","true","ArrowUp,ArrowLeft","false","original","1","12","","",""
"html-keyboard-response","130","653408","0.0-4.0-2.0-1.6","spark_pilot_norest","8338","5","14","Female","","","","","","","null","<div style=""font-size:60px;"">+</div>","null","fixation","","","","","","","","","13","","",""
"revaluation","131","659416","0.0-4.0-2.0-0.7","spark_pilot_norest","8338","5","14","Female","","false","","","","","[428.09999990463257,433.2999999523163]","./assets/img/canyon/memory/34.jpg","[""ArrowUp"",""ArrowLeft""]","value training","canyon","26","{""ArrowUp,ArrowLeft"":26,""ArrowUp,ArrowRight"":10,""ArrowDown,ArrowLeft"":5,""ArrowDown,ArrowRight"":17}","true","ArrowUp,ArrowLeft","false","original","1","14","","",""
"html-keyboard-response","132","659918","0.0-4.0-2.0-1.7","spark_pilot_norest","8338","5","14","Female","","","","","","","null","<div style=""font-size:60px;"">+</div>","null","fixation","","","","","","","","","15","","",""
"revaluation","133","665926","0.0-4.0-2.0-0.8","spark_pilot_norest","8338","5","14","Female","","false","","","","","[510.59999990463257,459.89999985694885]","./assets/img/canyon/memory/6.jpg","[""ArrowUp"",""ArrowLeft""]","value training","canyon","26","{""ArrowUp,ArrowLeft"":26,""ArrowUp,ArrowRight"":10,""ArrowDown,ArrowLeft"":5,""ArrowDown,ArrowRight"":17}","true","ArrowUp,ArrowLeft","false","original","1","16","","",""
"html-keyboard-response","134","666428","0.0-4.0-2.0-1.8","spark_pilot_norest","8338","5","14","Female","","","","","","","null","<div style=""font-size:60px;"">+</div>","null","fixation","","","","","","","","","17","","",""
"revaluation","135","672436","0.0-4.0-2.0-0.9","spark_pilot_norest","8338","5","14","Female","","false","","","","","[640.2000000476837,659.5]","./assets/img/canyon/memory/26.jpg","[""ArrowUp"",""ArrowLeft""]","value training","canyon","26","{""ArrowUp,ArrowLeft"":26,""ArrowUp,ArrowRight"":10,""ArrowDown,ArrowLeft"":5,""ArrowDown,ArrowRight"":17}","true","ArrowUp,ArrowLeft","false","original","1","18","","",""
"html-keyboard-response","136","672938","0.0-4.0-2.0-1.9","spark_pilot_norest","8338","5","14","Female","","","","","","","null","<div style=""font-size:60px;"">+</div>","null","fixation","","","","","","","","","19","","",""
"revaluation","137","678942","0.0-4.0-2.0-0.10","spark_pilot_norest","8338","5","14","Female","","false","","","","","[644.9000000953674,915.3999998569489]","./assets/img/canyon/memory/33.jpg","[""ArrowUp"",""ArrowLeft""]","value training","canyon","26","{""ArrowUp,ArrowLeft"":26,""ArrowUp,ArrowRight"":10,""ArrowDown,ArrowLeft"":5,""ArrowDown,ArrowRight"":17}","true","ArrowUp,ArrowLeft","false","original","1","20","","",""
"html-keyboard-response","138","679444","0.0-4.0-2.0-1.10","spark_pilot_norest","8338","5","14","Female","","","","","","","null","<div style=""font-size:60px;"">+</div>","null","fixation","","","","","","","","","21","","",""
"revaluation","139","685449","0.0-4.0-2.0-0.11","spark_pilot_norest","8338","5","14","Female","","false","","","","","[347.2999999523163,256.89999985694885]","./assets/img/canyon/memory/27.jpg","[""ArrowUp"",""ArrowLeft""]","value training","canyon","26","{""ArrowUp,ArrowLeft"":26,""ArrowUp,ArrowRight"":10,""ArrowDown,ArrowLeft"":5,""ArrowDown,ArrowRight"":17}","true","ArrowUp,ArrowLeft","false","original","1","22","","",""
"html-keyboard-response","140","685951","0.0-4.0-2.0-1.11","spark_pilot_norest","8338","5","14","Female","","","","","","","null","<div style=""font-size:60px;"">+</div>","null","fixation","","","","","","","","","23","","",""
"revaluation","141","691958","0.0-4.0-2.0-0.12","spark_pilot_norest","8338","5","14","Female","","false","","","","","[517.7999999523163,346.59999990463257]","./assets/img/canyon/memory/7.jpg","[""ArrowUp"",""ArrowLeft""]","value training","canyon","26","{""ArrowUp,ArrowLeft"":26,""ArrowUp,ArrowRight"":10,""ArrowDown,ArrowLeft"":5,""ArrowDown,ArrowRight"":17}","true","ArrowUp,ArrowLeft","false","original","1","24","","",""
"html-keyboard-response","142","692474","0.0-4.0-2.0-1.12","spark_pilot_norest","8338","5","14","Female","","","","","","","null","<div style=""font-size:60px;"">+</div>","null","fixation","","","","","","","","","25","","",""
"revaluation","143","698479","0.0-4.0-2.0-0.13","spark_pilot_norest","8338","5","14","Female","","false","","","","","[114.5,176.70000004768372]","./assets/img/canyon/memory/41.jpg","[""ArrowUp"",""ArrowLeft""]","value training","canyon","26","{""ArrowUp,ArrowLeft"":26,""ArrowUp,ArrowRight"":10,""ArrowDown,ArrowLeft"":5,""ArrowDown,ArrowRight"":17}","true","ArrowUp,ArrowLeft","false","original","1","26","","",""
"html-keyboard-response","144","698980","0.0-4.0-2.0-1.13","spark_pilot_norest","8338","5","14","Female","","","","","","","null","<div style=""font-size:60px;"">+</div>","null","fixation","","","","","","","","","27","","",""
"revaluation","145","704989","0.0-4.0-2.0-0.14","spark_pilot_norest","8338","5","14","Female","","false","","","","","[595.4000000953674,569.1000001430511]","./assets/img/canyon/memory/23.jpg","[""ArrowUp"",""ArrowLeft""]","value training","canyon","26","{""ArrowUp,ArrowLeft"":26,""ArrowUp,ArrowRight"":10,""ArrowDown,ArrowLeft"":5,""ArrowDown,ArrowRight"":17}","true","ArrowUp,ArrowLeft","false","original","1","28","","",""
"html-keyboard-response","146","705491","0.0-4.0-2.0-1.14","spark_pilot_norest","8338","5","14","Female","","","","","","","null","<div style=""font-size:60px;"">+</div>","null","fixation","","","","","","","","","29","","",""
"revaluation","147","711497","0.0-4.0-2.0-0.15","spark_pilot_norest","8338","5","14","Female","","false","","","","","[557.5,349.7000000476837]","./assets/img/canyon/memory/16.jpg","[""ArrowUp"",""ArrowLeft""]","value training","canyon","26","{""ArrowUp,ArrowLeft"":26,""ArrowUp,ArrowRight"":10,""ArrowDown,ArrowLeft"":5,""ArrowDown,ArrowRight"":17}","true","ArrowUp,ArrowLeft","false","original","1","30","","",""
"html-keyboard-response","148","711999","0.0-4.0-2.0-1.15","spark_pilot_norest","8338","5","14","Female","","","","","","","null","<div style=""font-size:60px;"">+</div>","null","fixation","","","","","","","","","31","","",""
"revaluation","149","718006","0.0-4.0-2.0-0.16","spark_pilot_norest","8338","5","14","Female","","false","","","","","[455.2999999523163,626.6000001430511]","./assets/img/canyon/memory/1.jpg","[""ArrowUp"",""ArrowLeft""]","value training","canyon","26","{""ArrowUp,ArrowLeft"":26,""ArrowUp,ArrowRight"":10,""ArrowDown,ArrowLeft"":5,""ArrowDown,ArrowRight"":17}","true","ArrowUp,ArrowLeft","false","original","1","32","","",""
"html-keyboard-response","150","718508","0.0-4.0-2.0-1.16","spark_pilot_norest","8338","5","14","Female","","","","","","","null","<div style=""font-size:60px;"">+</div>","null","fixation","","","","","","","","","33","","",""
"revaluation","151","724514","0.0-4.0-2.0-0.17","spark_pilot_norest","8338","5","14","Female","","false","","","","","[414.5,1056.2000000476837]","./assets/img/canyon/memory/37.jpg","[""ArrowUp"",""ArrowLeft""]","value training","canyon","26","{""ArrowUp,ArrowLeft"":26,""ArrowUp,ArrowRight"":10,""ArrowDown,ArrowLeft"":5,""ArrowDown,ArrowRight"":17}","true","ArrowUp,ArrowLeft","false","original","1","34","","",""
"html-keyboard-response","152","725016","0.0-4.0-2.0-1.17","spark_pilot_norest","8338","5","14","Female","","","","","","","null","<div style=""font-size:60px;"">+</div>","null","fixation","","","","","","","","","35","","",""
"revaluation","153","729023","0.0-4.0-2.0-0.18","spark_pilot_norest","8338","5","14","Female","","false","","","","","[691.3999998569489]","./assets/img/canyon/catch/2.jpg","[""spaceBar""]","value training","canyon","0","{""ArrowUp,ArrowLeft"":26,""ArrowUp,ArrowRight"":10,""ArrowDown,ArrowLeft"":5,""ArrowDown,ArrowRight"":17}","true","spaceBar","true","original","1","36","","",""
"html-keyboard-response","154","729531","0.0-4.0-2.0-1.18","spark_pilot_norest","8338","5","14","Female","","","","","","","null","<div style=""font-size:60px;"">+</div>","null","fixation","","","","","","","","","37","","",""
"revaluation","155","735538","0.0-4.0-2.0-0.19","spark_pilot_norest","8338","5","14","Female","","false","","","","","[658.5,390.2999999523163]","./assets/img/canyon/memory/1.jpg","[""ArrowUp"",""ArrowLeft""]","value training","canyon","26","{""ArrowUp,ArrowLeft"":26,""ArrowUp,ArrowRight"":10,""ArrowDown,ArrowLeft"":5,""ArrowDown,ArrowRight"":17}","true","ArrowUp,ArrowLeft","false","original","1","38","","",""
"html-keyboard-response","156","736039","0.0-4.0-2.0-1.19","spark_pilot_norest","8338","5","14","Female","","","","","","","null","<div style=""font-size:60px;"">+</div>","null","fixation","","","","","","","","","39","","",""
"revaluation","157","742047","0.0-4.0-2.0-0.20","spark_pilot_norest","8338","5","14","Female","","false","","","","","[521.6999998092651,638.7000000476837]","./assets/img/canyon/memory/3.jpg","[""ArrowUp"",""ArrowLeft""]","value training","canyon","26","{""ArrowUp,ArrowLeft"":26,""ArrowUp,ArrowRight"":10,""ArrowDown,ArrowLeft"":5,""ArrowDown,ArrowRight"":17}","true","ArrowUp,ArrowLeft","false","original","1","40","","",""
"html-keyboard-response","158","742548","0.0-4.0-2.0-1.20","spark_pilot_norest","8338","5","14","Female","","","","","","","null","<div style=""font-size:60px;"">+</div>","null","fixation","","","","","","","","","41","","",""
"revaluation","159","748554","0.0-4.0-2.0-0.21","spark_pilot_norest","8338","5","14","Female","","false","","","","","[49.39999985694885,132.09999990463257]","./assets/img/canyon/memory/3.jpg","[""ArrowUp"",""ArrowLeft""]","value training","canyon","26","{""ArrowUp,ArrowLeft"":26,""ArrowUp,ArrowRight"":10,""ArrowDown,ArrowLeft"":5,""ArrowDown,ArrowRight"":17}","true","ArrowUp,ArrowLeft","false","original","1","42","","",""
"html-keyboard-response","160","749062","0.0-4.0-2.0-1.21","spark_pilot_norest","8338","5","14","Female","","","","","","","null","<div style=""font-size:60px;"">+</div>","null","fixation","","","","","","","","","43","","",""
"revaluation","161","753068","0.0-4.0-2.0-0.22","spark_pilot_norest","8338","5","14","Female","","false","","","","","[484.5]","./assets/img/canyon/catch/3.jpg","[""spaceBar""]","value training","canyon","0","{""ArrowUp,ArrowLeft"":26,""ArrowUp,ArrowRight"":10,""ArrowDown,ArrowLeft"":5,""ArrowDown,ArrowRight"":17}","true","spaceBar","true","original","1","44","","",""
"html-keyboard-response","162","753570","0.0-4.0-2.0-1.22","spark_pilot_norest","8338","5","14","Female","","","","","","","null","<div style=""font-size:60px;"">+</div>","null","fixation","","","","","","","","","45","","",""
"revaluation","163","759576","0.0-4.0-2.0-0.23","spark_pilot_norest","8338","5","14","Female","","false","","","","","[903.2000000476837,356.7000000476837]","./assets/img/canyon/memory/26.jpg","[""ArrowUp"",""ArrowLeft""]","value training","canyon","26","{""ArrowUp,ArrowLeft"":26,""ArrowUp,ArrowRight"":10,""ArrowDown,ArrowLeft"":5,""ArrowDown,ArrowRight"":17}","true","ArrowUp,ArrowLeft","false","original","1","46","","",""
"html-keyboard-response","164","760077","0.0-4.0-2.0-1.23","spark_pilot_norest","8338","5","14","Female","","","","","","","null","<div style=""font-size:60px;"">+</div>","null","fixation","","","","","","","","","47","","",""
"revaluation","165","766085","0.0-4.0-2.0-0.24","spark_pilot_norest","8338","5","14","Female","","false","","","","","[521,263.09999990463257]","./assets/img/canyon/memory/13.jpg","[""ArrowUp"",""ArrowLeft""]","value training","canyon","26","{""ArrowUp,ArrowLeft"":26,""ArrowUp,ArrowRight"":10,""ArrowDown,ArrowLeft"":5,""ArrowDown,ArrowRight"":17}","true","ArrowUp,ArrowLeft","false","original","1","48","","",""
"html-keyboard-response","166","766587","0.0-4.0-2.0-1.24","spark_pilot_norest","8338","5","14","Female","","","","","","","null","<div style=""font-size:60px;"">+</div>","null","fixation","","","","","","","","","49","","",""
"revaluation","167","770593","0.0-4.0-2.0-0.25","spark_pilot_norest","8338","5","14","Female","","false","","","","","[534.7999999523163]","./assets/img/canyon/catch/0.jpg","[""spaceBar""]","value training","canyon","0","{""ArrowUp,ArrowLeft"":26,""ArrowUp,ArrowRight"":10,""ArrowDown,ArrowLeft"":5,""ArrowDown,ArrowRight"":17}","true","spaceBar","true","original","1","50","","",""
"html-keyboard-response","168","771095","0.0-4.0-2.0-1.25","spark_pilot_norest","8338","5","14","Female","","","","","","","null","<div style=""font-size:60px;"">+</div>","null","fixation","","","","","","","","","51","","",""
"revaluation","169","777102","0.0-4.0-2.0-0.26","spark_pilot_norest","8338","5","14","Female","","false","","","","","[568.2000000476837,476.2000000476837]","./assets/img/canyon/memory/16.jpg","[""ArrowUp"",""ArrowLeft""]","value training","canyon","26","{""ArrowUp,ArrowLeft"":26,""ArrowUp,ArrowRight"":10,""ArrowDown,ArrowLeft"":5,""ArrowDown,ArrowRight"":17}","true","ArrowUp,ArrowLeft","false","original","1","52","","",""
"html-keyboard-response","170","777603","0.0-4.0-2.0-1.26","spark_pilot_norest","8338","5","14","Female","","","","","","","null","<div style=""font-size:60px;"">+</div>","null","fixation","","","","","","","","","53","","",""
"revaluation","171","783611","0.0-4.0-2.0-0.27","spark_pilot_norest","8338","5","14","Female","","false","","","","","[645.0999999046326,329.7000000476837]","./assets/img/canyon/memory/41.jpg","[""ArrowUp"",""ArrowLeft""]","value training","canyon","26","{""ArrowUp,ArrowLeft"":26,""ArrowUp,ArrowRight"":10,""ArrowDown,ArrowLeft"":5,""ArrowDown,ArrowRight"":17}","true","ArrowUp,ArrowLeft","false","original","1","54","","",""
"html-keyboard-response","172","784113","0.0-4.0-2.0-1.27","spark_pilot_norest","8338","5","14","Female","","","","","","","null","<div style=""font-size:60px;"">+</div>","null","fixation","","","","","","","","","55","","",""
"revaluation","173","790119","0.0-4.0-2.0-0.28","spark_pilot_norest","8338","5","14","Female","","false","","","","","[611.0999999046326,426.2999999523163]","./assets/img/canyon/memory/12.jpg","[""ArrowUp"",""ArrowLeft""]","value training","canyon","26","{""ArrowUp,ArrowLeft"":26,""ArrowUp,ArrowRight"":10,""ArrowDown,ArrowLeft"":5,""ArrowDown,ArrowRight"":17}","true","ArrowUp,ArrowLeft","false","original","1","56","","",""
"html-keyboard-response","174","790621","0.0-4.0-2.0-1.28","spark_pilot_norest","8338","5","14","Female","","","","","","","null","<div style=""font-size:60px;"">+</div>","null","fixation","","","","","","","","","57","","",""
"revaluation","175","796628","0.0-4.0-2.0-0.29","spark_pilot_norest","8338","5","14","Female","","false","","","","","[544.7000000476837,635]","./assets/img/canyon/memory/36.jpg","[""ArrowUp"",""ArrowLeft""]","value training","canyon","26","{""ArrowUp,ArrowLeft"":26,""ArrowUp,ArrowRight"":10,""ArrowDown,ArrowLeft"":5,""ArrowDown,ArrowRight"":17}","true","ArrowUp,ArrowLeft","false","original","1","58","","",""
"html-keyboard-response","176","797131","0.0-4.0-2.0-1.29","spark_pilot_norest","8338","5","14","Female","","","","","","","null","<div style=""font-size:60px;"">+</div>","null","fixation","","","","","","","","","59","","",""
"revaluation","177","803139","0.0-4.0-2.0-0.30","spark_pilot_norest","8338","5","14","Female","","false","","","","","[512.2000000476837,799]","./assets/img/canyon/memory/29.jpg","[""ArrowUp"",""ArrowLeft""]","value training","canyon","26","{""ArrowUp,ArrowLeft"":26,""ArrowUp,ArrowRight"":10,""ArrowDown,ArrowLeft"":5,""ArrowDown,ArrowRight"":17}","true","ArrowUp,ArrowLeft","false","original","1","60","","",""
"html-keyboard-response","178","803640","0.0-4.0-2.0-1.30","spark_pilot_norest","8338","5","14","Female","","","","","","","null","<div style=""font-size:60px;"">+</div>","null","fixation","","","","","","","","","61","","",""
"revaluation","179","809646","0.0-4.0-2.0-0.31","spark_pilot_norest","8338","5","14","Female","","false","","","","","[523.2999999523163,506.2000000476837]","./assets/img/canyon/memory/8.jpg","[""ArrowUp"",""ArrowLeft""]","value training","canyon","26","{""ArrowUp,ArrowLeft"":26,""ArrowUp,ArrowRight"":10,""ArrowDown,ArrowLeft"":5,""ArrowDown,ArrowRight"":17}","true","ArrowUp,ArrowLeft","false","original","1","62","","",""
"html-keyboard-response","180","810148","0.0-4.0-2.0-1.31","spark_pilot_norest","8338","5","14","Female","","","","","","","null","<div style=""font-size:60px;"">+</div>","null","fixation","","","","","","","","","63","","",""
"revaluation","181","816155","0.0-4.0-2.0-0.32","spark_pilot_norest","8338","5","14","Female","","false","","","","","[444.2999999523163,461.59999990463257]","./assets/img/canyon/memory/7.jpg","[""ArrowUp"",""ArrowLeft""]","value training","canyon","26","{""ArrowUp,ArrowLeft"":26,""ArrowUp,ArrowRight"":10,""ArrowDown,ArrowLeft"":5,""ArrowDown,ArrowRight"":17}","true","ArrowUp,ArrowLeft","false","original","1","64","","",""
"html-keyboard-response","182","816663","0.0-4.0-2.0-1.32","spark_pilot_norest","8338","5","14","Female","","","","","","","null","<div style=""font-size:60px;"">+</div>","null","fixation","","","","","","","","","65","","",""
"revaluation","183","822671","0.0-4.0-2.0-0.33","spark_pilot_norest","8338","5","14","Female","","false","","","","","[431.39999985694885,588.7000000476837]","./assets/img/canyon/memory/28.jpg","[""ArrowUp"",""ArrowLeft""]","value training","canyon","26","{""ArrowUp,ArrowLeft"":26,""ArrowUp,ArrowRight"":10,""ArrowDown,ArrowLeft"":5,""ArrowDown,ArrowRight"":17}","true","ArrowUp,ArrowLeft","false","original","1","66","","",""
"html-keyboard-response","184","823173","0.0-4.0-2.0-1.33","spark_pilot_norest","8338","5","14","Female","","","","","","","null","<div style=""font-size:60px;"">+</div>","null","fixation","","","","","","","","","67","","",""
"revaluation","185","829181","0.0-4.0-2.0-0.34","spark_pilot_norest","8338","5","14","Female","","false","","","","","[439.80000019073486,685.2999999523163]","./assets/img/canyon/memory/36.jpg","[""ArrowUp"",""ArrowLeft""]","value training","canyon","26","{""ArrowUp,ArrowLeft"":26,""ArrowUp,ArrowRight"":10,""ArrowDown,ArrowLeft"":5,""ArrowDown,ArrowRight"":17}","true","ArrowUp,ArrowLeft","false","original","1","68","","",""
"html-keyboard-response","186","829683","0.0-4.0-2.0-1.34","spark_pilot_norest","8338","5","14","Female","","","","","","","null","<div style=""font-size:60px;"">+</div>","null","fixation","","","","","","","","","69","","",""
"revaluation","187","835701","0.0-4.0-2.0-0.35","spark_pilot_norest","8338","5","14","Female","","false","","","","","[586.2999999523163,594.9000000953674]","./assets/img/canyon/memory/18.jpg","[""ArrowUp"",""ArrowLeft""]","value training","canyon","26","{""ArrowUp,ArrowLeft"":26,""ArrowUp,ArrowRight"":10,""ArrowDown,ArrowLeft"":5,""ArrowDown,ArrowRight"":17}","true","ArrowUp,ArrowLeft","false","original","1","70","","",""
"html-keyboard-response","188","836203","0.0-4.0-2.0-1.35","spark_pilot_norest","8338","5","14","Female","","","","","","","null","<div style=""font-size:60px;"">+</div>","null","fixation","","","","","","","","","71","","",""
"revaluation","189","842208","0.0-4.0-2.0-0.36","spark_pilot_norest","8338","5","14","Female","","true","","","","","[1248.1000001430511]","./assets/img/canyon/memory/2.jpg","[""ArrowUp""]","value training","canyon","-5","{""ArrowUp,ArrowLeft"":26,""ArrowUp,ArrowRight"":10,""ArrowDown,ArrowLeft"":5,""ArrowDown,ArrowRight"":17}","false","ArrowUp","false","original","1","72","","",""
"html-keyboard-response","190","842710","0.0-4.0-2.0-1.36","spark_pilot_norest","8338","5","14","Female","","","","","","","null","<div style=""font-size:60px;"">+</div>","null","fixation","","","","","","","","","73","","",""
"revaluation","191","846718","0.0-4.0-2.0-0.37","spark_pilot_norest","8338","5","14","Female","","false","","","","","[974.3999998569489]","./assets/img/canyon/catch/1.jpg","[""spaceBar""]","value training","canyon","0","{""ArrowUp,ArrowLeft"":26,""ArrowUp,ArrowRight"":10,""ArrowDown,ArrowLeft"":5,""ArrowDown,ArrowRight"":17}","true","spaceBar","true","original","1","74","","",""
"html-keyboard-response","192","847220","0.0-4.0-2.0-1.37","spark_pilot_norest","8338","5","14","Female","","","","","","","null","<div style=""font-size:60px;"">+</div>","null","fixation","","","","","","","","","75","","",""
"revaluation","193","853227","0.0-4.0-2.0-0.38","spark_pilot_norest","8338","5","14","Female","","false","","","","","[581.0999999046326,398.40000009536743]","./assets/img/canyon/memory/37.jpg","[""ArrowUp"",""ArrowLeft""]","value training","canyon","26","{""ArrowUp,ArrowLeft"":26,""ArrowUp,ArrowRight"":10,""ArrowDown,ArrowLeft"":5,""ArrowDown,ArrowRight"":17}","true","ArrowUp,ArrowLeft","false","original","1","76","","",""
"html-keyboard-response","194","853738","0.0-4.0-2.0-1.38","spark_pilot_norest","8338","5","14","Female","","","","","","","null","<div style=""font-size:60px;"">+</div>","null","fixation","","","","","","","","","77","","",""
"revaluation","195","859747","0.0-4.0-2.0-0.39","spark_pilot_norest","8338","5","14","Female","","false","","","","","[402.2000000476837,1070.1000001430511]","./assets/img/canyon/memory/28.jpg","[""ArrowUp"",""ArrowLeft""]","value training","canyon","26","{""ArrowUp,ArrowLeft"":26,""ArrowUp,ArrowRight"":10,""ArrowDown,ArrowLeft"":5,""ArrowDown,ArrowRight"":17}","true","ArrowUp,ArrowLeft","false","original","1","78","","",""
"html-keyboard-response","196","860248","0.0-4.0-2.0-1.39","spark_pilot_norest","8338","5","14","Female","","","","","","","null","<div style=""font-size:60px;"">+</div>","null","fixation","","","","","","","","","79","","",""
"revaluation","197","866256","0.0-4.0-2.0-0.40","spark_pilot_norest","8338","5","14","Female","","false","","","","","[1194,682.1999998092651]","./assets/img/canyon/memory/9.jpg","[""ArrowUp"",""ArrowLeft""]","value training","canyon","26","{""ArrowUp,ArrowLeft"":26,""ArrowUp,ArrowRight"":10,""ArrowDown,ArrowLeft"":5,""ArrowDown,ArrowRight"":17}","true","ArrowUp,ArrowLeft","false","original","1","80","","",""
"html-keyboard-response","198","866759","0.0-4.0-2.0-1.40","spark_pilot_norest","8338","5","14","Female","","","","","","","null","<div style=""font-size:60px;"">+</div>","null","fixation","","","","","","","","","81","","",""
"revaluation","199","872767","0.0-4.0-2.0-0.41","spark_pilot_norest","8338","5","14","Female","","false","","","","","[756.7999999523163,1463.7999999523163]","./assets/img/canyon/memory/9.jpg","[""ArrowUp"",""ArrowLeft""]","value training","canyon","26","{""ArrowUp,ArrowLeft"":26,""ArrowUp,ArrowRight"":10,""ArrowDown,ArrowLeft"":5,""ArrowDown,ArrowRight"":17}","true","ArrowUp,ArrowLeft","false","original","1","82","","",""
"html-keyboard-response","200","873270","0.0-4.0-2.0-1.41","spark_pilot_norest","8338","5","14","Female","","","","","","","null","<div style=""font-size:60px;"">+</div>","null","fixation","","","","","","","","","83","","",""
"revaluation","201","879276","0.0-4.0-2.0-0.42","spark_pilot_norest","8338","5","14","Female","","false","","","","","[470.5,275.09999990463257]","./assets/img/canyon/memory/18.jpg","[""ArrowUp"",""ArrowLeft""]","value training","canyon","26","{""ArrowUp,ArrowLeft"":26,""ArrowUp,ArrowRight"":10,""ArrowDown,ArrowLeft"":5,""ArrowDown,ArrowRight"":17}","true","ArrowUp,ArrowLeft","false","original","1","84","","",""
"html-keyboard-response","202","879777","0.0-4.0-2.0-1.42","spark_pilot_norest","8338","5","14","Female","","","","","","","null","<div style=""font-size:60px;"">+</div>","null","fixation","","","","","","","","","85","","",""
"revaluation","203","885784","0.0-4.0-2.0-0.43","spark_pilot_norest","8338","5","14","Female","","false","","","","","[376,1041.5]","./assets/img/canyon/memory/33.jpg","[""ArrowUp"",""ArrowLeft""]","value training","canyon","26","{""ArrowUp,ArrowLeft"":26,""ArrowUp,ArrowRight"":10,""ArrowDown,ArrowLeft"":5,""ArrowDown,ArrowRight"":17}","true","ArrowUp,ArrowLeft","false","original","1","86","","",""
"html-keyboard-response","204","886286","0.0-4.0-2.0-1.43","spark_pilot_norest","8338","5","14","Female","","","","","","","null","<div style=""font-size:60px;"">+</div>","null","fixation","","","","","","","","","87","","",""
"revaluation","205","890288","0.0-4.0-2.0-0.44","spark_pilot_norest","8338","5","14","Female","","false","","","","","[526.2999999523163]","./assets/img/canyon/catch/6.jpg","[""spaceBar""]","value training","canyon","0","{""ArrowUp,ArrowLeft"":26,""ArrowUp,ArrowRight"":10,""ArrowDown,ArrowLeft"":5,""ArrowDown,ArrowRight"":17}","true","spaceBar","true","original","1","88","","",""
"html-keyboard-response","206","890790","0.0-4.0-2.0-1.44","spark_pilot_norest","8338","5","14","Female","","","","","","","null","<div style=""font-size:60px;"">+</div>","null","fixation","","","","","","","","","89","","",""
"revaluation","207","896797","0.0-4.0-2.0-0.45","spark_pilot_norest","8338","5","14","Female","","false","","","","","[450.10000014305115,514]","./assets/img/canyon/memory/13.jpg","[""ArrowUp"",""ArrowLeft""]","value training","canyon","26","{""ArrowUp,ArrowLeft"":26,""ArrowUp,ArrowRight"":10,""ArrowDown,ArrowLeft"":5,""ArrowDown,ArrowRight"":17}","true","ArrowUp,ArrowLeft","false","original","1","90","","",""
"html-keyboard-response","208","897299","0.0-4.0-2.0-1.45","spark_pilot_norest","8338","5","14","Female","","","","","","","null","<div style=""font-size:60px;"">+</div>","null","fixation","","","","","","","","","91","","",""
"revaluation","209","903310","0.0-4.0-2.0-0.46","spark_pilot_norest","8338","5","14","Female","","false","","","","","[916.1000001430511,1015.3999998569489]","./assets/img/canyon/memory/12.jpg","[""ArrowUp"",""ArrowLeft""]","value training","canyon","26","{""ArrowUp,ArrowLeft"":26,""ArrowUp,ArrowRight"":10,""ArrowDown,ArrowLeft"":5,""ArrowDown,ArrowRight"":17}","true","ArrowUp,ArrowLeft","false","original","1","92","","",""
"html-keyboard-response","210","903813","0.0-4.0-2.0-1.46","spark_pilot_norest","8338","5","14","Female","","","","","","","null","<div style=""font-size:60px;"">+</div>","null","fixation","","","","","","","","","93","","",""
"revaluation","211","909821","0.0-4.0-2.0-0.47","spark_pilot_norest","8338","5","14","Female","","false","","","","","[700.9000000953674,1373]","./assets/img/canyon/memory/6.jpg","[""ArrowUp"",""ArrowLeft""]","value training","canyon","26","{""ArrowUp,ArrowLeft"":26,""ArrowUp,ArrowRight"":10,""ArrowDown,ArrowLeft"":5,""ArrowDown,ArrowRight"":17}","true","ArrowUp,ArrowLeft","false","original","1","94","","",""
"html-keyboard-response","212","910323","0.0-4.0-2.0-1.47","spark_pilot_norest","8338","5","14","Female","","","","","","","null","<div style=""font-size:60px;"">+</div>","null","fixation","","","","","","","","","95","","",""
"revaluation","213","914327","0.0-4.0-2.0-0.48","spark_pilot_norest","8338","5","14","Female","","false","","","","","[924]","./assets/img/canyon/catch/7.jpg","[""spaceBar""]","value training","canyon","0","{""ArrowUp,ArrowLeft"":26,""ArrowUp,ArrowRight"":10,""ArrowDown,ArrowLeft"":5,""ArrowDown,ArrowRight"":17}","true","spaceBar","true","original","1","96","","",""
"html-keyboard-response","214","914828","0.0-4.0-2.0-1.48","spark_pilot_norest","8338","5","14","Female","","","","","","","null","<div style=""font-size:60px;"">+</div>","null","fixation","","","","","","","","","97","","",""
"revaluation","215","918834","0.0-4.0-2.0-0.49","spark_pilot_norest","8338","5","14","Female","","false","","","","","[962.5]","./assets/img/canyon/catch/5.jpg","[""spaceBar""]","value training","canyon","0","{""ArrowUp,ArrowLeft"":26,""ArrowUp,ArrowRight"":10,""ArrowDown,ArrowLeft"":5,""ArrowDown,ArrowRight"":17}","true","spaceBar","true","original","1","98","","",""
"html-keyboard-response","216","919349","0.0-4.0-2.0-1.49","spark_pilot_norest","8338","5","14","Female","","","","","","","null","<div style=""font-size:60px;"">+</div>","null","fixation","","","","","","","","","99","","",""
"learning-instructions","217","938284","0.0-4.0-3.0-0.0","spark_pilot_norest","8338","5","14","Female","","","","","","","5463.700000047684","<p> Now, you will travel with a friend who will choose whether you go up or down first. </p>
            <p> On these turns, you will just see the animal that they found. You will still get to choose which chest to search for treasure.</p>","","instructions","","","","","","","","","","","",""
"revaluation","218","942317","0.0-4.0-4.0-0.0","spark_pilot_norest","8338","5","14","Female","","false","","","","","[1585.0999999046326]","./assets/img/canyon/animals/giraffe.jpg","[""ArrowLeft""]","revaluation","canyon","5","{""ArrowUp,ArrowLeft"":26,""ArrowUp,ArrowRight"":10,""ArrowDown,ArrowLeft"":5,""ArrowDown,ArrowRight"":17}","false","ArrowDown,ArrowLeft","","original","1","0","","",""
"html-keyboard-response","219","942827","0.0-4.0-4.0-1.0","spark_pilot_norest","8338","5","14","Female","","","","","","","null","<div style=""font-size:60px;"">+</div>","null","fixation","","","","","","","","","1","","",""
"revaluation","220","946848","0.0-4.0-4.0-0.1","spark_pilot_norest","8338","5","14","Female","","false","","","","","[430.7000000476837]","./assets/img/canyon/animals/giraffe.jpg","[""ArrowRight""]","revaluation","canyon","17","{""ArrowUp,ArrowLeft"":26,""ArrowUp,ArrowRight"":10,""ArrowDown,ArrowLeft"":5,""ArrowDown,ArrowRight"":17}","true","ArrowDown,ArrowRight","","original","1","2","","",""
"html-keyboard-response","221","947353","0.0-4.0-4.0-1.1","spark_pilot_norest","8338","5","14","Female","","","","","","","null","<div style=""font-size:60px;"">+</div>","null","fixation","","","","","","","","","3","","",""
"revaluation","222","951367","0.0-4.0-4.0-0.2","spark_pilot_norest","8338","5","14","Female","","false","","","","","[558.8999998569489]","./assets/img/canyon/animals/giraffe.jpg","[""ArrowRight""]","revaluation","canyon","17","{""ArrowUp,ArrowLeft"":26,""ArrowUp,ArrowRight"":10,""ArrowDown,ArrowLeft"":5,""ArrowDown,ArrowRight"":17}","true","ArrowDown,ArrowRight","","original","1","4","","",""
"html-keyboard-response","223","951877","0.0-4.0-4.0-1.2","spark_pilot_norest","8338","5","14","Female","","","","","","","null","<div style=""font-size:60px;"">+</div>","null","fixation","","","","","","","","","5","","",""
"revaluation","224","955898","0.0-4.0-4.0-0.3","spark_pilot_norest","8338","5","14","Female","","false","","","","","[647]","./assets/img/canyon/animals/lion.jpg","[""ArrowLeft""]","revaluation","canyon","26","{""ArrowUp,ArrowLeft"":26,""ArrowUp,ArrowRight"":10,""ArrowDown,ArrowLeft"":5,""ArrowDown,ArrowRight"":17}","true","ArrowUp,ArrowLeft","","original","1","6","","",""
"html-keyboard-response","225","956407","0.0-4.0-4.0-1.3","spark_pilot_norest","8338","5","14","Female","","","","","","","null","<div style=""font-size:60px;"">+</div>","null","fixation","","","","","","","","","7","","",""
"revaluation","226","960428","0.0-4.0-4.0-0.4","spark_pilot_norest","8338","5","14","Female","","false","","","","","[290]","./assets/img/canyon/animals/lion.jpg","[""ArrowRight""]","revaluation","canyon","10","{""ArrowUp,ArrowLeft"":26,""ArrowUp,ArrowRight"":10,""ArrowDown,ArrowLeft"":5,""ArrowDown,ArrowRight"":17}","false","ArrowUp,ArrowRight","","original","1","8","","",""
"html-keyboard-response","227","960937","0.0-4.0-4.0-1.4","spark_pilot_norest","8338","5","14","Female","","","","","","","null","<div style=""font-size:60px;"">+</div>","null","fixation","","","","","","","","","9","","",""
"revaluation","228","964948","0.0-4.0-4.0-0.5","spark_pilot_norest","8338","5","14","Female","","false","","","","","[644.4000000953674]","./assets/img/canyon/animals/lion.jpg","[""ArrowLeft""]","revaluation","canyon","26","{""ArrowUp,ArrowLeft"":26,""ArrowUp,ArrowRight"":10,""ArrowDown,ArrowLeft"":5,""ArrowDown,ArrowRight"":17}","true","ArrowUp,ArrowLeft","","original","1","10","","",""
"html-keyboard-response","229","965450","0.0-4.0-4.0-1.5","spark_pilot_norest","8338","5","14","Female","","","","","","","null","<div style=""font-size:60px;"">+</div>","null","fixation","","","","","","","","","11","","",""
"revaluation","230","969457","0.0-4.0-4.0-0.6","spark_pilot_norest","8338","5","14","Female","","false","","","","","[604.3999998569489]","./assets/img/canyon/animals/lion.jpg","[""ArrowLeft""]","revaluation","canyon","26","{""ArrowUp,ArrowLeft"":26,""ArrowUp,ArrowRight"":10,""ArrowDown,ArrowLeft"":5,""ArrowDown,ArrowRight"":17}","true","ArrowUp,ArrowLeft","","original","1","12","","",""
"html-keyboard-response","231","969959","0.0-4.0-4.0-1.6","spark_pilot_norest","8338","5","14","Female","","","","","","","null","<div style=""font-size:60px;"">+</div>","null","fixation","","","","","","","","","13","","",""
"revaluation","232","973966","0.0-4.0-4.0-0.7","spark_pilot_norest","8338","5","14","Female","","false","","","","","[405]","./assets/img/canyon/animals/lion.jpg","[""ArrowLeft""]","revaluation","canyon","26","{""ArrowUp,ArrowLeft"":26,""ArrowUp,ArrowRight"":10,""ArrowDown,ArrowLeft"":5,""ArrowDown,ArrowRight"":17}","true","ArrowUp,ArrowLeft","","original","1","14","","",""
"html-keyboard-response","233","974467","0.0-4.0-4.0-1.7","spark_pilot_norest","8338","5","14","Female","","","","","","","null","<div style=""font-size:60px;"">+</div>","null","fixation","","","","","","","","","15","","",""
"revaluation","234","978475","0.0-4.0-4.0-0.8","spark_pilot_norest","8338","5","14","Female","","false","","","","","[521.6999998092651]","./assets/img/canyon/animals/giraffe.jpg","[""ArrowRight""]","revaluation","canyon","17","{""ArrowUp,ArrowLeft"":26,""ArrowUp,ArrowRight"":10,""ArrowDown,ArrowLeft"":5,""ArrowDown,ArrowRight"":17}","true","ArrowDown,ArrowRight","","original","1","16","","",""
"html-keyboard-response","235","978977","0.0-4.0-4.0-1.8","spark_pilot_norest","8338","5","14","Female","","","","","","","null","<div style=""font-size:60px;"">+</div>","null","fixation","","","","","","","","","17","","",""
"revaluation","236","982985","0.0-4.0-4.0-0.9","spark_pilot_norest","8338","5","14","Female","","false","","","","","[562.9000000953674]","./assets/img/canyon/animals/lion.jpg","[""ArrowLeft""]","revaluation","canyon","26","{""ArrowUp,ArrowLeft"":26,""ArrowUp,ArrowRight"":10,""ArrowDown,ArrowLeft"":5,""ArrowDown,ArrowRight"":17}","true","ArrowUp,ArrowLeft","","original","1","18","","",""
"html-keyboard-response","237","983488","0.0-4.0-4.0-1.9","spark_pilot_norest","8338","5","14","Female","","","","","","","null","<div style=""font-size:60px;"">+</div>","null","fixation","","","","","","","","","19","","",""
"revaluation","238","987503","0.0-4.0-4.0-0.10","spark_pilot_norest","8338","5","14","Female","","false","","","","","[592]","./assets/img/canyon/animals/giraffe.jpg","[""ArrowRight""]","revaluation","canyon","17","{""ArrowUp,ArrowLeft"":26,""ArrowUp,ArrowRight"":10,""ArrowDown,ArrowLeft"":5,""ArrowDown,ArrowRight"":17}","true","ArrowDown,ArrowRight","","original","1","20","","",""
"html-keyboard-response","239","988006","0.0-4.0-4.0-1.10","spark_pilot_norest","8338","5","14","Female","","","","","","","null","<div style=""font-size:60px;"">+</div>","null","fixation","","","","","","","","","21","","",""
"revaluation","240","992014","0.0-4.0-4.0-0.11","spark_pilot_norest","8338","5","14","Female","","false","","","","","[744.0999999046326]","./assets/img/canyon/animals/giraffe.jpg","[""ArrowRight""]","revaluation","canyon","17","{""ArrowUp,ArrowLeft"":26,""ArrowUp,ArrowRight"":10,""ArrowDown,ArrowLeft"":5,""ArrowDown,ArrowRight"":17}","true","ArrowDown,ArrowRight","","original","1","22","","",""
"html-keyboard-response","241","992516","0.0-4.0-4.0-1.11","spark_pilot_norest","8338","5","14","Female","","","","","","","null","<div style=""font-size:60px;"">+</div>","null","fixation","","","","","","","","","23","","",""
"revaluation","242","996524","0.0-4.0-4.0-0.12","spark_pilot_norest","8338","5","14","Female","","false","","","","","[481]","./assets/img/canyon/animals/giraffe.jpg","[""ArrowRight""]","revaluation","canyon","17","{""ArrowUp,ArrowLeft"":26,""ArrowUp,ArrowRight"":10,""ArrowDown,ArrowLeft"":5,""ArrowDown,ArrowRight"":17}","true","ArrowDown,ArrowRight","","original","1","24","","",""
"html-keyboard-response","243","997026","0.0-4.0-4.0-1.12","spark_pilot_norest","8338","5","14","Female","","","","","","","null","<div style=""font-size:60px;"">+</div>","null","fixation","","","","","","","","","25","","",""
"revaluation","244","1001034","0.0-4.0-4.0-0.13","spark_pilot_norest","8338","5","14","Female","","false","","","","","[685.2000000476837]","./assets/img/canyon/animals/giraffe.jpg","[""ArrowRight""]","revaluation","canyon","17","{""ArrowUp,ArrowLeft"":26,""ArrowUp,ArrowRight"":10,""ArrowDown,ArrowLeft"":5,""ArrowDown,ArrowRight"":17}","true","ArrowDown,ArrowRight","","original","1","26","","",""
"html-keyboard-response","245","1001535","0.0-4.0-4.0-1.13","spark_pilot_norest","8338","5","14","Female","","","","","","","null","<div style=""font-size:60px;"">+</div>","null","fixation","","","","","","","","","27","","",""
"revaluation","246","1005542","0.0-4.0-4.0-0.14","spark_pilot_norest","8338","5","14","Female","","false","","","","","[743.5]","./assets/img/canyon/animals/giraffe.jpg","[""ArrowRight""]","revaluation","canyon","17","{""ArrowUp,ArrowLeft"":26,""ArrowUp,ArrowRight"":10,""ArrowDown,ArrowLeft"":5,""ArrowDown,ArrowRight"":17}","true","ArrowDown,ArrowRight","","original","1","28","","",""
"html-keyboard-response","247","1006044","0.0-4.0-4.0-1.14","spark_pilot_norest","8338","5","14","Female","","","","","","","null","<div style=""font-size:60px;"">+</div>","null","fixation","","","","","","","","","29","","",""
"revaluation","248","1010049","0.0-4.0-4.0-0.15","spark_pilot_norest","8338","5","14","Female","","false","","","","","[750.8999998569489]","./assets/img/canyon/animals/lion.jpg","[""ArrowLeft""]","revaluation","canyon","26","{""ArrowUp,ArrowLeft"":26,""ArrowUp,ArrowRight"":10,""ArrowDown,ArrowLeft"":5,""ArrowDown,ArrowRight"":17}","true","ArrowUp,ArrowLeft","","original","1","30","","",""
"html-keyboard-response","249","1010551","0.0-4.0-4.0-1.15","spark_pilot_norest","8338","5","14","Female","","","","","","","null","<div style=""font-size:60px;"">+</div>","null","fixation","","","","","","","","","31","","",""
"revaluation","250","1014558","0.0-4.0-4.0-0.16","spark_pilot_norest","8338","5","14","Female","","false","","","","","[615.8999998569489]","./assets/img/canyon/animals/lion.jpg","[""ArrowRight""]","revaluation","canyon","10","{""ArrowUp,ArrowLeft"":26,""ArrowUp,ArrowRight"":10,""ArrowDown,ArrowLeft"":5,""ArrowDown,ArrowRight"":17}","false","ArrowUp,ArrowRight","","original","1","32","","",""
"html-keyboard-response","251","1015060","0.0-4.0-4.0-1.16","spark_pilot_norest","8338","5","14","Female","","","","","","","null","<div style=""font-size:60px;"">+</div>","null","fixation","","","","","","","","","33","","",""
"revaluation","252","1019067","0.0-4.0-4.0-0.17","spark_pilot_norest","8338","5","14","Female","","false","","","","","[585]","./assets/img/canyon/animals/lion.jpg","[""ArrowLeft""]","revaluation","canyon","26","{""ArrowUp,ArrowLeft"":26,""ArrowUp,ArrowRight"":10,""ArrowDown,ArrowLeft"":5,""ArrowDown,ArrowRight"":17}","true","ArrowUp,ArrowLeft","","original","1","34","","",""
"html-keyboard-response","253","1019569","0.0-4.0-4.0-1.17","spark_pilot_norest","8338","5","14","Female","","","","","","","null","<div style=""font-size:60px;"">+</div>","null","fixation","","","","","","","","","35","","",""
"learning-instructions","254","1028269","0.0-4.0-5.0-0.0","spark_pilot_norest","8338","5","14","Female","","","","","","","null","<p> You have almost finished this part of the game! </p>
            <p> We are going to ask you to make a few more choices. </p>","","instructions","","","","","","","","","","","",""
"learning-instructions","255","1044249","0.0-4.0-5.0-0.1","spark_pilot_norest","8338","5","14","Female","","","","","","","null","<p> First, you need to decide whether to go up or down. When you see each picture, use the arrow keys to make your choice. </p>
            <p><b>You will not see which animal you found, but try to get to the one that will give you the most treasure.</b></p>","","instructions","","","","","","","","","","","",""
"html-keyboard-response","256","1045268","0.0-4.0-6.0-0.0","spark_pilot_norest","8338","5","14","Female","","","","","","","null","<div style=""font-size:100px;color:red;"">Starting in...</div>","null","","","","","","","","","","","","",""
"html-keyboard-response","257","1046288","0.0-4.0-6.0-1.0","spark_pilot_norest","8338","5","14","Female","","","","","","","null","<div style=""font-size:200px;color:red;"">3</div>","null","","","","","","","","","","","","",""
"html-keyboard-response","258","1047298","0.0-4.0-6.0-2.0","spark_pilot_norest","8338","5","14","Female","","","","","","","null","<div style=""font-size:200px;color:red;"">2</div>","null","","","","","","","","","","","","",""
"html-keyboard-response","259","1048319","0.0-4.0-6.0-3.0","spark_pilot_norest","8338","5","14","Female","","","","","","","null","<div style=""font-size:200px;color:red;"">1</div>","null","","","","","","","","","","","","",""
"revaluation","260","1048698","0.0-4.0-7.0-0.0","spark_pilot_norest","8338","5","14","Female","","false","","","","","[377.2999999523163]","./assets/img/canyon/test/1.jpg","[""ArrowUp""]","first stage test","canyon","0","{""ArrowUp,ArrowLeft"":26,""ArrowUp,ArrowRight"":10,""ArrowDown,ArrowLeft"":5,""ArrowDown,ArrowRight"":17}","true","ArrowUp","false","original","1","","","",""
"html-keyboard-response","261","1049209","0.0-4.0-7.0-1.0","spark_pilot_norest","8338","5","14","Female","","","","","","","null","<div style=""font-size:60px;"">+</div>","null","fixation","","","","","","","","","","","",""
"revaluation","262","1049739","0.0-4.0-7.0-0.1","spark_pilot_norest","8338","5","14","Female","","false","","","","","[524.5999999046326]","./assets/img/canyon/test/0.jpg","[""ArrowUp""]","first stage test","canyon","0","{""ArrowUp,ArrowLeft"":26,""ArrowUp,ArrowRight"":10,""ArrowDown,ArrowLeft"":5,""ArrowDown,ArrowRight"":17}","true","ArrowUp","false","original","1","","","",""
"html-keyboard-response","263","1050249","0.0-4.0-7.0-1.1","spark_pilot_norest","8338","5","14","Female","","","","","","","null","<div style=""font-size:60px;"">+</div>","null","fixation","","","","","","","","","","","",""
"revaluation","264","1050610","0.0-4.0-7.0-0.2","spark_pilot_norest","8338","5","14","Female","","false","","","","","[356.5]","./assets/img/canyon/test/3.jpg","[""ArrowUp""]","first stage test","canyon","0","{""ArrowUp,ArrowLeft"":26,""ArrowUp,ArrowRight"":10,""ArrowDown,ArrowLeft"":5,""ArrowDown,ArrowRight"":17}","true","ArrowUp","false","original","1","","","",""
"html-keyboard-response","265","1051128","0.0-4.0-7.0-1.2","spark_pilot_norest","8338","5","14","Female","","","","","","","null","<div style=""font-size:60px;"">+</div>","null","fixation","","","","","","","","","","","",""
"revaluation","266","1051477","0.0-4.0-7.0-0.3","spark_pilot_norest","8338","5","14","Female","","false","","","","","[344.2000000476837]","./assets/img/canyon/test/2.jpg","[""ArrowUp""]","first stage test","canyon","0","{""ArrowUp,ArrowLeft"":26,""ArrowUp,ArrowRight"":10,""ArrowDown,ArrowLeft"":5,""ArrowDown,ArrowRight"":17}","true","ArrowUp","false","original","1","","","",""
"html-keyboard-response","267","1051999","0.0-4.0-7.0-1.3","spark_pilot_norest","8338","5","14","Female","","","","","","","null","<div style=""font-size:60px;"">+</div>","null","fixation","","","","","","","","","","","",""
"learning-instructions","268","1065339","0.0-4.0-8.0-0.0","spark_pilot_norest","8338","5","14","Female","","","","","","","null","<p> Now you will see the animals again and can search their chests for treasure. </p>
            <p> This time, you will not see how much treasure you earned, but you will earn more bonus money for making better choices. </p>","","instructions","","","","","","","","","","","",""
"html-keyboard-response","269","1066348","0.0-4.0-9.0-0.0","spark_pilot_norest","8338","5","14","Female","","","","","","","null","<div style=""font-size:100px;color:red;"">Starting in...</div>","null","","","","","","","","","","","","",""
"html-keyboard-response","270","1067359","0.0-4.0-9.0-1.0","spark_pilot_norest","8338","5","14","Female","","","","","","","null","<div style=""font-size:200px;color:red;"">3</div>","null","","","","","","","","","","","","",""
"html-keyboard-response","271","1068369","0.0-4.0-9.0-2.0","spark_pilot_norest","8338","5","14","Female","","","","","","","null","<div style=""font-size:200px;color:red;"">2</div>","null","","","","","","","","","","","","",""
"html-keyboard-response","272","1069389","0.0-4.0-9.0-3.0","spark_pilot_norest","8338","5","14","Female","","","","","","","null","<div style=""font-size:200px;color:red;"">1</div>","null","","","","","","","","","","","","",""
"revaluation","273","1069898","0.0-4.0-10.0-0.0","spark_pilot_norest","8338","5","14","Female","","false","","","","","[503.59999990463257]","./assets/img/canyon/animals/lion.jpg","[""ArrowLeft""]","second stage test","canyon","0","{""ArrowUp,ArrowLeft"":26,""ArrowUp,ArrowRight"":10,""ArrowDown,ArrowLeft"":5,""ArrowDown,ArrowRight"":17}","true","ArrowUp,ArrowLeft","","original","1","","","",""
"html-keyboard-response","274","1070419","0.0-4.0-10.0-1.0","spark_pilot_norest","8338","5","14","Female","","","","","","","null","<div style=""font-size:60px;"">+</div>","null","fixation","","","","","","","","","","","",""
"revaluation","275","1070817","0.0-4.0-10.0-0.1","spark_pilot_norest","8338","5","14","Female","","false","","","","","[393.40000009536743]","./assets/img/canyon/animals/lion.jpg","[""ArrowLeft""]","second stage test","canyon","0","{""ArrowUp,ArrowLeft"":26,""ArrowUp,ArrowRight"":10,""ArrowDown,ArrowLeft"":5,""ArrowDown,ArrowRight"":17}","true","ArrowUp,ArrowLeft","","original","1","","","",""
"html-keyboard-response","276","1071319","0.0-4.0-10.0-1.1","spark_pilot_norest","8338","5","14","Female","","","","","","","null","<div style=""font-size:60px;"">+</div>","null","fixation","","","","","","","","","","","",""
"revaluation","277","1071697","0.0-4.0-10.0-0.2","spark_pilot_norest","8338","5","14","Female","","false","","","","","[374.09999990463257]","./assets/img/canyon/animals/lion.jpg","[""ArrowLeft""]","second stage test","canyon","0","{""ArrowUp,ArrowLeft"":26,""ArrowUp,ArrowRight"":10,""ArrowDown,ArrowLeft"":5,""ArrowDown,ArrowRight"":17}","true","ArrowUp,ArrowLeft","","original","1","","","",""
"html-keyboard-response","278","1072199","0.0-4.0-10.0-1.2","spark_pilot_norest","8338","5","14","Female","","","","","","","null","<div style=""font-size:60px;"">+</div>","null","fixation","","","","","","","","","","","",""
"revaluation","279","1072572","0.0-4.0-10.0-0.3","spark_pilot_norest","8338","5","14","Female","","false","","","","","[368.10000014305115]","./assets/img/canyon/animals/lion.jpg","[""ArrowLeft""]","second stage test","canyon","0","{""ArrowUp,ArrowLeft"":26,""ArrowUp,ArrowRight"":10,""ArrowDown,ArrowLeft"":5,""ArrowDown,ArrowRight"":17}","true","ArrowUp,ArrowLeft","","original","1","","","",""
"html-keyboard-response","280","1073089","0.0-4.0-10.0-1.3","spark_pilot_norest","8338","5","14","Female","","","","","","","null","<div style=""font-size:60px;"">+</div>","null","fixation","","","","","","","","","","","",""
"revaluation","281","1073568","0.0-4.0-10.0-0.4","spark_pilot_norest","8338","5","14","Female","","false","","","","","[473.59999990463257]","./assets/img/canyon/animals/giraffe.jpg","[""ArrowRight""]","second stage test","canyon","0","{""ArrowUp,ArrowLeft"":26,""ArrowUp,ArrowRight"":10,""ArrowDown,ArrowLeft"":5,""ArrowDown,ArrowRight"":17}","true","ArrowDown,ArrowRight","","original","1","","","",""
"html-keyboard-response","282","1074073","0.0-4.0-10.0-1.4","spark_pilot_norest","8338","5","14","Female","","","","","","","null","<div style=""font-size:60px;"">+</div>","null","fixation","","","","","","","","","","","",""
"revaluation","283","1074417","0.0-4.0-10.0-0.5","spark_pilot_norest","8338","5","14","Female","","false","","","","","[342.39999985694885]","./assets/img/canyon/animals/giraffe.jpg","[""ArrowRight""]","second stage test","canyon","0","{""ArrowUp,ArrowLeft"":26,""ArrowUp,ArrowRight"":10,""ArrowDown,ArrowLeft"":5,""ArrowDown,ArrowRight"":17}","true","ArrowDown,ArrowRight","","original","1","","","",""
"html-keyboard-response","284","1074929","0.0-4.0-10.0-1.5","spark_pilot_norest","8338","5","14","Female","","","","","","","null","<div style=""font-size:60px;"">+</div>","null","fixation","","","","","","","","","","","",""
"revaluation","285","1075341","0.0-4.0-10.0-0.6","spark_pilot_norest","8338","5","14","Female","","false","","","","","[406.5]","./assets/img/canyon/animals/giraffe.jpg","[""ArrowRight""]","second stage test","canyon","0","{""ArrowUp,ArrowLeft"":26,""ArrowUp,ArrowRight"":10,""ArrowDown,ArrowLeft"":5,""ArrowDown,ArrowRight"":17}","true","ArrowDown,ArrowRight","","original","1","","","",""
"html-keyboard-response","286","1075859","0.0-4.0-10.0-1.6","spark_pilot_norest","8338","5","14","Female","","","","","","","null","<div style=""font-size:60px;"">+</div>","null","fixation","","","","","","","","","","","",""
"revaluation","287","1076426","0.0-4.0-10.0-0.7","spark_pilot_norest","8338","5","14","Female","","false","","","","","[561.6000001430511]","./assets/img/canyon/animals/giraffe.jpg","[""ArrowRight""]","second stage test","canyon","0","{""ArrowUp,ArrowLeft"":26,""ArrowUp,ArrowRight"":10,""ArrowDown,ArrowLeft"":5,""ArrowDown,ArrowRight"":17}","true","ArrowDown,ArrowRight","","original","1","","","",""
"html-keyboard-response","288","1076928","0.0-4.0-10.0-1.7","spark_pilot_norest","8338","5","14","Female","","","","","","","null","<div style=""font-size:60px;"">+</div>","null","fixation","","","","","","","","","","","",""
"learning-instructions","289","1084642","0.0-4.0-0.1-0.2","spark_pilot_norest","8338","5","14","Female","","","","","","","5000.600000143051","<p> This time you are searching for treasure in the <b>ocean</b>.</p>","","instructions","","","","","","","","","","","",""
"learning-instructions","290","1105038","0.0-4.0-0.1-0.3","spark_pilot_norest","8338","5","14","Female","","","","","","","3146","<p><b>New</b> animals with <b>new</b> treasure chests live here. You need to explore to discover where the animal with the best treasure chest is.</p>
                    <p> Like before, once you figure out which animal has the chest with the most treasure, you should try to get to that animal and select that chest! </p>","","instructions","","","","","","","","","","","",""
"learning-instructions","291","1123972","0.0-4.0-1.1-0.1","spark_pilot_norest","8338","5","14","Female","","","","","","","4210.5","<p> Remember, when you see a picture of the place, use the up and down keys to <b>find an animal</b>.</p>
            <p> When you encounter an animal, you should use the left and right keys to <b>select a treasure chest</b>.</p>
            <p> Don't forget to look out for the robber! </p>","","instructions","","","","","","","","","","","",""
"revaluation","292","1130009","0.0-4.0-2.1-0.50","spark_pilot_norest","8338","5","14","Female","","false","","","","","[1094.2000000476837,296]","./assets/img/ocean/memory/33.jpg","[""ArrowUp"",""ArrowLeft""]","value training","ocean","23","{""ArrowUp,ArrowLeft"":23,""ArrowUp,ArrowRight"":10,""ArrowDown,ArrowLeft"":8,""ArrowDown,ArrowRight"":30}","false","ArrowUp,ArrowLeft","false","revaluation","2","0","","",""
"html-keyboard-response","293","1130518","0.0-4.0-2.1-1.50","spark_pilot_norest","8338","5","14","Female","","","","","","","null","<div style=""font-size:60px;"">+</div>","null","fixation","","","","","","","","","1","","",""
"revaluation","294","1136564","0.0-4.0-2.1-0.51","spark_pilot_norest","8338","5","14","Female","","false","","","","","[392.09999990463257,359.7000000476837]","./assets/img/ocean/memory/26.jpg","[""ArrowUp"",""ArrowRight""]","value training","ocean","10","{""ArrowUp,ArrowLeft"":23,""ArrowUp,ArrowRight"":10,""ArrowDown,ArrowLeft"":8,""ArrowDown,ArrowRight"":30}","false","ArrowUp,ArrowRight","false","revaluation","2","2","","",""
"html-keyboard-response","295","1137079","0.0-4.0-2.1-1.51","spark_pilot_norest","8338","5","14","Female","","","","","","","null","<div style=""font-size:60px;"">+</div>","null","fixation","","","","","","","","","3","","",""
"revaluation","296","1143129","0.0-4.0-2.1-0.52","spark_pilot_norest","8338","5","14","Female","","false","","","","","[629.2999999523163,577]","./assets/img/ocean/memory/1.jpg","[""ArrowDown"",""ArrowRight""]","value training","ocean","30","{""ArrowUp,ArrowLeft"":23,""ArrowUp,ArrowRight"":10,""ArrowDown,ArrowLeft"":8,""ArrowDown,ArrowRight"":30}","true","ArrowDown,ArrowRight","false","revaluation","2","4","","",""
"html-keyboard-response","297","1143637","0.0-4.0-2.1-1.52","spark_pilot_norest","8338","5","14","Female","","","","","","","null","<div style=""font-size:60px;"">+</div>","null","fixation","","","","","","","","","5","","",""
"revaluation","298","1149689","0.0-4.0-2.1-0.53","spark_pilot_norest","8338","5","14","Female","","false","","","","","[665.8000001907349,182.09999990463257]","./assets/img/ocean/memory/2.jpg","[""ArrowDown"",""ArrowLeft""]","value training","ocean","8","{""ArrowUp,ArrowLeft"":23,""ArrowUp,ArrowRight"":10,""ArrowDown,ArrowLeft"":8,""ArrowDown,ArrowRight"":30}","false","ArrowDown,ArrowLeft","false","revaluation","2","6","","",""
"html-keyboard-response","299","1150191","0.0-4.0-2.1-1.53","spark_pilot_norest","8338","5","14","Female","","","","","","","null","<div style=""font-size:60px;"">+</div>","null","fixation","","","","","","","","","7","","",""
"revaluation","300","1156199","0.0-4.0-2.1-0.54","spark_pilot_norest","8338","5","14","Female","","false","","","","","[331,310.59999990463257]","./assets/img/ocean/memory/29.jpg","[""ArrowUp"",""ArrowLeft""]","value training","ocean","23","{""ArrowUp,ArrowLeft"":23,""ArrowUp,ArrowRight"":10,""ArrowDown,ArrowLeft"":8,""ArrowDown,ArrowRight"":30}","false","ArrowUp,ArrowLeft","false","revaluation","2","8","","",""
"html-keyboard-response","301","1156700","0.0-4.0-2.1-1.54","spark_pilot_norest","8338","5","14","Female","","","","","","","null","<div style=""font-size:60px;"">+</div>","null","fixation","","","","","","","","","9","","",""
"revaluation","302","1162706","0.0-4.0-2.1-0.55","spark_pilot_norest","8338","5","14","Female","","false","","","","","[462.90000009536743,309]","./assets/img/ocean/memory/23.jpg","[""ArrowDown"",""ArrowRight""]","value training","ocean","30","{""ArrowUp,ArrowLeft"":23,""ArrowUp,ArrowRight"":10,""ArrowDown,ArrowLeft"":8,""ArrowDown,ArrowRight"":30}","true","ArrowDown,ArrowRight","false","revaluation","2","10","","",""
"html-keyboard-response","303","1163208","0.0-4.0-2.1-1.55","spark_pilot_norest","8338","5","14","Female","","","","","","","null","<div style=""font-size:60px;"">+</div>","null","fixation","","","","","","","","","11","","",""
"revaluation","304","1169213","0.0-4.0-2.1-0.56","spark_pilot_norest","8338","5","14","Female","","false","","","","","[494.40000009536743,599.7000000476837]","./assets/img/ocean/memory/13.jpg","[""ArrowDown"",""ArrowRight""]","value training","ocean","30","{""ArrowUp,ArrowLeft"":23,""ArrowUp,ArrowRight"":10,""ArrowDown,ArrowLeft"":8,""ArrowDown,ArrowRight"":30}","true","ArrowDown,ArrowRight","false","revaluation","2","12","","",""
"html-keyboard-response","305","1169716","0.0-4.0-2.1-1.56","spark_pilot_norest","8338","5","14","Female","","","","","","","null","<div style=""font-size:60px;"">+</div>","null","fixation","","","","","","","","","13","","",""
"revaluation","306","1175724","0.0-4.0-2.1-0.57","spark_pilot_norest","8338","5","14","Female","","false","","","","","[1197.5,561.3999998569489]","./assets/img/ocean/memory/18.jpg","[""ArrowDown"",""ArrowRight""]","value training","ocean","30","{""ArrowUp,ArrowLeft"":23,""ArrowUp,ArrowRight"":10,""ArrowDown,ArrowLeft"":8,""ArrowDown,ArrowRight"":30}","true","ArrowDown,ArrowRight","false","revaluation","2","14","","",""
"html-keyboard-response","307","1176227","0.0-4.0-2.1-1.57","spark_pilot_norest","8338","5","14","Female","","","","","","","null","<div style=""font-size:60px;"">+</div>","null","fixation","","","","","","","","","15","","",""
"revaluation","308","1182234","0.0-4.0-2.1-0.58","spark_pilot_norest","8338","5","14","Female","","false","","","","","[576.5,1090.9000000953674]","./assets/img/ocean/memory/6.jpg","[""ArrowDown"",""ArrowRight""]","value training","ocean","30","{""ArrowUp,ArrowLeft"":23,""ArrowUp,ArrowRight"":10,""ArrowDown,ArrowLeft"":8,""ArrowDown,ArrowRight"":30}","true","ArrowDown,ArrowRight","false","revaluation","2","16","","",""
"html-keyboard-response","309","1182737","0.0-4.0-2.1-1.58","spark_pilot_norest","8338","5","14","Female","","","","","","","null","<div style=""font-size:60px;"">+</div>","null","fixation","","","","","","","","","17","","",""
"revaluation","310","1188743","0.0-4.0-2.1-0.59","spark_pilot_norest","8338","5","14","Female","","false","","","","","[573.0999999046326,580.8999998569489]","./assets/img/ocean/memory/26.jpg","[""ArrowDown"",""ArrowRight""]","value training","ocean","30","{""ArrowUp,ArrowLeft"":23,""ArrowUp,ArrowRight"":10,""ArrowDown,ArrowLeft"":8,""ArrowDown,ArrowRight"":30}","true","ArrowDown,ArrowRight","false","revaluation","2","18","","",""
"html-keyboard-response","311","1189246","0.0-4.0-2.1-1.59","spark_pilot_norest","8338","5","14","Female","","","","","","","null","<div style=""font-size:60px;"">+</div>","null","fixation","","","","","","","","","19","","",""
