"trial_type","trial_index","time_elapsed","internal_node_id","task_version","subject_id","assigned_condition","age","gender","browser_interaction","success","timeout","failed_images","failed_audio","failed_video","rt","stimulus","response","task_part","environment","score","rewardMap","correct","fullState","isCatch","condition","order","trial_num","key_press","ground_truth","bonus"
"pavlovia","0","1405","0.0-0.0","spark_pilot_norest","9678","1","7","Female","[{""event"":""blur"",""trial"":1,""time"":34372},{""event"":""focus"",""trial"":2,""time"":62137},{""event"":""fullscreenenter"",""trial"":2,""time"":62244},{""event"":""blur"",""trial"":500,""time"":2047544},{""event"":""focus"",""trial"":503,""time"":2059077}]","","","","","","","","","","","","","","","","","","","","",""
"preload","1","42498","0.0-1.0","spark_pilot_norest","9678","1","7","Female","[{""event"":""blur"",""trial"":1,""time"":34372},{""event"":""focus"",""trial"":2,""time"":62137},{""event"":""fullscreenenter"",""trial"":2,""time"":62244},{""event"":""blur"",""trial"":500,""time"":2047544},{""event"":""focus"",""trial"":503,""time"":2059077}]","true","false","[]","[]","[]","","","","","","","","","","","","","","","",""
"fullscreen","2","63216","0.0-2.0","spark_pilot_norest","9678","1","7","Female","","true","","","","","","","","","","","","","","","","","","","",""
"audio-button-response","3","66969","0.0-3.0-0.0-0.0","spark_pilot_norest","9678","1","7","Female","","","","","","","3280","./assets/audio/audiotest/turtle.mp3","2","audio_test","","","","","","","","","","","",""
"learning-instructions","4","81948","0.0-3.0-1.0-0.0","spark_pilot_norest","9678","1","7","Female","","","","","","","7927.300000190735","<p> Welcome! Please remember to stay in fullscreen mode and don't click away from the experiment. </p>","","instructions","","","","","","","","","","","",""
"learning-instructions","5","96079","0.0-3.0-1.0-0.1","spark_pilot_norest","9678","1","7","Female","","","","","","","5657.400000095367","<p> Today you will be playing a game to earn treasure. </p>
            <p> At the end of the experiment, you will earn a bonus based on how much treasure you find. </p>
            <img src='./assets/img/instructions/treasure.jpg' class='instructions-image'>","","instructions","","","","","","","","","","","",""
"learning-instructions","6","114202","0.0-3.0-1.0-0.2","spark_pilot_norest","9678","1","7","Female","","","","","","","9780","<p> Animals have hidden treasure in treasure chests. </p>
            <p> You need to first find an animal and then choose which of their treasure chests to search. </p>
            <img src='./assets/img/space/animals/cat.jpg' class='instructions-image'>","","instructions","","","","","","","","","","","",""
"learning-instructions","7","130195","0.0-3.0-1.0-0.3","spark_pilot_norest","9678","1","7","Female","","","","","","","2693.5999999046326","<p> In each round, you will search for treasure in a different place. In the real game, there will be two rounds. </p>
            <p> You will begin with a separate, practice round where you will search for treasure in outer space. </p>
            <img src='./assets/img/space/0.jpg' class='instructions-image'>","","instructions","","","","","","","","","","","",""
"learning-instructions","8","143353","0.0-3.0-1.0-0.4","spark_pilot_norest","9678","1","7","Female","","","","","","","1541.4000000953674","<p> On every turn, you will see a picture of the place that you are in, but the specific image may be different each time. </p>
            <p> For example, both of these images mean you are in outer space. </p>
            <img src='./assets/img/instructions/outerspace.jpg' class='instructions-image'>","","instructions","","","","","","","","","","","",""
"learning-instructions","9","154082","0.0-3.0-1.0-0.5","spark_pilot_norest","9678","1","7","Female","","","","","","","2869.5","<p> You need to decide which direction to travel in. </p>
            <p> You can choose between going <b>up or down</b> by using the arrow keys. </p>
            <img src='./assets/img/instructions/updown.jpg' class='instructions-image'>","","instructions","","","","","","","","","","","",""
"learning-instructions","10","193939","0.0-3.0-1.0-0.6","spark_pilot_norest","9678","1","7","Female","","","","","","","31007.199999809265","<p> You will have <b>2 seconds</b> to make your choice. </p>
            <p> If you do not make a choice within 2 seconds, you will not find an animal or earn treasure. </p>
            <img src='./assets/img/instructions/2seconds.jpg' class='instructions-image'>","","instructions","","","","","","","","","","","",""
"learning-instructions","11","204056","0.0-3.0-1.0-0.7","spark_pilot_norest","9678","1","7","Female","","","","","","","3055.0999999046326","<p> Let’s try practicing that now! </p>
            <p> When you see a picture of the place you are in, press the <b>up</b> key to travel up. </p>
            <img src='./assets/img/instructions/pressUp.jpg' class='instructions-image'>","","instructions","","","","","","","","","","","",""
"revaluation","12","208097","0.0-3.0-2.0-0.0","spark_pilot_norest","9678","1","7","Female","","","true","","","","[]","./assets/img/space/0.jpg","[]","first stage practice","space","-5","null","null","","false","","","","","",""
"html-keyboard-response","13","208609","0.0-3.0-2.0-1.0","spark_pilot_norest","9678","1","7","Female","","","","","","","null","<div style=""font-size:60px;"">+</div>","null","fixation","","","","","","","","","","","",""
"revaluation","14","212639","0.0-3.0-2.0-0.1","spark_pilot_norest","9678","1","7","Female","","","false","","","","[1005.6999998092651]","./assets/img/space/1.jpg","[""ArrowUp""]","first stage practice","space","0","null","null","ArrowUp","false","","","","","",""
"html-keyboard-response","15","213156","0.0-3.0-2.0-1.1","spark_pilot_norest","9678","1","7","Female","","","","","","","null","<div style=""font-size:60px;"">+</div>","null","fixation","","","","","","","","","","","",""
"revaluation","16","217188","0.0-3.0-2.0-0.2","spark_pilot_norest","9678","1","7","Female","","","false","","","","[1418.5999999046326]","./assets/img/space/2.jpg","[""ArrowUp""]","first stage practice","space","0","null","null","ArrowUp","false","","","","","",""
"html-keyboard-response","17","217702","0.0-3.0-2.0-1.2","spark_pilot_norest","9678","1","7","Female","","","","","","","null","<div style=""font-size:60px;"">+</div>","null","fixation","","","","","","","","","","","",""
"learning-instructions","18","224569","0.0-3.0-3.0-0.0","spark_pilot_norest","9678","1","7","Female","","","","","","","2147.5999999046326","<p> Great job! Now try pressing the <b>down</b> key to travel down. </p>
            <img src='./assets/img/instructions/pressDown.jpg' class='instructions-image'>","","instructions","","","","","","","","","","","",""
"revaluation","19","228590","0.0-3.0-4.0-0.0","spark_pilot_norest","9678","1","7","Female","","","false","","","","[944]","./assets/img/space/3.jpg","[""ArrowDown""]","first stage practice","space","0","null","null","ArrowDown","false","","","","","",""
"html-keyboard-response","20","229100","0.0-3.0-4.0-1.0","spark_pilot_norest","9678","1","7","Female","","","","","","","null","<div style=""font-size:60px;"">+</div>","null","fixation","","","","","","","","","","","",""
"revaluation","21","233123","0.0-3.0-4.0-0.1","spark_pilot_norest","9678","1","7","Female","","","true","","","","[]","./assets/img/space/4.jpg","[]","first stage practice","space","-5","null","null","","false","","","","","",""
"html-keyboard-response","22","233627","0.0-3.0-4.0-1.1","spark_pilot_norest","9678","1","7","Female","","","","","","","null","<div style=""font-size:60px;"">+</div>","null","fixation","","","","","","","","","","","",""
"revaluation","23","237652","0.0-3.0-4.0-0.2","spark_pilot_norest","9678","1","7","Female","","","false","","","","[716]","./assets/img/space/5.jpg","[""ArrowDown""]","first stage practice","space","0","null","null","ArrowDown","false","","","","","",""
"html-keyboard-response","24","238153","0.0-3.0-4.0-1.2","spark_pilot_norest","9678","1","7","Female","","","","","","","null","<div style=""font-size:60px;"">+</div>","null","fixation","","","","","","","","","","","",""
"learning-instructions","25","252153","0.0-3.0-5.0-0.0","spark_pilot_norest","9678","1","7","Female","","","","","","","4112.800000190735","<p> The animals don’t move, so the animal in the upper part of a place will stay in the upper part of a place, and the animal in the lower part of a place will stay in the lower part of a place. </p>","","instructions","","","","","","","","","","","",""
"learning-instructions","26","265224","0.0-3.0-5.0-0.1","spark_pilot_norest","9678","1","7","Female","","","","","","","3883.7000002861023","<p> Each animal has two treasure chests for you to choose from. </p>
            <p> The amount of treasure in each chest can range from <b> 0 to 40 pieces.</b></p>","","instructions","","","","","","","","","","","",""
"learning-instructions","27","278311","0.0-3.0-5.0-0.2","spark_pilot_norest","9678","1","7","Female","","","","","","","1840","<p> You should decide which chest to search for treasure by using the <b>left</b> and <b>right</b> arrow keys. </p>
            <p><b> Pay attention to which animal is on the screen, as the animals have different treasure chests. </b></p>
            <img src='./assets/img/instructions/leftright.jpg' class='instructions-image'>","","instructions","","","","","","","","","","","",""
"learning-instructions","28","285883","0.0-3.0-5.0-0.3","spark_pilot_norest","9678","1","7","Female","","","","","","","1162.5","<p> Let’s try practicing that now. </p>
            <p> When you see an animal, choose which chest to search for treasure. </p>
            <img src='./assets/img/instructions/chooseChest.jpg' class='instructions-image'>","","instructions","","","","","","","","","","","",""
"revaluation","29","289909","0.0-3.0-6.0-0.0","spark_pilot_norest","9678","1","7","Female","","","true","","","","[]","./assets/img/space/animals/rabbit.jpg","[]","second stage practice","space","-5","{""ArrowUp,ArrowLeft"":3,""ArrowUp,ArrowRight"":36,""ArrowDown,ArrowLeft"":15,""ArrowDown,ArrowRight"":23}","false","ArrowDown","","","","","","",""
"html-keyboard-response","30","290431","0.0-3.0-6.0-1.0","spark_pilot_norest","9678","1","7","Female","","","","","","","null","<div style=""font-size:60px;"">+</div>","null","fixation","","","","","","","","","","","",""
"revaluation","31","294453","0.0-3.0-6.0-0.1","spark_pilot_norest","9678","1","7","Female","","","false","","","","[1972]","./assets/img/space/animals/cat.jpg","[""ArrowRight""]","second stage practice","space","36","{""ArrowUp,ArrowLeft"":3,""ArrowUp,ArrowRight"":36,""ArrowDown,ArrowLeft"":15,""ArrowDown,ArrowRight"":23}","true","ArrowUp,ArrowRight","","","","","","",""
"html-keyboard-response","32","294960","0.0-3.0-6.0-1.1","spark_pilot_norest","9678","1","7","Female","","","","","","","null","<div style=""font-size:60px;"">+</div>","null","fixation","","","","","","","","","","","",""
"revaluation","33","298992","0.0-3.0-6.0-0.2","spark_pilot_norest","9678","1","7","Female","","","false","","","","[547.1999998092651]","./assets/img/space/animals/cat.jpg","[""ArrowRight""]","second stage practice","space","36","{""ArrowUp,ArrowLeft"":3,""ArrowUp,ArrowRight"":36,""ArrowDown,ArrowLeft"":15,""ArrowDown,ArrowRight"":23}","true","ArrowUp,ArrowRight","","","","","","",""
"html-keyboard-response","34","299503","0.0-3.0-6.0-1.2","spark_pilot_norest","9678","1","7","Female","","","","","","","null","<div style=""font-size:60px;"">+</div>","null","fixation","","","","","","","","","","","",""
"revaluation","35","303540","0.0-3.0-6.0-0.3","spark_pilot_norest","9678","1","7","Female","","","false","","","","[1075]","./assets/img/space/animals/rabbit.jpg","[""ArrowRight""]","second stage practice","space","23","{""ArrowUp,ArrowLeft"":3,""ArrowUp,ArrowRight"":36,""ArrowDown,ArrowLeft"":15,""ArrowDown,ArrowRight"":23}","true","ArrowDown,ArrowRight","","","","","","",""
"html-keyboard-response","36","304051","0.0-3.0-6.0-1.3","spark_pilot_norest","9678","1","7","Female","","","","","","","null","<div style=""font-size:60px;"">+</div>","null","fixation","","","","","","","","","","","",""
"learning-instructions","37","325037","0.0-3.0-7.0-0.0","spark_pilot_norest","9678","1","7","Female","","","","","","","4016.0999999046326","<p> Great job. Now let’s try putting it together. </p>
            <p> On each turn, you will first see a picture to remind you of the place you are in, and you need to choose whether to go up or down. </p>
            <p> Then you will see an animal and choose which of its chests to search for treasure. </p>","","instructions","","","","","","","","","","","",""
"learning-instructions","38","334705","0.0-3.0-7.0-0.1","spark_pilot_norest","9678","1","7","Female","","","","","","","1354.3999996185303","<p> When you choose whether to go up or down, try to go to the animal with the chest with the most treasure. </p>
            <p> Try practicing that now! </p>","","instructions","","","","","","","","","","","",""
"revaluation","39","340734","0.0-3.0-8.0-0.0","spark_pilot_norest","9678","1","7","Female","","","true","","","","[965.8999996185303]","./assets/img/space/6.jpg","[""ArrowUp""]","full practice","space","-5","{""ArrowUp,ArrowLeft"":3,""ArrowUp,ArrowRight"":36,""ArrowDown,ArrowLeft"":15,""ArrowDown,ArrowRight"":23}","false","ArrowUp","false","","","","","",""
"html-keyboard-response","40","341243","0.0-3.0-8.0-1.0","spark_pilot_norest","9678","1","7","Female","","","","","","","null","<div style=""font-size:60px;"">+</div>","null","fixation","","","","","","","","","","","",""
"revaluation","41","347269","0.0-3.0-8.0-0.1","spark_pilot_norest","9678","1","7","Female","","","true","","","","[1325]","./assets/img/space/7.jpg","[""ArrowDown""]","full practice","space","-5","{""ArrowUp,ArrowLeft"":3,""ArrowUp,ArrowRight"":36,""ArrowDown,ArrowLeft"":15,""ArrowDown,ArrowRight"":23}","false","ArrowDown","false","","","","","",""
"html-keyboard-response","42","347783","0.0-3.0-8.0-1.1","spark_pilot_norest","9678","1","7","Female","","","","","","","null","<div style=""font-size:60px;"">+</div>","null","fixation","","","","","","","","","","","",""
"revaluation","43","353830","0.0-3.0-8.0-0.2","spark_pilot_norest","9678","1","7","Female","","","false","","","","[1407.4000000953674,1069.7000002861023]","./assets/img/space/8.jpg","[""ArrowUp"",""ArrowRight""]","full practice","space","36","{""ArrowUp,ArrowLeft"":3,""ArrowUp,ArrowRight"":36,""ArrowDown,ArrowLeft"":15,""ArrowDown,ArrowRight"":23}","true","ArrowUp,ArrowRight","false","","","","","",""
"html-keyboard-response","44","354337","0.0-3.0-8.0-1.2","spark_pilot_norest","9678","1","7","Female","","","","","","","null","<div style=""font-size:60px;"">+</div>","null","fixation","","","","","","","","","","","",""
"revaluation","45","360379","0.0-3.0-8.0-0.3","spark_pilot_norest","9678","1","7","Female","","","false","","","","[1127.1999998092651,1914.9000000953674]","./assets/img/space/9.jpg","[""ArrowDown"",""ArrowRight""]","full practice","space","23","{""ArrowUp,ArrowLeft"":3,""ArrowUp,ArrowRight"":36,""ArrowDown,ArrowLeft"":15,""ArrowDown,ArrowRight"":23}","false","ArrowDown,ArrowRight","false","","","","","",""
"html-keyboard-response","46","360895","0.0-3.0-8.0-1.3","spark_pilot_norest","9678","1","7","Female","","","","","","","null","<div style=""font-size:60px;"">+</div>","null","fixation","","","","","","","","","","","",""
"revaluation","47","366917","0.0-3.0-8.0-0.4","spark_pilot_norest","9678","1","7","Female","","","false","","","","[1176.8999996185303,596.5999999046326]","./assets/img/space/10.jpg","[""ArrowUp"",""ArrowRight""]","full practice","space","36","{""ArrowUp,ArrowLeft"":3,""ArrowUp,ArrowRight"":36,""ArrowDown,ArrowLeft"":15,""ArrowDown,ArrowRight"":23}","true","ArrowUp,ArrowRight","false","","","","","",""
"html-keyboard-response","48","367419","0.0-3.0-8.0-1.4","spark_pilot_norest","9678","1","7","Female","","","","","","","null","<div style=""font-size:60px;"">+</div>","null","fixation","","","","","","","","","","","",""
"learning-instructions","49","385822","0.0-3.0-9.0-0.0","spark_pilot_norest","9678","1","7","Female","","","","","","","8070.199999809265","<p> One last thing: sometimes, you will see a robber. The robber can be anywhere in the picture. </p>
            <p> If you do not stop them, you will lose treasure. </p>
            <img src='./assets/img/instructions/robber.jpg' class='instructions-image'>","","instructions","","","","","","","","","","","",""
"learning-instructions","50","398142","0.0-3.0-9.0-0.1","spark_pilot_norest","9678","1","7","Female","","","","","","","5100","<p> If you see the robber, you should <b>press the space bar</b> rather than using the arrow keys. </p>
            <p> Try practicing that now! </p>","","instructions","","","","","","","","","","","",""
"revaluation","51","402169","0.0-3.0-10.0-0.0","spark_pilot_norest","9678","1","7","Female","","","false","","","","[1387.2999997138977]","./assets/img/space/catch/0.jpg","[""spaceBar""]","catch practice","space","0","{""ArrowUp,ArrowLeft"":3,""ArrowUp,ArrowRight"":36,""ArrowDown,ArrowLeft"":15,""ArrowDown,ArrowRight"":23}","true","spaceBar","true","","","","","",""
"html-keyboard-response","52","402681","0.0-3.0-10.0-1.0","spark_pilot_norest","9678","1","7","Female","","","","","","","null","<div style=""font-size:60px;"">+</div>","null","fixation","","","","","","","","","","","",""
"revaluation","53","406704","0.0-3.0-10.0-0.1","spark_pilot_norest","9678","1","7","Female","","","false","","","","[692.1999998092651]","./assets/img/space/catch/1.jpg","[""spaceBar""]","catch practice","space","0","{""ArrowUp,ArrowLeft"":3,""ArrowUp,ArrowRight"":36,""ArrowDown,ArrowLeft"":15,""ArrowDown,ArrowRight"":23}","true","spaceBar","true","","","","","",""
"html-keyboard-response","54","407215","0.0-3.0-10.0-1.1","spark_pilot_norest","9678","1","7","Female","","","","","","","null","<div style=""font-size:60px;"">+</div>","null","fixation","","","","","","","","","","","",""
"revaluation","55","411252","0.0-3.0-10.0-0.2","spark_pilot_norest","9678","1","7","Female","","","false","","","","[528.8999996185303]","./assets/img/space/catch/2.jpg","[""spaceBar""]","catch practice","space","0","{""ArrowUp,ArrowLeft"":3,""ArrowUp,ArrowRight"":36,""ArrowDown,ArrowLeft"":15,""ArrowDown,ArrowRight"":23}","true","spaceBar","true","","","","","",""
"html-keyboard-response","56","411764","0.0-3.0-10.0-1.2","spark_pilot_norest","9678","1","7","Female","","","","","","","null","<div style=""font-size:60px;"">+</div>","null","fixation","","","","","","","","","","","",""
"learning-instructions","57","417540","0.0-3.0-11.0-0.0-0.0","spark_pilot_norest","9678","1","7","Female","","","","","","","446.30000019073486","<p> Now, you will practice a shortened version of the game to get a sense of how it all fits together. </p>","","instructions","","","","","","","","","","","",""
"learning-instructions","58","424115","0.0-3.0-11.0-0.0-0.1","spark_pilot_norest","9678","1","7","Female","","","","","","","3351.800000190735","<p>This time you are searching for treasure in outer space.</p>","","instructions","","","","","","","","","","","",""
"learning-instructions","59","442354","0.0-3.0-11.0-1.0-0.0","spark_pilot_norest","9678","1","7","Female","","","","","","","3112.5","<p> Remember, when you see a picture of the place, use the up and down keys to <b>find an animal</b>.</p>
            <p> When you encounter an animal, you should use the left and right keys to <b>select a treasure chest</b>.</p>
            <p> Don't forget to look out for the robber! </p>","","instructions","","","","","","","","","","","",""
"revaluation","60","448397","0.0-3.0-11.0-2.0-0.0","spark_pilot_norest","9678","1","7","Female","","","false","","","","[1022.5999999046326,730.3999996185303]","./assets/img/space/11.jpg","[""ArrowDown"",""ArrowRight""]","practice block","space","23","{""ArrowUp,ArrowLeft"":3,""ArrowUp,ArrowRight"":36,""ArrowDown,ArrowLeft"":15,""ArrowDown,ArrowRight"":23}","false","ArrowDown,ArrowRight","false","","","","","",""
"html-keyboard-response","61","448906","0.0-3.0-11.0-2.0-1.0","spark_pilot_norest","9678","1","7","Female","","","","","","","null","<div style=""font-size:60px;"">+</div>","null","fixation","","","","","","","","","","","",""
"revaluation","62","454949","0.0-3.0-11.0-2.0-0.1","spark_pilot_norest","9678","1","7","Female","","","false","","","","[1396,877.9000000953674]","./assets/img/space/12.jpg","[""ArrowDown"",""ArrowRight""]","practice block","space","23","{""ArrowUp,ArrowLeft"":3,""ArrowUp,ArrowRight"":36,""ArrowDown,ArrowLeft"":15,""ArrowDown,ArrowRight"":23}","false","ArrowDown,ArrowRight","false","","","","","",""
"html-keyboard-response","63","455458","0.0-3.0-11.0-2.0-1.1","spark_pilot_norest","9678","1","7","Female","","","","","","","null","<div style=""font-size:60px;"">+</div>","null","fixation","","","","","","","","","","","",""
"revaluation","64","461484","0.0-3.0-11.0-2.0-0.2","spark_pilot_norest","9678","1","7","Female","","","false","","","","[1067.3000001907349,877.7999997138977]","./assets/img/space/13.jpg","[""ArrowUp"",""ArrowRight""]","practice block","space","36","{""ArrowUp,ArrowLeft"":3,""ArrowUp,ArrowRight"":36,""ArrowDown,ArrowLeft"":15,""ArrowDown,ArrowRight"":23}","true","ArrowUp,ArrowRight","false","","","","","",""
"html-keyboard-response","65","461995","0.0-3.0-11.0-2.0-1.2","spark_pilot_norest","9678","1","7","Female","","","","","","","null","<div style=""font-size:60px;"">+</div>","null","fixation","","","","","","","","","","","",""
"revaluation","66","468066","0.0-3.0-11.0-2.0-0.3","spark_pilot_norest","9678","1","7","Female","","","false","","","","[458.19999980926514,393.59999990463257]","./assets/img/space/14.jpg","[""ArrowUp"",""ArrowLeft""]","practice block","space","3","{""ArrowUp,ArrowLeft"":3,""ArrowUp,ArrowRight"":36,""ArrowDown,ArrowLeft"":15,""ArrowDown,ArrowRight"":23}","false","ArrowUp,ArrowLeft","false","","","","","",""
"html-keyboard-response","67","468588","0.0-3.0-11.0-2.0-1.3","spark_pilot_norest","9678","1","7","Female","","","","","","","null","<div style=""font-size:60px;"">+</div>","null","fixation","","","","","","","","","","","",""
"revaluation","68","472598","0.0-3.0-11.0-2.0-0.4","spark_pilot_norest","9678","1","7","Female","","","true","","","","[]","./assets/img/space/11.jpg","[]","practice block","space","-5","{""ArrowUp,ArrowLeft"":3,""ArrowUp,ArrowRight"":36,""ArrowDown,ArrowLeft"":15,""ArrowDown,ArrowRight"":23}","false","","false","","","","","",""
"html-keyboard-response","69","473113","0.0-3.0-11.0-2.0-1.4","spark_pilot_norest","9678","1","7","Female","","","","","","","null","<div style=""font-size:60px;"">+</div>","null","fixation","","","","","","","","","","","",""
"revaluation","70","479137","0.0-3.0-11.0-2.0-0.5","spark_pilot_norest","9678","1","7","Female","","","false","","","","[1259.3000001907349,543]","./assets/img/space/12.jpg","[""ArrowUp"",""ArrowRight""]","practice block","space","36","{""ArrowUp,ArrowLeft"":3,""ArrowUp,ArrowRight"":36,""ArrowDown,ArrowLeft"":15,""ArrowDown,ArrowRight"":23}","true","ArrowUp,ArrowRight","false","","","","","",""
"html-keyboard-response","71","479653","0.0-3.0-11.0-2.0-1.5","spark_pilot_norest","9678","1","7","Female","","","","","","","null","<div style=""font-size:60px;"">+</div>","null","fixation","","","","","","","","","","","",""
"revaluation","72","485671","0.0-3.0-11.0-2.0-0.6","spark_pilot_norest","9678","1","7","Female","","","false","","","","[365.09999990463257,329.59999990463257]","./assets/img/space/13.jpg","[""ArrowUp"",""ArrowLeft""]","practice block","space","3","{""ArrowUp,ArrowLeft"":3,""ArrowUp,ArrowRight"":36,""ArrowDown,ArrowLeft"":15,""ArrowDown,ArrowRight"":23}","false","ArrowUp,ArrowLeft","false","","","","","",""
"html-keyboard-response","73","486173","0.0-3.0-11.0-2.0-1.6","spark_pilot_norest","9678","1","7","Female","","","","","","","null","<div style=""font-size:60px;"">+</div>","null","fixation","","","","","","","","","","","",""
"revaluation","74","492184","0.0-3.0-11.0-2.0-0.7","spark_pilot_norest","9678","1","7","Female","","","false","","","","[938.8000001907349,779.5999999046326]","./assets/img/space/14.jpg","[""ArrowUp"",""ArrowRight""]","practice block","space","36","{""ArrowUp,ArrowLeft"":3,""ArrowUp,ArrowRight"":36,""ArrowDown,ArrowLeft"":15,""ArrowDown,ArrowRight"":23}","true","ArrowUp,ArrowRight","false","","","","","",""
"html-keyboard-response","75","492694","0.0-3.0-11.0-2.0-1.7","spark_pilot_norest","9678","1","7","Female","","","","","","","null","<div style=""font-size:60px;"">+</div>","null","fixation","","","","","","","","","","","",""
"revaluation","76","496708","0.0-3.0-11.0-2.0-0.8","spark_pilot_norest","9678","1","7","Female","","","false","","","","[610.5]","./assets/img/space/catch/3.jpg","[""ArrowUp""]","practice block","space","-10","{""ArrowUp,ArrowLeft"":3,""ArrowUp,ArrowRight"":36,""ArrowDown,ArrowLeft"":15,""ArrowDown,ArrowRight"":23}","false","ArrowUp","true","","","","","",""
"html-keyboard-response","77","497210","0.0-3.0-11.0-2.0-1.8","spark_pilot_norest","9678","1","7","Female","","","","","","","null","<div style=""font-size:60px;"">+</div>","null","fixation","","","","","","","","","","","",""
"learning-instructions","78","516555","0.0-3.0-11.0-3.0-0.0","spark_pilot_norest","9678","1","7","Female","","","","","","","5783.200000286102","<p> Now, you will travel with a friend who will choose whether you go up or down first. </p>
            <p> On these turns, you will just see the animal that they found. You will still get to choose which chest to search for treasure.</p>","","instructions","","","","","","","","","","","",""
"revaluation","79","520579","0.0-3.0-11.0-4.0-0.0","spark_pilot_norest","9678","1","7","Female","","","false","","","","[951.1999998092651]","./assets/img/space/animals/rabbit.jpg","[""ArrowRight""]","practice block","space","23","{""ArrowUp,ArrowLeft"":3,""ArrowUp,ArrowRight"":36,""ArrowDown,ArrowLeft"":15,""ArrowDown,ArrowRight"":23}","true","ArrowDown,ArrowRight","","","","","","",""
"html-keyboard-response","80","521094","0.0-3.0-11.0-4.0-1.0","spark_pilot_norest","9678","1","7","Female","","","","","","","null","<div style=""font-size:60px;"">+</div>","null","fixation","","","","","","","","","","","",""
"revaluation","81","525113","0.0-3.0-11.0-4.0-0.1","spark_pilot_norest","9678","1","7","Female","","","false","","","","[683]","./assets/img/space/animals/cat.jpg","[""ArrowRight""]","practice block","space","36","{""ArrowUp,ArrowLeft"":3,""ArrowUp,ArrowRight"":36,""ArrowDown,ArrowLeft"":15,""ArrowDown,ArrowRight"":23}","true","ArrowUp,ArrowRight","","","","","","",""
"html-keyboard-response","82","525627","0.0-3.0-11.0-4.0-1.1","spark_pilot_norest","9678","1","7","Female","","","","","","","null","<div style=""font-size:60px;"">+</div>","null","fixation","","","","","","","","","","","",""
"revaluation","83","529651","0.0-3.0-11.0-4.0-0.2","spark_pilot_norest","9678","1","7","Female","","","false","","","","[836.6000003814697]","./assets/img/space/animals/cat.jpg","[""ArrowLeft""]","practice block","space","3","{""ArrowUp,ArrowLeft"":3,""ArrowUp,ArrowRight"":36,""ArrowDown,ArrowLeft"":15,""ArrowDown,ArrowRight"":23}","false","ArrowUp,ArrowLeft","","","","","","",""
"html-keyboard-response","84","530167","0.0-3.0-11.0-4.0-1.2","spark_pilot_norest","9678","1","7","Female","","","","","","","null","<div style=""font-size:60px;"">+</div>","null","fixation","","","","","","","","","","","",""
"revaluation","85","534189","0.0-3.0-11.0-4.0-0.3","spark_pilot_norest","9678","1","7","Female","","","false","","","","[656.5999999046326]","./assets/img/space/animals/rabbit.jpg","[""ArrowRight""]","practice block","space","23","{""ArrowUp,ArrowLeft"":3,""ArrowUp,ArrowRight"":36,""ArrowDown,ArrowLeft"":15,""ArrowDown,ArrowRight"":23}","true","ArrowDown,ArrowRight","","","","","","",""
"html-keyboard-response","86","534701","0.0-3.0-11.0-4.0-1.3","spark_pilot_norest","9678","1","7","Female","","","","","","","null","<div style=""font-size:60px;"">+</div>","null","fixation","","","","","","","","","","","",""
"learning-instructions","87","542860","0.0-3.0-11.0-5.0-0.0","spark_pilot_norest","9678","1","7","Female","","","","","","","null","<p> You have almost finished this part of the game! </p>
            <p> We are going to ask you to make a few more choices. </p>","","instructions","","","","","","","","","","","",""
"learning-instructions","88","558944","0.0-3.0-11.0-5.0-0.1","spark_pilot_norest","9678","1","7","Female","","","","","","","null","<p> First, you need to decide whether to go up or down. When you see each picture, use the arrow keys to make your choice. </p>
            <p><b>You will not see which animal you found, but try to get to the one that will give you the most treasure.</b></p>","","instructions","","","","","","","","","","","",""
"html-keyboard-response","89","559953","0.0-3.0-11.0-6.0-0.0","spark_pilot_norest","9678","1","7","Female","","","","","","","null","<div style=""font-size:100px;color:red;"">Starting in...</div>","null","","","","","","","","","","","","",""
"html-keyboard-response","90","560957","0.0-3.0-11.0-6.0-1.0","spark_pilot_norest","9678","1","7","Female","","","","","","","null","<div style=""font-size:200px;color:red;"">3</div>","null","","","","","","","","","","","","",""
"html-keyboard-response","91","561967","0.0-3.0-11.0-6.0-2.0","spark_pilot_norest","9678","1","7","Female","","","","","","","null","<div style=""font-size:200px;color:red;"">2</div>","null","","","","","","","","","","","","",""
"html-keyboard-response","92","562968","0.0-3.0-11.0-6.0-3.0","spark_pilot_norest","9678","1","7","Female","","","","","","","null","<div style=""font-size:200px;color:red;"">1</div>","null","","","","","","","","","","","","",""
"revaluation","93","563831","0.0-3.0-11.0-7.0","spark_pilot_norest","9678","1","7","Female","","","false","","","","[853.5]","./assets/img/space/15.jpg","[""ArrowUp""]","practice block","space","0","{""ArrowUp,ArrowLeft"":3,""ArrowUp,ArrowRight"":36,""ArrowDown,ArrowLeft"":15,""ArrowDown,ArrowRight"":23}","true","ArrowUp","false","","","","","",""
"html-keyboard-response","94","564337","0.0-3.0-11.0-8.0","spark_pilot_norest","9678","1","7","Female","","","","","","","null","<div style=""font-size:60px;"">+</div>","null","fixation","","","","","","","","","","","",""
"learning-instructions","95","577745","0.0-3.0-11.0-9.0-0.0","spark_pilot_norest","9678","1","7","Female","","","","","","","null","<p> Now you will see the animals again and can search their chests for treasure. </p>
            <p> This time, you will not see how much treasure you earned, but you will earn more bonus money for making better choices. </p>","","instructions","","","","","","","","","","","",""
"html-keyboard-response","96","578760","0.0-3.0-11.0-10.0-0.0","spark_pilot_norest","9678","1","7","Female","","","","","","","null","<div style=""font-size:100px;color:red;"">Starting in...</div>","null","","","","","","","","","","","","",""
"html-keyboard-response","97","579774","0.0-3.0-11.0-10.0-1.0","spark_pilot_norest","9678","1","7","Female","","","","","","","null","<div style=""font-size:200px;color:red;"">3</div>","null","","","","","","","","","","","","",""
"html-keyboard-response","98","580784","0.0-3.0-11.0-10.0-2.0","spark_pilot_norest","9678","1","7","Female","","","","","","","null","<div style=""font-size:200px;color:red;"">2</div>","null","","","","","","","","","","","","",""
"html-keyboard-response","99","581785","0.0-3.0-11.0-10.0-3.0","spark_pilot_norest","9678","1","7","Female","","","","","","","null","<div style=""font-size:200px;color:red;"">1</div>","null","","","","","","","","","","","","",""
"revaluation","100","582153","0.0-3.0-11.0-11.0-0.0","spark_pilot_norest","9678","1","7","Female","","","false","","","","[359.7999997138977]","./assets/img/space/animals/cat.jpg","[""ArrowRight""]","practice block","space","0","{""ArrowUp,ArrowLeft"":3,""ArrowUp,ArrowRight"":36,""ArrowDown,ArrowLeft"":15,""ArrowDown,ArrowRight"":23}","true","ArrowUp,ArrowRight","","","","","","",""
"html-keyboard-response","101","582664","0.0-3.0-11.0-11.0-1.0","spark_pilot_norest","9678","1","7","Female","","","","","","","null","<div style=""font-size:60px;"">+</div>","null","fixation","","","","","","","","","","","",""
"revaluation","102","583595","0.0-3.0-11.0-11.0-0.1","spark_pilot_norest","9678","1","7","Female","","","false","","","","[927.6000003814697]","./assets/img/space/animals/rabbit.jpg","[""ArrowRight""]","practice block","space","0","{""ArrowUp,ArrowLeft"":3,""ArrowUp,ArrowRight"":36,""ArrowDown,ArrowLeft"":15,""ArrowDown,ArrowRight"":23}","true","ArrowDown,ArrowRight","","","","","","",""
"html-keyboard-response","103","584110","0.0-3.0-11.0-11.0-1.1","spark_pilot_norest","9678","1","7","Female","","","","","","","null","<div style=""font-size:60px;"">+</div>","null","fixation","","","","","","","","","","","",""
"learning-instructions","104","596109","0.0-3.0-12.0-0.0","spark_pilot_norest","9678","1","7","Female","","","","","","","7398.299999713898","<p> Before you start, we're going to ask you a few questions about how the game works. </p>","","instructions","","","","","","","","","","","",""
"comp-q","105","607566","0.0-3.0-13.0-0.0-0.0","spark_pilot_norest","9678","1","7","Female","","","","","","","5832.5","<p> <b> True or False? </b> </p>
            <p> There can be 50 pieces of treasure in a given animal's chest. </p>","0","comp_question","","","","false","","","","","","","",""
"comp-q","106","617359","0.0-3.0-13.0-0.0-1.0","spark_pilot_norest","9678","1","7","Female","","","","","","","3247.9000000953674","<p> <b>Incorrect.</b> The amount of treasure in each chest can range from 0 to 40 pieces. </p>","0","comp_answer","","","","","","","","","","","",""
"comp-q","107","626213","0.0-3.0-13.0-0.1-0.1","spark_pilot_norest","9678","1","7","Female","","","","","","","3292.4000000953674","<p> <b> True or False? </b> </p>
            <p> There can be 50 pieces of treasure in a given animal's chest. </p>","1","comp_question","","","","true","","","","","","","",""
"comp-q","108","636404","0.0-3.0-13.0-0.1-1.1","spark_pilot_norest","9678","1","7","Female","","","","","","","3492.8999996185303","<p> <b> That's right! </b> The amount of treasure in each chest can range from 0 to 40 pieces. </p>","0","comp_answer","","","","","","","","","","","",""
"comp-q","109","645299","0.0-3.0-13.0-0.2-0.2","spark_pilot_norest","9678","1","7","Female","","","","","","","1747.5","<p> <b> True or False? </b> </p><p> In this game, all animals have the same amount of treasure in their left and right chests. </p>","1","comp_question","","","","true","","","","","","","",""
"comp-q","110","652425","0.0-3.0-13.0-0.2-1.2","spark_pilot_norest","9678","1","7","Female","","","","","","","1874.2000002861023","<p> <b> That's right! </b> Animals have different amounts of treasure in their treasure chests. </p>","0","comp_answer","","","","","","","","","","","",""
"comp-q","111","668184","0.0-3.0-13.0-0.3-0.3","spark_pilot_norest","9678","1","7","Female","","","","","","","9853","<p> <b> True or False? </b> </p><p> The same animal will always be there if you go up in the same place. </p>","0","comp_question","","","","true","","","","","","","",""
"comp-q","112","680171","0.0-3.0-13.0-0.3-1.3","spark_pilot_norest","9678","1","7","Female","","","","","","","5509.599999904633","<p> <b> That's right! </b> One animal lives in the upper part and one lives in the lower part of every place. </p>","0","comp_answer","","","","","","","","","","","",""
"comp-q","113","688057","0.0-3.0-13.0-0.4-0.4","spark_pilot_norest","9678","1","7","Female","","","","","","","2345.1000003814697","<p> <b> True or False? </b> </p><p> If you see a different picture, it means you are in a new place. </p>","0","comp_question","","","","false","","","","","","","",""
"comp-q","114","702131","0.0-3.0-13.0-0.4-1.4","spark_pilot_norest","9678","1","7","Female","","","","","","","2898.4000000953674","<p> <b>Incorrect.</b> Lots of different images may show the same place. For example,  you may see three different images that all remind you that you are in outer space. </p>","0","comp_answer","","","","","","","","","","","",""
"comp-q","115","714169","0.0-3.0-13.0-0.5-0.5","spark_pilot_norest","9678","1","7","Female","","","","","","","6537.900000095367","<p> <b> True or False? </b> </p><p> If you see a different picture, it means you are in a new place. </p>","1","comp_question","","","","true","","","","","","","",""
"comp-q","116","729602","0.0-3.0-13.0-0.5-1.5","spark_pilot_norest","9678","1","7","Female","","","","","","","4171.099999904633","<p> <b> That's right! </b> Lots of different images may show the same place. For example,  you may see three different images that all remind you that you are in outer space. </p>","0","comp_answer","","","","","","","","","","","",""
"learning-instructions","117","742965","0.0-3.0-14.0-0.0","spark_pilot_norest","9678","1","7","Female","","","","","","","3462.9000000953674","<p> Good job. Remember to do your best because the amount of treasure you earn will be converted into bonus money. </p>
            <p> It’s time to start the real game! </p>","","instructions","","","","","","","","","","","",""
"learning-instructions","118","747951","0.0-4.0-0.0-0.0","spark_pilot_norest","9678","1","7","Female","","","","","","","2250.699999809265","<p> This time you are searching for treasure in the <b>ocean</b>.</p>","","instructions","","","","","","","","","","","",""
"learning-instructions","119","768208","0.0-4.0-0.0-0.1","spark_pilot_norest","9678","1","7","Female","","","","","","","2816.2000002861023","<p><b>New</b> animals with <b>new</b> treasure chests live here. You need to explore to discover where the animal with the best treasure chest is.</p>
                    <p> Like before, once you figure out which animal has the chest with the most treasure, you should try to get to that animal and select that chest! </p>","","instructions","","","","","","","","","","","",""
"learning-instructions","120","785518","0.0-4.0-1.0-0.0","spark_pilot_norest","9678","1","7","Female","","","","","","","2587.0999999046326","<p> Remember, when you see a picture of the place, use the up and down keys to <b>find an animal</b>.</p>
            <p> When you encounter an animal, you should use the left and right keys to <b>select a treasure chest</b>.</p>
            <p> Don't forget to look out for the robber! </p>","","instructions","","","","","","","","","","","",""
"revaluation","121","789537","0.0-4.0-2.0-0.0","spark_pilot_norest","9678","1","7","Female","","","false","","","","[1434.6999998092651]","./assets/img/ocean/catch/3.jpg","[""spaceBar""]","value training","ocean","0","{""ArrowUp,ArrowLeft"":26,""ArrowUp,ArrowRight"":10,""ArrowDown,ArrowLeft"":5,""ArrowDown,ArrowRight"":17}","true","spaceBar","true","original","1","0","","",""
"html-keyboard-response","122","790052","0.0-4.0-2.0-1.0","spark_pilot_norest","9678","1","7","Female","","","","","","","null","<div style=""font-size:60px;"">+</div>","null","fixation","","","","","","","","","1","","",""
"revaluation","123","794067","0.0-4.0-2.0-0.1","spark_pilot_norest","9678","1","7","Female","","","true","","","","[]","./assets/img/ocean/memory/0.jpg","[]","value training","ocean","-5","{""ArrowUp,ArrowLeft"":26,""ArrowUp,ArrowRight"":10,""ArrowDown,ArrowLeft"":5,""ArrowDown,ArrowRight"":17}","false","","false","original","1","2","","",""
"html-keyboard-response","124","794581","0.0-4.0-2.0-1.1","spark_pilot_norest","9678","1","7","Female","","","","","","","null","<div style=""font-size:60px;"">+</div>","null","fixation","","","","","","","","","3","","",""
"revaluation","125","800609","0.0-4.0-2.0-0.2","spark_pilot_norest","9678","1","7","Female","","","false","","","","[1110.5,923.9000000953674]","./assets/img/ocean/memory/41.jpg","[""ArrowUp"",""ArrowRight""]","value training","ocean","10","{""ArrowUp,ArrowLeft"":26,""ArrowUp,ArrowRight"":10,""ArrowDown,ArrowLeft"":5,""ArrowDown,ArrowRight"":17}","false","ArrowUp,ArrowRight","false","original","1","4","","",""
"html-keyboard-response","126","801125","0.0-4.0-2.0-1.2","spark_pilot_norest","9678","1","7","Female","","","","","","","null","<div style=""font-size:60px;"">+</div>","null","fixation","","","","","","","","","5","","",""
"revaluation","127","807151","0.0-4.0-2.0-0.3","spark_pilot_norest","9678","1","7","Female","","","false","","","","[1129.9000000953674,1806]","./assets/img/ocean/memory/1.jpg","[""ArrowUp"",""ArrowRight""]","value training","ocean","10","{""ArrowUp,ArrowLeft"":26,""ArrowUp,ArrowRight"":10,""ArrowDown,ArrowLeft"":5,""ArrowDown,ArrowRight"":17}","false","ArrowUp,ArrowRight","false","original","1","6","","",""
"html-keyboard-response","128","807668","0.0-4.0-2.0-1.3","spark_pilot_norest","9678","1","7","Female","","","","","","","null","<div style=""font-size:60px;"">+</div>","null","fixation","","","","","","","","","7","","",""
"revaluation","129","813697","0.0-4.0-2.0-0.4","spark_pilot_norest","9678","1","7","Female","","","false","","","","[1875,1292.4000000953674]","./assets/img/ocean/memory/0.jpg","[""ArrowDown"",""ArrowLeft""]","value training","ocean","5","{""ArrowUp,ArrowLeft"":26,""ArrowUp,ArrowRight"":10,""ArrowDown,ArrowLeft"":5,""ArrowDown,ArrowRight"":17}","false","ArrowDown,ArrowLeft","false","original","1","8","","",""
"html-keyboard-response","130","814199","0.0-4.0-2.0-1.4","spark_pilot_norest","9678","1","7","Female","","","","","","","null","<div style=""font-size:60px;"">+</div>","null","fixation","","","","","","","","","9","","",""
"revaluation","131","820214","0.0-4.0-2.0-0.5","spark_pilot_norest","9678","1","7","Female","","","false","","","","[1048.0999999046326,651.5999999046326]","./assets/img/ocean/memory/39.jpg","[""ArrowUp"",""ArrowRight""]","value training","ocean","10","{""ArrowUp,ArrowLeft"":26,""ArrowUp,ArrowRight"":10,""ArrowDown,ArrowLeft"":5,""ArrowDown,ArrowRight"":17}","false","ArrowUp,ArrowRight","false","original","1","10","","",""
"html-keyboard-response","132","820716","0.0-4.0-2.0-1.5","spark_pilot_norest","9678","1","7","Female","","","","","","","null","<div style=""font-size:60px;"">+</div>","null","fixation","","","","","","","","","11","","",""
"revaluation","133","826725","0.0-4.0-2.0-0.6","spark_pilot_norest","9678","1","7","Female","","","false","","","","[1208.8999996185303,1498.1999998092651]","./assets/img/ocean/memory/26.jpg","[""ArrowDown"",""ArrowRight""]","value training","ocean","17","{""ArrowUp,ArrowLeft"":26,""ArrowUp,ArrowRight"":10,""ArrowDown,ArrowLeft"":5,""ArrowDown,ArrowRight"":17}","false","ArrowDown,ArrowRight","false","original","1","12","","",""
"html-keyboard-response","134","827227","0.0-4.0-2.0-1.6","spark_pilot_norest","9678","1","7","Female","","","","","","","null","<div style=""font-size:60px;"">+</div>","null","fixation","","","","","","","","","13","","",""
"revaluation","135","831239","0.0-4.0-2.0-0.7","spark_pilot_norest","9678","1","7","Female","","","true","","","","[]","./assets/img/ocean/memory/21.jpg","[]","value training","ocean","-5","{""ArrowUp,ArrowLeft"":26,""ArrowUp,ArrowRight"":10,""ArrowDown,ArrowLeft"":5,""ArrowDown,ArrowRight"":17}","false","","false","original","1","14","","",""
"html-keyboard-response","136","831742","0.0-4.0-2.0-1.7","spark_pilot_norest","9678","1","7","Female","","","","","","","null","<div style=""font-size:60px;"">+</div>","null","fixation","","","","","","","","","15","","",""
"revaluation","137","837765","0.0-4.0-2.0-0.8","spark_pilot_norest","9678","1","7","Female","","","false","","","","[1000.6000003814697,1366.2999997138977]","./assets/img/ocean/memory/41.jpg","[""ArrowUp"",""ArrowLeft""]","value training","ocean","26","{""ArrowUp,ArrowLeft"":26,""ArrowUp,ArrowRight"":10,""ArrowDown,ArrowLeft"":5,""ArrowDown,ArrowRight"":17}","true","ArrowUp,ArrowLeft","false","original","1","16","","",""
"html-keyboard-response","138","838267","0.0-4.0-2.0-1.8","spark_pilot_norest","9678","1","7","Female","","","","","","","null","<div style=""font-size:60px;"">+</div>","null","fixation","","","","","","","","","17","","",""
"revaluation","139","842281","0.0-4.0-2.0-0.9","spark_pilot_norest","9678","1","7","Female","","","false","","","","[1199.5999999046326]","./assets/img/ocean/catch/6.jpg","[""spaceBar""]","value training","ocean","0","{""ArrowUp,ArrowLeft"":26,""ArrowUp,ArrowRight"":10,""ArrowDown,ArrowLeft"":5,""ArrowDown,ArrowRight"":17}","true","spaceBar","true","original","1","18","","",""
"html-keyboard-response","140","842783","0.0-4.0-2.0-1.9","spark_pilot_norest","9678","1","7","Female","","","","","","","null","<div style=""font-size:60px;"">+</div>","null","fixation","","","","","","","","","19","","",""
"revaluation","141","846793","0.0-4.0-2.0-0.10","spark_pilot_norest","9678","1","7","Female","","","true","","","","[]","./assets/img/ocean/memory/8.jpg","[]","value training","ocean","-5","{""ArrowUp,ArrowLeft"":26,""ArrowUp,ArrowRight"":10,""ArrowDown,ArrowLeft"":5,""ArrowDown,ArrowRight"":17}","false","","false","original","1","20","","",""
"html-keyboard-response","142","847294","0.0-4.0-2.0-1.10","spark_pilot_norest","9678","1","7","Female","","","","","","","null","<div style=""font-size:60px;"">+</div>","null","fixation","","","","","","","","","21","","",""
"revaluation","143","853308","0.0-4.0-2.0-0.11","spark_pilot_norest","9678","1","7","Female","","","false","","","","[958.4000000953674,1184.8999996185303]","./assets/img/ocean/memory/38.jpg","[""ArrowUp"",""ArrowRight""]","value training","ocean","10","{""ArrowUp,ArrowLeft"":26,""ArrowUp,ArrowRight"":10,""ArrowDown,ArrowLeft"":5,""ArrowDown,ArrowRight"":17}","false","ArrowUp,ArrowRight","false","original","1","22","","",""
"html-keyboard-response","144","853810","0.0-4.0-2.0-1.11","spark_pilot_norest","9678","1","7","Female","","","","","","","null","<div style=""font-size:60px;"">+</div>","null","fixation","","","","","","","","","23","","",""
"revaluation","145","857829","0.0-4.0-2.0-0.12","spark_pilot_norest","9678","1","7","Female","","","false","","","","[1304.5999999046326]","./assets/img/ocean/catch/4.jpg","[""spaceBar""]","value training","ocean","0","{""ArrowUp,ArrowLeft"":26,""ArrowUp,ArrowRight"":10,""ArrowDown,ArrowLeft"":5,""ArrowDown,ArrowRight"":17}","true","spaceBar","true","original","1","24","","",""
"html-keyboard-response","146","858331","0.0-4.0-2.0-1.12","spark_pilot_norest","9678","1","7","Female","","","","","","","null","<div style=""font-size:60px;"">+</div>","null","fixation","","","","","","","","","25","","",""
"revaluation","147","864343","0.0-4.0-2.0-0.13","spark_pilot_norest","9678","1","7","Female","","","false","","","","[1086.7999997138977,1689.0999999046326]","./assets/img/ocean/memory/15.jpg","[""ArrowUp"",""ArrowLeft""]","value training","ocean","26","{""ArrowUp,ArrowLeft"":26,""ArrowUp,ArrowRight"":10,""ArrowDown,ArrowLeft"":5,""ArrowDown,ArrowRight"":17}","true","ArrowUp,ArrowLeft","false","original","1","26","","",""
"html-keyboard-response","148","864845","0.0-4.0-2.0-1.13","spark_pilot_norest","9678","1","7","Female","","","","","","","null","<div style=""font-size:60px;"">+</div>","null","fixation","","","","","","","","","27","","",""
"revaluation","149","870857","0.0-4.0-2.0-0.14","spark_pilot_norest","9678","1","7","Female","","","false","","","","[1920.3000001907349,1347.3000001907349]","./assets/img/ocean/memory/18.jpg","[""ArrowDown"",""ArrowRight""]","value training","ocean","17","{""ArrowUp,ArrowLeft"":26,""ArrowUp,ArrowRight"":10,""ArrowDown,ArrowLeft"":5,""ArrowDown,ArrowRight"":17}","false","ArrowDown,ArrowRight","false","original","1","28","","",""
"html-keyboard-response","150","871359","0.0-4.0-2.0-1.14","spark_pilot_norest","9678","1","7","Female","","","","","","","null","<div style=""font-size:60px;"">+</div>","null","fixation","","","","","","","","","29","","",""
"revaluation","151","875382","0.0-4.0-2.0-0.15","spark_pilot_norest","9678","1","7","Female","","","false","","","","[1021.9000000953674]","./assets/img/ocean/catch/2.jpg","[""spaceBar""]","value training","ocean","0","{""ArrowUp,ArrowLeft"":26,""ArrowUp,ArrowRight"":10,""ArrowDown,ArrowLeft"":5,""ArrowDown,ArrowRight"":17}","true","spaceBar","true","original","1","30","","",""
"html-keyboard-response","152","875883","0.0-4.0-2.0-1.15","spark_pilot_norest","9678","1","7","Female","","","","","","","null","<div style=""font-size:60px;"">+</div>","null","fixation","","","","","","","","","31","","",""
"revaluation","153","881894","0.0-4.0-2.0-0.16","spark_pilot_norest","9678","1","7","Female","","","false","","","","[1241.7000002861023,1009.8999996185303]","./assets/img/ocean/memory/10.jpg","[""ArrowUp"",""ArrowLeft""]","value training","ocean","26","{""ArrowUp,ArrowLeft"":26,""ArrowUp,ArrowRight"":10,""ArrowDown,ArrowLeft"":5,""ArrowDown,ArrowRight"":17}","true","ArrowUp,ArrowLeft","false","original","1","32","","",""
"html-keyboard-response","154","882395","0.0-4.0-2.0-1.16","spark_pilot_norest","9678","1","7","Female","","","","","","","null","<div style=""font-size:60px;"">+</div>","null","fixation","","","","","","","","","33","","",""
"revaluation","155","888406","0.0-4.0-2.0-0.17","spark_pilot_norest","9678","1","7","Female","","","false","","","","[876.7999997138977,1139.2999997138977]","./assets/img/ocean/memory/11.jpg","[""ArrowUp"",""ArrowLeft""]","value training","ocean","26","{""ArrowUp,ArrowLeft"":26,""ArrowUp,ArrowRight"":10,""ArrowDown,ArrowLeft"":5,""ArrowDown,ArrowRight"":17}","true","ArrowUp,ArrowLeft","false","original","1","34","","",""
"html-keyboard-response","156","888908","0.0-4.0-2.0-1.17","spark_pilot_norest","9678","1","7","Female","","","","","","","null","<div style=""font-size:60px;"">+</div>","null","fixation","","","","","","","","","35","","",""
"revaluation","157","894919","0.0-4.0-2.0-0.18","spark_pilot_norest","9678","1","7","Female","","","false","","","","[778.4000000953674,1110.5]","./assets/img/ocean/memory/8.jpg","[""ArrowUp"",""ArrowLeft""]","value training","ocean","26","{""ArrowUp,ArrowLeft"":26,""ArrowUp,ArrowRight"":10,""ArrowDown,ArrowLeft"":5,""ArrowDown,ArrowRight"":17}","true","ArrowUp,ArrowLeft","false","original","1","36","","",""
"html-keyboard-response","158","895421","0.0-4.0-2.0-1.18","spark_pilot_norest","9678","1","7","Female","","","","","","","null","<div style=""font-size:60px;"">+</div>","null","fixation","","","","","","","","","37","","",""
"revaluation","159","901432","0.0-4.0-2.0-0.19","spark_pilot_norest","9678","1","7","Female","","","false","","","","[1448.5,1020.7000002861023]","./assets/img/ocean/memory/25.jpg","[""ArrowUp"",""ArrowLeft""]","value training","ocean","26","{""ArrowUp,ArrowLeft"":26,""ArrowUp,ArrowRight"":10,""ArrowDown,ArrowLeft"":5,""ArrowDown,ArrowRight"":17}","true","ArrowUp,ArrowLeft","false","original","1","38","","",""
"html-keyboard-response","160","901934","0.0-4.0-2.0-1.19","spark_pilot_norest","9678","1","7","Female","","","","","","","null","<div style=""font-size:60px;"">+</div>","null","fixation","","","","","","","","","39","","",""
"revaluation","161","907944","0.0-4.0-2.0-0.20","spark_pilot_norest","9678","1","7","Female","","","false","","","","[781.8000001907349,440]","./assets/img/ocean/memory/35.jpg","[""ArrowDown"",""ArrowRight""]","value training","ocean","17","{""ArrowUp,ArrowLeft"":26,""ArrowUp,ArrowRight"":10,""ArrowDown,ArrowLeft"":5,""ArrowDown,ArrowRight"":17}","false","ArrowDown,ArrowRight","false","original","1","40","","",""
"html-keyboard-response","162","908446","0.0-4.0-2.0-1.20","spark_pilot_norest","9678","1","7","Female","","","","","","","null","<div style=""font-size:60px;"">+</div>","null","fixation","","","","","","","","","41","","",""
"revaluation","163","914457","0.0-4.0-2.0-0.21","spark_pilot_norest","9678","1","7","Female","","","false","","","","[1996.3000001907349,1275.2999997138977]","./assets/img/ocean/memory/30.jpg","[""ArrowUp"",""ArrowLeft""]","value training","ocean","26","{""ArrowUp,ArrowLeft"":26,""ArrowUp,ArrowRight"":10,""ArrowDown,ArrowLeft"":5,""ArrowDown,ArrowRight"":17}","true","ArrowUp,ArrowLeft","false","original","1","42","","",""
"html-keyboard-response","164","914959","0.0-4.0-2.0-1.21","spark_pilot_norest","9678","1","7","Female","","","","","","","null","<div style=""font-size:60px;"">+</div>","null","fixation","","","","","","","","","43","","",""
"revaluation","165","920970","0.0-4.0-2.0-0.22","spark_pilot_norest","9678","1","7","Female","","","false","","","","[1342.3000001907349,621.8000001907349]","./assets/img/ocean/memory/39.jpg","[""ArrowUp"",""ArrowLeft""]","value training","ocean","26","{""ArrowUp,ArrowLeft"":26,""ArrowUp,ArrowRight"":10,""ArrowDown,ArrowLeft"":5,""ArrowDown,ArrowRight"":17}","true","ArrowUp,ArrowLeft","false","original","1","44","","",""
"html-keyboard-response","166","921473","0.0-4.0-2.0-1.22","spark_pilot_norest","9678","1","7","Female","","","","","","","null","<div style=""font-size:60px;"">+</div>","null","fixation","","","","","","","","","45","","",""
"revaluation","167","927484","0.0-4.0-2.0-0.23","spark_pilot_norest","9678","1","7","Female","","","false","","","","[820.9000000953674,293.59999990463257]","./assets/img/ocean/memory/33.jpg","[""ArrowUp"",""ArrowLeft""]","value training","ocean","26","{""ArrowUp,ArrowLeft"":26,""ArrowUp,ArrowRight"":10,""ArrowDown,ArrowLeft"":5,""ArrowDown,ArrowRight"":17}","true","ArrowUp,ArrowLeft","false","original","1","46","","",""
"html-keyboard-response","168","927986","0.0-4.0-2.0-1.23","spark_pilot_norest","9678","1","7","Female","","","","","","","null","<div style=""font-size:60px;"">+</div>","null","fixation","","","","","","","","","47","","",""
"revaluation","169","934000","0.0-4.0-2.0-0.24","spark_pilot_norest","9678","1","7","Female","","","false","","","","[824.9000000953674,433]","./assets/img/ocean/memory/19.jpg","[""ArrowUp"",""ArrowLeft""]","value training","ocean","26","{""ArrowUp,ArrowLeft"":26,""ArrowUp,ArrowRight"":10,""ArrowDown,ArrowLeft"":5,""ArrowDown,ArrowRight"":17}","true","ArrowUp,ArrowLeft","false","original","1","48","","",""
"html-keyboard-response","170","934502","0.0-4.0-2.0-1.24","spark_pilot_norest","9678","1","7","Female","","","","","","","null","<div style=""font-size:60px;"">+</div>","null","fixation","","","","","","","","","49","","",""
"revaluation","171","940511","0.0-4.0-2.0-0.25","spark_pilot_norest","9678","1","7","Female","","","false","","","","[858.6999998092651,283.59999990463257]","./assets/img/ocean/memory/24.jpg","[""ArrowUp"",""ArrowLeft""]","value training","ocean","26","{""ArrowUp,ArrowLeft"":26,""ArrowUp,ArrowRight"":10,""ArrowDown,ArrowLeft"":5,""ArrowDown,ArrowRight"":17}","true","ArrowUp,ArrowLeft","false","original","1","50","","",""
"html-keyboard-response","172","941013","0.0-4.0-2.0-1.25","spark_pilot_norest","9678","1","7","Female","","","","","","","null","<div style=""font-size:60px;"">+</div>","null","fixation","","","","","","","","","51","","",""
"revaluation","173","945053","0.0-4.0-2.0-0.26","spark_pilot_norest","9678","1","7","Female","","","false","","","","[713.4000000953674]","./assets/img/ocean/catch/7.jpg","[""spaceBar""]","value training","ocean","0","{""ArrowUp,ArrowLeft"":26,""ArrowUp,ArrowRight"":10,""ArrowDown,ArrowLeft"":5,""ArrowDown,ArrowRight"":17}","true","spaceBar","true","original","1","52","","",""
"html-keyboard-response","174","945559","0.0-4.0-2.0-1.26","spark_pilot_norest","9678","1","7","Female","","","","","","","null","<div style=""font-size:60px;"">+</div>","null","fixation","","","","","","","","","53","","",""
"revaluation","175","951573","0.0-4.0-2.0-0.27","spark_pilot_norest","9678","1","7","Female","","","false","","","","[1423.3000001907349,1248.9000000953674]","./assets/img/ocean/memory/22.jpg","[""ArrowUp"",""ArrowLeft""]","value training","ocean","26","{""ArrowUp,ArrowLeft"":26,""ArrowUp,ArrowRight"":10,""ArrowDown,ArrowLeft"":5,""ArrowDown,ArrowRight"":17}","true","ArrowUp,ArrowLeft","false","original","1","54","","",""
"html-keyboard-response","176","952075","0.0-4.0-2.0-1.27","spark_pilot_norest","9678","1","7","Female","","","","","","","null","<div style=""font-size:60px;"">+</div>","null","fixation","","","","","","","","","55","","",""
"revaluation","177","958134","0.0-4.0-2.0-0.28","spark_pilot_norest","9678","1","7","Female","","","false","","","","[756.5,841.4000000953674]","./assets/img/ocean/memory/24.jpg","[""ArrowUp"",""ArrowLeft""]","value training","ocean","26","{""ArrowUp,ArrowLeft"":26,""ArrowUp,ArrowRight"":10,""ArrowDown,ArrowLeft"":5,""ArrowDown,ArrowRight"":17}","true","ArrowUp,ArrowLeft","false","original","1","56","","",""
"html-keyboard-response","178","958637","0.0-4.0-2.0-1.28","spark_pilot_norest","9678","1","7","Female","","","","","","","null","<div style=""font-size:60px;"">+</div>","null","fixation","","","","","","","","","57","","",""
"revaluation","179","964649","0.0-4.0-2.0-0.29","spark_pilot_norest","9678","1","7","Female","","","false","","","","[1642.8000001907349,1598.1000003814697]","./assets/img/ocean/memory/15.jpg","[""ArrowDown"",""ArrowLeft""]","value training","ocean","5","{""ArrowUp,ArrowLeft"":26,""ArrowUp,ArrowRight"":10,""ArrowDown,ArrowLeft"":5,""ArrowDown,ArrowRight"":17}","false","ArrowDown,ArrowLeft","false","original","1","58","","",""
"html-keyboard-response","180","965151","0.0-4.0-2.0-1.29","spark_pilot_norest","9678","1","7","Female","","","","","","","null","<div style=""font-size:60px;"">+</div>","null","fixation","","","","","","","","","59","","",""
"revaluation","181","969161","0.0-4.0-2.0-0.30","spark_pilot_norest","9678","1","7","Female","","","false","","","","[1520.7000002861023]","./assets/img/ocean/catch/5.jpg","[""spaceBar""]","value training","ocean","0","{""ArrowUp,ArrowLeft"":26,""ArrowUp,ArrowRight"":10,""ArrowDown,ArrowLeft"":5,""ArrowDown,ArrowRight"":17}","true","spaceBar","true","original","1","60","","",""
"html-keyboard-response","182","969663","0.0-4.0-2.0-1.30","spark_pilot_norest","9678","1","7","Female","","","","","","","null","<div style=""font-size:60px;"">+</div>","null","fixation","","","","","","","","","61","","",""
"revaluation","183","973673","0.0-4.0-2.0-0.31","spark_pilot_norest","9678","1","7","Female","","","false","","","","[1395.5999999046326]","./assets/img/ocean/catch/1.jpg","[""spaceBar""]","value training","ocean","0","{""ArrowUp,ArrowLeft"":26,""ArrowUp,ArrowRight"":10,""ArrowDown,ArrowLeft"":5,""ArrowDown,ArrowRight"":17}","true","spaceBar","true","original","1","62","","",""
"html-keyboard-response","184","974175","0.0-4.0-2.0-1.31","spark_pilot_norest","9678","1","7","Female","","","","","","","null","<div style=""font-size:60px;"">+</div>","null","fixation","","","","","","","","","63","","",""
"revaluation","185","980195","0.0-4.0-2.0-0.32","spark_pilot_norest","9678","1","7","Female","","","false","","","","[1721.3000001907349,1203.5999999046326]","./assets/img/ocean/memory/11.jpg","[""ArrowUp"",""ArrowRight""]","value training","ocean","10","{""ArrowUp,ArrowLeft"":26,""ArrowUp,ArrowRight"":10,""ArrowDown,ArrowLeft"":5,""ArrowDown,ArrowRight"":17}","false","ArrowUp,ArrowRight","false","original","1","64","","",""
"html-keyboard-response","186","980696","0.0-4.0-2.0-1.32","spark_pilot_norest","9678","1","7","Female","","","","","","","null","<div style=""font-size:60px;"">+</div>","null","fixation","","","","","","","","","65","","",""
"revaluation","187","986719","0.0-4.0-2.0-0.33","spark_pilot_norest","9678","1","7","Female","","","false","","","","[1646.1000003814697,407.6000003814697]","./assets/img/ocean/memory/21.jpg","[""ArrowUp"",""ArrowLeft""]","value training","ocean","26","{""ArrowUp,ArrowLeft"":26,""ArrowUp,ArrowRight"":10,""ArrowDown,ArrowLeft"":5,""ArrowDown,ArrowRight"":17}","true","ArrowUp,ArrowLeft","false","original","1","66","","",""
"html-keyboard-response","188","987221","0.0-4.0-2.0-1.33","spark_pilot_norest","9678","1","7","Female","","","","","","","null","<div style=""font-size:60px;"">+</div>","null","fixation","","","","","","","","","67","","",""
"revaluation","189","993229","0.0-4.0-2.0-0.34","spark_pilot_norest","9678","1","7","Female","","","false","","","","[939.5,639.5]","./assets/img/ocean/memory/12.jpg","[""ArrowUp"",""ArrowLeft""]","value training","ocean","26","{""ArrowUp,ArrowLeft"":26,""ArrowUp,ArrowRight"":10,""ArrowDown,ArrowLeft"":5,""ArrowDown,ArrowRight"":17}","true","ArrowUp,ArrowLeft","false","original","1","68","","",""
"html-keyboard-response","190","993731","0.0-4.0-2.0-1.34","spark_pilot_norest","9678","1","7","Female","","","","","","","null","<div style=""font-size:60px;"">+</div>","null","fixation","","","","","","","","","69","","",""
"revaluation","191","999750","0.0-4.0-2.0-0.35","spark_pilot_norest","9678","1","7","Female","","","false","","","","[1625.4000000953674,1486.3999996185303]","./assets/img/ocean/memory/18.jpg","[""ArrowDown"",""ArrowRight""]","value training","ocean","17","{""ArrowUp,ArrowLeft"":26,""ArrowUp,ArrowRight"":10,""ArrowDown,ArrowLeft"":5,""ArrowDown,ArrowRight"":17}","false","ArrowDown,ArrowRight","false","original","1","70","","",""
"html-keyboard-response","192","1000251","0.0-4.0-2.0-1.35","spark_pilot_norest","9678","1","7","Female","","","","","","","null","<div style=""font-size:60px;"">+</div>","null","fixation","","","","","","","","","71","","",""
"revaluation","193","1006262","0.0-4.0-2.0-0.36","spark_pilot_norest","9678","1","7","Female","","","false","","","","[1184.4000000953674,499.19999980926514]","./assets/img/ocean/memory/22.jpg","[""ArrowUp"",""ArrowLeft""]","value training","ocean","26","{""ArrowUp,ArrowLeft"":26,""ArrowUp,ArrowRight"":10,""ArrowDown,ArrowLeft"":5,""ArrowDown,ArrowRight"":17}","true","ArrowUp,ArrowLeft","false","original","1","72","","",""
"html-keyboard-response","194","1006767","0.0-4.0-2.0-1.36","spark_pilot_norest","9678","1","7","Female","","","","","","","null","<div style=""font-size:60px;"">+</div>","null","fixation","","","","","","","","","73","","",""
"revaluation","195","1012780","0.0-4.0-2.0-0.37","spark_pilot_norest","9678","1","7","Female","","","false","","","","[1610.7999997138977,1345.1999998092651]","./assets/img/ocean/memory/20.jpg","[""ArrowUp"",""ArrowLeft""]","value training","ocean","26","{""ArrowUp,ArrowLeft"":26,""ArrowUp,ArrowRight"":10,""ArrowDown,ArrowLeft"":5,""ArrowDown,ArrowRight"":17}","true","ArrowUp,ArrowLeft","false","original","1","74","","",""
"html-keyboard-response","196","1013300","0.0-4.0-2.0-1.37","spark_pilot_norest","9678","1","7","Female","","","","","","","null","<div style=""font-size:60px;"">+</div>","null","fixation","","","","","","","","","75","","",""
"revaluation","197","1019317","0.0-4.0-2.0-0.38","spark_pilot_norest","9678","1","7","Female","","","false","","","","[677.9000000953674,653.6999998092651]","./assets/img/ocean/memory/38.jpg","[""ArrowUp"",""ArrowLeft""]","value training","ocean","26","{""ArrowUp,ArrowLeft"":26,""ArrowUp,ArrowRight"":10,""ArrowDown,ArrowLeft"":5,""ArrowDown,ArrowRight"":17}","true","ArrowUp,ArrowLeft","false","original","1","76","","",""
"html-keyboard-response","198","1019824","0.0-4.0-2.0-1.38","spark_pilot_norest","9678","1","7","Female","","","","","","","null","<div style=""font-size:60px;"">+</div>","null","fixation","","","","","","","","","77","","",""
"revaluation","199","1023835","0.0-4.0-2.0-0.39","spark_pilot_norest","9678","1","7","Female","","","false","","","","[402.30000019073486]","./assets/img/ocean/catch/0.jpg","[""ArrowDown""]","value training","ocean","-10","{""ArrowUp,ArrowLeft"":26,""ArrowUp,ArrowRight"":10,""ArrowDown,ArrowLeft"":5,""ArrowDown,ArrowRight"":17}","false","ArrowDown","true","original","1","78","","",""
"html-keyboard-response","200","1024337","0.0-4.0-2.0-1.39","spark_pilot_norest","9678","1","7","Female","","","","","","","null","<div style=""font-size:60px;"">+</div>","null","fixation","","","","","","","","","79","","",""
"revaluation","201","1028349","0.0-4.0-2.0-0.40","spark_pilot_norest","9678","1","7","Female","","","true","","","","[]","./assets/img/ocean/memory/1.jpg","[]","value training","ocean","-5","{""ArrowUp,ArrowLeft"":26,""ArrowUp,ArrowRight"":10,""ArrowDown,ArrowLeft"":5,""ArrowDown,ArrowRight"":17}","false","","false","original","1","80","","",""
"html-keyboard-response","202","1028858","0.0-4.0-2.0-1.40","spark_pilot_norest","9678","1","7","Female","","","","","","","null","<div style=""font-size:60px;"">+</div>","null","fixation","","","","","","","","","81","","",""
"revaluation","203","1034873","0.0-4.0-2.0-0.41","spark_pilot_norest","9678","1","7","Female","","","false","","","","[468,609.3000001907349]","./assets/img/ocean/memory/30.jpg","[""ArrowUp"",""ArrowLeft""]","value training","ocean","26","{""ArrowUp,ArrowLeft"":26,""ArrowUp,ArrowRight"":10,""ArrowDown,ArrowLeft"":5,""ArrowDown,ArrowRight"":17}","true","ArrowUp,ArrowLeft","false","original","1","82","","",""
"html-keyboard-response","204","1035375","0.0-4.0-2.0-1.41","spark_pilot_norest","9678","1","7","Female","","","","","","","null","<div style=""font-size:60px;"">+</div>","null","fixation","","","","","","","","","83","","",""
"revaluation","205","1039384","0.0-4.0-2.0-0.42","spark_pilot_norest","9678","1","7","Female","","","true","","","","[]","./assets/img/ocean/memory/10.jpg","[]","value training","ocean","-5","{""ArrowUp,ArrowLeft"":26,""ArrowUp,ArrowRight"":10,""ArrowDown,ArrowLeft"":5,""ArrowDown,ArrowRight"":17}","false","","false","original","1","84","","",""
"html-keyboard-response","206","1039886","0.0-4.0-2.0-1.42","spark_pilot_norest","9678","1","7","Female","","","","","","","null","<div style=""font-size:60px;"">+</div>","null","fixation","","","","","","","","","85","","",""
"revaluation","207","1045897","0.0-4.0-2.0-0.43","spark_pilot_norest","9678","1","7","Female","","","false","","","","[682.7999997138977,647.7999997138977]","./assets/img/ocean/memory/12.jpg","[""ArrowDown"",""ArrowRight""]","value training","ocean","17","{""ArrowUp,ArrowLeft"":26,""ArrowUp,ArrowRight"":10,""ArrowDown,ArrowLeft"":5,""ArrowDown,ArrowRight"":17}","false","ArrowDown,ArrowRight","false","original","1","86","","",""
"html-keyboard-response","208","1046399","0.0-4.0-2.0-1.43","spark_pilot_norest","9678","1","7","Female","","","","","","","null","<div style=""font-size:60px;"">+</div>","null","fixation","","","","","","","","","87","","",""
"revaluation","209","1052409","0.0-4.0-2.0-0.44","spark_pilot_norest","9678","1","7","Female","","","false","","","","[555.0999999046326,1290.9000000953674]","./assets/img/ocean/memory/19.jpg","[""ArrowUp"",""ArrowLeft""]","value training","ocean","26","{""ArrowUp,ArrowLeft"":26,""ArrowUp,ArrowRight"":10,""ArrowDown,ArrowLeft"":5,""ArrowDown,ArrowRight"":17}","true","ArrowUp,ArrowLeft","false","original","1","88","","",""
"html-keyboard-response","210","1052915","0.0-4.0-2.0-1.44","spark_pilot_norest","9678","1","7","Female","","","","","","","null","<div style=""font-size:60px;"">+</div>","null","fixation","","","","","","","","","89","","",""
"revaluation","211","1058935","0.0-4.0-2.0-0.45","spark_pilot_norest","9678","1","7","Female","","","false","","","","[730.5999999046326,1050.4000000953674]","./assets/img/ocean/memory/35.jpg","[""ArrowUp"",""ArrowLeft""]","value training","ocean","26","{""ArrowUp,ArrowLeft"":26,""ArrowUp,ArrowRight"":10,""ArrowDown,ArrowLeft"":5,""ArrowDown,ArrowRight"":17}","true","ArrowUp,ArrowLeft","false","original","1","90","","",""
"html-keyboard-response","212","1059437","0.0-4.0-2.0-1.45","spark_pilot_norest","9678","1","7","Female","","","","","","","null","<div style=""font-size:60px;"">+</div>","null","fixation","","","","","","","","","91","","",""
"revaluation","213","1065446","0.0-4.0-2.0-0.46","spark_pilot_norest","9678","1","7","Female","","","false","","","","[1298.5,873.5999999046326]","./assets/img/ocean/memory/26.jpg","[""ArrowUp"",""ArrowLeft""]","value training","ocean","26","{""ArrowUp,ArrowLeft"":26,""ArrowUp,ArrowRight"":10,""ArrowDown,ArrowLeft"":5,""ArrowDown,ArrowRight"":17}","true","ArrowUp,ArrowLeft","false","original","1","92","","",""
"html-keyboard-response","214","1065948","0.0-4.0-2.0-1.46","spark_pilot_norest","9678","1","7","Female","","","","","","","null","<div style=""font-size:60px;"">+</div>","null","fixation","","","","","","","","","93","","",""
"revaluation","215","1071960","0.0-4.0-2.0-0.47","spark_pilot_norest","9678","1","7","Female","","","false","","","","[977.2999997138977,899.9000000953674]","./assets/img/ocean/memory/25.jpg","[""ArrowUp"",""ArrowLeft""]","value training","ocean","26","{""ArrowUp,ArrowLeft"":26,""ArrowUp,ArrowRight"":10,""ArrowDown,ArrowLeft"":5,""ArrowDown,ArrowRight"":17}","true","ArrowUp,ArrowLeft","false","original","1","94","","",""
"html-keyboard-response","216","1072462","0.0-4.0-2.0-1.47","spark_pilot_norest","9678","1","7","Female","","","","","","","null","<div style=""font-size:60px;"">+</div>","null","fixation","","","","","","","","","95","","",""
"revaluation","217","1078473","0.0-4.0-2.0-0.48","spark_pilot_norest","9678","1","7","Female","","","false","","","","[1164.3000001907349,688.7000002861023]","./assets/img/ocean/memory/33.jpg","[""ArrowUp"",""ArrowLeft""]","value training","ocean","26","{""ArrowUp,ArrowLeft"":26,""ArrowUp,ArrowRight"":10,""ArrowDown,ArrowLeft"":5,""ArrowDown,ArrowRight"":17}","true","ArrowUp,ArrowLeft","false","original","1","96","","",""
"html-keyboard-response","218","1078975","0.0-4.0-2.0-1.48","spark_pilot_norest","9678","1","7","Female","","","","","","","null","<div style=""font-size:60px;"">+</div>","null","fixation","","","","","","","","","97","","",""
"revaluation","219","1084986","0.0-4.0-2.0-0.49","spark_pilot_norest","9678","1","7","Female","","","false","","","","[1343,202.30000019073486]","./assets/img/ocean/memory/20.jpg","[""ArrowUp"",""ArrowLeft""]","value training","ocean","26","{""ArrowUp,ArrowLeft"":26,""ArrowUp,ArrowRight"":10,""ArrowDown,ArrowLeft"":5,""ArrowDown,ArrowRight"":17}","true","ArrowUp,ArrowLeft","false","original","1","98","","",""
"html-keyboard-response","220","1085488","0.0-4.0-2.0-1.49","spark_pilot_norest","9678","1","7","Female","","","","","","","null","<div style=""font-size:60px;"">+</div>","null","fixation","","","","","","","","","99","","",""
"learning-instructions","221","1104110","0.0-4.0-3.0-0.0","spark_pilot_norest","9678","1","7","Female","","","","","","","5136.800000190735","<p> Now, you will travel with a friend who will choose whether you go up or down first. </p>
            <p> On these turns, you will just see the animal that they found. You will still get to choose which chest to search for treasure.</p>","","instructions","","","","","","","","","","","",""
"revaluation","222","1108134","0.0-4.0-4.0-0.0","spark_pilot_norest","9678","1","7","Female","","","true","","","","[]","./assets/img/ocean/animals/octopus.jpg","[]","revaluation","ocean","-5","{""ArrowUp,ArrowLeft"":26,""ArrowUp,ArrowRight"":10,""ArrowDown,ArrowLeft"":5,""ArrowDown,ArrowRight"":17}","false","ArrowUp","","original","1","0","","",""
"html-keyboard-response","223","1108642","0.0-4.0-4.0-1.0","spark_pilot_norest","9678","1","7","Female","","","","","","","null","<div style=""font-size:60px;"">+</div>","null","fixation","","","","","","","","","1","","",""
"revaluation","224","1112663","0.0-4.0-4.0-0.1","spark_pilot_norest","9678","1","7","Female","","","false","","","","[1036.3999996185303]","./assets/img/ocean/animals/seahorse.jpg","[""ArrowRight""]","revaluation","ocean","17","{""ArrowUp,ArrowLeft"":26,""ArrowUp,ArrowRight"":10,""ArrowDown,ArrowLeft"":5,""ArrowDown,ArrowRight"":17}","true","ArrowDown,ArrowRight","","original","1","2","","",""
"html-keyboard-response","225","1113172","0.0-4.0-4.0-1.1","spark_pilot_norest","9678","1","7","Female","","","","","","","null","<div style=""font-size:60px;"">+</div>","null","fixation","","","","","","","","","3","","",""
"revaluation","226","1117189","0.0-4.0-4.0-0.2","spark_pilot_norest","9678","1","7","Female","","","false","","","","[375.59999990463257]","./assets/img/ocean/animals/seahorse.jpg","[""ArrowLeft""]","revaluation","ocean","5","{""ArrowUp,ArrowLeft"":26,""ArrowUp,ArrowRight"":10,""ArrowDown,ArrowLeft"":5,""ArrowDown,ArrowRight"":17}","false","ArrowDown,ArrowLeft","","original","1","4","","",""
"html-keyboard-response","227","1117700","0.0-4.0-4.0-1.2","spark_pilot_norest","9678","1","7","Female","","","","","","","null","<div style=""font-size:60px;"">+</div>","null","fixation","","","","","","","","","5","","",""
"revaluation","228","1121765","0.0-4.0-4.0-0.3","spark_pilot_norest","9678","1","7","Female","","","false","","","","[657.6000003814697]","./assets/img/ocean/animals/seahorse.jpg","[""ArrowRight""]","revaluation","ocean","17","{""ArrowUp,ArrowLeft"":26,""ArrowUp,ArrowRight"":10,""ArrowDown,ArrowLeft"":5,""ArrowDown,ArrowRight"":17}","true","ArrowDown,ArrowRight","","original","1","6","","",""
"html-keyboard-response","229","1122268","0.0-4.0-4.0-1.3","spark_pilot_norest","9678","1","7","Female","","","","","","","null","<div style=""font-size:60px;"">+</div>","null","fixation","","","","","","","","","7","","",""
"revaluation","230","1126291","0.0-4.0-4.0-0.4","spark_pilot_norest","9678","1","7","Female","","","false","","","","[1242.0999999046326]","./assets/img/ocean/animals/seahorse.jpg","[""ArrowRight""]","revaluation","ocean","17","{""ArrowUp,ArrowLeft"":26,""ArrowUp,ArrowRight"":10,""ArrowDown,ArrowLeft"":5,""ArrowDown,ArrowRight"":17}","true","ArrowDown,ArrowRight","","original","1","8","","",""
"html-keyboard-response","231","1126805","0.0-4.0-4.0-1.4","spark_pilot_norest","9678","1","7","Female","","","","","","","null","<div style=""font-size:60px;"">+</div>","null","fixation","","","","","","","","","9","","",""
"revaluation","232","1130822","0.0-4.0-4.0-0.5","spark_pilot_norest","9678","1","7","Female","","","false","","","","[1595.2999997138977]","./assets/img/ocean/animals/seahorse.jpg","[""ArrowRight""]","revaluation","ocean","17","{""ArrowUp,ArrowLeft"":26,""ArrowUp,ArrowRight"":10,""ArrowDown,ArrowLeft"":5,""ArrowDown,ArrowRight"":17}","true","ArrowDown,ArrowRight","","original","1","10","","",""
"html-keyboard-response","233","1131324","0.0-4.0-4.0-1.5","spark_pilot_norest","9678","1","7","Female","","","","","","","null","<div style=""font-size:60px;"">+</div>","null","fixation","","","","","","","","","11","","",""
"revaluation","234","1135336","0.0-4.0-4.0-0.6","spark_pilot_norest","9678","1","7","Female","","","false","","","","[456.69999980926514]","./assets/img/ocean/animals/octopus.jpg","[""ArrowLeft""]","revaluation","ocean","26","{""ArrowUp,ArrowLeft"":26,""ArrowUp,ArrowRight"":10,""ArrowDown,ArrowLeft"":5,""ArrowDown,ArrowRight"":17}","true","ArrowUp,ArrowLeft","","original","1","12","","",""
"html-keyboard-response","235","1135837","0.0-4.0-4.0-1.6","spark_pilot_norest","9678","1","7","Female","","","","","","","null","<div style=""font-size:60px;"">+</div>","null","fixation","","","","","","","","","13","","",""
"revaluation","236","1139848","0.0-4.0-4.0-0.7","spark_pilot_norest","9678","1","7","Female","","","false","","","","[855.6999998092651]","./assets/img/ocean/animals/octopus.jpg","[""ArrowLeft""]","revaluation","ocean","26","{""ArrowUp,ArrowLeft"":26,""ArrowUp,ArrowRight"":10,""ArrowDown,ArrowLeft"":5,""ArrowDown,ArrowRight"":17}","true","ArrowUp,ArrowLeft","","original","1","14","","",""
"html-keyboard-response","237","1140402","0.0-4.0-4.0-1.7","spark_pilot_norest","9678","1","7","Female","","","","","","","null","<div style=""font-size:60px;"">+</div>","null","fixation","","","","","","","","","15","","",""
"revaluation","238","1144414","0.0-4.0-4.0-0.8","spark_pilot_norest","9678","1","7","Female","","","false","","","","[671.2000002861023]","./assets/img/ocean/animals/octopus.jpg","[""ArrowLeft""]","revaluation","ocean","26","{""ArrowUp,ArrowLeft"":26,""ArrowUp,ArrowRight"":10,""ArrowDown,ArrowLeft"":5,""ArrowDown,ArrowRight"":17}","true","ArrowUp,ArrowLeft","","original","1","16","","",""
"html-keyboard-response","239","1144917","0.0-4.0-4.0-1.8","spark_pilot_norest","9678","1","7","Female","","","","","","","null","<div style=""font-size:60px;"">+</div>","null","fixation","","","","","","","","","17","","",""
"revaluation","240","1148924","0.0-4.0-4.0-0.9","spark_pilot_norest","9678","1","7","Female","","","false","","","","[596.1999998092651]","./assets/img/ocean/animals/octopus.jpg","[""ArrowLeft""]","revaluation","ocean","26","{""ArrowUp,ArrowLeft"":26,""ArrowUp,ArrowRight"":10,""ArrowDown,ArrowLeft"":5,""ArrowDown,ArrowRight"":17}","true","ArrowUp,ArrowLeft","","original","1","18","","",""
"html-keyboard-response","241","1149426","0.0-4.0-4.0-1.9","spark_pilot_norest","9678","1","7","Female","","","","","","","null","<div style=""font-size:60px;"">+</div>","null","fixation","","","","","","","","","19","","",""
"revaluation","242","1153437","0.0-4.0-4.0-0.10","spark_pilot_norest","9678","1","7","Female","","","false","","","","[1064.5]","./assets/img/ocean/animals/seahorse.jpg","[""ArrowRight""]","revaluation","ocean","17","{""ArrowUp,ArrowLeft"":26,""ArrowUp,ArrowRight"":10,""ArrowDown,ArrowLeft"":5,""ArrowDown,ArrowRight"":17}","true","ArrowDown,ArrowRight","","original","1","20","","",""
"html-keyboard-response","243","1153939","0.0-4.0-4.0-1.10","spark_pilot_norest","9678","1","7","Female","","","","","","","null","<div style=""font-size:60px;"">+</div>","null","fixation","","","","","","","","","21","","",""
"revaluation","244","1157951","0.0-4.0-4.0-0.11","spark_pilot_norest","9678","1","7","Female","","","false","","","","[456.30000019073486]","./assets/img/ocean/animals/seahorse.jpg","[""ArrowLeft""]","revaluation","ocean","5","{""ArrowUp,ArrowLeft"":26,""ArrowUp,ArrowRight"":10,""ArrowDown,ArrowLeft"":5,""ArrowDown,ArrowRight"":17}","false","ArrowDown,ArrowLeft","","original","1","22","","",""
"html-keyboard-response","245","1158453","0.0-4.0-4.0-1.11","spark_pilot_norest","9678","1","7","Female","","","","","","","null","<div style=""font-size:60px;"">+</div>","null","fixation","","","","","","","","","23","","",""
"revaluation","246","1162461","0.0-4.0-4.0-0.12","spark_pilot_norest","9678","1","7","Female","","","false","","","","[1104.6000003814697]","./assets/img/ocean/animals/octopus.jpg","[""ArrowLeft""]","revaluation","ocean","26","{""ArrowUp,ArrowLeft"":26,""ArrowUp,ArrowRight"":10,""ArrowDown,ArrowLeft"":5,""ArrowDown,ArrowRight"":17}","true","ArrowUp,ArrowLeft","","original","1","24","","",""
"html-keyboard-response","247","1162962","0.0-4.0-4.0-1.12","spark_pilot_norest","9678","1","7","Female","","","","","","","null","<div style=""font-size:60px;"">+</div>","null","fixation","","","","","","","","","25","","",""
"revaluation","248","1166971","0.0-4.0-4.0-0.13","spark_pilot_norest","9678","1","7","Female","","","false","","","","[715.7000002861023]","./assets/img/ocean/animals/seahorse.jpg","[""ArrowRight""]","revaluation","ocean","17","{""ArrowUp,ArrowLeft"":26,""ArrowUp,ArrowRight"":10,""ArrowDown,ArrowLeft"":5,""ArrowDown,ArrowRight"":17}","true","ArrowDown,ArrowRight","","original","1","26","","",""
"html-keyboard-response","249","1167472","0.0-4.0-4.0-1.13","spark_pilot_norest","9678","1","7","Female","","","","","","","null","<div style=""font-size:60px;"">+</div>","null","fixation","","","","","","","","","27","","",""
"revaluation","250","1171485","0.0-4.0-4.0-0.14","spark_pilot_norest","9678","1","7","Female","","","false","","","","[664.1000003814697]","./assets/img/ocean/animals/octopus.jpg","[""ArrowLeft""]","revaluation","ocean","26","{""ArrowUp,ArrowLeft"":26,""ArrowUp,ArrowRight"":10,""ArrowDown,ArrowLeft"":5,""ArrowDown,ArrowRight"":17}","true","ArrowUp,ArrowLeft","","original","1","28","","",""
"html-keyboard-response","251","1171987","0.0-4.0-4.0-1.14","spark_pilot_norest","9678","1","7","Female","","","","","","","null","<div style=""font-size:60px;"">+</div>","null","fixation","","","","","","","","","29","","",""
"revaluation","252","1176023","0.0-4.0-4.0-0.15","spark_pilot_norest","9678","1","7","Female","","","false","","","","[731.2000002861023]","./assets/img/ocean/animals/seahorse.jpg","[""ArrowRight""]","revaluation","ocean","17","{""ArrowUp,ArrowLeft"":26,""ArrowUp,ArrowRight"":10,""ArrowDown,ArrowLeft"":5,""ArrowDown,ArrowRight"":17}","true","ArrowDown,ArrowRight","","original","1","30","","",""
"html-keyboard-response","253","1176541","0.0-4.0-4.0-1.15","spark_pilot_norest","9678","1","7","Female","","","","","","","null","<div style=""font-size:60px;"">+</div>","null","fixation","","","","","","","","","31","","",""
"revaluation","254","1180555","0.0-4.0-4.0-0.16","spark_pilot_norest","9678","1","7","Female","","","false","","","","[1516.1999998092651]","./assets/img/ocean/animals/octopus.jpg","[""ArrowLeft""]","revaluation","ocean","26","{""ArrowUp,ArrowLeft"":26,""ArrowUp,ArrowRight"":10,""ArrowDown,ArrowLeft"":5,""ArrowDown,ArrowRight"":17}","true","ArrowUp,ArrowLeft","","original","1","32","","",""
"html-keyboard-response","255","1181056","0.0-4.0-4.0-1.16","spark_pilot_norest","9678","1","7","Female","","","","","","","null","<div style=""font-size:60px;"">+</div>","null","fixation","","","","","","","","","33","","",""
"revaluation","256","1185080","0.0-4.0-4.0-0.17","spark_pilot_norest","9678","1","7","Female","","","false","","","","[925.9000000953674]","./assets/img/ocean/animals/octopus.jpg","[""ArrowLeft""]","revaluation","ocean","26","{""ArrowUp,ArrowLeft"":26,""ArrowUp,ArrowRight"":10,""ArrowDown,ArrowLeft"":5,""ArrowDown,ArrowRight"":17}","true","ArrowUp,ArrowLeft","","original","1","34","","",""
"html-keyboard-response","257","1185585","0.0-4.0-4.0-1.17","spark_pilot_norest","9678","1","7","Female","","","","","","","null","<div style=""font-size:60px;"">+</div>","null","fixation","","","","","","","","","35","","",""
"learning-instructions","258","1194296","0.0-4.0-5.0-0.0","spark_pilot_norest","9678","1","7","Female","","","","","","","null","<p> You have almost finished this part of the game! </p>
            <p> We are going to ask you to make a few more choices. </p>","","instructions","","","","","","","","","","","",""
"learning-instructions","259","1210285","0.0-4.0-5.0-0.1","spark_pilot_norest","9678","1","7","Female","","","","","","","null","<p> First, you need to decide whether to go up or down. When you see each picture, use the arrow keys to make your choice. </p>
            <p><b>You will not see which animal you found, but try to get to the one that will give you the most treasure.</b></p>","","instructions","","","","","","","","","","","",""
"html-keyboard-response","260","1211287","0.0-4.0-6.0-0.0","spark_pilot_norest","9678","1","7","Female","","","","","","","null","<div style=""font-size:100px;color:red;"">Starting in...</div>","null","","","","","","","","","","","","",""
"html-keyboard-response","261","1212295","0.0-4.0-6.0-1.0","spark_pilot_norest","9678","1","7","Female","","","","","","","null","<div style=""font-size:200px;color:red;"">3</div>","null","","","","","","","","","","","","",""
"html-keyboard-response","262","1213308","0.0-4.0-6.0-2.0","spark_pilot_norest","9678","1","7","Female","","","","","","","null","<div style=""font-size:200px;color:red;"">2</div>","null","","","","","","","","","","","","",""
"html-keyboard-response","263","1214313","0.0-4.0-6.0-3.0","spark_pilot_norest","9678","1","7","Female","","","","","","","null","<div style=""font-size:200px;color:red;"">1</div>","null","","","","","","","","","","","","",""
"revaluation","264","1215164","0.0-4.0-7.0-0.0","spark_pilot_norest","9678","1","7","Female","","","false","","","","[843.0999999046326]","./assets/img/ocean/test/0.jpg","[""ArrowUp""]","first stage test","ocean","0","{""ArrowUp,ArrowLeft"":26,""ArrowUp,ArrowRight"":10,""ArrowDown,ArrowLeft"":5,""ArrowDown,ArrowRight"":17}","true","ArrowUp","false","original","1","","","",""
"html-keyboard-response","265","1215671","0.0-4.0-7.0-1.0","spark_pilot_norest","9678","1","7","Female","","","","","","","null","<div style=""font-size:60px;"">+</div>","null","fixation","","","","","","","","","","","",""
"revaluation","266","1217008","0.0-4.0-7.0-0.1","spark_pilot_norest","9678","1","7","Female","","","false","","","","[1329.0999999046326]","./assets/img/ocean/test/2.jpg","[""ArrowUp""]","first stage test","ocean","0","{""ArrowUp,ArrowLeft"":26,""ArrowUp,ArrowRight"":10,""ArrowDown,ArrowLeft"":5,""ArrowDown,ArrowRight"":17}","true","ArrowUp","false","original","1","","","",""
"html-keyboard-response","267","1217522","0.0-4.0-7.0-1.1","spark_pilot_norest","9678","1","7","Female","","","","","","","null","<div style=""font-size:60px;"">+</div>","null","fixation","","","","","","","","","","","",""
"revaluation","268","1218143","0.0-4.0-7.0-0.2","spark_pilot_norest","9678","1","7","Female","","","false","","","","[614.9000000953674]","./assets/img/ocean/test/3.jpg","[""ArrowUp""]","first stage test","ocean","0","{""ArrowUp,ArrowLeft"":26,""ArrowUp,ArrowRight"":10,""ArrowDown,ArrowLeft"":5,""ArrowDown,ArrowRight"":17}","true","ArrowUp","false","original","1","","","",""
"html-keyboard-response","269","1218654","0.0-4.0-7.0-1.2","spark_pilot_norest","9678","1","7","Female","","","","","","","null","<div style=""font-size:60px;"">+</div>","null","fixation","","","","","","","","","","","",""
"revaluation","270","1219054","0.0-4.0-7.0-0.3","spark_pilot_norest","9678","1","7","Female","","","false","","","","[392.09999990463257]","./assets/img/ocean/test/1.jpg","[""ArrowUp""]","first stage test","ocean","0","{""ArrowUp,ArrowLeft"":26,""ArrowUp,ArrowRight"":10,""ArrowDown,ArrowLeft"":5,""ArrowDown,ArrowRight"":17}","true","ArrowUp","false","original","1","","","",""
"html-keyboard-response","271","1219562","0.0-4.0-7.0-1.3","spark_pilot_norest","9678","1","7","Female","","","","","","","null","<div style=""font-size:60px;"">+</div>","null","fixation","","","","","","","","","","","",""
"learning-instructions","272","1232926","0.0-4.0-8.0-0.0","spark_pilot_norest","9678","1","7","Female","","","","","","","null","<p> Now you will see the animals again and can search their chests for treasure. </p>
            <p> This time, you will not see how much treasure you earned, but you will earn more bonus money for making better choices. </p>","","instructions","","","","","","","","","","","",""
"html-keyboard-response","273","1233940","0.0-4.0-9.0-0.0","spark_pilot_norest","9678","1","7","Female","","","","","","","null","<div style=""font-size:100px;color:red;"">Starting in...</div>","null","","","","","","","","","","","","",""
"html-keyboard-response","274","1234950","0.0-4.0-9.0-1.0","spark_pilot_norest","9678","1","7","Female","","","","","","","null","<div style=""font-size:200px;color:red;"">3</div>","null","","","","","","","","","","","","",""
"html-keyboard-response","275","1235960","0.0-4.0-9.0-2.0","spark_pilot_norest","9678","1","7","Female","","","","","","","null","<div style=""font-size:200px;color:red;"">2</div>","null","","","","","","","","","","","","",""
"html-keyboard-response","276","1236968","0.0-4.0-9.0-3.0","spark_pilot_norest","9678","1","7","Female","","","","","","","null","<div style=""font-size:200px;color:red;"">1</div>","null","","","","","","","","","","","","",""
"revaluation","277","1237971","0.0-4.0-10.0-0.0","spark_pilot_norest","9678","1","7","Female","","","false","","","","[993.5]","./assets/img/ocean/animals/octopus.jpg","[""ArrowLeft""]","second stage test","ocean","0","{""ArrowUp,ArrowLeft"":26,""ArrowUp,ArrowRight"":10,""ArrowDown,ArrowLeft"":5,""ArrowDown,ArrowRight"":17}","true","ArrowUp,ArrowLeft","","original","1","","","",""
"html-keyboard-response","278","1238480","0.0-4.0-10.0-1.0","spark_pilot_norest","9678","1","7","Female","","","","","","","null","<div style=""font-size:60px;"">+</div>","null","fixation","","","","","","","","","","","",""
"revaluation","279","1239433","0.0-4.0-10.0-0.1","spark_pilot_norest","9678","1","7","Female","","","false","","","","[943.9000000953674]","./assets/img/ocean/animals/octopus.jpg","[""ArrowLeft""]","second stage test","ocean","0","{""ArrowUp,ArrowLeft"":26,""ArrowUp,ArrowRight"":10,""ArrowDown,ArrowLeft"":5,""ArrowDown,ArrowRight"":17}","true","ArrowUp,ArrowLeft","","original","1","","","",""
"html-keyboard-response","280","1239946","0.0-4.0-10.0-1.1","spark_pilot_norest","9678","1","7","Female","","","","","","","null","<div style=""font-size:60px;"">+</div>","null","fixation","","","","","","","","","","","",""
"revaluation","281","1240971","0.0-4.0-10.0-0.2","spark_pilot_norest","9678","1","7","Female","","","false","","","","[1014.3999996185303]","./assets/img/ocean/animals/octopus.jpg","[""ArrowLeft""]","second stage test","ocean","0","{""ArrowUp,ArrowLeft"":26,""ArrowUp,ArrowRight"":10,""ArrowDown,ArrowLeft"":5,""ArrowDown,ArrowRight"":17}","true","ArrowUp,ArrowLeft","","original","1","","","",""
"html-keyboard-response","282","1241485","0.0-4.0-10.0-1.2","spark_pilot_norest","9678","1","7","Female","","","","","","","null","<div style=""font-size:60px;"">+</div>","null","fixation","","","","","","","","","","","",""
"revaluation","283","1242332","0.0-4.0-10.0-0.3","spark_pilot_norest","9678","1","7","Female","","","false","","","","[839.4000000953674]","./assets/img/ocean/animals/octopus.jpg","[""ArrowLeft""]","second stage test","ocean","0","{""ArrowUp,ArrowLeft"":26,""ArrowUp,ArrowRight"":10,""ArrowDown,ArrowLeft"":5,""ArrowDown,ArrowRight"":17}","true","ArrowUp,ArrowLeft","","original","1","","","",""
"html-keyboard-response","284","1242844","0.0-4.0-10.0-1.3","spark_pilot_norest","9678","1","7","Female","","","","","","","null","<div style=""font-size:60px;"">+</div>","null","fixation","","","","","","","","","","","",""
"revaluation","285","1243816","0.0-4.0-10.0-0.4","spark_pilot_norest","9678","1","7","Female","","","false","","","","[964.1999998092651]","./assets/img/ocean/animals/seahorse.jpg","[""ArrowRight""]","second stage test","ocean","0","{""ArrowUp,ArrowLeft"":26,""ArrowUp,ArrowRight"":10,""ArrowDown,ArrowLeft"":5,""ArrowDown,ArrowRight"":17}","true","ArrowDown,ArrowRight","","original","1","","","",""
"html-keyboard-response","286","1244331","0.0-4.0-10.0-1.4","spark_pilot_norest","9678","1","7","Female","","","","","","","null","<div style=""font-size:60px;"">+</div>","null","fixation","","","","","","","","","","","",""
"revaluation","287","1244804","0.0-4.0-10.0-0.5","spark_pilot_norest","9678","1","7","Female","","","false","","","","[465.3999996185303]","./assets/img/ocean/animals/seahorse.jpg","[""ArrowRight""]","second stage test","ocean","0","{""ArrowUp,ArrowLeft"":26,""ArrowUp,ArrowRight"":10,""ArrowDown,ArrowLeft"":5,""ArrowDown,ArrowRight"":17}","true","ArrowDown,ArrowRight","","original","1","","","",""
"html-keyboard-response","288","1245308","0.0-4.0-10.0-1.5","spark_pilot_norest","9678","1","7","Female","","","","","","","null","<div style=""font-size:60px;"">+</div>","null","fixation","","","","","","","","","","","",""
"revaluation","289","1245847","0.0-4.0-10.0-0.6","spark_pilot_norest","9678","1","7","Female","","","false","","","","[531.6999998092651]","./assets/img/ocean/animals/seahorse.jpg","[""ArrowRight""]","second stage test","ocean","0","{""ArrowUp,ArrowLeft"":26,""ArrowUp,ArrowRight"":10,""ArrowDown,ArrowLeft"":5,""ArrowDown,ArrowRight"":17}","true","ArrowDown,ArrowRight","","original","1","","","",""
"html-keyboard-response","290","1246351","0.0-4.0-10.0-1.6","spark_pilot_norest","9678","1","7","Female","","","","","","","null","<div style=""font-size:60px;"">+</div>","null","fixation","","","","","","","","","","","",""
"revaluation","291","1247504","0.0-4.0-10.0-0.7","spark_pilot_norest","9678","1","7","Female","","","false","","","","[1145]","./assets/img/ocean/animals/seahorse.jpg","[""ArrowRight""]","second stage test","ocean","0","{""ArrowUp,ArrowLeft"":26,""ArrowUp,ArrowRight"":10,""ArrowDown,ArrowLeft"":5,""ArrowDown,ArrowRight"":17}","true","ArrowDown,ArrowRight","","original","1","","","",""
"html-keyboard-response","292","1248019","0.0-4.0-10.0-1.7","spark_pilot_norest","9678","1","7","Female","","","","","","","null","<div style=""font-size:60px;"">+</div>","null","fixation","","","","","","","","","","","",""
"learning-instructions","293","1255952","0.0-4.0-0.1-0.2","spark_pilot_norest","9678","1","7","Female","","","","","","","5138.099999904633","<p> This time you are searching for treasure in the <b>canyon</b>.</p>","","instructions","","","","","","","","","","","",""
"learning-instructions","294","1275129","0.0-4.0-0.1-0.3","spark_pilot_norest","9678","1","7","Female","","","","","","","1924.1999998092651","<p><b>New</b> animals with <b>new</b> treasure chests live here. You need to explore to discover where the animal with the best treasure chest is.</p>
                    <p> Like before, once you figure out which animal has the chest with the most treasure, you should try to get to that animal and select that chest! </p>","","instructions","","","","","","","","","","","",""
"learning-instructions","295","1292701","0.0-4.0-1.1-0.1","spark_pilot_norest","9678","1","7","Female","","","","","","","2847.5","<p> Remember, when you see a picture of the place, use the up and down keys to <b>find an animal</b>.</p>
            <p> When you encounter an animal, you should use the left and right keys to <b>select a treasure chest</b>.</p>
            <p> Don't forget to look out for the robber! </p>","","instructions","","","","","","","","","","","",""
"revaluation","296","1296723","0.0-4.0-2.1-0.50","spark_pilot_norest","9678","1","7","Female","","","false","","","","[1469.5999999046326]","./assets/img/canyon/catch/1.jpg","[""spaceBar""]","value training","canyon","0","{""ArrowUp,ArrowLeft"":23,""ArrowUp,ArrowRight"":10,""ArrowDown,ArrowLeft"":8,""ArrowDown,ArrowRight"":30}","true","spaceBar","true","revaluation","2","0","","",""
"html-keyboard-response","297","1297236","0.0-4.0-2.1-1.50","spark_pilot_norest","9678","1","7","Female","","","","","","","null","<div style=""font-size:60px;"">+</div>","null","fixation","","","","","","","","","1","","",""
"revaluation","298","1303267","0.0-4.0-2.1-0.51","spark_pilot_norest","9678","1","7","Female","","","false","","","","[1402,1642.2000002861023]","./assets/img/canyon/memory/21.jpg","[""ArrowUp"",""ArrowRight""]","value training","canyon","10","{""ArrowUp,ArrowLeft"":23,""ArrowUp,ArrowRight"":10,""ArrowDown,ArrowLeft"":8,""ArrowDown,ArrowRight"":30}","false","ArrowUp,ArrowRight","false","revaluation","2","2","","",""
"html-keyboard-response","299","1303778","0.0-4.0-2.1-1.51","spark_pilot_norest","9678","1","7","Female","","","","","","","null","<div style=""font-size:60px;"">+</div>","null","fixation","","","","","","","","","3","","",""
"revaluation","300","1307802","0.0-4.0-2.1-0.52","spark_pilot_norest","9678","1","7","Female","","","false","","","","[1203.7999997138977]","./assets/img/canyon/catch/7.jpg","[""spaceBar""]","value training","canyon","0","{""ArrowUp,ArrowLeft"":23,""ArrowUp,ArrowRight"":10,""ArrowDown,ArrowLeft"":8,""ArrowDown,ArrowRight"":30}","true","spaceBar","true","revaluation","2","4","","",""
"html-keyboard-response","301","1308317","0.0-4.0-2.1-1.52","spark_pilot_norest","9678","1","7","Female","","","","","","","null","<div style=""font-size:60px;"">+</div>","null","fixation","","","","","","","","","5","","",""
"revaluation","302","1314347","0.0-4.0-2.1-0.53","spark_pilot_norest","9678","1","7","Female","","","false","","","","[738.2999997138977,886.0999999046326]","./assets/img/canyon/memory/21.jpg","[""ArrowUp"",""ArrowLeft""]","value training","canyon","23","{""ArrowUp,ArrowLeft"":23,""ArrowUp,ArrowRight"":10,""ArrowDown,ArrowLeft"":8,""ArrowDown,ArrowRight"":30}","false","ArrowUp,ArrowLeft","false","revaluation","2","6","","",""
"html-keyboard-response","303","1314857","0.0-4.0-2.1-1.53","spark_pilot_norest","9678","1","7","Female","","","","","","","null","<div style=""font-size:60px;"">+</div>","null","fixation","","","","","","","","","7","","",""
"revaluation","304","1320875","0.0-4.0-2.1-0.54","spark_pilot_norest","9678","1","7","Female","","","false","","","","[877.5,1499.2999997138977]","./assets/img/canyon/memory/1.jpg","[""ArrowDown"",""ArrowRight""]","value training","canyon","30","{""ArrowUp,ArrowLeft"":23,""ArrowUp,ArrowRight"":10,""ArrowDown,ArrowLeft"":8,""ArrowDown,ArrowRight"":30}","true","ArrowDown,ArrowRight","false","revaluation","2","8","","",""
"html-keyboard-response","305","1321377","0.0-4.0-2.1-1.54","spark_pilot_norest","9678","1","7","Female","","","","","","","null","<div style=""font-size:60px;"">+</div>","null","fixation","","","","","","","","","9","","",""
"revaluation","306","1325421","0.0-4.0-2.1-0.55","spark_pilot_norest","9678","1","7","Female","","","false","","","","[1688.0999999046326]","./assets/img/canyon/catch/3.jpg","[""spaceBar""]","value training","canyon","0","{""ArrowUp,ArrowLeft"":23,""ArrowUp,ArrowRight"":10,""ArrowDown,ArrowLeft"":8,""ArrowDown,ArrowRight"":30}","true","spaceBar","true","revaluation","2","10","","",""
"html-keyboard-response","307","1325926","0.0-4.0-2.1-1.55","spark_pilot_norest","9678","1","7","Female","","","","","","","null","<div style=""font-size:60px;"">+</div>","null","fixation","","","","","","","","","11","","",""
"revaluation","308","1331936","0.0-4.0-2.1-0.56","spark_pilot_norest","9678","1","7","Female","","","false","","","","[1247.5,640.5]","./assets/img/canyon/memory/8.jpg","[""ArrowUp"",""ArrowLeft""]","value training","canyon","23","{""ArrowUp,ArrowLeft"":23,""ArrowUp,ArrowRight"":10,""ArrowDown,ArrowLeft"":8,""ArrowDown,ArrowRight"":30}","false","ArrowUp,ArrowLeft","false","revaluation","2","12","","",""
"html-keyboard-response","309","1332438","0.0-4.0-2.1-1.56","spark_pilot_norest","9678","1","7","Female","","","","","","","null","<div style=""font-size:60px;"">+</div>","null","fixation","","","","","","","","","13","","",""
"revaluation","310","1336449","0.0-4.0-2.1-0.57","spark_pilot_norest","9678","1","7","Female","","","false","","","","[1542]","./assets/img/canyon/catch/6.jpg","[""spaceBar""]","value training","canyon","0","{""ArrowUp,ArrowLeft"":23,""ArrowUp,ArrowRight"":10,""ArrowDown,ArrowLeft"":8,""ArrowDown,ArrowRight"":30}","true","spaceBar","true","revaluation","2","14","","",""
"html-keyboard-response","311","1336951","0.0-4.0-2.1-1.57","spark_pilot_norest","9678","1","7","Female","","","","","","","null","<div style=""font-size:60px;"">+</div>","null","fixation","","","","","","","","","15","","",""
"revaluation","312","1342961","0.0-4.0-2.1-0.58","spark_pilot_norest","9678","1","7","Female","","","false","","","","[1863,1139.2000002861023]","./assets/img/canyon/memory/24.jpg","[""ArrowDown"",""ArrowLeft""]","value training","canyon","8","{""ArrowUp,ArrowLeft"":23,""ArrowUp,ArrowRight"":10,""ArrowDown,ArrowLeft"":8,""ArrowDown,ArrowRight"":30}","false","ArrowDown,ArrowLeft","false","revaluation","2","16","","",""
"html-keyboard-response","313","1343464","0.0-4.0-2.1-1.58","spark_pilot_norest","9678","1","7","Female","","","","","","","null","<div style=""font-size:60px;"">+</div>","null","fixation","","","","","","","","","17","","",""
