"trial_type","trial_index","time_elapsed","internal_node_id","task_version","subject_id","assigned_condition","age","gender","success","timeout","failed_images","failed_audio","failed_video","browser_interaction","rt","stimulus","response","task_part","environment","score","rewardMap","correct","fullState","isCatch","condition","order","trial_num","key_press","ground_truth","bonus"
"pavlovia","0","1030","0.0-0.0","spark_pilot_norest","9164","4","15","Female","","","","","","","","","","","","","","","","","","","","","",""
"preload","1","58581","0.0-1.0","spark_pilot_norest","9164","4","15","Female","true","false","[]","[]","[]","[{""event"":""fullscreenenter"",""trial"":2,""time"":65374}]","","","","","","","","","","","","","","","",""
"fullscreen","2","66366","0.0-2.0","spark_pilot_norest","9164","4","15","Female","true","","","","","","","","","","","","","","","","","","","","",""
"audio-button-response","3","72483","0.0-3.0-0.0-0.0","spark_pilot_norest","9164","4","15","Female","","","","","","","5803","./assets/audio/audiotest/turtle.mp3","4","audio_test","","","","","","","","","","","",""
"audio-button-response","4","75093","0.0-3.0-0.1-0.1","spark_pilot_norest","9164","4","15","Female","","","","","","","1611","./assets/audio/audiotest/turtle.mp3","2","audio_test","","","","","","","","","","","",""
"learning-instructions","5","83712","0.0-3.0-1.0-0.0","spark_pilot_norest","9164","4","15","Female","","","","","","","1639.3999999999069","<p> Welcome! Please remember to stay in fullscreen mode and don't click away from the experiment. </p>","","instructions","","","","","","","","","","","",""
"learning-instructions","6","93113","0.0-3.0-1.0-0.1","spark_pilot_norest","9164","4","15","Female","","","","","","","984.9000000003725","<p> Today you will be playing a game to earn treasure. </p>
            <p> At the end of the experiment, you will earn a bonus based on how much treasure you find. </p>
            <img src='./assets/img/instructions/treasure.jpg' class='instructions-image'>","","instructions","","","","","","","","","","","",""
"learning-instructions","7","102253","0.0-3.0-1.0-0.2","spark_pilot_norest","9164","4","15","Female","","","","","","","866.5","<p> Animals have hidden treasure in treasure chests. </p>
            <p> You need to first find an animal and then choose which of their treasure chests to search. </p>
            <img src='./assets/img/space/animals/cat.jpg' class='instructions-image'>","","instructions","","","","","","","","","","","",""
"learning-instructions","8","116184","0.0-3.0-1.0-0.3","spark_pilot_norest","9164","4","15","Female","","","","","","","759.6000000000931","<p> In each round, you will search for treasure in a different place. In the real game, there will be two rounds. </p>
            <p> You will begin with a separate, practice round where you will search for treasure in outer space. </p>
            <img src='./assets/img/space/0.jpg' class='instructions-image'>","","instructions","","","","","","","","","","","",""
"learning-instructions","9","128263","0.0-3.0-1.0-0.4","spark_pilot_norest","9164","4","15","Female","","","","","","","657.2000000001863","<p> On every turn, you will see a picture of the place that you are in, but the specific image may be different each time. </p>
            <p> For example, both of these images mean you are in outer space. </p>
            <img src='./assets/img/instructions/outerspace.jpg' class='instructions-image'>","","instructions","","","","","","","","","","","",""
"learning-instructions","10","137121","0.0-3.0-1.0-0.5","spark_pilot_norest","9164","4","15","Female","","","","","","","1014.5","<p> You need to decide which direction to travel in. </p>
            <p> You can choose between going <b>up or down</b> by using the arrow keys. </p>
            <img src='./assets/img/instructions/updown.jpg' class='instructions-image'>","","instructions","","","","","","","","","","","",""
"learning-instructions","11","146776","0.0-3.0-1.0-0.6","spark_pilot_norest","9164","4","15","Female","","","","","","","834.7999999998137","<p> You will have <b>2 seconds</b> to make your choice. </p>
            <p> If you do not make a choice within 2 seconds, you will not find an animal or earn treasure. </p>
            <img src='./assets/img/instructions/2seconds.jpg' class='instructions-image'>","","instructions","","","","","","","","","","","",""
"learning-instructions","12","155053","0.0-3.0-1.0-0.7","spark_pilot_norest","9164","4","15","Female","","","","","","","1228.8999999999069","<p> Let’s try practicing that now! </p>
            <p> When you see a picture of the place you are in, press the <b>up</b> key to travel up. </p>
            <img src='./assets/img/instructions/pressUp.jpg' class='instructions-image'>","","instructions","","","","","","","","","","","",""
"revaluation","13","159079","0.0-3.0-2.0-0.0","spark_pilot_norest","9164","4","15","Female","","false","","","","","[456.89999999990687]","./assets/img/space/0.jpg","[""ArrowUp""]","first stage practice","space","0","null","null","ArrowUp","false","","","","","",""
"html-keyboard-response","14","159583","0.0-3.0-2.0-1.0","spark_pilot_norest","9164","4","15","Female","","","","","","","null","<div style=""font-size:60px;"">+</div>","null","fixation","","","","","","","","","","","",""
"revaluation","15","163599","0.0-3.0-2.0-0.1","spark_pilot_norest","9164","4","15","Female","","false","","","","","[656]","./assets/img/space/1.jpg","[""ArrowUp""]","first stage practice","space","0","null","null","ArrowUp","false","","","","","",""
"html-keyboard-response","16","164102","0.0-3.0-2.0-1.1","spark_pilot_norest","9164","4","15","Female","","","","","","","null","<div style=""font-size:60px;"">+</div>","null","fixation","","","","","","","","","","","",""
"revaluation","17","168119","0.0-3.0-2.0-0.2","spark_pilot_norest","9164","4","15","Female","","false","","","","","[484]","./assets/img/space/2.jpg","[""ArrowUp""]","first stage practice","space","0","null","null","ArrowUp","false","","","","","",""
"html-keyboard-response","18","168622","0.0-3.0-2.0-1.2","spark_pilot_norest","9164","4","15","Female","","","","","","","null","<div style=""font-size:60px;"">+</div>","null","fixation","","","","","","","","","","","",""
"learning-instructions","19","176542","0.0-3.0-3.0-0.0","spark_pilot_norest","9164","4","15","Female","","","","","","","3218.7999999998137","<p> Great job! Now try pressing the <b>down</b> key to travel down. </p>
            <img src='./assets/img/instructions/pressDown.jpg' class='instructions-image'>","","instructions","","","","","","","","","","","",""
"revaluation","20","180551","0.0-3.0-4.0-0.0","spark_pilot_norest","9164","4","15","Female","","false","","","","","[495.79999999981374]","./assets/img/space/3.jpg","[""ArrowDown""]","first stage practice","space","0","null","null","ArrowDown","false","","","","","",""
"html-keyboard-response","21","181055","0.0-3.0-4.0-1.0","spark_pilot_norest","9164","4","15","Female","","","","","","","null","<div style=""font-size:60px;"">+</div>","null","fixation","","","","","","","","","","","",""
"revaluation","22","185070","0.0-3.0-4.0-0.1","spark_pilot_norest","9164","4","15","Female","","false","","","","","[267]","./assets/img/space/4.jpg","[""ArrowDown""]","first stage practice","space","0","null","null","ArrowDown","false","","","","","",""
"html-keyboard-response","23","185574","0.0-3.0-4.0-1.1","spark_pilot_norest","9164","4","15","Female","","","","","","","null","<div style=""font-size:60px;"">+</div>","null","fixation","","","","","","","","","","","",""
"revaluation","24","189591","0.0-3.0-4.0-0.2","spark_pilot_norest","9164","4","15","Female","","false","","","","","[277.70000000018626]","./assets/img/space/5.jpg","[""ArrowDown""]","first stage practice","space","0","null","null","ArrowDown","false","","","","","",""
"html-keyboard-response","25","190094","0.0-3.0-4.0-1.2","spark_pilot_norest","9164","4","15","Female","","","","","","","null","<div style=""font-size:60px;"">+</div>","null","fixation","","","","","","","","","","","",""
"learning-instructions","26","201776","0.0-3.0-5.0-0.0","spark_pilot_norest","9164","4","15","Female","","","","","","","1818.8999999999069","<p> The animals don’t move, so the animal in the upper part of a place will stay in the upper part of a place, and the animal in the lower part of a place will stay in the lower part of a place. </p>","","instructions","","","","","","","","","","","",""
"learning-instructions","27","211926","0.0-3.0-5.0-0.1","spark_pilot_norest","9164","4","15","Female","","","","","","","1003.8999999999069","<p> Each animal has two treasure chests for you to choose from. </p>
            <p> The amount of treasure in each chest can range from <b> 0 to 40 pieces.</b></p>","","instructions","","","","","","","","","","","",""
"learning-instructions","28","237843","0.0-3.0-5.0-0.2","spark_pilot_norest","9164","4","15","Female","","","","","","","14717.5","<p> You should decide which chest to search for treasure by using the <b>left</b> and <b>right</b> arrow keys. </p>
            <p><b> Pay attention to which animal is on the screen, as the animals have different treasure chests. </b></p>
            <img src='./assets/img/instructions/leftright.jpg' class='instructions-image'>","","instructions","","","","","","","","","","","",""
"learning-instructions","29","245279","0.0-3.0-5.0-0.3","spark_pilot_norest","9164","4","15","Female","","","","","","","1065","<p> Let’s try practicing that now. </p>
            <p> When you see an animal, choose which chest to search for treasure. </p>
            <img src='./assets/img/instructions/chooseChest.jpg' class='instructions-image'>","","instructions","","","","","","","","","","","",""
"revaluation","30","249295","0.0-3.0-6.0-0.0","spark_pilot_norest","9164","4","15","Female","","false","","","","","[740.3999999999069]","./assets/img/space/animals/rabbit.jpg","[""ArrowRight""]","second stage practice","space","23","{""ArrowUp,ArrowLeft"":3,""ArrowUp,ArrowRight"":36,""ArrowDown,ArrowLeft"":15,""ArrowDown,ArrowRight"":23}","true","ArrowDown,ArrowRight","","","","","","",""
"html-keyboard-response","31","249798","0.0-3.0-6.0-1.0","spark_pilot_norest","9164","4","15","Female","","","","","","","null","<div style=""font-size:60px;"">+</div>","null","fixation","","","","","","","","","","","",""
"revaluation","32","253815","0.0-3.0-6.0-0.1","spark_pilot_norest","9164","4","15","Female","","false","","","","","[859.1000000000931]","./assets/img/space/animals/cat.jpg","[""ArrowRight""]","second stage practice","space","36","{""ArrowUp,ArrowLeft"":3,""ArrowUp,ArrowRight"":36,""ArrowDown,ArrowLeft"":15,""ArrowDown,ArrowRight"":23}","true","ArrowUp,ArrowRight","","","","","","",""
"html-keyboard-response","33","254318","0.0-3.0-6.0-1.1","spark_pilot_norest","9164","4","15","Female","","","","","","","null","<div style=""font-size:60px;"">+</div>","null","fixation","","","","","","","","","","","",""
"revaluation","34","258335","0.0-3.0-6.0-0.2","spark_pilot_norest","9164","4","15","Female","","false","","","","","[333.40000000037253]","./assets/img/space/animals/rabbit.jpg","[""ArrowLeft""]","second stage practice","space","15","{""ArrowUp,ArrowLeft"":3,""ArrowUp,ArrowRight"":36,""ArrowDown,ArrowLeft"":15,""ArrowDown,ArrowRight"":23}","false","ArrowDown,ArrowLeft","","","","","","",""
"html-keyboard-response","35","258838","0.0-3.0-6.0-1.2","spark_pilot_norest","9164","4","15","Female","","","","","","","null","<div style=""font-size:60px;"">+</div>","null","fixation","","","","","","","","","","","",""
"revaluation","36","262854","0.0-3.0-6.0-0.3","spark_pilot_norest","9164","4","15","Female","","false","","","","","[374.09999999962747]","./assets/img/space/animals/cat.jpg","[""ArrowLeft""]","second stage practice","space","3","{""ArrowUp,ArrowLeft"":3,""ArrowUp,ArrowRight"":36,""ArrowDown,ArrowLeft"":15,""ArrowDown,ArrowRight"":23}","false","ArrowUp,ArrowLeft","","","","","","",""
"html-keyboard-response","37","263359","0.0-3.0-6.0-1.3","spark_pilot_norest","9164","4","15","Female","","","","","","","null","<div style=""font-size:60px;"">+</div>","null","fixation","","","","","","","","","","","",""
"learning-instructions","38","282689","0.0-3.0-7.0-0.0","spark_pilot_norest","9164","4","15","Female","","","","","","","2497.2000000001863","<p> Great job. Now let’s try putting it together. </p>
            <p> On each turn, you will first see a picture to remind you of the place you are in, and you need to choose whether to go up or down. </p>
            <p> Then you will see an animal and choose which of its chests to search for treasure. </p>","","instructions","","","","","","","","","","","",""
"learning-instructions","39","291974","0.0-3.0-7.0-0.1","spark_pilot_norest","9164","4","15","Female","","","","","","","1019.2000000001863","<p> When you choose whether to go up or down, try to go to the animal with the chest with the most treasure. </p>
            <p> Try practicing that now! </p>","","instructions","","","","","","","","","","","",""
"revaluation","40","297999","0.0-3.0-8.0-0.0","spark_pilot_norest","9164","4","15","Female","","false","","","","","[917.7000000001863,582.1999999992549]","./assets/img/space/6.jpg","[""ArrowUp"",""ArrowRight""]","full practice","space","36","{""ArrowUp,ArrowLeft"":3,""ArrowUp,ArrowRight"":36,""ArrowDown,ArrowLeft"":15,""ArrowDown,ArrowRight"":23}","true","ArrowUp,ArrowRight","false","","","","","",""
"html-keyboard-response","41","298502","0.0-3.0-8.0-1.0","spark_pilot_norest","9164","4","15","Female","","","","","","","null","<div style=""font-size:60px;"">+</div>","null","fixation","","","","","","","","","","","",""
"revaluation","42","304527","0.0-3.0-8.0-0.1","spark_pilot_norest","9164","4","15","Female","","false","","","","","[583.6000000005588,454.40000000037253]","./assets/img/space/7.jpg","[""ArrowDown"",""ArrowRight""]","full practice","space","23","{""ArrowUp,ArrowLeft"":3,""ArrowUp,ArrowRight"":36,""ArrowDown,ArrowLeft"":15,""ArrowDown,ArrowRight"":23}","false","ArrowDown,ArrowRight","false","","","","","",""
"html-keyboard-response","43","305031","0.0-3.0-8.0-1.1","spark_pilot_norest","9164","4","15","Female","","","","","","","null","<div style=""font-size:60px;"">+</div>","null","fixation","","","","","","","","","","","",""
"revaluation","44","311055","0.0-3.0-8.0-0.2","spark_pilot_norest","9164","4","15","Female","","false","","","","","[768.2999999998137,375.1000000005588]","./assets/img/space/8.jpg","[""ArrowUp"",""ArrowRight""]","full practice","space","36","{""ArrowUp,ArrowLeft"":3,""ArrowUp,ArrowRight"":36,""ArrowDown,ArrowLeft"":15,""ArrowDown,ArrowRight"":23}","true","ArrowUp,ArrowRight","false","","","","","",""
"html-keyboard-response","45","311558","0.0-3.0-8.0-1.2","spark_pilot_norest","9164","4","15","Female","","","","","","","null","<div style=""font-size:60px;"">+</div>","null","fixation","","","","","","","","","","","",""
"revaluation","46","317583","0.0-3.0-8.0-0.3","spark_pilot_norest","9164","4","15","Female","","false","","","","","[347,354.40000000037253]","./assets/img/space/9.jpg","[""ArrowUp"",""ArrowRight""]","full practice","space","36","{""ArrowUp,ArrowLeft"":3,""ArrowUp,ArrowRight"":36,""ArrowDown,ArrowLeft"":15,""ArrowDown,ArrowRight"":23}","true","ArrowUp,ArrowRight","false","","","","","",""
"html-keyboard-response","47","318086","0.0-3.0-8.0-1.3","spark_pilot_norest","9164","4","15","Female","","","","","","","null","<div style=""font-size:60px;"">+</div>","null","fixation","","","","","","","","","","","",""
"revaluation","48","324111","0.0-3.0-8.0-0.4","spark_pilot_norest","9164","4","15","Female","","false","","","","","[590.6999999992549,637.5]","./assets/img/space/10.jpg","[""ArrowUp"",""ArrowRight""]","full practice","space","36","{""ArrowUp,ArrowLeft"":3,""ArrowUp,ArrowRight"":36,""ArrowDown,ArrowLeft"":15,""ArrowDown,ArrowRight"":23}","true","ArrowUp,ArrowRight","false","","","","","",""
"html-keyboard-response","49","324614","0.0-3.0-8.0-1.4","spark_pilot_norest","9164","4","15","Female","","","","","","","null","<div style=""font-size:60px;"">+</div>","null","fixation","","","","","","","","","","","",""
"learning-instructions","50","336855","0.0-3.0-9.0-0.0","spark_pilot_norest","9164","4","15","Female","","","","","","","1929.4000000003725","<p> One last thing: sometimes, you will see a robber. The robber can be anywhere in the picture. </p>
            <p> If you do not stop them, you will lose treasure. </p>
            <img src='./assets/img/instructions/robber.jpg' class='instructions-image'>","","instructions","","","","","","","","","","","",""
"learning-instructions","51","345906","0.0-3.0-9.0-0.1","spark_pilot_norest","9164","4","15","Female","","","","","","","1871.2000000001863","<p> If you see the robber, you should <b>press the space bar</b> rather than using the arrow keys. </p>
            <p> Try practicing that now! </p>","","instructions","","","","","","","","","","","",""
"revaluation","52","349919","0.0-3.0-10.0-0.0","spark_pilot_norest","9164","4","15","Female","","false","","","","","[1249]","./assets/img/space/catch/0.jpg","[""spaceBar""]","catch practice","space","0","{""ArrowUp,ArrowLeft"":3,""ArrowUp,ArrowRight"":36,""ArrowDown,ArrowLeft"":15,""ArrowDown,ArrowRight"":23}","true","spaceBar","true","","","","","",""
"html-keyboard-response","53","350422","0.0-3.0-10.0-1.0","spark_pilot_norest","9164","4","15","Female","","","","","","","null","<div style=""font-size:60px;"">+</div>","null","fixation","","","","","","","","","","","",""
"revaluation","54","354439","0.0-3.0-10.0-0.1","spark_pilot_norest","9164","4","15","Female","","false","","","","","[990.2999999998137]","./assets/img/space/catch/1.jpg","[""spaceBar""]","catch practice","space","0","{""ArrowUp,ArrowLeft"":3,""ArrowUp,ArrowRight"":36,""ArrowDown,ArrowLeft"":15,""ArrowDown,ArrowRight"":23}","true","spaceBar","true","","","","","",""
"html-keyboard-response","55","354942","0.0-3.0-10.0-1.1","spark_pilot_norest","9164","4","15","Female","","","","","","","null","<div style=""font-size:60px;"">+</div>","null","fixation","","","","","","","","","","","",""
"revaluation","56","358958","0.0-3.0-10.0-0.2","spark_pilot_norest","9164","4","15","Female","","false","","","","","[446.30000000074506]","./assets/img/space/catch/2.jpg","[""spaceBar""]","catch practice","space","0","{""ArrowUp,ArrowLeft"":3,""ArrowUp,ArrowRight"":36,""ArrowDown,ArrowLeft"":15,""ArrowDown,ArrowRight"":23}","true","spaceBar","true","","","","","",""
"html-keyboard-response","57","359462","0.0-3.0-10.0-1.2","spark_pilot_norest","9164","4","15","Female","","","","","","","null","<div style=""font-size:60px;"">+</div>","null","fixation","","","","","","","","","","","",""
"learning-instructions","58","367330","0.0-3.0-11.0-0.0-0.0","spark_pilot_norest","9164","4","15","Female","","","","","","","2602.4000000003725","<p> Now, you will practice a shortened version of the game to get a sense of how it all fits together. </p>","","instructions","","","","","","","","","","","",""
"learning-instructions","59","371339","0.0-3.0-11.0-0.0-0.1","spark_pilot_norest","9164","4","15","Female","","","","","","","807.7999999998137","<p>This time you are searching for treasure in outer space.</p>","","instructions","","","","","","","","","","","",""
"learning-instructions","60","387158","0.0-3.0-11.0-1.0-0.0","spark_pilot_norest","9164","4","15","Female","","","","","","","1032.8999999994412","<p> Remember, when you see a picture of the place, use the up and down keys to <b>find an animal</b>.</p>
            <p> When you encounter an animal, you should use the left and right keys to <b>select a treasure chest</b>.</p>
            <p> Don't forget to look out for the robber! </p>","","instructions","","","","","","","","","","","",""
"revaluation","61","393183","0.0-3.0-11.0-2.0-0.0","spark_pilot_norest","9164","4","15","Female","","false","","","","","[1421.2000000001863,471.80000000074506]","./assets/img/space/11.jpg","[""ArrowDown"",""ArrowRight""]","practice block","space","23","{""ArrowUp,ArrowLeft"":3,""ArrowUp,ArrowRight"":36,""ArrowDown,ArrowLeft"":15,""ArrowDown,ArrowRight"":23}","false","ArrowDown,ArrowRight","false","","","","","",""
"html-keyboard-response","62","393686","0.0-3.0-11.0-2.0-1.0","spark_pilot_norest","9164","4","15","Female","","","","","","","null","<div style=""font-size:60px;"">+</div>","null","fixation","","","","","","","","","","","",""
"revaluation","63","399711","0.0-3.0-11.0-2.0-0.1","spark_pilot_norest","9164","4","15","Female","","false","","","","","[672.8999999994412,253.79999999981374]","./assets/img/space/12.jpg","[""ArrowUp"",""ArrowRight""]","practice block","space","36","{""ArrowUp,ArrowLeft"":3,""ArrowUp,ArrowRight"":36,""ArrowDown,ArrowLeft"":15,""ArrowDown,ArrowRight"":23}","true","ArrowUp,ArrowRight","false","","","","","",""
"html-keyboard-response","64","400214","0.0-3.0-11.0-2.0-1.1","spark_pilot_norest","9164","4","15","Female","","","","","","","null","<div style=""font-size:60px;"">+</div>","null","fixation","","","","","","","","","","","",""
"revaluation","65","406238","0.0-3.0-11.0-2.0-0.2","spark_pilot_norest","9164","4","15","Female","","false","","","","","[453.59999999962747,374.59999999962747]","./assets/img/space/13.jpg","[""ArrowUp"",""ArrowRight""]","practice block","space","36","{""ArrowUp,ArrowLeft"":3,""ArrowUp,ArrowRight"":36,""ArrowDown,ArrowLeft"":15,""ArrowDown,ArrowRight"":23}","true","ArrowUp,ArrowRight","false","","","","","",""
"html-keyboard-response","66","406743","0.0-3.0-11.0-2.0-1.2","spark_pilot_norest","9164","4","15","Female","","","","","","","null","<div style=""font-size:60px;"">+</div>","null","fixation","","","","","","","","","","","",""
"revaluation","67","412767","0.0-3.0-11.0-2.0-0.3","spark_pilot_norest","9164","4","15","Female","","false","","","","","[824.2000000001863,374.90000000037253]","./assets/img/space/14.jpg","[""ArrowUp"",""ArrowRight""]","practice block","space","36","{""ArrowUp,ArrowLeft"":3,""ArrowUp,ArrowRight"":36,""ArrowDown,ArrowLeft"":15,""ArrowDown,ArrowRight"":23}","true","ArrowUp,ArrowRight","false","","","","","",""
"html-keyboard-response","68","413270","0.0-3.0-11.0-2.0-1.3","spark_pilot_norest","9164","4","15","Female","","","","","","","null","<div style=""font-size:60px;"">+</div>","null","fixation","","","","","","","","","","","",""
"revaluation","69","419294","0.0-3.0-11.0-2.0-0.4","spark_pilot_norest","9164","4","15","Female","","false","","","","","[534.1000000005588,359.29999999981374]","./assets/img/space/11.jpg","[""ArrowUp"",""ArrowRight""]","practice block","space","36","{""ArrowUp,ArrowLeft"":3,""ArrowUp,ArrowRight"":36,""ArrowDown,ArrowLeft"":15,""ArrowDown,ArrowRight"":23}","true","ArrowUp,ArrowRight","false","","","","","",""
"html-keyboard-response","70","419798","0.0-3.0-11.0-2.0-1.4","spark_pilot_norest","9164","4","15","Female","","","","","","","null","<div style=""font-size:60px;"">+</div>","null","fixation","","","","","","","","","","","",""
"revaluation","71","425823","0.0-3.0-11.0-2.0-0.5","spark_pilot_norest","9164","4","15","Female","","false","","","","","[308.80000000074506,287.20000000018626]","./assets/img/space/12.jpg","[""ArrowUp"",""ArrowLeft""]","practice block","space","3","{""ArrowUp,ArrowLeft"":3,""ArrowUp,ArrowRight"":36,""ArrowDown,ArrowLeft"":15,""ArrowDown,ArrowRight"":23}","false","ArrowUp,ArrowLeft","false","","","","","",""
"html-keyboard-response","72","426326","0.0-3.0-11.0-2.0-1.5","spark_pilot_norest","9164","4","15","Female","","","","","","","null","<div style=""font-size:60px;"">+</div>","null","fixation","","","","","","","","","","","",""
"revaluation","73","432351","0.0-3.0-11.0-2.0-0.6","spark_pilot_norest","9164","4","15","Female","","false","","","","","[909.2999999998137,421.90000000037253]","./assets/img/space/13.jpg","[""ArrowUp"",""ArrowRight""]","practice block","space","36","{""ArrowUp,ArrowLeft"":3,""ArrowUp,ArrowRight"":36,""ArrowDown,ArrowLeft"":15,""ArrowDown,ArrowRight"":23}","true","ArrowUp,ArrowRight","false","","","","","",""
"html-keyboard-response","74","432854","0.0-3.0-11.0-2.0-1.6","spark_pilot_norest","9164","4","15","Female","","","","","","","null","<div style=""font-size:60px;"">+</div>","null","fixation","","","","","","","","","","","",""
"revaluation","75","438879","0.0-3.0-11.0-2.0-0.7","spark_pilot_norest","9164","4","15","Female","","false","","","","","[576.2000000001863,374.40000000037253]","./assets/img/space/14.jpg","[""ArrowUp"",""ArrowRight""]","practice block","space","36","{""ArrowUp,ArrowLeft"":3,""ArrowUp,ArrowRight"":36,""ArrowDown,ArrowLeft"":15,""ArrowDown,ArrowRight"":23}","true","ArrowUp,ArrowRight","false","","","","","",""
"html-keyboard-response","76","439383","0.0-3.0-11.0-2.0-1.7","spark_pilot_norest","9164","4","15","Female","","","","","","","null","<div style=""font-size:60px;"">+</div>","null","fixation","","","","","","","","","","","",""
"revaluation","77","443399","0.0-3.0-11.0-2.0-0.8","spark_pilot_norest","9164","4","15","Female","","false","","","","","[891.9000000003725]","./assets/img/space/catch/3.jpg","[""spaceBar""]","practice block","space","0","{""ArrowUp,ArrowLeft"":3,""ArrowUp,ArrowRight"":36,""ArrowDown,ArrowLeft"":15,""ArrowDown,ArrowRight"":23}","true","spaceBar","true","","","","","",""
"html-keyboard-response","78","443902","0.0-3.0-11.0-2.0-1.8","spark_pilot_norest","9164","4","15","Female","","","","","","","null","<div style=""font-size:60px;"">+</div>","null","fixation","","","","","","","","","","","",""
"learning-instructions","79","463391","0.0-3.0-11.0-3.0-0.0","spark_pilot_norest","9164","4","15","Female","","","","","","","6259.700000000186","<p> Now, you will travel with a friend who will choose whether you go up or down first. </p>
            <p> On these turns, you will just see the animal that they found. You will still get to choose which chest to search for treasure.</p>","","instructions","","","","","","","","","","","",""
"revaluation","80","467406","0.0-3.0-11.0-4.0-0.0","spark_pilot_norest","9164","4","15","Female","","false","","","","","[863.4000000003725]","./assets/img/space/animals/cat.jpg","[""ArrowRight""]","practice block","space","36","{""ArrowUp,ArrowLeft"":3,""ArrowUp,ArrowRight"":36,""ArrowDown,ArrowLeft"":15,""ArrowDown,ArrowRight"":23}","true","ArrowUp,ArrowRight","","","","","","",""
"html-keyboard-response","81","467910","0.0-3.0-11.0-4.0-1.0","spark_pilot_norest","9164","4","15","Female","","","","","","","null","<div style=""font-size:60px;"">+</div>","null","fixation","","","","","","","","","","","",""
"revaluation","82","471926","0.0-3.0-11.0-4.0-0.1","spark_pilot_norest","9164","4","15","Female","","false","","","","","[477.30000000074506]","./assets/img/space/animals/cat.jpg","[""ArrowRight""]","practice block","space","36","{""ArrowUp,ArrowLeft"":3,""ArrowUp,ArrowRight"":36,""ArrowDown,ArrowLeft"":15,""ArrowDown,ArrowRight"":23}","true","ArrowUp,ArrowRight","","","","","","",""
"html-keyboard-response","83","472430","0.0-3.0-11.0-4.0-1.1","spark_pilot_norest","9164","4","15","Female","","","","","","","null","<div style=""font-size:60px;"">+</div>","null","fixation","","","","","","","","","","","",""
"revaluation","84","476446","0.0-3.0-11.0-4.0-0.2","spark_pilot_norest","9164","4","15","Female","","false","","","","","[884.8000000007451]","./assets/img/space/animals/rabbit.jpg","[""ArrowRight""]","practice block","space","23","{""ArrowUp,ArrowLeft"":3,""ArrowUp,ArrowRight"":36,""ArrowDown,ArrowLeft"":15,""ArrowDown,ArrowRight"":23}","true","ArrowDown,ArrowRight","","","","","","",""
"html-keyboard-response","85","476950","0.0-3.0-11.0-4.0-1.2","spark_pilot_norest","9164","4","15","Female","","","","","","","null","<div style=""font-size:60px;"">+</div>","null","fixation","","","","","","","","","","","",""
"revaluation","86","480967","0.0-3.0-11.0-4.0-0.3","spark_pilot_norest","9164","4","15","Female","","false","","","","","[430.40000000037253]","./assets/img/space/animals/rabbit.jpg","[""ArrowRight""]","practice block","space","23","{""ArrowUp,ArrowLeft"":3,""ArrowUp,ArrowRight"":36,""ArrowDown,ArrowLeft"":15,""ArrowDown,ArrowRight"":23}","true","ArrowDown,ArrowRight","","","","","","",""
"html-keyboard-response","87","481470","0.0-3.0-11.0-4.0-1.3","spark_pilot_norest","9164","4","15","Female","","","","","","","null","<div style=""font-size:60px;"">+</div>","null","fixation","","","","","","","","","","","",""
"learning-instructions","88","489598","0.0-3.0-11.0-5.0-0.0","spark_pilot_norest","9164","4","15","Female","","","","","","","null","<p> You have almost finished this part of the game! </p>
            <p> We are going to ask you to make a few more choices. </p>","","instructions","","","","","","","","","","","",""
"learning-instructions","89","505622","0.0-3.0-11.0-5.0-0.1","spark_pilot_norest","9164","4","15","Female","","","","","","","null","<p> First, you need to decide whether to go up or down. When you see each picture, use the arrow keys to make your choice. </p>
            <p><b>You will not see which animal you found, but try to get to the one that will give you the most treasure.</b></p>","","instructions","","","","","","","","","","","",""
"html-keyboard-response","90","506630","0.0-3.0-11.0-6.0-0.0","spark_pilot_norest","9164","4","15","Female","","","","","","","null","<div style=""font-size:100px;color:red;"">Starting in...</div>","null","","","","","","","","","","","","",""
"html-keyboard-response","91","507638","0.0-3.0-11.0-6.0-1.0","spark_pilot_norest","9164","4","15","Female","","","","","","","null","<div style=""font-size:200px;color:red;"">3</div>","null","","","","","","","","","","","","",""
"html-keyboard-response","92","508647","0.0-3.0-11.0-6.0-2.0","spark_pilot_norest","9164","4","15","Female","","","","","","","null","<div style=""font-size:200px;color:red;"">2</div>","null","","","","","","","","","","","","",""
"html-keyboard-response","93","509654","0.0-3.0-11.0-6.0-3.0","spark_pilot_norest","9164","4","15","Female","","","","","","","null","<div style=""font-size:200px;color:red;"">1</div>","null","","","","","","","","","","","","",""
"revaluation","94","509996","0.0-3.0-11.0-7.0","spark_pilot_norest","9164","4","15","Female","","false","","","","","[335.20000000018626]","./assets/img/space/15.jpg","[""ArrowUp""]","practice block","space","0","{""ArrowUp,ArrowLeft"":3,""ArrowUp,ArrowRight"":36,""ArrowDown,ArrowLeft"":15,""ArrowDown,ArrowRight"":23}","true","ArrowUp","false","","","","","",""
"html-keyboard-response","95","510502","0.0-3.0-11.0-8.0","spark_pilot_norest","9164","4","15","Female","","","","","","","null","<div style=""font-size:60px;"">+</div>","null","fixation","","","","","","","","","","","",""
"learning-instructions","96","523894","0.0-3.0-11.0-9.0-0.0","spark_pilot_norest","9164","4","15","Female","","","","","","","null","<p> Now you will see the animals again and can search their chests for treasure. </p>
            <p> This time, you will not see how much treasure you earned, but you will earn more bonus money for making better choices. </p>","","instructions","","","","","","","","","","","",""
"html-keyboard-response","97","524902","0.0-3.0-11.0-10.0-0.0","spark_pilot_norest","9164","4","15","Female","","","","","","","null","<div style=""font-size:100px;color:red;"">Starting in...</div>","null","","","","","","","","","","","","",""
"html-keyboard-response","98","525910","0.0-3.0-11.0-10.0-1.0","spark_pilot_norest","9164","4","15","Female","","","","","","","null","<div style=""font-size:200px;color:red;"">3</div>","null","","","","","","","","","","","","",""
"html-keyboard-response","99","526918","0.0-3.0-11.0-10.0-2.0","spark_pilot_norest","9164","4","15","Female","","","","","","","null","<div style=""font-size:200px;color:red;"">2</div>","null","","","","","","","","","","","","",""
"html-keyboard-response","100","527926","0.0-3.0-11.0-10.0-3.0","spark_pilot_norest","9164","4","15","Female","","","","","","","null","<div style=""font-size:200px;color:red;"">1</div>","null","","","","","","","","","","","","",""
"revaluation","101","528762","0.0-3.0-11.0-11.0-0.0","spark_pilot_norest","9164","4","15","Female","","false","","","","","[828.2000000001863]","./assets/img/space/animals/cat.jpg","[""ArrowRight""]","practice block","space","0","{""ArrowUp,ArrowLeft"":3,""ArrowUp,ArrowRight"":36,""ArrowDown,ArrowLeft"":15,""ArrowDown,ArrowRight"":23}","true","ArrowUp,ArrowRight","","","","","","",""
"html-keyboard-response","102","529270","0.0-3.0-11.0-11.0-1.0","spark_pilot_norest","9164","4","15","Female","","","","","","","null","<div style=""font-size:60px;"">+</div>","null","fixation","","","","","","","","","","","",""
"revaluation","103","529786","0.0-3.0-11.0-11.0-0.1","spark_pilot_norest","9164","4","15","Female","","false","","","","","[511.70000000018626]","./assets/img/space/animals/rabbit.jpg","[""ArrowRight""]","practice block","space","0","{""ArrowUp,ArrowLeft"":3,""ArrowUp,ArrowRight"":36,""ArrowDown,ArrowLeft"":15,""ArrowDown,ArrowRight"":23}","true","ArrowDown,ArrowRight","","","","","","",""
"html-keyboard-response","104","530294","0.0-3.0-11.0-11.0-1.1","spark_pilot_norest","9164","4","15","Female","","","","","","","null","<div style=""font-size:60px;"">+</div>","null","fixation","","","","","","","","","","","",""
"learning-instructions","105","536379","0.0-3.0-12.0-0.0","spark_pilot_norest","9164","4","15","Female","","","","","","","1499.2000000001863","<p> Before you start, we're going to ask you a few questions about how the game works. </p>","","instructions","","","","","","","","","","","",""
"comp-q","106","543489","0.0-3.0-13.0-0.0-0.0","spark_pilot_norest","9164","4","15","Female","","","","","","","1512.1000000005588","<p> <b> True or False? </b> </p>
            <p> There can be 50 pieces of treasure in a given animal's chest. </p>","1","comp_question","","","","true","","","","","","","",""
"comp-q","107","551084","0.0-3.0-13.0-0.0-1.0","spark_pilot_norest","9164","4","15","Female","","","","","","","928.5","<p> <b> That's right! </b> The amount of treasure in each chest can range from 0 to 40 pieces. </p>","0","comp_answer","","","","","","","","","","","",""
"comp-q","108","559254","0.0-3.0-13.0-0.1-0.1","spark_pilot_norest","9164","4","15","Female","","","","","","","1044.9000000003725","<p> <b> True or False? </b> </p><p> In this game, all animals have the same amount of treasure in their left and right chests. </p>","1","comp_question","","","","true","","","","","","","",""
"comp-q","109","565347","0.0-3.0-13.0-0.1-1.1","spark_pilot_norest","9164","4","15","Female","","","","","","","855.4000000003725","<p> <b> That's right! </b> Animals have different amounts of treasure in their treasure chests. </p>","0","comp_answer","","","","","","","","","","","",""
"comp-q","110","574085","0.0-3.0-13.0-0.2-0.2","spark_pilot_norest","9164","4","15","Female","","","","","","","2894.699999999255","<p> <b> True or False? </b> </p><p> The same animal will always be there if you go up in the same place. </p>","0","comp_question","","","","true","","","","","","","",""
"comp-q","111","581377","0.0-3.0-13.0-0.2-1.2","spark_pilot_norest","9164","4","15","Female","","","","","","","843.3000000007451","<p> <b> That's right! </b> One animal lives in the upper part and one lives in the lower part of every place. </p>","0","comp_answer","","","","","","","","","","","",""
"comp-q","112","587728","0.0-3.0-13.0-0.3-0.3","spark_pilot_norest","9164","4","15","Female","","","","","","","826.0999999996275","<p> <b> True or False? </b> </p><p> If you see a different picture, it means you are in a new place. </p>","1","comp_question","","","","true","","","","","","","",""
"comp-q","113","600402","0.0-3.0-13.0-0.3-1.3","spark_pilot_norest","9164","4","15","Female","","","","","","","1436.2000000001863","<p> <b> That's right! </b> Lots of different images may show the same place. For example,  you may see three different images that all remind you that you are in outer space. </p>","0","comp_answer","","","","","","","","","","","",""
"learning-instructions","114","611848","0.0-3.0-14.0-0.0","spark_pilot_norest","9164","4","15","Female","","","","","","","1586.5","<p> Good job. Remember to do your best because the amount of treasure you earn will be converted into bonus money. </p>
            <p> It’s time to start the real game! </p>","","instructions","","","","","","","","","","","",""
"learning-instructions","115","616594","0.0-4.0-0.0-0.0","spark_pilot_norest","9164","4","15","Female","","","","","","","2033.6000000005588","<p> This time you are searching for treasure in the <b>ocean</b>.</p>","","instructions","","","","","","","","","","","",""
"learning-instructions","116","634481","0.0-4.0-0.0-0.1","spark_pilot_norest","9164","4","15","Female","","","","","","","570.9000000003725","<p><b>New</b> animals with <b>new</b> treasure chests live here. You need to explore to discover where the animal with the best treasure chest is.</p>
                    <p> Like before, once you figure out which animal has the chest with the most treasure, you should try to get to that animal and select that chest! </p>","","instructions","","","","","","","","","","","",""
"learning-instructions","117","649922","0.0-4.0-1.0-0.0","spark_pilot_norest","9164","4","15","Female","","","","","","","716.5","<p> Remember, when you see a picture of the place, use the up and down keys to <b>find an animal</b>.</p>
            <p> When you encounter an animal, you should use the left and right keys to <b>select a treasure chest</b>.</p>
            <p> Don't forget to look out for the robber! </p>","","instructions","","","","","","","","","","","",""
"revaluation","118","655951","0.0-4.0-2.0-0.0","spark_pilot_norest","9164","4","15","Female","","false","","","","","[865.2000000001863,410.90000000037253]","./assets/img/ocean/memory/27.jpg","[""ArrowDown"",""ArrowRight""]","value training","ocean","17","{""ArrowUp,ArrowLeft"":26,""ArrowUp,ArrowRight"":10,""ArrowDown,ArrowLeft"":5,""ArrowDown,ArrowRight"":17}","false","ArrowDown,ArrowRight","false","revaluation","1","0","","",""
"html-keyboard-response","119","656462","0.0-4.0-2.0-1.0","spark_pilot_norest","9164","4","15","Female","","","","","","","null","<div style=""font-size:60px;"">+</div>","null","fixation","","","","","","","","","1","","",""
"revaluation","120","662486","0.0-4.0-2.0-0.1","spark_pilot_norest","9164","4","15","Female","","false","","","","","[409.79999999981374,373.29999999981374]","./assets/img/ocean/memory/29.jpg","[""ArrowUp"",""ArrowRight""]","value training","ocean","10","{""ArrowUp,ArrowLeft"":26,""ArrowUp,ArrowRight"":10,""ArrowDown,ArrowLeft"":5,""ArrowDown,ArrowRight"":17}","false","ArrowUp,ArrowRight","false","revaluation","1","2","","",""
"html-keyboard-response","121","662990","0.0-4.0-2.0-1.1","spark_pilot_norest","9164","4","15","Female","","","","","","","null","<div style=""font-size:60px;"">+</div>","null","fixation","","","","","","","","","3","","",""
"revaluation","122","669015","0.0-4.0-2.0-0.2","spark_pilot_norest","9164","4","15","Female","","false","","","","","[1632.4000000003725,450.5]","./assets/img/ocean/memory/23.jpg","[""ArrowDown"",""ArrowLeft""]","value training","ocean","5","{""ArrowUp,ArrowLeft"":26,""ArrowUp,ArrowRight"":10,""ArrowDown,ArrowLeft"":5,""ArrowDown,ArrowRight"":17}","false","ArrowDown,ArrowLeft","false","revaluation","1","4","","",""
"html-keyboard-response","123","669518","0.0-4.0-2.0-1.2","spark_pilot_norest","9164","4","15","Female","","","","","","","null","<div style=""font-size:60px;"">+</div>","null","fixation","","","","","","","","","5","","",""
"revaluation","124","675550","0.0-4.0-2.0-0.3","spark_pilot_norest","9164","4","15","Female","","false","","","","","[344.59999999962747,359.1000000005588]","./assets/img/ocean/memory/8.jpg","[""ArrowUp"",""ArrowLeft""]","value training","ocean","26","{""ArrowUp,ArrowLeft"":26,""ArrowUp,ArrowRight"":10,""ArrowDown,ArrowLeft"":5,""ArrowDown,ArrowRight"":17}","true","ArrowUp,ArrowLeft","false","revaluation","1","6","","",""
"html-keyboard-response","125","676054","0.0-4.0-2.0-1.3","spark_pilot_norest","9164","4","15","Female","","","","","","","null","<div style=""font-size:60px;"">+</div>","null","fixation","","","","","","","","","7","","",""
"revaluation","126","682079","0.0-4.0-2.0-0.4","spark_pilot_norest","9164","4","15","Female","","false","","","","","[510.70000000018626,341.59999999962747]","./assets/img/ocean/memory/41.jpg","[""ArrowUp"",""ArrowLeft""]","value training","ocean","26","{""ArrowUp,ArrowLeft"":26,""ArrowUp,ArrowRight"":10,""ArrowDown,ArrowLeft"":5,""ArrowDown,ArrowRight"":17}","true","ArrowUp,ArrowLeft","false","revaluation","1","8","","",""
"html-keyboard-response","127","682582","0.0-4.0-2.0-1.4","spark_pilot_norest","9164","4","15","Female","","","","","","","null","<div style=""font-size:60px;"">+</div>","null","fixation","","","","","","","","","9","","",""
"revaluation","128","688606","0.0-4.0-2.0-0.5","spark_pilot_norest","9164","4","15","Female","","false","","","","","[323.90000000037253,352.29999999981374]","./assets/img/ocean/memory/38.jpg","[""ArrowUp"",""ArrowLeft""]","value training","ocean","26","{""ArrowUp,ArrowLeft"":26,""ArrowUp,ArrowRight"":10,""ArrowDown,ArrowLeft"":5,""ArrowDown,ArrowRight"":17}","true","ArrowUp,ArrowLeft","false","revaluation","1","10","","",""
"html-keyboard-response","129","689110","0.0-4.0-2.0-1.5","spark_pilot_norest","9164","4","15","Female","","","","","","","null","<div style=""font-size:60px;"">+</div>","null","fixation","","","","","","","","","11","","",""
"revaluation","130","695134","0.0-4.0-2.0-0.6","spark_pilot_norest","9164","4","15","Female","","false","","","","","[570,289.59999999962747]","./assets/img/ocean/memory/11.jpg","[""ArrowUp"",""ArrowLeft""]","value training","ocean","26","{""ArrowUp,ArrowLeft"":26,""ArrowUp,ArrowRight"":10,""ArrowDown,ArrowLeft"":5,""ArrowDown,ArrowRight"":17}","true","ArrowUp,ArrowLeft","false","revaluation","1","12","","",""
"html-keyboard-response","131","695638","0.0-4.0-2.0-1.6","spark_pilot_norest","9164","4","15","Female","","","","","","","null","<div style=""font-size:60px;"">+</div>","null","fixation","","","","","","","","","13","","",""
"revaluation","132","701663","0.0-4.0-2.0-0.7","spark_pilot_norest","9164","4","15","Female","","false","","","","","[447.79999999981374,387.20000000018626]","./assets/img/ocean/memory/14.jpg","[""ArrowUp"",""ArrowLeft""]","value training","ocean","26","{""ArrowUp,ArrowLeft"":26,""ArrowUp,ArrowRight"":10,""ArrowDown,ArrowLeft"":5,""ArrowDown,ArrowRight"":17}","true","ArrowUp,ArrowLeft","false","revaluation","1","14","","",""
"html-keyboard-response","133","702166","0.0-4.0-2.0-1.7","spark_pilot_norest","9164","4","15","Female","","","","","","","null","<div style=""font-size:60px;"">+</div>","null","fixation","","","","","","","","","15","","",""
"revaluation","134","708191","0.0-4.0-2.0-0.8","spark_pilot_norest","9164","4","15","Female","","false","","","","","[508.90000000037253,302.70000000018626]","./assets/img/ocean/memory/13.jpg","[""ArrowUp"",""ArrowLeft""]","value training","ocean","26","{""ArrowUp,ArrowLeft"":26,""ArrowUp,ArrowRight"":10,""ArrowDown,ArrowLeft"":5,""ArrowDown,ArrowRight"":17}","true","ArrowUp,ArrowLeft","false","revaluation","1","16","","",""
"html-keyboard-response","135","708694","0.0-4.0-2.0-1.8","spark_pilot_norest","9164","4","15","Female","","","","","","","null","<div style=""font-size:60px;"">+</div>","null","fixation","","","","","","","","","17","","",""
"revaluation","136","712711","0.0-4.0-2.0-0.9","spark_pilot_norest","9164","4","15","Female","","false","","","","","[300.29999999981374]","./assets/img/ocean/catch/6.jpg","[""ArrowUp""]","value training","ocean","-10","{""ArrowUp,ArrowLeft"":26,""ArrowUp,ArrowRight"":10,""ArrowDown,ArrowLeft"":5,""ArrowDown,ArrowRight"":17}","false","ArrowUp","true","revaluation","1","18","","",""
"html-keyboard-response","137","713214","0.0-4.0-2.0-1.9","spark_pilot_norest","9164","4","15","Female","","","","","","","null","<div style=""font-size:60px;"">+</div>","null","fixation","","","","","","","","","19","","",""
"revaluation","138","719238","0.0-4.0-2.0-0.10","spark_pilot_norest","9164","4","15","Female","","false","","","","","[413.8999999994412,395.29999999981374]","./assets/img/ocean/memory/38.jpg","[""ArrowUp"",""ArrowLeft""]","value training","ocean","26","{""ArrowUp,ArrowLeft"":26,""ArrowUp,ArrowRight"":10,""ArrowDown,ArrowLeft"":5,""ArrowDown,ArrowRight"":17}","true","ArrowUp,ArrowLeft","false","revaluation","1","20","","",""
"html-keyboard-response","139","719742","0.0-4.0-2.0-1.10","spark_pilot_norest","9164","4","15","Female","","","","","","","null","<div style=""font-size:60px;"">+</div>","null","fixation","","","","","","","","","21","","",""
"revaluation","140","725767","0.0-4.0-2.0-0.11","spark_pilot_norest","9164","4","15","Female","","false","","","","","[637.7999999998137,383.30000000074506]","./assets/img/ocean/memory/41.jpg","[""ArrowUp"",""ArrowLeft""]","value training","ocean","26","{""ArrowUp,ArrowLeft"":26,""ArrowUp,ArrowRight"":10,""ArrowDown,ArrowLeft"":5,""ArrowDown,ArrowRight"":17}","true","ArrowUp,ArrowLeft","false","revaluation","1","22","","",""
"html-keyboard-response","141","726270","0.0-4.0-2.0-1.11","spark_pilot_norest","9164","4","15","Female","","","","","","","null","<div style=""font-size:60px;"">+</div>","null","fixation","","","","","","","","","23","","",""
"revaluation","142","732295","0.0-4.0-2.0-0.12","spark_pilot_norest","9164","4","15","Female","","false","","","","","[428.29999999981374,362.40000000037253]","./assets/img/ocean/memory/11.jpg","[""ArrowUp"",""ArrowLeft""]","value training","ocean","26","{""ArrowUp,ArrowLeft"":26,""ArrowUp,ArrowRight"":10,""ArrowDown,ArrowLeft"":5,""ArrowDown,ArrowRight"":17}","true","ArrowUp,ArrowLeft","false","revaluation","1","24","","",""
"html-keyboard-response","143","732798","0.0-4.0-2.0-1.12","spark_pilot_norest","9164","4","15","Female","","","","","","","null","<div style=""font-size:60px;"">+</div>","null","fixation","","","","","","","","","25","","",""
"revaluation","144","738822","0.0-4.0-2.0-0.13","spark_pilot_norest","9164","4","15","Female","","false","","","","","[605.2000000001863,282.69999999925494]","./assets/img/ocean/memory/39.jpg","[""ArrowUp"",""ArrowLeft""]","value training","ocean","26","{""ArrowUp,ArrowLeft"":26,""ArrowUp,ArrowRight"":10,""ArrowDown,ArrowLeft"":5,""ArrowDown,ArrowRight"":17}","true","ArrowUp,ArrowLeft","false","revaluation","1","26","","",""
"html-keyboard-response","145","739326","0.0-4.0-2.0-1.13","spark_pilot_norest","9164","4","15","Female","","","","","","","null","<div style=""font-size:60px;"">+</div>","null","fixation","","","","","","","","","27","","",""
"revaluation","146","743343","0.0-4.0-2.0-0.14","spark_pilot_norest","9164","4","15","Female","","false","","","","","[494.30000000074506]","./assets/img/ocean/catch/2.jpg","[""spaceBar""]","value training","ocean","0","{""ArrowUp,ArrowLeft"":26,""ArrowUp,ArrowRight"":10,""ArrowDown,ArrowLeft"":5,""ArrowDown,ArrowRight"":17}","true","spaceBar","true","revaluation","1","28","","",""
"html-keyboard-response","147","743846","0.0-4.0-2.0-1.14","spark_pilot_norest","9164","4","15","Female","","","","","","","null","<div style=""font-size:60px;"">+</div>","null","fixation","","","","","","","","","29","","",""
"revaluation","148","749870","0.0-4.0-2.0-0.15","spark_pilot_norest","9164","4","15","Female","","false","","","","","[547.6000000005588,336.90000000037253]","./assets/img/ocean/memory/16.jpg","[""ArrowUp"",""ArrowLeft""]","value training","ocean","26","{""ArrowUp,ArrowLeft"":26,""ArrowUp,ArrowRight"":10,""ArrowDown,ArrowLeft"":5,""ArrowDown,ArrowRight"":17}","true","ArrowUp,ArrowLeft","false","revaluation","1","30","","",""
"html-keyboard-response","149","750374","0.0-4.0-2.0-1.15","spark_pilot_norest","9164","4","15","Female","","","","","","","null","<div style=""font-size:60px;"">+</div>","null","fixation","","","","","","","","","31","","",""
"revaluation","150","756398","0.0-4.0-2.0-0.16","spark_pilot_norest","9164","4","15","Female","","false","","","","","[390,271.79999999981374]","./assets/img/ocean/memory/13.jpg","[""ArrowUp"",""ArrowLeft""]","value training","ocean","26","{""ArrowUp,ArrowLeft"":26,""ArrowUp,ArrowRight"":10,""ArrowDown,ArrowLeft"":5,""ArrowDown,ArrowRight"":17}","true","ArrowUp,ArrowLeft","false","revaluation","1","32","","",""
"html-keyboard-response","151","756902","0.0-4.0-2.0-1.16","spark_pilot_norest","9164","4","15","Female","","","","","","","null","<div style=""font-size:60px;"">+</div>","null","fixation","","","","","","","","","33","","",""
"revaluation","152","762926","0.0-4.0-2.0-0.17","spark_pilot_norest","9164","4","15","Female","","false","","","","","[493.90000000037253,313.20000000018626]","./assets/img/ocean/memory/5.jpg","[""ArrowUp"",""ArrowLeft""]","value training","ocean","26","{""ArrowUp,ArrowLeft"":26,""ArrowUp,ArrowRight"":10,""ArrowDown,ArrowLeft"":5,""ArrowDown,ArrowRight"":17}","true","ArrowUp,ArrowLeft","false","revaluation","1","34","","",""
"html-keyboard-response","153","763430","0.0-4.0-2.0-1.17","spark_pilot_norest","9164","4","15","Female","","","","","","","null","<div style=""font-size:60px;"">+</div>","null","fixation","","","","","","","","","35","","",""
"revaluation","154","769454","0.0-4.0-2.0-0.18","spark_pilot_norest","9164","4","15","Female","","false","","","","","[762.5999999996275,311.5]","./assets/img/ocean/memory/31.jpg","[""ArrowUp"",""ArrowLeft""]","value training","ocean","26","{""ArrowUp,ArrowLeft"":26,""ArrowUp,ArrowRight"":10,""ArrowDown,ArrowLeft"":5,""ArrowDown,ArrowRight"":17}","true","ArrowUp,ArrowLeft","false","revaluation","1","36","","",""
"html-keyboard-response","155","769958","0.0-4.0-2.0-1.18","spark_pilot_norest","9164","4","15","Female","","","","","","","null","<div style=""font-size:60px;"">+</div>","null","fixation","","","","","","","","","37","","",""
"revaluation","156","775983","0.0-4.0-2.0-0.19","spark_pilot_norest","9164","4","15","Female","","false","","","","","[432.59999999962747,313.79999999981374]","./assets/img/ocean/memory/16.jpg","[""ArrowUp"",""ArrowLeft""]","value training","ocean","26","{""ArrowUp,ArrowLeft"":26,""ArrowUp,ArrowRight"":10,""ArrowDown,ArrowLeft"":5,""ArrowDown,ArrowRight"":17}","true","ArrowUp,ArrowLeft","false","revaluation","1","38","","",""
"html-keyboard-response","157","776486","0.0-4.0-2.0-1.19","spark_pilot_norest","9164","4","15","Female","","","","","","","null","<div style=""font-size:60px;"">+</div>","null","fixation","","","","","","","","","39","","",""
"revaluation","158","782511","0.0-4.0-2.0-0.20","spark_pilot_norest","9164","4","15","Female","","false","","","","","[504.29999999981374,267.20000000018626]","./assets/img/ocean/memory/17.jpg","[""ArrowUp"",""ArrowLeft""]","value training","ocean","26","{""ArrowUp,ArrowLeft"":26,""ArrowUp,ArrowRight"":10,""ArrowDown,ArrowLeft"":5,""ArrowDown,ArrowRight"":17}","true","ArrowUp,ArrowLeft","false","revaluation","1","40","","",""
"html-keyboard-response","159","783014","0.0-4.0-2.0-1.20","spark_pilot_norest","9164","4","15","Female","","","","","","","null","<div style=""font-size:60px;"">+</div>","null","fixation","","","","","","","","","41","","",""
"revaluation","160","789039","0.0-4.0-2.0-0.21","spark_pilot_norest","9164","4","15","Female","","false","","","","","[605.3999999994412,422.1000000005588]","./assets/img/ocean/memory/29.jpg","[""ArrowUp"",""ArrowLeft""]","value training","ocean","26","{""ArrowUp,ArrowLeft"":26,""ArrowUp,ArrowRight"":10,""ArrowDown,ArrowLeft"":5,""ArrowDown,ArrowRight"":17}","true","ArrowUp,ArrowLeft","false","revaluation","1","42","","",""
"html-keyboard-response","161","789543","0.0-4.0-2.0-1.21","spark_pilot_norest","9164","4","15","Female","","","","","","","null","<div style=""font-size:60px;"">+</div>","null","fixation","","","","","","","","","43","","",""
"revaluation","162","795567","0.0-4.0-2.0-0.22","spark_pilot_norest","9164","4","15","Female","","false","","","","","[1047.2999999998137,270.70000000018626]","./assets/img/ocean/memory/14.jpg","[""ArrowUp"",""ArrowLeft""]","value training","ocean","26","{""ArrowUp,ArrowLeft"":26,""ArrowUp,ArrowRight"":10,""ArrowDown,ArrowLeft"":5,""ArrowDown,ArrowRight"":17}","true","ArrowUp,ArrowLeft","false","revaluation","1","44","","",""
"html-keyboard-response","163","796070","0.0-4.0-2.0-1.22","spark_pilot_norest","9164","4","15","Female","","","","","","","null","<div style=""font-size:60px;"">+</div>","null","fixation","","","","","","","","","45","","",""
"revaluation","164","800087","0.0-4.0-2.0-0.23","spark_pilot_norest","9164","4","15","Female","","false","","","","","[853.7999999998137]","./assets/img/ocean/catch/1.jpg","[""spaceBar""]","value training","ocean","0","{""ArrowUp,ArrowLeft"":26,""ArrowUp,ArrowRight"":10,""ArrowDown,ArrowLeft"":5,""ArrowDown,ArrowRight"":17}","true","spaceBar","true","revaluation","1","46","","",""
"html-keyboard-response","165","800590","0.0-4.0-2.0-1.23","spark_pilot_norest","9164","4","15","Female","","","","","","","null","<div style=""font-size:60px;"">+</div>","null","fixation","","","","","","","","","47","","",""
"revaluation","166","806615","0.0-4.0-2.0-0.24","spark_pilot_norest","9164","4","15","Female","","false","","","","","[825.5,275.29999999981374]","./assets/img/ocean/memory/39.jpg","[""ArrowUp"",""ArrowLeft""]","value training","ocean","26","{""ArrowUp,ArrowLeft"":26,""ArrowUp,ArrowRight"":10,""ArrowDown,ArrowLeft"":5,""ArrowDown,ArrowRight"":17}","true","ArrowUp,ArrowLeft","false","revaluation","1","48","","",""
"html-keyboard-response","167","807118","0.0-4.0-2.0-1.24","spark_pilot_norest","9164","4","15","Female","","","","","","","null","<div style=""font-size:60px;"">+</div>","null","fixation","","","","","","","","","49","","",""
"revaluation","168","813143","0.0-4.0-2.0-0.25","spark_pilot_norest","9164","4","15","Female","","false","","","","","[552,374.5]","./assets/img/ocean/memory/32.jpg","[""ArrowUp"",""ArrowLeft""]","value training","ocean","26","{""ArrowUp,ArrowLeft"":26,""ArrowUp,ArrowRight"":10,""ArrowDown,ArrowLeft"":5,""ArrowDown,ArrowRight"":17}","true","ArrowUp,ArrowLeft","false","revaluation","1","50","","",""
"html-keyboard-response","169","813646","0.0-4.0-2.0-1.25","spark_pilot_norest","9164","4","15","Female","","","","","","","null","<div style=""font-size:60px;"">+</div>","null","fixation","","","","","","","","","51","","",""
"revaluation","170","819670","0.0-4.0-2.0-0.26","spark_pilot_norest","9164","4","15","Female","","false","","","","","[597.3999999994412,330.29999999981374]","./assets/img/ocean/memory/17.jpg","[""ArrowUp"",""ArrowLeft""]","value training","ocean","26","{""ArrowUp,ArrowLeft"":26,""ArrowUp,ArrowRight"":10,""ArrowDown,ArrowLeft"":5,""ArrowDown,ArrowRight"":17}","true","ArrowUp,ArrowLeft","false","revaluation","1","52","","",""
"html-keyboard-response","171","820174","0.0-4.0-2.0-1.26","spark_pilot_norest","9164","4","15","Female","","","","","","","null","<div style=""font-size:60px;"">+</div>","null","fixation","","","","","","","","","53","","",""
"revaluation","172","824191","0.0-4.0-2.0-0.27","spark_pilot_norest","9164","4","15","Female","","false","","","","","[451.79999999981374]","./assets/img/ocean/catch/3.jpg","[""spaceBar""]","value training","ocean","0","{""ArrowUp,ArrowLeft"":26,""ArrowUp,ArrowRight"":10,""ArrowDown,ArrowLeft"":5,""ArrowDown,ArrowRight"":17}","true","spaceBar","true","revaluation","1","54","","",""
"html-keyboard-response","173","824694","0.0-4.0-2.0-1.27","spark_pilot_norest","9164","4","15","Female","","","","","","","null","<div style=""font-size:60px;"">+</div>","null","fixation","","","","","","","","","55","","",""
"revaluation","174","830719","0.0-4.0-2.0-0.28","spark_pilot_norest","9164","4","15","Female","","false","","","","","[500.70000000018626,357.70000000018626]","./assets/img/ocean/memory/31.jpg","[""ArrowUp"",""ArrowLeft""]","value training","ocean","26","{""ArrowUp,ArrowLeft"":26,""ArrowUp,ArrowRight"":10,""ArrowDown,ArrowLeft"":5,""ArrowDown,ArrowRight"":17}","true","ArrowUp,ArrowLeft","false","revaluation","1","56","","",""
"html-keyboard-response","175","831222","0.0-4.0-2.0-1.28","spark_pilot_norest","9164","4","15","Female","","","","","","","null","<div style=""font-size:60px;"">+</div>","null","fixation","","","","","","","","","57","","",""
"revaluation","176","837247","0.0-4.0-2.0-0.29","spark_pilot_norest","9164","4","15","Female","","false","","","","","[370,401]","./assets/img/ocean/memory/28.jpg","[""ArrowUp"",""ArrowLeft""]","value training","ocean","26","{""ArrowUp,ArrowLeft"":26,""ArrowUp,ArrowRight"":10,""ArrowDown,ArrowLeft"":5,""ArrowDown,ArrowRight"":17}","true","ArrowUp,ArrowLeft","false","revaluation","1","58","","",""
"html-keyboard-response","177","837750","0.0-4.0-2.0-1.29","spark_pilot_norest","9164","4","15","Female","","","","","","","null","<div style=""font-size:60px;"">+</div>","null","fixation","","","","","","","","","59","","",""
"revaluation","178","843775","0.0-4.0-2.0-0.30","spark_pilot_norest","9164","4","15","Female","","false","","","","","[421.6000000005588,352.6000000005588]","./assets/img/ocean/memory/12.jpg","[""ArrowUp"",""ArrowLeft""]","value training","ocean","26","{""ArrowUp,ArrowLeft"":26,""ArrowUp,ArrowRight"":10,""ArrowDown,ArrowLeft"":5,""ArrowDown,ArrowRight"":17}","true","ArrowUp,ArrowLeft","false","revaluation","1","60","","",""
"html-keyboard-response","179","844278","0.0-4.0-2.0-1.30","spark_pilot_norest","9164","4","15","Female","","","","","","","null","<div style=""font-size:60px;"">+</div>","null","fixation","","","","","","","","","61","","",""
"revaluation","180","850303","0.0-4.0-2.0-0.31","spark_pilot_norest","9164","4","15","Female","","false","","","","","[485.5,273.29999999981374]","./assets/img/ocean/memory/7.jpg","[""ArrowUp"",""ArrowLeft""]","value training","ocean","26","{""ArrowUp,ArrowLeft"":26,""ArrowUp,ArrowRight"":10,""ArrowDown,ArrowLeft"":5,""ArrowDown,ArrowRight"":17}","true","ArrowUp,ArrowLeft","false","revaluation","1","62","","",""
"html-keyboard-response","181","850806","0.0-4.0-2.0-1.31","spark_pilot_norest","9164","4","15","Female","","","","","","","null","<div style=""font-size:60px;"">+</div>","null","fixation","","","","","","","","","63","","",""
"revaluation","182","854822","0.0-4.0-2.0-0.32","spark_pilot_norest","9164","4","15","Female","","false","","","","","[665.4000000003725]","./assets/img/ocean/catch/4.jpg","[""spaceBar""]","value training","ocean","0","{""ArrowUp,ArrowLeft"":26,""ArrowUp,ArrowRight"":10,""ArrowDown,ArrowLeft"":5,""ArrowDown,ArrowRight"":17}","true","spaceBar","true","revaluation","1","64","","",""
"html-keyboard-response","183","855326","0.0-4.0-2.0-1.32","spark_pilot_norest","9164","4","15","Female","","","","","","","null","<div style=""font-size:60px;"">+</div>","null","fixation","","","","","","","","","65","","",""
"revaluation","184","861351","0.0-4.0-2.0-0.33","spark_pilot_norest","9164","4","15","Female","","false","","","","","[488.79999999981374,463.90000000037253]","./assets/img/ocean/memory/32.jpg","[""ArrowUp"",""ArrowLeft""]","value training","ocean","26","{""ArrowUp,ArrowLeft"":26,""ArrowUp,ArrowRight"":10,""ArrowDown,ArrowLeft"":5,""ArrowDown,ArrowRight"":17}","true","ArrowUp,ArrowLeft","false","revaluation","1","66","","",""
"html-keyboard-response","185","861855","0.0-4.0-2.0-1.33","spark_pilot_norest","9164","4","15","Female","","","","","","","null","<div style=""font-size:60px;"">+</div>","null","fixation","","","","","","","","","67","","",""
"revaluation","186","865871","0.0-4.0-2.0-0.34","spark_pilot_norest","9164","4","15","Female","","false","","","","","[572.5999999996275]","./assets/img/ocean/catch/7.jpg","[""spaceBar""]","value training","ocean","0","{""ArrowUp,ArrowLeft"":26,""ArrowUp,ArrowRight"":10,""ArrowDown,ArrowLeft"":5,""ArrowDown,ArrowRight"":17}","true","spaceBar","true","revaluation","1","68","","",""
"html-keyboard-response","187","866374","0.0-4.0-2.0-1.34","spark_pilot_norest","9164","4","15","Female","","","","","","","null","<div style=""font-size:60px;"">+</div>","null","fixation","","","","","","","","","69","","",""
"revaluation","188","872399","0.0-4.0-2.0-0.35","spark_pilot_norest","9164","4","15","Female","","false","","","","","[369.90000000037253,611]","./assets/img/ocean/memory/5.jpg","[""ArrowUp"",""ArrowLeft""]","value training","ocean","26","{""ArrowUp,ArrowLeft"":26,""ArrowUp,ArrowRight"":10,""ArrowDown,ArrowLeft"":5,""ArrowDown,ArrowRight"":17}","true","ArrowUp,ArrowLeft","false","revaluation","1","70","","",""
"html-keyboard-response","189","872902","0.0-4.0-2.0-1.35","spark_pilot_norest","9164","4","15","Female","","","","","","","null","<div style=""font-size:60px;"">+</div>","null","fixation","","","","","","","","","71","","",""
"revaluation","190","878927","0.0-4.0-2.0-0.36","spark_pilot_norest","9164","4","15","Female","","false","","","","","[634.6000000005588,355.90000000037253]","./assets/img/ocean/memory/18.jpg","[""ArrowUp"",""ArrowLeft""]","value training","ocean","26","{""ArrowUp,ArrowLeft"":26,""ArrowUp,ArrowRight"":10,""ArrowDown,ArrowLeft"":5,""ArrowDown,ArrowRight"":17}","true","ArrowUp,ArrowLeft","false","revaluation","1","72","","",""
"html-keyboard-response","191","879430","0.0-4.0-2.0-1.36","spark_pilot_norest","9164","4","15","Female","","","","","","","null","<div style=""font-size:60px;"">+</div>","null","fixation","","","","","","","","","73","","",""
"revaluation","192","885455","0.0-4.0-2.0-0.37","spark_pilot_norest","9164","4","15","Female","","false","","","","","[386,311.90000000037253]","./assets/img/ocean/memory/33.jpg","[""ArrowUp"",""ArrowLeft""]","value training","ocean","26","{""ArrowUp,ArrowLeft"":26,""ArrowUp,ArrowRight"":10,""ArrowDown,ArrowLeft"":5,""ArrowDown,ArrowRight"":17}","true","ArrowUp,ArrowLeft","false","revaluation","1","74","","",""
"html-keyboard-response","193","885958","0.0-4.0-2.0-1.37","spark_pilot_norest","9164","4","15","Female","","","","","","","null","<div style=""font-size:60px;"">+</div>","null","fixation","","","","","","","","","75","","",""
"revaluation","194","891983","0.0-4.0-2.0-0.38","spark_pilot_norest","9164","4","15","Female","","false","","","","","[904.1999999992549,330.79999999981374]","./assets/img/ocean/memory/24.jpg","[""ArrowUp"",""ArrowLeft""]","value training","ocean","26","{""ArrowUp,ArrowLeft"":26,""ArrowUp,ArrowRight"":10,""ArrowDown,ArrowLeft"":5,""ArrowDown,ArrowRight"":17}","true","ArrowUp,ArrowLeft","false","revaluation","1","76","","",""
"html-keyboard-response","195","892486","0.0-4.0-2.0-1.38","spark_pilot_norest","9164","4","15","Female","","","","","","","null","<div style=""font-size:60px;"">+</div>","null","fixation","","","","","","","","","77","","",""
"revaluation","196","898511","0.0-4.0-2.0-0.39","spark_pilot_norest","9164","4","15","Female","","false","","","","","[519.0999999996275,261.20000000018626]","./assets/img/ocean/memory/8.jpg","[""ArrowUp"",""ArrowLeft""]","value training","ocean","26","{""ArrowUp,ArrowLeft"":26,""ArrowUp,ArrowRight"":10,""ArrowDown,ArrowLeft"":5,""ArrowDown,ArrowRight"":17}","true","ArrowUp,ArrowLeft","false","revaluation","1","78","","",""
"html-keyboard-response","197","899014","0.0-4.0-2.0-1.39","spark_pilot_norest","9164","4","15","Female","","","","","","","null","<div style=""font-size:60px;"">+</div>","null","fixation","","","","","","","","","79","","",""
"revaluation","198","905039","0.0-4.0-2.0-0.40","spark_pilot_norest","9164","4","15","Female","","false","","","","","[471.70000000018626,328.70000000018626]","./assets/img/ocean/memory/33.jpg","[""ArrowUp"",""ArrowLeft""]","value training","ocean","26","{""ArrowUp,ArrowLeft"":26,""ArrowUp,ArrowRight"":10,""ArrowDown,ArrowLeft"":5,""ArrowDown,ArrowRight"":17}","true","ArrowUp,ArrowLeft","false","revaluation","1","80","","",""
"html-keyboard-response","199","905542","0.0-4.0-2.0-1.40","spark_pilot_norest","9164","4","15","Female","","","","","","","null","<div style=""font-size:60px;"">+</div>","null","fixation","","","","","","","","","81","","",""
"revaluation","200","911567","0.0-4.0-2.0-0.41","spark_pilot_norest","9164","4","15","Female","","false","","","","","[424.40000000037253,330]","./assets/img/ocean/memory/12.jpg","[""ArrowUp"",""ArrowLeft""]","value training","ocean","26","{""ArrowUp,ArrowLeft"":26,""ArrowUp,ArrowRight"":10,""ArrowDown,ArrowLeft"":5,""ArrowDown,ArrowRight"":17}","true","ArrowUp,ArrowLeft","false","revaluation","1","82","","",""
"html-keyboard-response","201","912070","0.0-4.0-2.0-1.41","spark_pilot_norest","9164","4","15","Female","","","","","","","null","<div style=""font-size:60px;"">+</div>","null","fixation","","","","","","","","","83","","",""
"revaluation","202","918103","0.0-4.0-2.0-0.42","spark_pilot_norest","9164","4","15","Female","","false","","","","","[587.8000000007451,380]","./assets/img/ocean/memory/28.jpg","[""ArrowUp"",""ArrowLeft""]","value training","ocean","26","{""ArrowUp,ArrowLeft"":26,""ArrowUp,ArrowRight"":10,""ArrowDown,ArrowLeft"":5,""ArrowDown,ArrowRight"":17}","true","ArrowUp,ArrowLeft","false","revaluation","1","84","","",""
"html-keyboard-response","203","918607","0.0-4.0-2.0-1.42","spark_pilot_norest","9164","4","15","Female","","","","","","","null","<div style=""font-size:60px;"">+</div>","null","fixation","","","","","","","","","85","","",""
"revaluation","204","922622","0.0-4.0-2.0-0.43","spark_pilot_norest","9164","4","15","Female","","false","","","","","[847.3000000007451]","./assets/img/ocean/catch/5.jpg","[""spaceBar""]","value training","ocean","0","{""ArrowUp,ArrowLeft"":26,""ArrowUp,ArrowRight"":10,""ArrowDown,ArrowLeft"":5,""ArrowDown,ArrowRight"":17}","true","spaceBar","true","revaluation","1","86","","",""
"html-keyboard-response","205","923126","0.0-4.0-2.0-1.43","spark_pilot_norest","9164","4","15","Female","","","","","","","null","<div style=""font-size:60px;"">+</div>","null","fixation","","","","","","","","","87","","",""
"revaluation","206","927142","0.0-4.0-2.0-0.44","spark_pilot_norest","9164","4","15","Female","","false","","","","","[829.5]","./assets/img/ocean/catch/0.jpg","[""spaceBar""]","value training","ocean","0","{""ArrowUp,ArrowLeft"":26,""ArrowUp,ArrowRight"":10,""ArrowDown,ArrowLeft"":5,""ArrowDown,ArrowRight"":17}","true","spaceBar","true","revaluation","1","88","","",""
"html-keyboard-response","207","927646","0.0-4.0-2.0-1.44","spark_pilot_norest","9164","4","15","Female","","","","","","","null","<div style=""font-size:60px;"">+</div>","null","fixation","","","","","","","","","89","","",""
"revaluation","208","933671","0.0-4.0-2.0-0.45","spark_pilot_norest","9164","4","15","Female","","false","","","","","[569.5,331]","./assets/img/ocean/memory/23.jpg","[""ArrowUp"",""ArrowLeft""]","value training","ocean","26","{""ArrowUp,ArrowLeft"":26,""ArrowUp,ArrowRight"":10,""ArrowDown,ArrowLeft"":5,""ArrowDown,ArrowRight"":17}","true","ArrowUp,ArrowLeft","false","revaluation","1","90","","",""
"html-keyboard-response","209","934174","0.0-4.0-2.0-1.45","spark_pilot_norest","9164","4","15","Female","","","","","","","null","<div style=""font-size:60px;"">+</div>","null","fixation","","","","","","","","","91","","",""
"revaluation","210","940199","0.0-4.0-2.0-0.46","spark_pilot_norest","9164","4","15","Female","","false","","","","","[593,338.79999999981374]","./assets/img/ocean/memory/18.jpg","[""ArrowUp"",""ArrowLeft""]","value training","ocean","26","{""ArrowUp,ArrowLeft"":26,""ArrowUp,ArrowRight"":10,""ArrowDown,ArrowLeft"":5,""ArrowDown,ArrowRight"":17}","true","ArrowUp,ArrowLeft","false","revaluation","1","92","","",""
"html-keyboard-response","211","940702","0.0-4.0-2.0-1.46","spark_pilot_norest","9164","4","15","Female","","","","","","","null","<div style=""font-size:60px;"">+</div>","null","fixation","","","","","","","","","93","","",""
"revaluation","212","946727","0.0-4.0-2.0-0.47","spark_pilot_norest","9164","4","15","Female","","false","","","","","[851.3999999994412,346.20000000018626]","./assets/img/ocean/memory/24.jpg","[""ArrowUp"",""ArrowLeft""]","value training","ocean","26","{""ArrowUp,ArrowLeft"":26,""ArrowUp,ArrowRight"":10,""ArrowDown,ArrowLeft"":5,""ArrowDown,ArrowRight"":17}","true","ArrowUp,ArrowLeft","false","revaluation","1","94","","",""
"html-keyboard-response","213","947230","0.0-4.0-2.0-1.47","spark_pilot_norest","9164","4","15","Female","","","","","","","null","<div style=""font-size:60px;"">+</div>","null","fixation","","","","","","","","","95","","",""
"revaluation","214","953255","0.0-4.0-2.0-0.48","spark_pilot_norest","9164","4","15","Female","","false","","","","","[571.6000000005588,658.5]","./assets/img/ocean/memory/7.jpg","[""ArrowUp"",""ArrowLeft""]","value training","ocean","26","{""ArrowUp,ArrowLeft"":26,""ArrowUp,ArrowRight"":10,""ArrowDown,ArrowLeft"":5,""ArrowDown,ArrowRight"":17}","true","ArrowUp,ArrowLeft","false","revaluation","1","96","","",""
"html-keyboard-response","215","953758","0.0-4.0-2.0-1.48","spark_pilot_norest","9164","4","15","Female","","","","","","","null","<div style=""font-size:60px;"">+</div>","null","fixation","","","","","","","","","97","","",""
"revaluation","216","959783","0.0-4.0-2.0-0.49","spark_pilot_norest","9164","4","15","Female","","false","","","","","[581.0999999996275,366]","./assets/img/ocean/memory/27.jpg","[""ArrowUp"",""ArrowLeft""]","value training","ocean","26","{""ArrowUp,ArrowLeft"":26,""ArrowUp,ArrowRight"":10,""ArrowDown,ArrowLeft"":5,""ArrowDown,ArrowRight"":17}","true","ArrowUp,ArrowLeft","false","revaluation","1","98","","",""
"html-keyboard-response","217","960287","0.0-4.0-2.0-1.49","spark_pilot_norest","9164","4","15","Female","","","","","","","null","<div style=""font-size:60px;"">+</div>","null","fixation","","","","","","","","","99","","",""
"learning-instructions","218","975829","0.0-4.0-3.0-0.0","spark_pilot_norest","9164","4","15","Female","","","","","","","2360","<p> Now, you will travel with a friend who will choose whether you go up or down first. </p>
            <p> On these turns, you will just see the animal that they found. You will still get to choose which chest to search for treasure.</p>","","instructions","","","","","","","","","","","",""
"revaluation","219","979847","0.0-4.0-4.0-0.0","spark_pilot_norest","9164","4","15","Female","","false","","","","","[984.7999999998137]","./assets/img/ocean/animals/octopus.jpg","[""ArrowLeft""]","revaluation","ocean","2","{""ArrowUp,ArrowLeft"":2,""ArrowUp,ArrowRight"":11,""ArrowDown,ArrowLeft"":8,""ArrowDown,ArrowRight"":27}","false","ArrowUp,ArrowLeft","","revaluation","1","0","","",""
"html-keyboard-response","220","980358","0.0-4.0-4.0-1.0","spark_pilot_norest","9164","4","15","Female","","","","","","","null","<div style=""font-size:60px;"">+</div>","null","fixation","","","","","","","","","1","","",""
"revaluation","221","984375","0.0-4.0-4.0-0.1","spark_pilot_norest","9164","4","15","Female","","false","","","","","[1415.0999999996275]","./assets/img/ocean/animals/seahorse.jpg","[""ArrowRight""]","revaluation","ocean","27","{""ArrowUp,ArrowLeft"":2,""ArrowUp,ArrowRight"":11,""ArrowDown,ArrowLeft"":8,""ArrowDown,ArrowRight"":27}","true","ArrowDown,ArrowRight","","revaluation","1","2","","",""
"html-keyboard-response","222","984878","0.0-4.0-4.0-1.1","spark_pilot_norest","9164","4","15","Female","","","","","","","null","<div style=""font-size:60px;"">+</div>","null","fixation","","","","","","","","","3","","",""
"revaluation","223","988897","0.0-4.0-4.0-0.2","spark_pilot_norest","9164","4","15","Female","","false","","","","","[818.2000000001863]","./assets/img/ocean/animals/seahorse.jpg","[""ArrowRight""]","revaluation","ocean","27","{""ArrowUp,ArrowLeft"":2,""ArrowUp,ArrowRight"":11,""ArrowDown,ArrowLeft"":8,""ArrowDown,ArrowRight"":27}","true","ArrowDown,ArrowRight","","revaluation","1","4","","",""
"html-keyboard-response","224","989406","0.0-4.0-4.0-1.2","spark_pilot_norest","9164","4","15","Female","","","","","","","null","<div style=""font-size:60px;"">+</div>","null","fixation","","","","","","","","","5","","",""
"revaluation","225","993423","0.0-4.0-4.0-0.3","spark_pilot_norest","9164","4","15","Female","","false","","","","","[427.29999999981374]","./assets/img/ocean/animals/seahorse.jpg","[""ArrowRight""]","revaluation","ocean","27","{""ArrowUp,ArrowLeft"":2,""ArrowUp,ArrowRight"":11,""ArrowDown,ArrowLeft"":8,""ArrowDown,ArrowRight"":27}","true","ArrowDown,ArrowRight","","revaluation","1","6","","",""
"html-keyboard-response","226","993927","0.0-4.0-4.0-1.3","spark_pilot_norest","9164","4","15","Female","","","","","","","null","<div style=""font-size:60px;"">+</div>","null","fixation","","","","","","","","","7","","",""
"revaluation","227","997943","0.0-4.0-4.0-0.4","spark_pilot_norest","9164","4","15","Female","","false","","","","","[668.1000000005588]","./assets/img/ocean/animals/seahorse.jpg","[""ArrowRight""]","revaluation","ocean","27","{""ArrowUp,ArrowLeft"":2,""ArrowUp,ArrowRight"":11,""ArrowDown,ArrowLeft"":8,""ArrowDown,ArrowRight"":27}","true","ArrowDown,ArrowRight","","revaluation","1","8","","",""
"html-keyboard-response","228","998446","0.0-4.0-4.0-1.4","spark_pilot_norest","9164","4","15","Female","","","","","","","null","<div style=""font-size:60px;"">+</div>","null","fixation","","","","","","","","","9","","",""
"revaluation","229","1002463","0.0-4.0-4.0-0.5","spark_pilot_norest","9164","4","15","Female","","false","","","","","[760.2999999998137]","./assets/img/ocean/animals/octopus.jpg","[""ArrowRight""]","revaluation","ocean","11","{""ArrowUp,ArrowLeft"":2,""ArrowUp,ArrowRight"":11,""ArrowDown,ArrowLeft"":8,""ArrowDown,ArrowRight"":27}","true","ArrowUp,ArrowRight","","revaluation","1","10","","",""
"html-keyboard-response","230","1002966","0.0-4.0-4.0-1.5","spark_pilot_norest","9164","4","15","Female","","","","","","","null","<div style=""font-size:60px;"">+</div>","null","fixation","","","","","","","","","11","","",""
"revaluation","231","1006983","0.0-4.0-4.0-0.6","spark_pilot_norest","9164","4","15","Female","","false","","","","","[679.4000000003725]","./assets/img/ocean/animals/octopus.jpg","[""ArrowRight""]","revaluation","ocean","11","{""ArrowUp,ArrowLeft"":2,""ArrowUp,ArrowRight"":11,""ArrowDown,ArrowLeft"":8,""ArrowDown,ArrowRight"":27}","true","ArrowUp,ArrowRight","","revaluation","1","12","","",""
"html-keyboard-response","232","1007486","0.0-4.0-4.0-1.6","spark_pilot_norest","9164","4","15","Female","","","","","","","null","<div style=""font-size:60px;"">+</div>","null","fixation","","","","","","","","","13","","",""
"revaluation","233","1011503","0.0-4.0-4.0-0.7","spark_pilot_norest","9164","4","15","Female","","false","","","","","[589.5]","./assets/img/ocean/animals/octopus.jpg","[""ArrowRight""]","revaluation","ocean","11","{""ArrowUp,ArrowLeft"":2,""ArrowUp,ArrowRight"":11,""ArrowDown,ArrowLeft"":8,""ArrowDown,ArrowRight"":27}","true","ArrowUp,ArrowRight","","revaluation","1","14","","",""
"html-keyboard-response","234","1012006","0.0-4.0-4.0-1.7","spark_pilot_norest","9164","4","15","Female","","","","","","","null","<div style=""font-size:60px;"">+</div>","null","fixation","","","","","","","","","15","","",""
"revaluation","235","1016023","0.0-4.0-4.0-0.8","spark_pilot_norest","9164","4","15","Female","","false","","","","","[519.3999999994412]","./assets/img/ocean/animals/octopus.jpg","[""ArrowRight""]","revaluation","ocean","11","{""ArrowUp,ArrowLeft"":2,""ArrowUp,ArrowRight"":11,""ArrowDown,ArrowLeft"":8,""ArrowDown,ArrowRight"":27}","true","ArrowUp,ArrowRight","","revaluation","1","16","","",""
"html-keyboard-response","236","1016526","0.0-4.0-4.0-1.8","spark_pilot_norest","9164","4","15","Female","","","","","","","null","<div style=""font-size:60px;"">+</div>","null","fixation","","","","","","","","","17","","",""
"revaluation","237","1020543","0.0-4.0-4.0-0.9","spark_pilot_norest","9164","4","15","Female","","false","","","","","[346.20000000018626]","./assets/img/ocean/animals/seahorse.jpg","[""ArrowRight""]","revaluation","ocean","27","{""ArrowUp,ArrowLeft"":2,""ArrowUp,ArrowRight"":11,""ArrowDown,ArrowLeft"":8,""ArrowDown,ArrowRight"":27}","true","ArrowDown,ArrowRight","","revaluation","1","18","","",""
"html-keyboard-response","238","1021046","0.0-4.0-4.0-1.9","spark_pilot_norest","9164","4","15","Female","","","","","","","null","<div style=""font-size:60px;"">+</div>","null","fixation","","","","","","","","","19","","",""
"revaluation","239","1025063","0.0-4.0-4.0-0.10","spark_pilot_norest","9164","4","15","Female","","false","","","","","[374.79999999981374]","./assets/img/ocean/animals/seahorse.jpg","[""ArrowRight""]","revaluation","ocean","27","{""ArrowUp,ArrowLeft"":2,""ArrowUp,ArrowRight"":11,""ArrowDown,ArrowLeft"":8,""ArrowDown,ArrowRight"":27}","true","ArrowDown,ArrowRight","","revaluation","1","20","","",""
"html-keyboard-response","240","1025566","0.0-4.0-4.0-1.10","spark_pilot_norest","9164","4","15","Female","","","","","","","null","<div style=""font-size:60px;"">+</div>","null","fixation","","","","","","","","","21","","",""
"revaluation","241","1029583","0.0-4.0-4.0-0.11","spark_pilot_norest","9164","4","15","Female","","false","","","","","[382.20000000018626]","./assets/img/ocean/animals/seahorse.jpg","[""ArrowRight""]","revaluation","ocean","27","{""ArrowUp,ArrowLeft"":2,""ArrowUp,ArrowRight"":11,""ArrowDown,ArrowLeft"":8,""ArrowDown,ArrowRight"":27}","true","ArrowDown,ArrowRight","","revaluation","1","22","","",""
"html-keyboard-response","242","1030086","0.0-4.0-4.0-1.11","spark_pilot_norest","9164","4","15","Female","","","","","","","null","<div style=""font-size:60px;"">+</div>","null","fixation","","","","","","","","","23","","",""
"revaluation","243","1034102","0.0-4.0-4.0-0.12","spark_pilot_norest","9164","4","15","Female","","false","","","","","[1030.7999999998137]","./assets/img/ocean/animals/octopus.jpg","[""ArrowRight""]","revaluation","ocean","11","{""ArrowUp,ArrowLeft"":2,""ArrowUp,ArrowRight"":11,""ArrowDown,ArrowLeft"":8,""ArrowDown,ArrowRight"":27}","true","ArrowUp,ArrowRight","","revaluation","1","24","","",""
"html-keyboard-response","244","1034607","0.0-4.0-4.0-1.12","spark_pilot_norest","9164","4","15","Female","","","","","","","null","<div style=""font-size:60px;"">+</div>","null","fixation","","","","","","","","","25","","",""
"revaluation","245","1038622","0.0-4.0-4.0-0.13","spark_pilot_norest","9164","4","15","Female","","false","","","","","[650.3999999994412]","./assets/img/ocean/animals/octopus.jpg","[""ArrowRight""]","revaluation","ocean","11","{""ArrowUp,ArrowLeft"":2,""ArrowUp,ArrowRight"":11,""ArrowDown,ArrowLeft"":8,""ArrowDown,ArrowRight"":27}","true","ArrowUp,ArrowRight","","revaluation","1","26","","",""
"html-keyboard-response","246","1039126","0.0-4.0-4.0-1.13","spark_pilot_norest","9164","4","15","Female","","","","","","","null","<div style=""font-size:60px;"">+</div>","null","fixation","","","","","","","","","27","","",""
"revaluation","247","1043146","0.0-4.0-4.0-0.14","spark_pilot_norest","9164","4","15","Female","","false","","","","","[420.70000000018626]","./assets/img/ocean/animals/seahorse.jpg","[""ArrowRight""]","revaluation","ocean","27","{""ArrowUp,ArrowLeft"":2,""ArrowUp,ArrowRight"":11,""ArrowDown,ArrowLeft"":8,""ArrowDown,ArrowRight"":27}","true","ArrowDown,ArrowRight","","revaluation","1","28","","",""
"html-keyboard-response","248","1043654","0.0-4.0-4.0-1.14","spark_pilot_norest","9164","4","15","Female","","","","","","","null","<div style=""font-size:60px;"">+</div>","null","fixation","","","","","","","","","29","","",""
"revaluation","249","1047671","0.0-4.0-4.0-0.15","spark_pilot_norest","9164","4","15","Female","","false","","","","","[459.1000000005588]","./assets/img/ocean/animals/seahorse.jpg","[""ArrowRight""]","revaluation","ocean","27","{""ArrowUp,ArrowLeft"":2,""ArrowUp,ArrowRight"":11,""ArrowDown,ArrowLeft"":8,""ArrowDown,ArrowRight"":27}","true","ArrowDown,ArrowRight","","revaluation","1","30","","",""
"html-keyboard-response","250","1048174","0.0-4.0-4.0-1.15","spark_pilot_norest","9164","4","15","Female","","","","","","","null","<div style=""font-size:60px;"">+</div>","null","fixation","","","","","","","","","31","","",""
"revaluation","251","1052191","0.0-4.0-4.0-0.16","spark_pilot_norest","9164","4","15","Female","","false","","","","","[387.1000000005588]","./assets/img/ocean/animals/octopus.jpg","[""ArrowRight""]","revaluation","ocean","11","{""ArrowUp,ArrowLeft"":2,""ArrowUp,ArrowRight"":11,""ArrowDown,ArrowLeft"":8,""ArrowDown,ArrowRight"":27}","true","ArrowUp,ArrowRight","","revaluation","1","32","","",""
"html-keyboard-response","252","1052694","0.0-4.0-4.0-1.16","spark_pilot_norest","9164","4","15","Female","","","","","","","null","<div style=""font-size:60px;"">+</div>","null","fixation","","","","","","","","","33","","",""
"revaluation","253","1056711","0.0-4.0-4.0-0.17","spark_pilot_norest","9164","4","15","Female","","false","","","","","[585.5999999996275]","./assets/img/ocean/animals/octopus.jpg","[""ArrowRight""]","revaluation","ocean","11","{""ArrowUp,ArrowLeft"":2,""ArrowUp,ArrowRight"":11,""ArrowDown,ArrowLeft"":8,""ArrowDown,ArrowRight"":27}","true","ArrowUp,ArrowRight","","revaluation","1","34","","",""
"html-keyboard-response","254","1057214","0.0-4.0-4.0-1.17","spark_pilot_norest","9164","4","15","Female","","","","","","","null","<div style=""font-size:60px;"">+</div>","null","fixation","","","","","","","","","35","","",""
"learning-instructions","255","1065622","0.0-4.0-5.0-0.0","spark_pilot_norest","9164","4","15","Female","","","","","","","null","<p> You have almost finished this part of the game! </p>
            <p> We are going to ask you to make a few more choices. </p>","","instructions","","","","","","","","","","","",""
"learning-instructions","256","1081598","0.0-4.0-5.0-0.1","spark_pilot_norest","9164","4","15","Female","","","","","","","null","<p> First, you need to decide whether to go up or down. When you see each picture, use the arrow keys to make your choice. </p>
            <p><b>You will not see which animal you found, but try to get to the one that will give you the most treasure.</b></p>","","instructions","","","","","","","","","","","",""
"html-keyboard-response","257","1082606","0.0-4.0-6.0-0.0","spark_pilot_norest","9164","4","15","Female","","","","","","","null","<div style=""font-size:100px;color:red;"">Starting in...</div>","null","","","","","","","","","","","","",""
"html-keyboard-response","258","1083614","0.0-4.0-6.0-1.0","spark_pilot_norest","9164","4","15","Female","","","","","","","null","<div style=""font-size:200px;color:red;"">3</div>","null","","","","","","","","","","","","",""
"html-keyboard-response","259","1084622","0.0-4.0-6.0-2.0","spark_pilot_norest","9164","4","15","Female","","","","","","","null","<div style=""font-size:200px;color:red;"">2</div>","null","","","","","","","","","","","","",""
"html-keyboard-response","260","1085630","0.0-4.0-6.0-3.0","spark_pilot_norest","9164","4","15","Female","","","","","","","null","<div style=""font-size:200px;color:red;"">1</div>","null","","","","","","","","","","","","",""
"revaluation","261","1086252","0.0-4.0-7.0-0.0","spark_pilot_norest","9164","4","15","Female","","false","","","","","[618]","./assets/img/ocean/test/3.jpg","[""ArrowUp""]","first stage test","ocean","0","{""ArrowUp,ArrowLeft"":2,""ArrowUp,ArrowRight"":11,""ArrowDown,ArrowLeft"":8,""ArrowDown,ArrowRight"":27}","false","ArrowUp","false","revaluation","1","","","",""
"html-keyboard-response","262","1086758","0.0-4.0-7.0-1.0","spark_pilot_norest","9164","4","15","Female","","","","","","","null","<div style=""font-size:60px;"">+</div>","null","fixation","","","","","","","","","","","",""
"revaluation","263","1087382","0.0-4.0-7.0-0.1","spark_pilot_norest","9164","4","15","Female","","false","","","","","[620.7999999998137]","./assets/img/ocean/test/2.jpg","[""ArrowUp""]","first stage test","ocean","0","{""ArrowUp,ArrowLeft"":2,""ArrowUp,ArrowRight"":11,""ArrowDown,ArrowLeft"":8,""ArrowDown,ArrowRight"":27}","false","ArrowUp","false","revaluation","1","","","",""
"html-keyboard-response","264","1087886","0.0-4.0-7.0-1.1","spark_pilot_norest","9164","4","15","Female","","","","","","","null","<div style=""font-size:60px;"">+</div>","null","fixation","","","","","","","","","","","",""
"revaluation","265","1088605","0.0-4.0-7.0-0.2","spark_pilot_norest","9164","4","15","Female","","false","","","","","[715.1000000005588]","./assets/img/ocean/test/1.jpg","[""ArrowUp""]","first stage test","ocean","0","{""ArrowUp,ArrowLeft"":2,""ArrowUp,ArrowRight"":11,""ArrowDown,ArrowLeft"":8,""ArrowDown,ArrowRight"":27}","false","ArrowUp","false","revaluation","1","","","",""
"html-keyboard-response","266","1089110","0.0-4.0-7.0-1.2","spark_pilot_norest","9164","4","15","Female","","","","","","","null","<div style=""font-size:60px;"">+</div>","null","fixation","","","","","","","","","","","",""
"revaluation","267","1089802","0.0-4.0-7.0-0.3","spark_pilot_norest","9164","4","15","Female","","false","","","","","[688.1999999992549]","./assets/img/ocean/test/0.jpg","[""ArrowUp""]","first stage test","ocean","0","{""ArrowUp,ArrowLeft"":2,""ArrowUp,ArrowRight"":11,""ArrowDown,ArrowLeft"":8,""ArrowDown,ArrowRight"":27}","false","ArrowUp","false","revaluation","1","","","",""
"html-keyboard-response","268","1090310","0.0-4.0-7.0-1.3","spark_pilot_norest","9164","4","15","Female","","","","","","","null","<div style=""font-size:60px;"">+</div>","null","fixation","","","","","","","","","","","",""
"learning-instructions","269","1103654","0.0-4.0-8.0-0.0","spark_pilot_norest","9164","4","15","Female","","","","","","","null","<p> Now you will see the animals again and can search their chests for treasure. </p>
            <p> This time, you will not see how much treasure you earned, but you will earn more bonus money for making better choices. </p>","","instructions","","","","","","","","","","","",""
"html-keyboard-response","270","1104662","0.0-4.0-9.0-0.0","spark_pilot_norest","9164","4","15","Female","","","","","","","null","<div style=""font-size:100px;color:red;"">Starting in...</div>","null","","","","","","","","","","","","",""
"html-keyboard-response","271","1105670","0.0-4.0-9.0-1.0","spark_pilot_norest","9164","4","15","Female","","","","","","","null","<div style=""font-size:200px;color:red;"">3</div>","null","","","","","","","","","","","","",""
"html-keyboard-response","272","1106678","0.0-4.0-9.0-2.0","spark_pilot_norest","9164","4","15","Female","","","","","","","null","<div style=""font-size:200px;color:red;"">2</div>","null","","","","","","","","","","","","",""
"html-keyboard-response","273","1107686","0.0-4.0-9.0-3.0","spark_pilot_norest","9164","4","15","Female","","","","","","","null","<div style=""font-size:200px;color:red;"">1</div>","null","","","","","","","","","","","","",""
"revaluation","274","1108488","0.0-4.0-10.0-0.0","spark_pilot_norest","9164","4","15","Female","","false","","","","","[799.3999999994412]","./assets/img/ocean/animals/octopus.jpg","[""ArrowRight""]","second stage test","ocean","0","{""ArrowUp,ArrowLeft"":2,""ArrowUp,ArrowRight"":11,""ArrowDown,ArrowLeft"":8,""ArrowDown,ArrowRight"":27}","true","ArrowUp,ArrowRight","","revaluation","1","","","",""
"html-keyboard-response","275","1108990","0.0-4.0-10.0-1.0","spark_pilot_norest","9164","4","15","Female","","","","","","","null","<div style=""font-size:60px;"">+</div>","null","fixation","","","","","","","","","","","",""
"revaluation","276","1110124","0.0-4.0-10.0-0.1","spark_pilot_norest","9164","4","15","Female","","false","","","","","[1129]","./assets/img/ocean/animals/octopus.jpg","[""ArrowRight""]","second stage test","ocean","0","{""ArrowUp,ArrowLeft"":2,""ArrowUp,ArrowRight"":11,""ArrowDown,ArrowLeft"":8,""ArrowDown,ArrowRight"":27}","true","ArrowUp,ArrowRight","","revaluation","1","","","",""
"html-keyboard-response","277","1110630","0.0-4.0-10.0-1.1","spark_pilot_norest","9164","4","15","Female","","","","","","","null","<div style=""font-size:60px;"">+</div>","null","fixation","","","","","","","","","","","",""
"revaluation","278","1111473","0.0-4.0-10.0-0.2","spark_pilot_norest","9164","4","15","Female","","false","","","","","[838.5999999996275]","./assets/img/ocean/animals/octopus.jpg","[""ArrowRight""]","second stage test","ocean","0","{""ArrowUp,ArrowLeft"":2,""ArrowUp,ArrowRight"":11,""ArrowDown,ArrowLeft"":8,""ArrowDown,ArrowRight"":27}","true","ArrowUp,ArrowRight","","revaluation","1","","","",""
"html-keyboard-response","279","1111974","0.0-4.0-10.0-1.2","spark_pilot_norest","9164","4","15","Female","","","","","","","null","<div style=""font-size:60px;"">+</div>","null","fixation","","","","","","","","","","","",""
"revaluation","280","1112384","0.0-4.0-10.0-0.3","spark_pilot_norest","9164","4","15","Female","","false","","","","","[405.90000000037253]","./assets/img/ocean/animals/octopus.jpg","[""ArrowRight""]","second stage test","ocean","0","{""ArrowUp,ArrowLeft"":2,""ArrowUp,ArrowRight"":11,""ArrowDown,ArrowLeft"":8,""ArrowDown,ArrowRight"":27}","true","ArrowUp,ArrowRight","","revaluation","1","","","",""
"html-keyboard-response","281","1112886","0.0-4.0-10.0-1.3","spark_pilot_norest","9164","4","15","Female","","","","","","","null","<div style=""font-size:60px;"">+</div>","null","fixation","","","","","","","","","","","",""
"revaluation","282","1113817","0.0-4.0-10.0-0.4","spark_pilot_norest","9164","4","15","Female","","false","","","","","[927.2999999998137]","./assets/img/ocean/animals/seahorse.jpg","[""ArrowRight""]","second stage test","ocean","0","{""ArrowUp,ArrowLeft"":2,""ArrowUp,ArrowRight"":11,""ArrowDown,ArrowLeft"":8,""ArrowDown,ArrowRight"":27}","true","ArrowDown,ArrowRight","","revaluation","1","","","",""
"html-keyboard-response","283","1114326","0.0-4.0-10.0-1.4","spark_pilot_norest","9164","4","15","Female","","","","","","","null","<div style=""font-size:60px;"">+</div>","null","fixation","","","","","","","","","","","",""
"revaluation","284","1114858","0.0-4.0-10.0-0.5","spark_pilot_norest","9164","4","15","Female","","false","","","","","[527.7999999998137]","./assets/img/ocean/animals/seahorse.jpg","[""ArrowRight""]","second stage test","ocean","0","{""ArrowUp,ArrowLeft"":2,""ArrowUp,ArrowRight"":11,""ArrowDown,ArrowLeft"":8,""ArrowDown,ArrowRight"":27}","true","ArrowDown,ArrowRight","","revaluation","1","","","",""
"html-keyboard-response","285","1115367","0.0-4.0-10.0-1.5","spark_pilot_norest","9164","4","15","Female","","","","","","","null","<div style=""font-size:60px;"">+</div>","null","fixation","","","","","","","","","","","",""
"revaluation","286","1115783","0.0-4.0-10.0-0.6","spark_pilot_norest","9164","4","15","Female","","false","","","","","[413.09999999962747]","./assets/img/ocean/animals/seahorse.jpg","[""ArrowRight""]","second stage test","ocean","0","{""ArrowUp,ArrowLeft"":2,""ArrowUp,ArrowRight"":11,""ArrowDown,ArrowLeft"":8,""ArrowDown,ArrowRight"":27}","true","ArrowDown,ArrowRight","","revaluation","1","","","",""
"html-keyboard-response","287","1116286","0.0-4.0-10.0-1.6","spark_pilot_norest","9164","4","15","Female","","","","","","","null","<div style=""font-size:60px;"">+</div>","null","fixation","","","","","","","","","","","",""
"revaluation","288","1116708","0.0-4.0-10.0-0.7","spark_pilot_norest","9164","4","15","Female","","false","","","","","[417.5]","./assets/img/ocean/animals/seahorse.jpg","[""ArrowRight""]","second stage test","ocean","0","{""ArrowUp,ArrowLeft"":2,""ArrowUp,ArrowRight"":11,""ArrowDown,ArrowLeft"":8,""ArrowDown,ArrowRight"":27}","true","ArrowDown,ArrowRight","","revaluation","1","","","",""
"html-keyboard-response","289","1117214","0.0-4.0-10.0-1.7","spark_pilot_norest","9164","4","15","Female","","","","","","","null","<div style=""font-size:60px;"">+</div>","null","fixation","","","","","","","","","","","",""
"learning-instructions","290","1122177","0.0-4.0-0.1-0.2","spark_pilot_norest","9164","4","15","Female","","","","","","","2197.5999999996275","<p> This time you are searching for treasure in the <b>canyon</b>.</p>","","instructions","","","","","","","","","","","",""
"learning-instructions","291","1140840","0.0-4.0-0.1-0.3","spark_pilot_norest","9164","4","15","Female","","","","","","","1403.8999999994412","<p><b>New</b> animals with <b>new</b> treasure chests live here. You need to explore to discover where the animal with the best treasure chest is.</p>
                    <p> Like before, once you figure out which animal has the chest with the most treasure, you should try to get to that animal and select that chest! </p>","","instructions","","","","","","","","","","","",""
"learning-instructions","292","1157006","0.0-4.0-1.1-0.1","spark_pilot_norest","9164","4","15","Female","","","","","","","1441.9000000003725","<p> Remember, when you see a picture of the place, use the up and down keys to <b>find an animal</b>.</p>
            <p> When you encounter an animal, you should use the left and right keys to <b>select a treasure chest</b>.</p>
            <p> Don't forget to look out for the robber! </p>","","instructions","","","","","","","","","","","",""
"revaluation","293","1163030","0.0-4.0-2.1-0.50","spark_pilot_norest","9164","4","15","Female","","false","","","","","[853.5999999996275,649.1000000005588]","./assets/img/canyon/memory/16.jpg","[""ArrowUp"",""ArrowRight""]","value training","canyon","10","{""ArrowUp,ArrowLeft"":23,""ArrowUp,ArrowRight"":10,""ArrowDown,ArrowLeft"":8,""ArrowDown,ArrowRight"":30}","false","ArrowUp,ArrowRight","false","original","2","0","","",""
"html-keyboard-response","294","1163534","0.0-4.0-2.1-1.50","spark_pilot_norest","9164","4","15","Female","","","","","","","null","<div style=""font-size:60px;"">+</div>","null","fixation","","","","","","","","","1","","",""
"revaluation","295","1167550","0.0-4.0-2.1-0.51","spark_pilot_norest","9164","4","15","Female","","false","","","","","[478]","./assets/img/canyon/catch/2.jpg","[""ArrowUp""]","value training","canyon","-10","{""ArrowUp,ArrowLeft"":23,""ArrowUp,ArrowRight"":10,""ArrowDown,ArrowLeft"":8,""ArrowDown,ArrowRight"":30}","false","ArrowUp","true","original","2","2","","",""
"html-keyboard-response","296","1168054","0.0-4.0-2.1-1.51","spark_pilot_norest","9164","4","15","Female","","","","","","","null","<div style=""font-size:60px;"">+</div>","null","fixation","","","","","","","","","3","","",""
"revaluation","297","1174079","0.0-4.0-2.1-0.52","spark_pilot_norest","9164","4","15","Female","","false","","","","","[414.59999999962747,899.7000000001863]","./assets/img/canyon/memory/29.jpg","[""ArrowUp"",""ArrowLeft""]","value training","canyon","23","{""ArrowUp,ArrowLeft"":23,""ArrowUp,ArrowRight"":10,""ArrowDown,ArrowLeft"":8,""ArrowDown,ArrowRight"":30}","false","ArrowUp,ArrowLeft","false","original","2","4","","",""
"html-keyboard-response","298","1174582","0.0-4.0-2.1-1.52","spark_pilot_norest","9164","4","15","Female","","","","","","","null","<div style=""font-size:60px;"">+</div>","null","fixation","","","","","","","","","5","","",""
"revaluation","299","1180607","0.0-4.0-2.1-0.53","spark_pilot_norest","9164","4","15","Female","","false","","","","","[337.79999999981374,615.0999999996275]","./assets/img/canyon/memory/33.jpg","[""ArrowDown"",""ArrowLeft""]","value training","canyon","8","{""ArrowUp,ArrowLeft"":23,""ArrowUp,ArrowRight"":10,""ArrowDown,ArrowLeft"":8,""ArrowDown,ArrowRight"":30}","false","ArrowDown,ArrowLeft","false","original","2","6","","",""
"html-keyboard-response","300","1181110","0.0-4.0-2.1-1.53","spark_pilot_norest","9164","4","15","Female","","","","","","","null","<div style=""font-size:60px;"">+</div>","null","fixation","","","","","","","","","7","","",""
"revaluation","301","1185127","0.0-4.0-2.1-0.54","spark_pilot_norest","9164","4","15","Female","","false","","","","","[469.5]","./assets/img/canyon/catch/5.jpg","[""ArrowDown""]","value training","canyon","-10","{""ArrowUp,ArrowLeft"":23,""ArrowUp,ArrowRight"":10,""ArrowDown,ArrowLeft"":8,""ArrowDown,ArrowRight"":30}","false","ArrowDown","true","original","2","8","","",""
"html-keyboard-response","302","1185630","0.0-4.0-2.1-1.54","spark_pilot_norest","9164","4","15","Female","","","","","","","null","<div style=""font-size:60px;"">+</div>","null","fixation","","","","","","","","","9","","",""
"revaluation","303","1191655","0.0-4.0-2.1-0.55","spark_pilot_norest","9164","4","15","Female","","false","","","","","[687.9000000003725,677.7999999998137]","./assets/img/canyon/memory/31.jpg","[""ArrowDown"",""ArrowRight""]","value training","canyon","30","{""ArrowUp,ArrowLeft"":23,""ArrowUp,ArrowRight"":10,""ArrowDown,ArrowLeft"":8,""ArrowDown,ArrowRight"":30}","true","ArrowDown,ArrowRight","false","original","2","10","","",""
"html-keyboard-response","304","1192158","0.0-4.0-2.1-1.55","spark_pilot_norest","9164","4","15","Female","","","","","","","null","<div style=""font-size:60px;"">+</div>","null","fixation","","","","","","","","","11","","",""
"revaluation","305","1198183","0.0-4.0-2.1-0.56","spark_pilot_norest","9164","4","15","Female","","false","","","","","[506.3999999994412,437.59999999962747]","./assets/img/canyon/memory/8.jpg","[""ArrowDown"",""ArrowRight""]","value training","canyon","30","{""ArrowUp,ArrowLeft"":23,""ArrowUp,ArrowRight"":10,""ArrowDown,ArrowLeft"":8,""ArrowDown,ArrowRight"":30}","true","ArrowDown,ArrowRight","false","original","2","12","","",""
"html-keyboard-response","306","1198686","0.0-4.0-2.1-1.56","spark_pilot_norest","9164","4","15","Female","","","","","","","null","<div style=""font-size:60px;"">+</div>","null","fixation","","","","","","","","","13","","",""
"revaluation","307","1204710","0.0-4.0-2.1-0.57","spark_pilot_norest","9164","4","15","Female","","false","","","","","[777.7999999998137,332.09999999962747]","./assets/img/canyon/memory/32.jpg","[""ArrowDown"",""ArrowRight""]","value training","canyon","30","{""ArrowUp,ArrowLeft"":23,""ArrowUp,ArrowRight"":10,""ArrowDown,ArrowLeft"":8,""ArrowDown,ArrowRight"":30}","true","ArrowDown,ArrowRight","false","original","2","14","","",""
"html-keyboard-response","308","1205214","0.0-4.0-2.1-1.57","spark_pilot_norest","9164","4","15","Female","","","","","","","null","<div style=""font-size:60px;"">+</div>","null","fixation","","","","","","","","","15","","",""
"revaluation","309","1211239","0.0-4.0-2.1-0.58","spark_pilot_norest","9164","4","15","Female","","false","","","","","[735,383.6000000005588]","./assets/img/canyon/memory/11.jpg","[""ArrowDown"",""ArrowRight""]","value training","canyon","30","{""ArrowUp,ArrowLeft"":23,""ArrowUp,ArrowRight"":10,""ArrowDown,ArrowLeft"":8,""ArrowDown,ArrowRight"":30}","true","ArrowDown,ArrowRight","false","original","2","16","","",""
"html-keyboard-response","310","1211742","0.0-4.0-2.1-1.58","spark_pilot_norest","9164","4","15","Female","","","","","","","null","<div style=""font-size:60px;"">+</div>","null","fixation","","","","","","","","","17","","",""
"revaluation","311","1217766","0.0-4.0-2.1-0.59","spark_pilot_norest","9164","4","15","Female","","false","","","","","[674.7999999998137,313.3999999994412]","./assets/img/canyon/memory/13.jpg","[""ArrowDown"",""ArrowRight""]","value training","canyon","30","{""ArrowUp,ArrowLeft"":23,""ArrowUp,ArrowRight"":10,""ArrowDown,ArrowLeft"":8,""ArrowDown,ArrowRight"":30}","true","ArrowDown,ArrowRight","false","original","2","18","","",""
