"trial_type","trial_index","time_elapsed","internal_node_id","task_version","subject_id","assigned_condition","age","gender","success","timeout","failed_images","failed_audio","failed_video","browser_interaction","rt","stimulus","response","task_part","environment","score","rewardMap","correct","fullState","isCatch","condition","order","trial_num","key_press","ground_truth","bonus"
"pavlovia","0","1318","0.0-0.0","spark_pilot_norest","10520","5","7","Male","","","","","","","","","","","","","","","","","","","","","",""
"preload","1","18456","0.0-1.0","spark_pilot_norest","10520","5","7","Male","true","false","[]","[]","[]","[{""event"":""fullscreenenter"",""trial"":2,""time"":20355},{""event"":""blur"",""trial"":467,""time"":1629846},{""event"":""focus"",""trial"":467,""time"":1661458}]","","","","","","","","","","","","","","","",""
"fullscreen","2","21356","0.0-2.0","spark_pilot_norest","10520","5","7","Male","true","","","","","","","","","","","","","","","","","","","","",""
"audio-button-response","3","23627","0.0-3.0-0.0-0.0","spark_pilot_norest","10520","5","7","Male","","","","","","","2208","./assets/audio/audiotest/turtle.mp3","2","audio_test","","","","","","","","","","","",""
"learning-instructions","4","34351","0.0-3.0-1.0-0.0","spark_pilot_norest","10520","5","7","Male","","","","","","","3738.899999976158","<p> Welcome! Please remember to stay in fullscreen mode and don't click away from the experiment. </p>","","instructions","","","","","","","","","","","",""
"learning-instructions","5","45266","0.0-3.0-1.0-0.1","spark_pilot_norest","10520","5","7","Male","","","","","","","2505.2999999523163","<p> Today you will be playing a game to earn treasure. </p>
            <p> At the end of the experiment, you will earn a bonus based on how much treasure you find. </p>
            <img src='./assets/img/instructions/treasure.jpg' class='instructions-image'>","","instructions","","","","","","","","","","","",""
"learning-instructions","6","56111","0.0-3.0-1.0-0.2","spark_pilot_norest","10520","5","7","Male","","","","","","","2583.2999999523163","<p> Animals have hidden treasure in treasure chests. </p>
            <p> You need to first find an animal and then choose which of their treasure chests to search. </p>
            <img src='./assets/img/space/animals/cat.jpg' class='instructions-image'>","","instructions","","","","","","","","","","","",""
"learning-instructions","7","71628","0.0-3.0-1.0-0.3","spark_pilot_norest","10520","5","7","Male","","","","","","","2362.1999999284744","<p> In each round, you will search for treasure in a different place. In the real game, there will be two rounds. </p>
            <p> You will begin with a separate, practice round where you will search for treasure in outer space. </p>
            <img src='./assets/img/space/0.jpg' class='instructions-image'>","","instructions","","","","","","","","","","","",""
"learning-instructions","8","84663","0.0-3.0-1.0-0.4","spark_pilot_norest","10520","5","7","Male","","","","","","","1621.8999999761581","<p> On every turn, you will see a picture of the place that you are in, but the specific image may be different each time. </p>
            <p> For example, both of these images mean you are in outer space. </p>
            <img src='./assets/img/instructions/outerspace.jpg' class='instructions-image'>","","instructions","","","","","","","","","","","",""
"learning-instructions","9","94560","0.0-3.0-1.0-0.5","spark_pilot_norest","10520","5","7","Male","","","","","","","2063.5","<p> You need to decide which direction to travel in. </p>
            <p> You can choose between going <b>up or down</b> by using the arrow keys. </p>
            <img src='./assets/img/instructions/updown.jpg' class='instructions-image'>","","instructions","","","","","","","","","","","",""
"learning-instructions","10","105862","0.0-3.0-1.0-0.6","spark_pilot_norest","10520","5","7","Male","","","","","","","2491.6999999284744","<p> You will have <b>2 seconds</b> to make your choice. </p>
            <p> If you do not make a choice within 2 seconds, you will not find an animal or earn treasure. </p>
            <img src='./assets/img/instructions/2seconds.jpg' class='instructions-image'>","","instructions","","","","","","","","","","","",""
"learning-instructions","11","118422","0.0-3.0-1.0-0.7","spark_pilot_norest","10520","5","7","Male","","","","","","","5521.899999976158","<p> Let’s try practicing that now! </p>
            <p> When you see a picture of the place you are in, press the <b>up</b> key to travel up. </p>
            <img src='./assets/img/instructions/pressUp.jpg' class='instructions-image'>","","instructions","","","","","","","","","","","",""
"revaluation","12","122448","0.0-3.0-2.0-0.0","spark_pilot_norest","10520","5","7","Male","","false","","","","","[1293.6999999284744]","./assets/img/space/0.jpg","[""ArrowUp""]","first stage practice","space","0","null","null","ArrowUp","false","","","","","",""
"html-keyboard-response","13","122951","0.0-3.0-2.0-1.0","spark_pilot_norest","10520","5","7","Male","","","","","","","null","<div style=""font-size:60px;"">+</div>","null","fixation","","","","","","","","","","","",""
"revaluation","14","126967","0.0-3.0-2.0-0.1","spark_pilot_norest","10520","5","7","Male","","false","","","","","[1154.1000000238419]","./assets/img/space/1.jpg","[""ArrowUp""]","first stage practice","space","0","null","null","ArrowUp","false","","","","","",""
"html-keyboard-response","15","127470","0.0-3.0-2.0-1.1","spark_pilot_norest","10520","5","7","Male","","","","","","","null","<div style=""font-size:60px;"">+</div>","null","fixation","","","","","","","","","","","",""
"revaluation","16","131487","0.0-3.0-2.0-0.2","spark_pilot_norest","10520","5","7","Male","","false","","","","","[511.1999999284744]","./assets/img/space/2.jpg","[""ArrowUp""]","first stage practice","space","0","null","null","ArrowUp","false","","","","","",""
"html-keyboard-response","17","131990","0.0-3.0-2.0-1.2","spark_pilot_norest","10520","5","7","Male","","","","","","","null","<div style=""font-size:60px;"">+</div>","null","fixation","","","","","","","","","","","",""
"learning-instructions","18","138634","0.0-3.0-3.0-0.0","spark_pilot_norest","10520","5","7","Male","","","","","","","1943","<p> Great job! Now try pressing the <b>down</b> key to travel down. </p>
            <img src='./assets/img/instructions/pressDown.jpg' class='instructions-image'>","","instructions","","","","","","","","","","","",""
"revaluation","19","142646","0.0-3.0-4.0-0.0","spark_pilot_norest","10520","5","7","Male","","false","","","","","[575.1999999284744]","./assets/img/space/3.jpg","[""ArrowDown""]","first stage practice","space","0","null","null","ArrowDown","false","","","","","",""
"html-keyboard-response","20","143150","0.0-3.0-4.0-1.0","spark_pilot_norest","10520","5","7","Male","","","","","","","null","<div style=""font-size:60px;"">+</div>","null","fixation","","","","","","","","","","","",""
"revaluation","21","147166","0.0-3.0-4.0-0.1","spark_pilot_norest","10520","5","7","Male","","false","","","","","[710.1999999284744]","./assets/img/space/4.jpg","[""ArrowDown""]","first stage practice","space","0","null","null","ArrowDown","false","","","","","",""
"html-keyboard-response","22","147669","0.0-3.0-4.0-1.1","spark_pilot_norest","10520","5","7","Male","","","","","","","null","<div style=""font-size:60px;"">+</div>","null","fixation","","","","","","","","","","","",""
"revaluation","23","151685","0.0-3.0-4.0-0.2","spark_pilot_norest","10520","5","7","Male","","false","","","","","[800.8000000715256]","./assets/img/space/5.jpg","[""ArrowDown""]","first stage practice","space","0","null","null","ArrowDown","false","","","","","",""
"html-keyboard-response","24","152189","0.0-3.0-4.0-1.2","spark_pilot_norest","10520","5","7","Male","","","","","","","null","<div style=""font-size:60px;"">+</div>","null","fixation","","","","","","","","","","","",""
"learning-instructions","25","166532","0.0-3.0-5.0-0.0","spark_pilot_norest","10520","5","7","Male","","","","","","","4483.700000047684","<p> The animals don’t move, so the animal in the upper part of a place will stay in the upper part of a place, and the animal in the lower part of a place will stay in the lower part of a place. </p>","","instructions","","","","","","","","","","","",""
"learning-instructions","26","176810","0.0-3.0-5.0-0.1","spark_pilot_norest","10520","5","7","Male","","","","","","","1145.8000000715256","<p> Each animal has two treasure chests for you to choose from. </p>
            <p> The amount of treasure in each chest can range from <b> 0 to 40 pieces.</b></p>","","instructions","","","","","","","","","","","",""
"learning-instructions","27","190922","0.0-3.0-5.0-0.2","spark_pilot_norest","10520","5","7","Male","","","","","","","2928","<p> You should decide which chest to search for treasure by using the <b>left</b> and <b>right</b> arrow keys. </p>
            <p><b> Pay attention to which animal is on the screen, as the animals have different treasure chests. </b></p>
            <img src='./assets/img/instructions/leftright.jpg' class='instructions-image'>","","instructions","","","","","","","","","","","",""
"learning-instructions","28","199140","0.0-3.0-5.0-0.3","spark_pilot_norest","10520","5","7","Male","","","","","","","1851.1999999284744","<p> Let’s try practicing that now. </p>
            <p> When you see an animal, choose which chest to search for treasure. </p>
            <img src='./assets/img/instructions/chooseChest.jpg' class='instructions-image'>","","instructions","","","","","","","","","","","",""
"revaluation","29","203155","0.0-3.0-6.0-0.0","spark_pilot_norest","10520","5","7","Male","","false","","","","","[766.5]","./assets/img/space/animals/cat.jpg","[""ArrowLeft""]","second stage practice","space","3","{""ArrowUp,ArrowLeft"":3,""ArrowUp,ArrowRight"":36,""ArrowDown,ArrowLeft"":15,""ArrowDown,ArrowRight"":23}","false","ArrowUp,ArrowLeft","","","","","","",""
"html-keyboard-response","30","203658","0.0-3.0-6.0-1.0","spark_pilot_norest","10520","5","7","Male","","","","","","","null","<div style=""font-size:60px;"">+</div>","null","fixation","","","","","","","","","","","",""
"revaluation","31","207674","0.0-3.0-6.0-0.1","spark_pilot_norest","10520","5","7","Male","","false","","","","","[780.2000000476837]","./assets/img/space/animals/rabbit.jpg","[""ArrowLeft""]","second stage practice","space","15","{""ArrowUp,ArrowLeft"":3,""ArrowUp,ArrowRight"":36,""ArrowDown,ArrowLeft"":15,""ArrowDown,ArrowRight"":23}","false","ArrowDown,ArrowLeft","","","","","","",""
"html-keyboard-response","32","208178","0.0-3.0-6.0-1.1","spark_pilot_norest","10520","5","7","Male","","","","","","","null","<div style=""font-size:60px;"">+</div>","null","fixation","","","","","","","","","","","",""
"revaluation","33","212193","0.0-3.0-6.0-0.2","spark_pilot_norest","10520","5","7","Male","","false","","","","","[485.8000000715256]","./assets/img/space/animals/rabbit.jpg","[""ArrowRight""]","second stage practice","space","23","{""ArrowUp,ArrowLeft"":3,""ArrowUp,ArrowRight"":36,""ArrowDown,ArrowLeft"":15,""ArrowDown,ArrowRight"":23}","true","ArrowDown,ArrowRight","","","","","","",""
"html-keyboard-response","34","212698","0.0-3.0-6.0-1.2","spark_pilot_norest","10520","5","7","Male","","","","","","","null","<div style=""font-size:60px;"">+</div>","null","fixation","","","","","","","","","","","",""
"revaluation","35","216714","0.0-3.0-6.0-0.3","spark_pilot_norest","10520","5","7","Male","","false","","","","","[530.6999999284744]","./assets/img/space/animals/cat.jpg","[""ArrowRight""]","second stage practice","space","36","{""ArrowUp,ArrowLeft"":3,""ArrowUp,ArrowRight"":36,""ArrowDown,ArrowLeft"":15,""ArrowDown,ArrowRight"":23}","true","ArrowUp,ArrowRight","","","","","","",""
"html-keyboard-response","36","217218","0.0-3.0-6.0-1.3","spark_pilot_norest","10520","5","7","Male","","","","","","","null","<div style=""font-size:60px;"">+</div>","null","fixation","","","","","","","","","","","",""
"learning-instructions","37","234936","0.0-3.0-7.0-0.0","spark_pilot_norest","10520","5","7","Male","","","","","","","903.1999999284744","<p> Great job. Now let’s try putting it together. </p>
            <p> On each turn, you will first see a picture to remind you of the place you are in, and you need to choose whether to go up or down. </p>
            <p> Then you will see an animal and choose which of its chests to search for treasure. </p>","","instructions","","","","","","","","","","","",""
"learning-instructions","38","246052","0.0-3.0-7.0-0.1","spark_pilot_norest","10520","5","7","Male","","","","","","","2856.5","<p> When you choose whether to go up or down, try to go to the animal with the chest with the most treasure. </p>
            <p> Try practicing that now! </p>","","instructions","","","","","","","","","","","",""
"revaluation","39","252072","0.0-3.0-8.0-0.0","spark_pilot_norest","10520","5","7","Male","","false","","","","","[485.10000002384186,682.2999999523163]","./assets/img/space/6.jpg","[""ArrowDown"",""ArrowLeft""]","full practice","space","15","{""ArrowUp,ArrowLeft"":3,""ArrowUp,ArrowRight"":36,""ArrowDown,ArrowLeft"":15,""ArrowDown,ArrowRight"":23}","false","ArrowDown,ArrowLeft","false","","","","","",""
"html-keyboard-response","40","252577","0.0-3.0-8.0-1.0","spark_pilot_norest","10520","5","7","Male","","","","","","","null","<div style=""font-size:60px;"">+</div>","null","fixation","","","","","","","","","","","",""
"revaluation","41","258600","0.0-3.0-8.0-0.1","spark_pilot_norest","10520","5","7","Male","","false","","","","","[679.8000000715256,312.89999997615814]","./assets/img/space/7.jpg","[""ArrowDown"",""ArrowRight""]","full practice","space","23","{""ArrowUp,ArrowLeft"":3,""ArrowUp,ArrowRight"":36,""ArrowDown,ArrowLeft"":15,""ArrowDown,ArrowRight"":23}","false","ArrowDown,ArrowRight","false","","","","","",""
"html-keyboard-response","42","259104","0.0-3.0-8.0-1.1","spark_pilot_norest","10520","5","7","Male","","","","","","","null","<div style=""font-size:60px;"">+</div>","null","fixation","","","","","","","","","","","",""
"revaluation","43","265128","0.0-3.0-8.0-0.2","spark_pilot_norest","10520","5","7","Male","","false","","","","","[729.2000000476837,477.39999997615814]","./assets/img/space/8.jpg","[""ArrowDown"",""ArrowRight""]","full practice","space","23","{""ArrowUp,ArrowLeft"":3,""ArrowUp,ArrowRight"":36,""ArrowDown,ArrowLeft"":15,""ArrowDown,ArrowRight"":23}","false","ArrowDown,ArrowRight","false","","","","","",""
"html-keyboard-response","44","265630","0.0-3.0-8.0-1.2","spark_pilot_norest","10520","5","7","Male","","","","","","","null","<div style=""font-size:60px;"">+</div>","null","fixation","","","","","","","","","","","",""
"revaluation","45","271656","0.0-3.0-8.0-0.3","spark_pilot_norest","10520","5","7","Male","","false","","","","","[683.6000000238419,489.7000000476837]","./assets/img/space/9.jpg","[""ArrowUp"",""ArrowLeft""]","full practice","space","3","{""ArrowUp,ArrowLeft"":3,""ArrowUp,ArrowRight"":36,""ArrowDown,ArrowLeft"":15,""ArrowDown,ArrowRight"":23}","false","ArrowUp,ArrowLeft","false","","","","","",""
"html-keyboard-response","46","272159","0.0-3.0-8.0-1.3","spark_pilot_norest","10520","5","7","Male","","","","","","","null","<div style=""font-size:60px;"">+</div>","null","fixation","","","","","","","","","","","",""
"revaluation","47","278184","0.0-3.0-8.0-0.4","spark_pilot_norest","10520","5","7","Male","","false","","","","","[505.60000002384186,259.6999999284744]","./assets/img/space/10.jpg","[""ArrowUp"",""ArrowRight""]","full practice","space","36","{""ArrowUp,ArrowLeft"":3,""ArrowUp,ArrowRight"":36,""ArrowDown,ArrowLeft"":15,""ArrowDown,ArrowRight"":23}","true","ArrowUp,ArrowRight","false","","","","","",""
"html-keyboard-response","48","278687","0.0-3.0-8.0-1.4","spark_pilot_norest","10520","5","7","Male","","","","","","","null","<div style=""font-size:60px;"">+</div>","null","fixation","","","","","","","","","","","",""
"learning-instructions","49","290786","0.0-3.0-9.0-0.0","spark_pilot_norest","10520","5","7","Male","","","","","","","1739.5","<p> One last thing: sometimes, you will see a robber. The robber can be anywhere in the picture. </p>
            <p> If you do not stop them, you will lose treasure. </p>
            <img src='./assets/img/instructions/robber.jpg' class='instructions-image'>","","instructions","","","","","","","","","","","",""
"learning-instructions","50","300695","0.0-3.0-9.0-0.1","spark_pilot_norest","10520","5","7","Male","","","","","","","2743.1999999284744","<p> If you see the robber, you should <b>press the space bar</b> rather than using the arrow keys. </p>
            <p> Try practicing that now! </p>","","instructions","","","","","","","","","","","",""
"revaluation","51","304709","0.0-3.0-10.0-0.0","spark_pilot_norest","10520","5","7","Male","","false","","","","","[663.1000000238419]","./assets/img/space/catch/0.jpg","[""spaceBar""]","catch practice","space","0","{""ArrowUp,ArrowLeft"":3,""ArrowUp,ArrowRight"":36,""ArrowDown,ArrowLeft"":15,""ArrowDown,ArrowRight"":23}","true","spaceBar","true","","","","","",""
"html-keyboard-response","52","305214","0.0-3.0-10.0-1.0","spark_pilot_norest","10520","5","7","Male","","","","","","","null","<div style=""font-size:60px;"">+</div>","null","fixation","","","","","","","","","","","",""
"revaluation","53","309229","0.0-3.0-10.0-0.1","spark_pilot_norest","10520","5","7","Male","","false","","","","","[668.3999999761581]","./assets/img/space/catch/1.jpg","[""spaceBar""]","catch practice","space","0","{""ArrowUp,ArrowLeft"":3,""ArrowUp,ArrowRight"":36,""ArrowDown,ArrowLeft"":15,""ArrowDown,ArrowRight"":23}","true","spaceBar","true","","","","","",""
"html-keyboard-response","54","309733","0.0-3.0-10.0-1.1","spark_pilot_norest","10520","5","7","Male","","","","","","","null","<div style=""font-size:60px;"">+</div>","null","fixation","","","","","","","","","","","",""
"revaluation","55","313749","0.0-3.0-10.0-0.2","spark_pilot_norest","10520","5","7","Male","","false","","","","","[497.2999999523163]","./assets/img/space/catch/2.jpg","[""spaceBar""]","catch practice","space","0","{""ArrowUp,ArrowLeft"":3,""ArrowUp,ArrowRight"":36,""ArrowDown,ArrowLeft"":15,""ArrowDown,ArrowRight"":23}","true","spaceBar","true","","","","","",""
"html-keyboard-response","56","314253","0.0-3.0-10.0-1.2","spark_pilot_norest","10520","5","7","Male","","","","","","","null","<div style=""font-size:60px;"">+</div>","null","fixation","","","","","","","","","","","",""
"learning-instructions","57","324962","0.0-3.0-11.0-0.0-0.0","spark_pilot_norest","10520","5","7","Male","","","","","","","5458.799999952316","<p> Now, you will practice a shortened version of the game to get a sense of how it all fits together. </p>","","instructions","","","","","","","","","","","",""
"learning-instructions","58","329375","0.0-3.0-11.0-0.0-0.1","spark_pilot_norest","10520","5","7","Male","","","","","","","1221.2000000476837","<p>This time you are searching for treasure in outer space.</p>","","instructions","","","","","","","","","","","",""
"learning-instructions","59","345108","0.0-3.0-11.0-1.0-0.0","spark_pilot_norest","10520","5","7","Male","","","","","","","966.7000000476837","<p> Remember, when you see a picture of the place, use the up and down keys to <b>find an animal</b>.</p>
            <p> When you encounter an animal, you should use the left and right keys to <b>select a treasure chest</b>.</p>
            <p> Don't forget to look out for the robber! </p>","","instructions","","","","","","","","","","","",""
"revaluation","60","351131","0.0-3.0-11.0-2.0-0.0","spark_pilot_norest","10520","5","7","Male","","false","","","","","[558.3000000715256,617]","./assets/img/space/11.jpg","[""ArrowUp"",""ArrowRight""]","practice block","space","36","{""ArrowUp,ArrowLeft"":3,""ArrowUp,ArrowRight"":36,""ArrowDown,ArrowLeft"":15,""ArrowDown,ArrowRight"":23}","true","ArrowUp,ArrowRight","false","","","","","",""
"html-keyboard-response","61","351636","0.0-3.0-11.0-2.0-1.0","spark_pilot_norest","10520","5","7","Male","","","","","","","null","<div style=""font-size:60px;"">+</div>","null","fixation","","","","","","","","","","","",""
"revaluation","62","357658","0.0-3.0-11.0-2.0-0.1","spark_pilot_norest","10520","5","7","Male","","false","","","","","[980.1999999284744,554.3999999761581]","./assets/img/space/12.jpg","[""ArrowDown"",""ArrowRight""]","practice block","space","23","{""ArrowUp,ArrowLeft"":3,""ArrowUp,ArrowRight"":36,""ArrowDown,ArrowLeft"":15,""ArrowDown,ArrowRight"":23}","false","ArrowDown,ArrowRight","false","","","","","",""
"html-keyboard-response","63","358162","0.0-3.0-11.0-2.0-1.1","spark_pilot_norest","10520","5","7","Male","","","","","","","null","<div style=""font-size:60px;"">+</div>","null","fixation","","","","","","","","","","","",""
"revaluation","64","364187","0.0-3.0-11.0-2.0-0.2","spark_pilot_norest","10520","5","7","Male","","false","","","","","[759.7000000476837,503.10000002384186]","./assets/img/space/13.jpg","[""ArrowUp"",""ArrowRight""]","practice block","space","36","{""ArrowUp,ArrowLeft"":3,""ArrowUp,ArrowRight"":36,""ArrowDown,ArrowLeft"":15,""ArrowDown,ArrowRight"":23}","true","ArrowUp,ArrowRight","false","","","","","",""
"html-keyboard-response","65","364691","0.0-3.0-11.0-2.0-1.2","spark_pilot_norest","10520","5","7","Male","","","","","","","null","<div style=""font-size:60px;"">+</div>","null","fixation","","","","","","","","","","","",""
"revaluation","66","370714","0.0-3.0-11.0-2.0-0.3","spark_pilot_norest","10520","5","7","Male","","false","","","","","[1597,467.7000000476837]","./assets/img/space/14.jpg","[""ArrowUp"",""ArrowRight""]","practice block","space","36","{""ArrowUp,ArrowLeft"":3,""ArrowUp,ArrowRight"":36,""ArrowDown,ArrowLeft"":15,""ArrowDown,ArrowRight"":23}","true","ArrowUp,ArrowRight","false","","","","","",""
"html-keyboard-response","67","371218","0.0-3.0-11.0-2.0-1.3","spark_pilot_norest","10520","5","7","Male","","","","","","","null","<div style=""font-size:60px;"">+</div>","null","fixation","","","","","","","","","","","",""
"revaluation","68","377242","0.0-3.0-11.0-2.0-0.4","spark_pilot_norest","10520","5","7","Male","","false","","","","","[1278,674.0999999046326]","./assets/img/space/11.jpg","[""ArrowDown"",""ArrowLeft""]","practice block","space","15","{""ArrowUp,ArrowLeft"":3,""ArrowUp,ArrowRight"":36,""ArrowDown,ArrowLeft"":15,""ArrowDown,ArrowRight"":23}","false","ArrowDown,ArrowLeft","false","","","","","",""
"html-keyboard-response","69","377746","0.0-3.0-11.0-2.0-1.4","spark_pilot_norest","10520","5","7","Male","","","","","","","null","<div style=""font-size:60px;"">+</div>","null","fixation","","","","","","","","","","","",""
"revaluation","70","383770","0.0-3.0-11.0-2.0-0.5","spark_pilot_norest","10520","5","7","Male","","false","","","","","[849.7999999523163,584]","./assets/img/space/12.jpg","[""ArrowUp"",""ArrowRight""]","practice block","space","36","{""ArrowUp,ArrowLeft"":3,""ArrowUp,ArrowRight"":36,""ArrowDown,ArrowLeft"":15,""ArrowDown,ArrowRight"":23}","true","ArrowUp,ArrowRight","false","","","","","",""
"html-keyboard-response","71","384274","0.0-3.0-11.0-2.0-1.5","spark_pilot_norest","10520","5","7","Male","","","","","","","null","<div style=""font-size:60px;"">+</div>","null","fixation","","","","","","","","","","","",""
"revaluation","72","390297","0.0-3.0-11.0-2.0-0.6","spark_pilot_norest","10520","5","7","Male","","false","","","","","[927.7000000476837,326]","./assets/img/space/13.jpg","[""ArrowUp"",""ArrowRight""]","practice block","space","36","{""ArrowUp,ArrowLeft"":3,""ArrowUp,ArrowRight"":36,""ArrowDown,ArrowLeft"":15,""ArrowDown,ArrowRight"":23}","true","ArrowUp,ArrowRight","false","","","","","",""
"html-keyboard-response","73","390801","0.0-3.0-11.0-2.0-1.6","spark_pilot_norest","10520","5","7","Male","","","","","","","null","<div style=""font-size:60px;"">+</div>","null","fixation","","","","","","","","","","","",""
"revaluation","74","396825","0.0-3.0-11.0-2.0-0.7","spark_pilot_norest","10520","5","7","Male","","false","","","","","[680.7999999523163,439.39999997615814]","./assets/img/space/14.jpg","[""ArrowUp"",""ArrowRight""]","practice block","space","36","{""ArrowUp,ArrowLeft"":3,""ArrowUp,ArrowRight"":36,""ArrowDown,ArrowLeft"":15,""ArrowDown,ArrowRight"":23}","true","ArrowUp,ArrowRight","false","","","","","",""
"html-keyboard-response","75","397329","0.0-3.0-11.0-2.0-1.7","spark_pilot_norest","10520","5","7","Male","","","","","","","null","<div style=""font-size:60px;"">+</div>","null","fixation","","","","","","","","","","","",""
"revaluation","76","401339","0.0-3.0-11.0-2.0-0.8","spark_pilot_norest","10520","5","7","Male","","false","","","","","[884.3999999761581]","./assets/img/space/catch/3.jpg","[""spaceBar""]","practice block","space","0","{""ArrowUp,ArrowLeft"":3,""ArrowUp,ArrowRight"":36,""ArrowDown,ArrowLeft"":15,""ArrowDown,ArrowRight"":23}","true","spaceBar","true","","","","","",""
"html-keyboard-response","77","401844","0.0-3.0-11.0-2.0-1.8","spark_pilot_norest","10520","5","7","Male","","","","","","","null","<div style=""font-size:60px;"">+</div>","null","fixation","","","","","","","","","","","",""
"learning-instructions","78","419010","0.0-3.0-11.0-3.0-0.0","spark_pilot_norest","10520","5","7","Male","","","","","","","4191.5","<p> Now, you will travel with a friend who will choose whether you go up or down first. </p>
            <p> On these turns, you will just see the animal that they found. You will still get to choose which chest to search for treasure.</p>","","instructions","","","","","","","","","","","",""
"revaluation","79","423024","0.0-3.0-11.0-4.0-0.0","spark_pilot_norest","10520","5","7","Male","","false","","","","","[565.4000000953674]","./assets/img/space/animals/cat.jpg","[""ArrowRight""]","practice block","space","36","{""ArrowUp,ArrowLeft"":3,""ArrowUp,ArrowRight"":36,""ArrowDown,ArrowLeft"":15,""ArrowDown,ArrowRight"":23}","true","ArrowUp,ArrowRight","","","","","","",""
"html-keyboard-response","80","423527","0.0-3.0-11.0-4.0-1.0","spark_pilot_norest","10520","5","7","Male","","","","","","","null","<div style=""font-size:60px;"">+</div>","null","fixation","","","","","","","","","","","",""
"revaluation","81","427544","0.0-3.0-11.0-4.0-0.1","spark_pilot_norest","10520","5","7","Male","","false","","","","","[844.5]","./assets/img/space/animals/rabbit.jpg","[""ArrowRight""]","practice block","space","23","{""ArrowUp,ArrowLeft"":3,""ArrowUp,ArrowRight"":36,""ArrowDown,ArrowLeft"":15,""ArrowDown,ArrowRight"":23}","true","ArrowDown,ArrowRight","","","","","","",""
"html-keyboard-response","82","428048","0.0-3.0-11.0-4.0-1.1","spark_pilot_norest","10520","5","7","Male","","","","","","","null","<div style=""font-size:60px;"">+</div>","null","fixation","","","","","","","","","","","",""
"revaluation","83","432064","0.0-3.0-11.0-4.0-0.2","spark_pilot_norest","10520","5","7","Male","","false","","","","","[728.1999999284744]","./assets/img/space/animals/cat.jpg","[""ArrowRight""]","practice block","space","36","{""ArrowUp,ArrowLeft"":3,""ArrowUp,ArrowRight"":36,""ArrowDown,ArrowLeft"":15,""ArrowDown,ArrowRight"":23}","true","ArrowUp,ArrowRight","","","","","","",""
"html-keyboard-response","84","432567","0.0-3.0-11.0-4.0-1.2","spark_pilot_norest","10520","5","7","Male","","","","","","","null","<div style=""font-size:60px;"">+</div>","null","fixation","","","","","","","","","","","",""
"revaluation","85","436583","0.0-3.0-11.0-4.0-0.3","spark_pilot_norest","10520","5","7","Male","","false","","","","","[587.7000000476837]","./assets/img/space/animals/rabbit.jpg","[""ArrowRight""]","practice block","space","23","{""ArrowUp,ArrowLeft"":3,""ArrowUp,ArrowRight"":36,""ArrowDown,ArrowLeft"":15,""ArrowDown,ArrowRight"":23}","true","ArrowDown,ArrowRight","","","","","","",""
"html-keyboard-response","86","437087","0.0-3.0-11.0-4.0-1.3","spark_pilot_norest","10520","5","7","Male","","","","","","","null","<div style=""font-size:60px;"">+</div>","null","fixation","","","","","","","","","","","",""
"learning-instructions","87","445223","0.0-3.0-11.0-5.0-0.0","spark_pilot_norest","10520","5","7","Male","","","","","","","null","<p> You have almost finished this part of the game! </p>
            <p> We are going to ask you to make a few more choices. </p>","","instructions","","","","","","","","","","","",""
"learning-instructions","88","461238","0.0-3.0-11.0-5.0-0.1","spark_pilot_norest","10520","5","7","Male","","","","","","","null","<p> First, you need to decide whether to go up or down. When you see each picture, use the arrow keys to make your choice. </p>
            <p><b>You will not see which animal you found, but try to get to the one that will give you the most treasure.</b></p>","","instructions","","","","","","","","","","","",""
"html-keyboard-response","89","462245","0.0-3.0-11.0-6.0-0.0","spark_pilot_norest","10520","5","7","Male","","","","","","","null","<div style=""font-size:100px;color:red;"">Starting in...</div>","null","","","","","","","","","","","","",""
"html-keyboard-response","90","463255","0.0-3.0-11.0-6.0-1.0","spark_pilot_norest","10520","5","7","Male","","","","","","","null","<div style=""font-size:200px;color:red;"">3</div>","null","","","","","","","","","","","","",""
"html-keyboard-response","91","464261","0.0-3.0-11.0-6.0-2.0","spark_pilot_norest","10520","5","7","Male","","","","","","","null","<div style=""font-size:200px;color:red;"">2</div>","null","","","","","","","","","","","","",""
"html-keyboard-response","92","465270","0.0-3.0-11.0-6.0-3.0","spark_pilot_norest","10520","5","7","Male","","","","","","","null","<div style=""font-size:200px;color:red;"">1</div>","null","","","","","","","","","","","","",""
"revaluation","93","465606","0.0-3.0-11.0-7.0","spark_pilot_norest","10520","5","7","Male","","false","","","","","[333]","./assets/img/space/15.jpg","[""ArrowUp""]","practice block","space","0","{""ArrowUp,ArrowLeft"":3,""ArrowUp,ArrowRight"":36,""ArrowDown,ArrowLeft"":15,""ArrowDown,ArrowRight"":23}","true","ArrowUp","false","","","","","",""
"html-keyboard-response","94","466110","0.0-3.0-11.0-8.0","spark_pilot_norest","10520","5","7","Male","","","","","","","null","<div style=""font-size:60px;"">+</div>","null","fixation","","","","","","","","","","","",""
"learning-instructions","95","479493","0.0-3.0-11.0-9.0-0.0","spark_pilot_norest","10520","5","7","Male","","","","","","","null","<p> Now you will see the animals again and can search their chests for treasure. </p>
            <p> This time, you will not see how much treasure you earned, but you will earn more bonus money for making better choices. </p>","","instructions","","","","","","","","","","","",""
"html-keyboard-response","96","480501","0.0-3.0-11.0-10.0-0.0","spark_pilot_norest","10520","5","7","Male","","","","","","","null","<div style=""font-size:100px;color:red;"">Starting in...</div>","null","","","","","","","","","","","","",""
"html-keyboard-response","97","481509","0.0-3.0-11.0-10.0-1.0","spark_pilot_norest","10520","5","7","Male","","","","","","","null","<div style=""font-size:200px;color:red;"">3</div>","null","","","","","","","","","","","","",""
"html-keyboard-response","98","482517","0.0-3.0-11.0-10.0-2.0","spark_pilot_norest","10520","5","7","Male","","","","","","","null","<div style=""font-size:200px;color:red;"">2</div>","null","","","","","","","","","","","","",""
"html-keyboard-response","99","483525","0.0-3.0-11.0-10.0-3.0","spark_pilot_norest","10520","5","7","Male","","","","","","","null","<div style=""font-size:200px;color:red;"">1</div>","null","","","","","","","","","","","","",""
"revaluation","100","483948","0.0-3.0-11.0-11.0-0.0","spark_pilot_norest","10520","5","7","Male","","false","","","","","[419.60000002384186]","./assets/img/space/animals/cat.jpg","[""ArrowRight""]","practice block","space","0","{""ArrowUp,ArrowLeft"":3,""ArrowUp,ArrowRight"":36,""ArrowDown,ArrowLeft"":15,""ArrowDown,ArrowRight"":23}","true","ArrowUp,ArrowRight","","","","","","",""
"html-keyboard-response","101","484453","0.0-3.0-11.0-11.0-1.0","spark_pilot_norest","10520","5","7","Male","","","","","","","null","<div style=""font-size:60px;"">+</div>","null","fixation","","","","","","","","","","","",""
"revaluation","102","485526","0.0-3.0-11.0-11.0-0.1","spark_pilot_norest","10520","5","7","Male","","false","","","","","[1070]","./assets/img/space/animals/rabbit.jpg","[""ArrowRight""]","practice block","space","0","{""ArrowUp,ArrowLeft"":3,""ArrowUp,ArrowRight"":36,""ArrowDown,ArrowLeft"":15,""ArrowDown,ArrowRight"":23}","true","ArrowDown,ArrowRight","","","","","","",""
"html-keyboard-response","103","486029","0.0-3.0-11.0-11.0-1.1","spark_pilot_norest","10520","5","7","Male","","","","","","","null","<div style=""font-size:60px;"">+</div>","null","fixation","","","","","","","","","","","",""
"learning-instructions","104","491908","0.0-3.0-12.0-0.0","spark_pilot_norest","10520","5","7","Male","","","","","","","1296.8999999761581","<p> Before you start, we're going to ask you a few questions about how the game works. </p>","","instructions","","","","","","","","","","","",""
"comp-q","105","501235","0.0-3.0-13.0-0.0-0.0","spark_pilot_norest","10520","5","7","Male","","","","","","","3739.3000000715256","<p> <b> True or False? </b> </p>
            <p> There can be 50 pieces of treasure in a given animal's chest. </p>","1","comp_question","","","","true","","","","","","","",""
"comp-q","106","512785","0.0-3.0-13.0-0.0-1.0","spark_pilot_norest","10520","5","7","Male","","","","","","","4895.600000023842","<p> <b> That's right! </b> The amount of treasure in each chest can range from 0 to 40 pieces. </p>","0","comp_answer","","","","","","","","","","","",""
"comp-q","107","522145","0.0-3.0-13.0-0.1-0.1","spark_pilot_norest","10520","5","7","Male","","","","","","","2239.899999976158","<p> <b> True or False? </b> </p><p> In this game, all animals have the same amount of treasure in their left and right chests. </p>","1","comp_question","","","","true","","","","","","","",""
"comp-q","108","532955","0.0-3.0-13.0-0.1-1.1","spark_pilot_norest","10520","5","7","Male","","","","","","","5579","<p> <b> That's right! </b> Animals have different amounts of treasure in their treasure chests. </p>","0","comp_answer","","","","","","","","","","","",""
"comp-q","109","540870","0.0-3.0-13.0-0.2-0.2","spark_pilot_norest","10520","5","7","Male","","","","","","","2070.399999976158","<p> <b> True or False? </b> </p><p> The same animal will always be there if you go up in the same place. </p>","1","comp_question","","","","false","","","","","","","",""
"comp-q","110","549498","0.0-3.0-13.0-0.2-1.2","spark_pilot_norest","10520","5","7","Male","","","","","","","2319.899999976158","<p> <b>Incorrect.</b> One animal lives in the upper part and one lives in the lower part of every place. </p>","0","comp_answer","","","","","","","","","","","",""
"comp-q","111","556452","0.0-3.0-13.0-0.3-0.3","spark_pilot_norest","10520","5","7","Male","","","","","","","1130.7999999523163","<p> <b> True or False? </b> </p><p> The same animal will always be there if you go up in the same place. </p>","0","comp_question","","","","true","","","","","","","",""
"comp-q","112","565689","0.0-3.0-13.0-0.3-1.3","spark_pilot_norest","10520","5","7","Male","","","","","","","2795","<p> <b> That's right! </b> One animal lives in the upper part and one lives in the lower part of every place. </p>","0","comp_answer","","","","","","","","","","","",""
"comp-q","113","573416","0.0-3.0-13.0-0.4-0.4","spark_pilot_norest","10520","5","7","Male","","","","","","","2201.7999999523163","<p> <b> True or False? </b> </p><p> If you see a different picture, it means you are in a new place. </p>","1","comp_question","","","","true","","","","","","","",""
"comp-q","114","587258","0.0-3.0-13.0-0.4-1.4","spark_pilot_norest","10520","5","7","Male","","","","","","","2615.7999999523163","<p> <b> That's right! </b> Lots of different images may show the same place. For example,  you may see three different images that all remind you that you are in outer space. </p>","0","comp_answer","","","","","","","","","","","",""
"learning-instructions","115","600522","0.0-3.0-14.0-0.0","spark_pilot_norest","10520","5","7","Male","","","","","","","3412","<p> Good job. Remember to do your best because the amount of treasure you earn will be converted into bonus money. </p>
            <p> It’s time to start the real game! </p>","","instructions","","","","","","","","","","","",""
"learning-instructions","116","604556","0.0-4.0-0.0-0.0","spark_pilot_norest","10520","5","7","Male","","","","","","","1264.8999999761581","<p> This time you are searching for treasure in the <b>canyon</b>.</p>","","instructions","","","","","","","","","","","",""
"learning-instructions","117","625608","0.0-4.0-0.0-0.1","spark_pilot_norest","10520","5","7","Male","","","","","","","3752.899999976158","<p><b>New</b> animals with <b>new</b> treasure chests live here. You need to explore to discover where the animal with the best treasure chest is.</p>
                    <p> Like before, once you figure out which animal has the chest with the most treasure, you should try to get to that animal and select that chest! </p>","","instructions","","","","","","","","","","","",""
"learning-instructions","118","642505","0.0-4.0-1.0-0.0","spark_pilot_norest","10520","5","7","Male","","","","","","","2171.100000023842","<p> Remember, when you see a picture of the place, use the up and down keys to <b>find an animal</b>.</p>
            <p> When you encounter an animal, you should use the left and right keys to <b>select a treasure chest</b>.</p>
            <p> Don't forget to look out for the robber! </p>","","instructions","","","","","","","","","","","",""
"revaluation","119","648525","0.0-4.0-2.0-0.0","spark_pilot_norest","10520","5","7","Male","","false","","","","","[941.4000000953674,485.60000002384186]","./assets/img/canyon/memory/39.jpg","[""ArrowUp"",""ArrowRight""]","value training","canyon","10","{""ArrowUp,ArrowLeft"":26,""ArrowUp,ArrowRight"":10,""ArrowDown,ArrowLeft"":5,""ArrowDown,ArrowRight"":17}","false","ArrowUp,ArrowRight","false","original","1","0","","",""
"html-keyboard-response","120","649036","0.0-4.0-2.0-1.0","spark_pilot_norest","10520","5","7","Male","","","","","","","null","<div style=""font-size:60px;"">+</div>","null","fixation","","","","","","","","","1","","",""
"revaluation","121","655061","0.0-4.0-2.0-0.1","spark_pilot_norest","10520","5","7","Male","","false","","","","","[933.2000000476837,287.1999999284744]","./assets/img/canyon/memory/13.jpg","[""ArrowDown"",""ArrowLeft""]","value training","canyon","5","{""ArrowUp,ArrowLeft"":26,""ArrowUp,ArrowRight"":10,""ArrowDown,ArrowLeft"":5,""ArrowDown,ArrowRight"":17}","false","ArrowDown,ArrowLeft","false","original","1","2","","",""
"html-keyboard-response","122","655564","0.0-4.0-2.0-1.1","spark_pilot_norest","10520","5","7","Male","","","","","","","null","<div style=""font-size:60px;"">+</div>","null","fixation","","","","","","","","","3","","",""
"revaluation","123","661588","0.0-4.0-2.0-0.2","spark_pilot_norest","10520","5","7","Male","","false","","","","","[825.7000000476837,481]","./assets/img/canyon/memory/39.jpg","[""ArrowUp"",""ArrowLeft""]","value training","canyon","26","{""ArrowUp,ArrowLeft"":26,""ArrowUp,ArrowRight"":10,""ArrowDown,ArrowLeft"":5,""ArrowDown,ArrowRight"":17}","true","ArrowUp,ArrowLeft","false","original","1","4","","",""
"html-keyboard-response","124","662093","0.0-4.0-2.0-1.2","spark_pilot_norest","10520","5","7","Male","","","","","","","null","<div style=""font-size:60px;"">+</div>","null","fixation","","","","","","","","","5","","",""
"revaluation","125","668116","0.0-4.0-2.0-0.3","spark_pilot_norest","10520","5","7","Male","","false","","","","","[490.1999999284744,468.6999999284744]","./assets/img/canyon/memory/22.jpg","[""ArrowDown"",""ArrowRight""]","value training","canyon","17","{""ArrowUp,ArrowLeft"":26,""ArrowUp,ArrowRight"":10,""ArrowDown,ArrowLeft"":5,""ArrowDown,ArrowRight"":17}","false","ArrowDown,ArrowRight","false","original","1","6","","",""
"html-keyboard-response","126","668620","0.0-4.0-2.0-1.3","spark_pilot_norest","10520","5","7","Male","","","","","","","null","<div style=""font-size:60px;"">+</div>","null","fixation","","","","","","","","","7","","",""
"revaluation","127","674644","0.0-4.0-2.0-0.4","spark_pilot_norest","10520","5","7","Male","","false","","","","","[735,978.6000000238419]","./assets/img/canyon/memory/5.jpg","[""ArrowDown"",""ArrowRight""]","value training","canyon","17","{""ArrowUp,ArrowLeft"":26,""ArrowUp,ArrowRight"":10,""ArrowDown,ArrowLeft"":5,""ArrowDown,ArrowRight"":17}","false","ArrowDown,ArrowRight","false","original","1","8","","",""
"html-keyboard-response","128","675147","0.0-4.0-2.0-1.4","spark_pilot_norest","10520","5","7","Male","","","","","","","null","<div style=""font-size:60px;"">+</div>","null","fixation","","","","","","","","","9","","",""
"revaluation","129","681170","0.0-4.0-2.0-0.5","spark_pilot_norest","10520","5","7","Male","","false","","","","","[560.0999999046326,528.8000000715256]","./assets/img/canyon/memory/15.jpg","[""ArrowUp"",""ArrowLeft""]","value training","canyon","26","{""ArrowUp,ArrowLeft"":26,""ArrowUp,ArrowRight"":10,""ArrowDown,ArrowLeft"":5,""ArrowDown,ArrowRight"":17}","true","ArrowUp,ArrowLeft","false","original","1","10","","",""
"html-keyboard-response","130","681675","0.0-4.0-2.0-1.5","spark_pilot_norest","10520","5","7","Male","","","","","","","null","<div style=""font-size:60px;"">+</div>","null","fixation","","","","","","","","","11","","",""
"revaluation","131","687699","0.0-4.0-2.0-0.6","spark_pilot_norest","10520","5","7","Male","","false","","","","","[436,353.39999997615814]","./assets/img/canyon/memory/0.jpg","[""ArrowUp"",""ArrowLeft""]","value training","canyon","26","{""ArrowUp,ArrowLeft"":26,""ArrowUp,ArrowRight"":10,""ArrowDown,ArrowLeft"":5,""ArrowDown,ArrowRight"":17}","true","ArrowUp,ArrowLeft","false","original","1","12","","",""
"html-keyboard-response","132","688203","0.0-4.0-2.0-1.6","spark_pilot_norest","10520","5","7","Male","","","","","","","null","<div style=""font-size:60px;"">+</div>","null","fixation","","","","","","","","","13","","",""
"revaluation","133","694227","0.0-4.0-2.0-0.7","spark_pilot_norest","10520","5","7","Male","","false","","","","","[755.7000000476837,565.1999999284744]","./assets/img/canyon/memory/36.jpg","[""ArrowUp"",""ArrowLeft""]","value training","canyon","26","{""ArrowUp,ArrowLeft"":26,""ArrowUp,ArrowRight"":10,""ArrowDown,ArrowLeft"":5,""ArrowDown,ArrowRight"":17}","true","ArrowUp,ArrowLeft","false","original","1","14","","",""
"html-keyboard-response","134","694731","0.0-4.0-2.0-1.7","spark_pilot_norest","10520","5","7","Male","","","","","","","null","<div style=""font-size:60px;"">+</div>","null","fixation","","","","","","","","","15","","",""
"revaluation","135","700754","0.0-4.0-2.0-0.8","spark_pilot_norest","10520","5","7","Male","","false","","","","","[758.3999999761581,534.2999999523163]","./assets/img/canyon/memory/7.jpg","[""ArrowUp"",""ArrowLeft""]","value training","canyon","26","{""ArrowUp,ArrowLeft"":26,""ArrowUp,ArrowRight"":10,""ArrowDown,ArrowLeft"":5,""ArrowDown,ArrowRight"":17}","true","ArrowUp,ArrowLeft","false","original","1","16","","",""
"html-keyboard-response","136","701258","0.0-4.0-2.0-1.8","spark_pilot_norest","10520","5","7","Male","","","","","","","null","<div style=""font-size:60px;"">+</div>","null","fixation","","","","","","","","","17","","",""
"revaluation","137","707281","0.0-4.0-2.0-0.9","spark_pilot_norest","10520","5","7","Male","","false","","","","","[842,472.2999999523163]","./assets/img/canyon/memory/8.jpg","[""ArrowUp"",""ArrowLeft""]","value training","canyon","26","{""ArrowUp,ArrowLeft"":26,""ArrowUp,ArrowRight"":10,""ArrowDown,ArrowLeft"":5,""ArrowDown,ArrowRight"":17}","true","ArrowUp,ArrowLeft","false","original","1","18","","",""
"html-keyboard-response","138","707787","0.0-4.0-2.0-1.9","spark_pilot_norest","10520","5","7","Male","","","","","","","null","<div style=""font-size:60px;"">+</div>","null","fixation","","","","","","","","","19","","",""
"revaluation","139","713810","0.0-4.0-2.0-0.10","spark_pilot_norest","10520","5","7","Male","","false","","","","","[1280.1000000238419,720.8999999761581]","./assets/img/canyon/memory/34.jpg","[""ArrowUp"",""ArrowLeft""]","value training","canyon","26","{""ArrowUp,ArrowLeft"":26,""ArrowUp,ArrowRight"":10,""ArrowDown,ArrowLeft"":5,""ArrowDown,ArrowRight"":17}","true","ArrowUp,ArrowLeft","false","original","1","20","","",""
"html-keyboard-response","140","714314","0.0-4.0-2.0-1.10","spark_pilot_norest","10520","5","7","Male","","","","","","","null","<div style=""font-size:60px;"">+</div>","null","fixation","","","","","","","","","21","","",""
"revaluation","141","720338","0.0-4.0-2.0-0.11","spark_pilot_norest","10520","5","7","Male","","false","","","","","[1081.8999999761581,325.2999999523163]","./assets/img/canyon/memory/23.jpg","[""ArrowUp"",""ArrowLeft""]","value training","canyon","26","{""ArrowUp,ArrowLeft"":26,""ArrowUp,ArrowRight"":10,""ArrowDown,ArrowLeft"":5,""ArrowDown,ArrowRight"":17}","true","ArrowUp,ArrowLeft","false","original","1","22","","",""
"html-keyboard-response","142","720841","0.0-4.0-2.0-1.11","spark_pilot_norest","10520","5","7","Male","","","","","","","null","<div style=""font-size:60px;"">+</div>","null","fixation","","","","","","","","","23","","",""
"revaluation","143","726864","0.0-4.0-2.0-0.12","spark_pilot_norest","10520","5","7","Male","","false","","","","","[1041.7999999523163,273.2999999523163]","./assets/img/canyon/memory/1.jpg","[""ArrowUp"",""ArrowLeft""]","value training","canyon","26","{""ArrowUp,ArrowLeft"":26,""ArrowUp,ArrowRight"":10,""ArrowDown,ArrowLeft"":5,""ArrowDown,ArrowRight"":17}","true","ArrowUp,ArrowLeft","false","original","1","24","","",""
"html-keyboard-response","144","727369","0.0-4.0-2.0-1.12","spark_pilot_norest","10520","5","7","Male","","","","","","","null","<div style=""font-size:60px;"">+</div>","null","fixation","","","","","","","","","25","","",""
"revaluation","145","733392","0.0-4.0-2.0-0.13","spark_pilot_norest","10520","5","7","Male","","false","","","","","[919.3000000715256,412.2999999523163]","./assets/img/canyon/memory/13.jpg","[""ArrowUp"",""ArrowLeft""]","value training","canyon","26","{""ArrowUp,ArrowLeft"":26,""ArrowUp,ArrowRight"":10,""ArrowDown,ArrowLeft"":5,""ArrowDown,ArrowRight"":17}","true","ArrowUp,ArrowLeft","false","original","1","26","","",""
"html-keyboard-response","146","733896","0.0-4.0-2.0-1.13","spark_pilot_norest","10520","5","7","Male","","","","","","","null","<div style=""font-size:60px;"">+</div>","null","fixation","","","","","","","","","27","","",""
"revaluation","147","739921","0.0-4.0-2.0-0.14","spark_pilot_norest","10520","5","7","Male","","false","","","","","[654.1000000238419,354.7000000476837]","./assets/img/canyon/memory/41.jpg","[""ArrowUp"",""ArrowLeft""]","value training","canyon","26","{""ArrowUp,ArrowLeft"":26,""ArrowUp,ArrowRight"":10,""ArrowDown,ArrowLeft"":5,""ArrowDown,ArrowRight"":17}","true","ArrowUp,ArrowLeft","false","original","1","28","","",""
"html-keyboard-response","148","740424","0.0-4.0-2.0-1.14","spark_pilot_norest","10520","5","7","Male","","","","","","","null","<div style=""font-size:60px;"">+</div>","null","fixation","","","","","","","","","29","","",""
"revaluation","149","746448","0.0-4.0-2.0-0.15","spark_pilot_norest","10520","5","7","Male","","false","","","","","[1029.6000000238419,408.89999997615814]","./assets/img/canyon/memory/18.jpg","[""ArrowUp"",""ArrowLeft""]","value training","canyon","26","{""ArrowUp,ArrowLeft"":26,""ArrowUp,ArrowRight"":10,""ArrowDown,ArrowLeft"":5,""ArrowDown,ArrowRight"":17}","true","ArrowUp,ArrowLeft","false","original","1","30","","",""
"html-keyboard-response","150","746952","0.0-4.0-2.0-1.15","spark_pilot_norest","10520","5","7","Male","","","","","","","null","<div style=""font-size:60px;"">+</div>","null","fixation","","","","","","","","","31","","",""
"revaluation","151","752976","0.0-4.0-2.0-0.16","spark_pilot_norest","10520","5","7","Male","","false","","","","","[641.5999999046326,342.10000002384186]","./assets/img/canyon/memory/36.jpg","[""ArrowUp"",""ArrowLeft""]","value training","canyon","26","{""ArrowUp,ArrowLeft"":26,""ArrowUp,ArrowRight"":10,""ArrowDown,ArrowLeft"":5,""ArrowDown,ArrowRight"":17}","true","ArrowUp,ArrowLeft","false","original","1","32","","",""
"html-keyboard-response","152","753479","0.0-4.0-2.0-1.16","spark_pilot_norest","10520","5","7","Male","","","","","","","null","<div style=""font-size:60px;"">+</div>","null","fixation","","","","","","","","","33","","",""
"revaluation","153","759504","0.0-4.0-2.0-0.17","spark_pilot_norest","10520","5","7","Male","","false","","","","","[804.5,503.60000002384186]","./assets/img/canyon/memory/14.jpg","[""ArrowUp"",""ArrowLeft""]","value training","canyon","26","{""ArrowUp,ArrowLeft"":26,""ArrowUp,ArrowRight"":10,""ArrowDown,ArrowLeft"":5,""ArrowDown,ArrowRight"":17}","true","ArrowUp,ArrowLeft","false","original","1","34","","",""
"html-keyboard-response","154","760007","0.0-4.0-2.0-1.17","spark_pilot_norest","10520","5","7","Male","","","","","","","null","<div style=""font-size:60px;"">+</div>","null","fixation","","","","","","","","","35","","",""
"revaluation","155","766032","0.0-4.0-2.0-0.18","spark_pilot_norest","10520","5","7","Male","","false","","","","","[772.3999999761581,370.89999997615814]","./assets/img/canyon/memory/17.jpg","[""ArrowUp"",""ArrowLeft""]","value training","canyon","26","{""ArrowUp,ArrowLeft"":26,""ArrowUp,ArrowRight"":10,""ArrowDown,ArrowLeft"":5,""ArrowDown,ArrowRight"":17}","true","ArrowUp,ArrowLeft","false","original","1","36","","",""
"html-keyboard-response","156","766535","0.0-4.0-2.0-1.18","spark_pilot_norest","10520","5","7","Male","","","","","","","null","<div style=""font-size:60px;"">+</div>","null","fixation","","","","","","","","","37","","",""
"revaluation","157","772559","0.0-4.0-2.0-0.19","spark_pilot_norest","10520","5","7","Male","","false","","","","","[784.5,276.5]","./assets/img/canyon/memory/1.jpg","[""ArrowUp"",""ArrowLeft""]","value training","canyon","26","{""ArrowUp,ArrowLeft"":26,""ArrowUp,ArrowRight"":10,""ArrowDown,ArrowLeft"":5,""ArrowDown,ArrowRight"":17}","true","ArrowUp,ArrowLeft","false","original","1","38","","",""
"html-keyboard-response","158","773063","0.0-4.0-2.0-1.19","spark_pilot_norest","10520","5","7","Male","","","","","","","null","<div style=""font-size:60px;"">+</div>","null","fixation","","","","","","","","","39","","",""
"revaluation","159","777079","0.0-4.0-2.0-0.20","spark_pilot_norest","10520","5","7","Male","","false","","","","","[981.8000000715256]","./assets/img/canyon/catch/5.jpg","[""spaceBar""]","value training","canyon","0","{""ArrowUp,ArrowLeft"":26,""ArrowUp,ArrowRight"":10,""ArrowDown,ArrowLeft"":5,""ArrowDown,ArrowRight"":17}","true","spaceBar","true","original","1","40","","",""
"html-keyboard-response","160","777583","0.0-4.0-2.0-1.20","spark_pilot_norest","10520","5","7","Male","","","","","","","null","<div style=""font-size:60px;"">+</div>","null","fixation","","","","","","","","","41","","",""
"revaluation","161","783607","0.0-4.0-2.0-0.21","spark_pilot_norest","10520","5","7","Male","","false","","","","","[712.3000000715256,340.5]","./assets/img/canyon/memory/38.jpg","[""ArrowUp"",""ArrowLeft""]","value training","canyon","26","{""ArrowUp,ArrowLeft"":26,""ArrowUp,ArrowRight"":10,""ArrowDown,ArrowLeft"":5,""ArrowDown,ArrowRight"":17}","true","ArrowUp,ArrowLeft","false","original","1","42","","",""
"html-keyboard-response","162","784110","0.0-4.0-2.0-1.21","spark_pilot_norest","10520","5","7","Male","","","","","","","null","<div style=""font-size:60px;"">+</div>","null","fixation","","","","","","","","","43","","",""
"revaluation","163","788126","0.0-4.0-2.0-0.22","spark_pilot_norest","10520","5","7","Male","","false","","","","","[931.1000000238419]","./assets/img/canyon/catch/3.jpg","[""spaceBar""]","value training","canyon","0","{""ArrowUp,ArrowLeft"":26,""ArrowUp,ArrowRight"":10,""ArrowDown,ArrowLeft"":5,""ArrowDown,ArrowRight"":17}","true","spaceBar","true","original","1","44","","",""
"html-keyboard-response","164","788630","0.0-4.0-2.0-1.22","spark_pilot_norest","10520","5","7","Male","","","","","","","null","<div style=""font-size:60px;"">+</div>","null","fixation","","","","","","","","","45","","",""
"revaluation","165","792646","0.0-4.0-2.0-0.23","spark_pilot_norest","10520","5","7","Male","","false","","","","","[1054]","./assets/img/canyon/catch/0.jpg","[""spaceBar""]","value training","canyon","0","{""ArrowUp,ArrowLeft"":26,""ArrowUp,ArrowRight"":10,""ArrowDown,ArrowLeft"":5,""ArrowDown,ArrowRight"":17}","true","spaceBar","true","original","1","46","","",""
"html-keyboard-response","166","793149","0.0-4.0-2.0-1.23","spark_pilot_norest","10520","5","7","Male","","","","","","","null","<div style=""font-size:60px;"">+</div>","null","fixation","","","","","","","","","47","","",""
"revaluation","167","799173","0.0-4.0-2.0-0.24","spark_pilot_norest","10520","5","7","Male","","false","","","","","[596.7999999523163,556.5]","./assets/img/canyon/memory/8.jpg","[""ArrowUp"",""ArrowLeft""]","value training","canyon","26","{""ArrowUp,ArrowLeft"":26,""ArrowUp,ArrowRight"":10,""ArrowDown,ArrowLeft"":5,""ArrowDown,ArrowRight"":17}","true","ArrowUp,ArrowLeft","false","original","1","48","","",""
"html-keyboard-response","168","799677","0.0-4.0-2.0-1.24","spark_pilot_norest","10520","5","7","Male","","","","","","","null","<div style=""font-size:60px;"">+</div>","null","fixation","","","","","","","","","49","","",""
"revaluation","169","805701","0.0-4.0-2.0-0.25","spark_pilot_norest","10520","5","7","Male","","false","","","","","[1263.7000000476837,648.4000000953674]","./assets/img/canyon/memory/15.jpg","[""ArrowUp"",""ArrowLeft""]","value training","canyon","26","{""ArrowUp,ArrowLeft"":26,""ArrowUp,ArrowRight"":10,""ArrowDown,ArrowLeft"":5,""ArrowDown,ArrowRight"":17}","true","ArrowUp,ArrowLeft","false","original","1","50","","",""
"html-keyboard-response","170","806205","0.0-4.0-2.0-1.25","spark_pilot_norest","10520","5","7","Male","","","","","","","null","<div style=""font-size:60px;"">+</div>","null","fixation","","","","","","","","","51","","",""
"revaluation","171","812229","0.0-4.0-2.0-0.26","spark_pilot_norest","10520","5","7","Male","","false","","","","","[1061.2000000476837,373.89999997615814]","./assets/img/canyon/memory/18.jpg","[""ArrowUp"",""ArrowLeft""]","value training","canyon","26","{""ArrowUp,ArrowLeft"":26,""ArrowUp,ArrowRight"":10,""ArrowDown,ArrowLeft"":5,""ArrowDown,ArrowRight"":17}","true","ArrowUp,ArrowLeft","false","original","1","52","","",""
"html-keyboard-response","172","812733","0.0-4.0-2.0-1.26","spark_pilot_norest","10520","5","7","Male","","","","","","","null","<div style=""font-size:60px;"">+</div>","null","fixation","","","","","","","","","53","","",""
"revaluation","173","818757","0.0-4.0-2.0-0.27","spark_pilot_norest","10520","5","7","Male","","false","","","","","[723.8000000715256,391.39999997615814]","./assets/img/canyon/memory/23.jpg","[""ArrowUp"",""ArrowLeft""]","value training","canyon","26","{""ArrowUp,ArrowLeft"":26,""ArrowUp,ArrowRight"":10,""ArrowDown,ArrowLeft"":5,""ArrowDown,ArrowRight"":17}","true","ArrowUp,ArrowLeft","false","original","1","54","","",""
"html-keyboard-response","174","819260","0.0-4.0-2.0-1.27","spark_pilot_norest","10520","5","7","Male","","","","","","","null","<div style=""font-size:60px;"">+</div>","null","fixation","","","","","","","","","55","","",""
"revaluation","175","825285","0.0-4.0-2.0-0.28","spark_pilot_norest","10520","5","7","Male","","false","","","","","[619.5,477]","./assets/img/canyon/memory/5.jpg","[""ArrowUp"",""ArrowLeft""]","value training","canyon","26","{""ArrowUp,ArrowLeft"":26,""ArrowUp,ArrowRight"":10,""ArrowDown,ArrowLeft"":5,""ArrowDown,ArrowRight"":17}","true","ArrowUp,ArrowLeft","false","original","1","56","","",""
"html-keyboard-response","176","825789","0.0-4.0-2.0-1.28","spark_pilot_norest","10520","5","7","Male","","","","","","","null","<div style=""font-size:60px;"">+</div>","null","fixation","","","","","","","","","57","","",""
"revaluation","177","831812","0.0-4.0-2.0-0.29","spark_pilot_norest","10520","5","7","Male","","false","","","","","[839,584.9000000953674]","./assets/img/canyon/memory/3.jpg","[""ArrowUp"",""ArrowLeft""]","value training","canyon","26","{""ArrowUp,ArrowLeft"":26,""ArrowUp,ArrowRight"":10,""ArrowDown,ArrowLeft"":5,""ArrowDown,ArrowRight"":17}","true","ArrowUp,ArrowLeft","false","original","1","58","","",""
"html-keyboard-response","178","832316","0.0-4.0-2.0-1.29","spark_pilot_norest","10520","5","7","Male","","","","","","","null","<div style=""font-size:60px;"">+</div>","null","fixation","","","","","","","","","59","","",""
"revaluation","179","836331","0.0-4.0-2.0-0.30","spark_pilot_norest","10520","5","7","Male","","false","","","","","[648]","./assets/img/canyon/catch/4.jpg","[""spaceBar""]","value training","canyon","0","{""ArrowUp,ArrowLeft"":26,""ArrowUp,ArrowRight"":10,""ArrowDown,ArrowLeft"":5,""ArrowDown,ArrowRight"":17}","true","spaceBar","true","original","1","60","","",""
"html-keyboard-response","180","836835","0.0-4.0-2.0-1.30","spark_pilot_norest","10520","5","7","Male","","","","","","","null","<div style=""font-size:60px;"">+</div>","null","fixation","","","","","","","","","61","","",""
"revaluation","181","842860","0.0-4.0-2.0-0.31","spark_pilot_norest","10520","5","7","Male","","false","","","","","[710.7000000476837,356.39999997615814]","./assets/img/canyon/memory/19.jpg","[""ArrowUp"",""ArrowLeft""]","value training","canyon","26","{""ArrowUp,ArrowLeft"":26,""ArrowUp,ArrowRight"":10,""ArrowDown,ArrowLeft"":5,""ArrowDown,ArrowRight"":17}","true","ArrowUp,ArrowLeft","false","original","1","62","","",""
"html-keyboard-response","182","843364","0.0-4.0-2.0-1.31","spark_pilot_norest","10520","5","7","Male","","","","","","","null","<div style=""font-size:60px;"">+</div>","null","fixation","","","","","","","","","63","","",""
"revaluation","183","849387","0.0-4.0-2.0-0.32","spark_pilot_norest","10520","5","7","Male","","true","","","","","[609.1999999284744]","./assets/img/canyon/memory/34.jpg","[""ArrowUp""]","value training","canyon","-5","{""ArrowUp,ArrowLeft"":26,""ArrowUp,ArrowRight"":10,""ArrowDown,ArrowLeft"":5,""ArrowDown,ArrowRight"":17}","false","ArrowUp","false","original","1","64","","",""
"html-keyboard-response","184","849891","0.0-4.0-2.0-1.32","spark_pilot_norest","10520","5","7","Male","","","","","","","null","<div style=""font-size:60px;"">+</div>","null","fixation","","","","","","","","","65","","",""
"revaluation","185","855915","0.0-4.0-2.0-0.33","spark_pilot_norest","10520","5","7","Male","","false","","","","","[1159.7000000476837,337.5]","./assets/img/canyon/memory/25.jpg","[""ArrowUp"",""ArrowLeft""]","value training","canyon","26","{""ArrowUp,ArrowLeft"":26,""ArrowUp,ArrowRight"":10,""ArrowDown,ArrowLeft"":5,""ArrowDown,ArrowRight"":17}","true","ArrowUp,ArrowLeft","false","original","1","66","","",""
"html-keyboard-response","186","856419","0.0-4.0-2.0-1.33","spark_pilot_norest","10520","5","7","Male","","","","","","","null","<div style=""font-size:60px;"">+</div>","null","fixation","","","","","","","","","67","","",""
"revaluation","187","860435","0.0-4.0-2.0-0.34","spark_pilot_norest","10520","5","7","Male","","false","","","","","[1045.5]","./assets/img/canyon/catch/6.jpg","[""spaceBar""]","value training","canyon","0","{""ArrowUp,ArrowLeft"":26,""ArrowUp,ArrowRight"":10,""ArrowDown,ArrowLeft"":5,""ArrowDown,ArrowRight"":17}","true","spaceBar","true","original","1","68","","",""
"html-keyboard-response","188","860939","0.0-4.0-2.0-1.34","spark_pilot_norest","10520","5","7","Male","","","","","","","null","<div style=""font-size:60px;"">+</div>","null","fixation","","","","","","","","","69","","",""
"revaluation","189","866963","0.0-4.0-2.0-0.35","spark_pilot_norest","10520","5","7","Male","","false","","","","","[803.5,22]","./assets/img/canyon/memory/14.jpg","[""ArrowUp"",""ArrowLeft""]","value training","canyon","26","{""ArrowUp,ArrowLeft"":26,""ArrowUp,ArrowRight"":10,""ArrowDown,ArrowLeft"":5,""ArrowDown,ArrowRight"":17}","true","ArrowUp,ArrowLeft","false","original","1","70","","",""
"html-keyboard-response","190","867466","0.0-4.0-2.0-1.35","spark_pilot_norest","10520","5","7","Male","","","","","","","null","<div style=""font-size:60px;"">+</div>","null","fixation","","","","","","","","","71","","",""
"revaluation","191","873490","0.0-4.0-2.0-0.36","spark_pilot_norest","10520","5","7","Male","","false","","","","","[875.6000000238419,256.39999997615814]","./assets/img/canyon/memory/0.jpg","[""ArrowUp"",""ArrowLeft""]","value training","canyon","26","{""ArrowUp,ArrowLeft"":26,""ArrowUp,ArrowRight"":10,""ArrowDown,ArrowLeft"":5,""ArrowDown,ArrowRight"":17}","true","ArrowUp,ArrowLeft","false","original","1","72","","",""
"html-keyboard-response","192","873994","0.0-4.0-2.0-1.36","spark_pilot_norest","10520","5","7","Male","","","","","","","null","<div style=""font-size:60px;"">+</div>","null","fixation","","","","","","","","","73","","",""
"revaluation","193","880018","0.0-4.0-2.0-0.37","spark_pilot_norest","10520","5","7","Male","","false","","","","","[692.1000000238419,321.3000000715256]","./assets/img/canyon/memory/9.jpg","[""ArrowUp"",""ArrowLeft""]","value training","canyon","26","{""ArrowUp,ArrowLeft"":26,""ArrowUp,ArrowRight"":10,""ArrowDown,ArrowLeft"":5,""ArrowDown,ArrowRight"":17}","true","ArrowUp,ArrowLeft","false","original","1","74","","",""
"html-keyboard-response","194","880522","0.0-4.0-2.0-1.37","spark_pilot_norest","10520","5","7","Male","","","","","","","null","<div style=""font-size:60px;"">+</div>","null","fixation","","","","","","","","","75","","",""
"revaluation","195","884537","0.0-4.0-2.0-0.38","spark_pilot_norest","10520","5","7","Male","","false","","","","","[869.6000000238419]","./assets/img/canyon/catch/1.jpg","[""spaceBar""]","value training","canyon","0","{""ArrowUp,ArrowLeft"":26,""ArrowUp,ArrowRight"":10,""ArrowDown,ArrowLeft"":5,""ArrowDown,ArrowRight"":17}","true","spaceBar","true","original","1","76","","",""
"html-keyboard-response","196","885041","0.0-4.0-2.0-1.38","spark_pilot_norest","10520","5","7","Male","","","","","","","null","<div style=""font-size:60px;"">+</div>","null","fixation","","","","","","","","","77","","",""
"revaluation","197","891065","0.0-4.0-2.0-0.39","spark_pilot_norest","10520","5","7","Male","","false","","","","","[696.7999999523163,101.80000007152557]","./assets/img/canyon/memory/9.jpg","[""ArrowUp"",""ArrowLeft""]","value training","canyon","26","{""ArrowUp,ArrowLeft"":26,""ArrowUp,ArrowRight"":10,""ArrowDown,ArrowLeft"":5,""ArrowDown,ArrowRight"":17}","true","ArrowUp,ArrowLeft","false","original","1","78","","",""
"html-keyboard-response","198","891569","0.0-4.0-2.0-1.39","spark_pilot_norest","10520","5","7","Male","","","","","","","null","<div style=""font-size:60px;"">+</div>","null","fixation","","","","","","","","","79","","",""
"revaluation","199","895585","0.0-4.0-2.0-0.40","spark_pilot_norest","10520","5","7","Male","","false","","","","","[1224.2999999523163]","./assets/img/canyon/catch/2.jpg","[""spaceBar""]","value training","canyon","0","{""ArrowUp,ArrowLeft"":26,""ArrowUp,ArrowRight"":10,""ArrowDown,ArrowLeft"":5,""ArrowDown,ArrowRight"":17}","true","spaceBar","true","original","1","80","","",""
"html-keyboard-response","200","896089","0.0-4.0-2.0-1.40","spark_pilot_norest","10520","5","7","Male","","","","","","","null","<div style=""font-size:60px;"">+</div>","null","fixation","","","","","","","","","81","","",""
"revaluation","201","902111","0.0-4.0-2.0-0.41","spark_pilot_norest","10520","5","7","Male","","false","","","","","[894,466.60000002384186]","./assets/img/canyon/memory/25.jpg","[""ArrowUp"",""ArrowLeft""]","value training","canyon","26","{""ArrowUp,ArrowLeft"":26,""ArrowUp,ArrowRight"":10,""ArrowDown,ArrowLeft"":5,""ArrowDown,ArrowRight"":17}","true","ArrowUp,ArrowLeft","false","original","1","82","","",""
"html-keyboard-response","202","902616","0.0-4.0-2.0-1.41","spark_pilot_norest","10520","5","7","Male","","","","","","","null","<div style=""font-size:60px;"">+</div>","null","fixation","","","","","","","","","83","","",""
"revaluation","203","908641","0.0-4.0-2.0-0.42","spark_pilot_norest","10520","5","7","Male","","false","","","","","[1157.3000000715256,344]","./assets/img/canyon/memory/3.jpg","[""ArrowUp"",""ArrowLeft""]","value training","canyon","26","{""ArrowUp,ArrowLeft"":26,""ArrowUp,ArrowRight"":10,""ArrowDown,ArrowLeft"":5,""ArrowDown,ArrowRight"":17}","true","ArrowUp,ArrowLeft","false","original","1","84","","",""
"html-keyboard-response","204","909143","0.0-4.0-2.0-1.42","spark_pilot_norest","10520","5","7","Male","","","","","","","null","<div style=""font-size:60px;"">+</div>","null","fixation","","","","","","","","","85","","",""
"revaluation","205","915168","0.0-4.0-2.0-0.43","spark_pilot_norest","10520","5","7","Male","","false","","","","","[733.2999999523163,196.89999997615814]","./assets/img/canyon/memory/22.jpg","[""ArrowUp"",""ArrowLeft""]","value training","canyon","26","{""ArrowUp,ArrowLeft"":26,""ArrowUp,ArrowRight"":10,""ArrowDown,ArrowLeft"":5,""ArrowDown,ArrowRight"":17}","true","ArrowUp,ArrowLeft","false","original","1","86","","",""
"html-keyboard-response","206","915670","0.0-4.0-2.0-1.43","spark_pilot_norest","10520","5","7","Male","","","","","","","null","<div style=""font-size:60px;"">+</div>","null","fixation","","","","","","","","","87","","",""
"revaluation","207","921696","0.0-4.0-2.0-0.44","spark_pilot_norest","10520","5","7","Male","","false","","","","","[1350.2999999523163,239.80000007152557]","./assets/img/canyon/memory/17.jpg","[""ArrowUp"",""ArrowLeft""]","value training","canyon","26","{""ArrowUp,ArrowLeft"":26,""ArrowUp,ArrowRight"":10,""ArrowDown,ArrowLeft"":5,""ArrowDown,ArrowRight"":17}","true","ArrowUp,ArrowLeft","false","original","1","88","","",""
"html-keyboard-response","208","922198","0.0-4.0-2.0-1.44","spark_pilot_norest","10520","5","7","Male","","","","","","","null","<div style=""font-size:60px;"">+</div>","null","fixation","","","","","","","","","89","","",""
"revaluation","209","928224","0.0-4.0-2.0-0.45","spark_pilot_norest","10520","5","7","Male","","false","","","","","[846.0999999046326,98.39999997615814]","./assets/img/canyon/memory/41.jpg","[""ArrowUp"",""ArrowLeft""]","value training","canyon","26","{""ArrowUp,ArrowLeft"":26,""ArrowUp,ArrowRight"":10,""ArrowDown,ArrowLeft"":5,""ArrowDown,ArrowRight"":17}","true","ArrowUp,ArrowLeft","false","original","1","90","","",""
"html-keyboard-response","210","928727","0.0-4.0-2.0-1.45","spark_pilot_norest","10520","5","7","Male","","","","","","","null","<div style=""font-size:60px;"">+</div>","null","fixation","","","","","","","","","91","","",""
"revaluation","211","934752","0.0-4.0-2.0-0.46","spark_pilot_norest","10520","5","7","Male","","false","","","","","[644.1000000238419,332.90000009536743]","./assets/img/canyon/memory/38.jpg","[""ArrowUp"",""ArrowLeft""]","value training","canyon","26","{""ArrowUp,ArrowLeft"":26,""ArrowUp,ArrowRight"":10,""ArrowDown,ArrowLeft"":5,""ArrowDown,ArrowRight"":17}","true","ArrowUp,ArrowLeft","false","original","1","92","","",""
"html-keyboard-response","212","935255","0.0-4.0-2.0-1.46","spark_pilot_norest","10520","5","7","Male","","","","","","","null","<div style=""font-size:60px;"">+</div>","null","fixation","","","","","","","","","93","","",""
"revaluation","213","939271","0.0-4.0-2.0-0.47","spark_pilot_norest","10520","5","7","Male","","false","","","","","[884.9000000953674]","./assets/img/canyon/catch/7.jpg","[""spaceBar""]","value training","canyon","0","{""ArrowUp,ArrowLeft"":26,""ArrowUp,ArrowRight"":10,""ArrowDown,ArrowLeft"":5,""ArrowDown,ArrowRight"":17}","true","spaceBar","true","original","1","94","","",""
"html-keyboard-response","214","939775","0.0-4.0-2.0-1.47","spark_pilot_norest","10520","5","7","Male","","","","","","","null","<div style=""font-size:60px;"">+</div>","null","fixation","","","","","","","","","95","","",""
"revaluation","215","945799","0.0-4.0-2.0-0.48","spark_pilot_norest","10520","5","7","Male","","false","","","","","[672.6000000238419,523.0999999046326]","./assets/img/canyon/memory/7.jpg","[""ArrowUp"",""ArrowLeft""]","value training","canyon","26","{""ArrowUp,ArrowLeft"":26,""ArrowUp,ArrowRight"":10,""ArrowDown,ArrowLeft"":5,""ArrowDown,ArrowRight"":17}","true","ArrowUp,ArrowLeft","false","original","1","96","","",""
"html-keyboard-response","216","946302","0.0-4.0-2.0-1.48","spark_pilot_norest","10520","5","7","Male","","","","","","","null","<div style=""font-size:60px;"">+</div>","null","fixation","","","","","","","","","97","","",""
"revaluation","217","952325","0.0-4.0-2.0-0.49","spark_pilot_norest","10520","5","7","Male","","false","","","","","[709.5,316.3000000715256]","./assets/img/canyon/memory/19.jpg","[""ArrowUp"",""ArrowLeft""]","value training","canyon","26","{""ArrowUp,ArrowLeft"":26,""ArrowUp,ArrowRight"":10,""ArrowDown,ArrowLeft"":5,""ArrowDown,ArrowRight"":17}","true","ArrowUp,ArrowLeft","false","original","1","98","","",""
"html-keyboard-response","218","952830","0.0-4.0-2.0-1.49","spark_pilot_norest","10520","5","7","Male","","","","","","","null","<div style=""font-size:60px;"">+</div>","null","fixation","","","","","","","","","99","","",""
"learning-instructions","219","974163","0.0-4.0-3.0-0.0","spark_pilot_norest","10520","5","7","Male","","","","","","","8390.5","<p> Now, you will travel with a friend who will choose whether you go up or down first. </p>
            <p> On these turns, you will just see the animal that they found. You will still get to choose which chest to search for treasure.</p>","","instructions","","","","","","","","","","","",""
"revaluation","220","978181","0.0-4.0-4.0-0.0","spark_pilot_norest","10520","5","7","Male","","false","","","","","[816.1999999284744]","./assets/img/canyon/animals/lion.jpg","[""ArrowLeft""]","revaluation","canyon","26","{""ArrowUp,ArrowLeft"":26,""ArrowUp,ArrowRight"":10,""ArrowDown,ArrowLeft"":5,""ArrowDown,ArrowRight"":17}","true","ArrowUp,ArrowLeft","","original","1","0","","",""
"html-keyboard-response","221","978693","0.0-4.0-4.0-1.0","spark_pilot_norest","10520","5","7","Male","","","","","","","null","<div style=""font-size:60px;"">+</div>","null","fixation","","","","","","","","","1","","",""
"revaluation","222","982709","0.0-4.0-4.0-0.1","spark_pilot_norest","10520","5","7","Male","","false","","","","","[805.1000000238419]","./assets/img/canyon/animals/lion.jpg","[""ArrowLeft""]","revaluation","canyon","26","{""ArrowUp,ArrowLeft"":26,""ArrowUp,ArrowRight"":10,""ArrowDown,ArrowLeft"":5,""ArrowDown,ArrowRight"":17}","true","ArrowUp,ArrowLeft","","original","1","2","","",""
"html-keyboard-response","223","983211","0.0-4.0-4.0-1.1","spark_pilot_norest","10520","5","7","Male","","","","","","","null","<div style=""font-size:60px;"">+</div>","null","fixation","","","","","","","","","3","","",""
"revaluation","224","987229","0.0-4.0-4.0-0.2","spark_pilot_norest","10520","5","7","Male","","false","","","","","[717]","./assets/img/canyon/animals/giraffe.jpg","[""ArrowRight""]","revaluation","canyon","17","{""ArrowUp,ArrowLeft"":26,""ArrowUp,ArrowRight"":10,""ArrowDown,ArrowLeft"":5,""ArrowDown,ArrowRight"":17}","true","ArrowDown,ArrowRight","","original","1","4","","",""
"html-keyboard-response","225","987733","0.0-4.0-4.0-1.2","spark_pilot_norest","10520","5","7","Male","","","","","","","null","<div style=""font-size:60px;"">+</div>","null","fixation","","","","","","","","","5","","",""
"revaluation","226","991748","0.0-4.0-4.0-0.3","spark_pilot_norest","10520","5","7","Male","","false","","","","","[1033.6000000238419]","./assets/img/canyon/animals/giraffe.jpg","[""ArrowRight""]","revaluation","canyon","17","{""ArrowUp,ArrowLeft"":26,""ArrowUp,ArrowRight"":10,""ArrowDown,ArrowLeft"":5,""ArrowDown,ArrowRight"":17}","true","ArrowDown,ArrowRight","","original","1","6","","",""
"html-keyboard-response","227","992252","0.0-4.0-4.0-1.3","spark_pilot_norest","10520","5","7","Male","","","","","","","null","<div style=""font-size:60px;"">+</div>","null","fixation","","","","","","","","","7","","",""
"revaluation","228","996268","0.0-4.0-4.0-0.4","spark_pilot_norest","10520","5","7","Male","","false","","","","","[1387.0999999046326]","./assets/img/canyon/animals/lion.jpg","[""ArrowLeft""]","revaluation","canyon","26","{""ArrowUp,ArrowLeft"":26,""ArrowUp,ArrowRight"":10,""ArrowDown,ArrowLeft"":5,""ArrowDown,ArrowRight"":17}","true","ArrowUp,ArrowLeft","","original","1","8","","",""
"html-keyboard-response","229","996772","0.0-4.0-4.0-1.4","spark_pilot_norest","10520","5","7","Male","","","","","","","null","<div style=""font-size:60px;"">+</div>","null","fixation","","","","","","","","","9","","",""
"revaluation","230","1000788","0.0-4.0-4.0-0.5","spark_pilot_norest","10520","5","7","Male","","false","","","","","[528.3999999761581]","./assets/img/canyon/animals/lion.jpg","[""ArrowLeft""]","revaluation","canyon","26","{""ArrowUp,ArrowLeft"":26,""ArrowUp,ArrowRight"":10,""ArrowDown,ArrowLeft"":5,""ArrowDown,ArrowRight"":17}","true","ArrowUp,ArrowLeft","","original","1","10","","",""
"html-keyboard-response","231","1001292","0.0-4.0-4.0-1.5","spark_pilot_norest","10520","5","7","Male","","","","","","","null","<div style=""font-size:60px;"">+</div>","null","fixation","","","","","","","","","11","","",""
"revaluation","232","1005308","0.0-4.0-4.0-0.6","spark_pilot_norest","10520","5","7","Male","","false","","","","","[790.5]","./assets/img/canyon/animals/lion.jpg","[""ArrowLeft""]","revaluation","canyon","26","{""ArrowUp,ArrowLeft"":26,""ArrowUp,ArrowRight"":10,""ArrowDown,ArrowLeft"":5,""ArrowDown,ArrowRight"":17}","true","ArrowUp,ArrowLeft","","original","1","12","","",""
"html-keyboard-response","233","1005811","0.0-4.0-4.0-1.6","spark_pilot_norest","10520","5","7","Male","","","","","","","null","<div style=""font-size:60px;"">+</div>","null","fixation","","","","","","","","","13","","",""
"revaluation","234","1009827","0.0-4.0-4.0-0.7","spark_pilot_norest","10520","5","7","Male","","false","","","","","[691.6999999284744]","./assets/img/canyon/animals/giraffe.jpg","[""ArrowRight""]","revaluation","canyon","17","{""ArrowUp,ArrowLeft"":26,""ArrowUp,ArrowRight"":10,""ArrowDown,ArrowLeft"":5,""ArrowDown,ArrowRight"":17}","true","ArrowDown,ArrowRight","","original","1","14","","",""
"html-keyboard-response","235","1010331","0.0-4.0-4.0-1.7","spark_pilot_norest","10520","5","7","Male","","","","","","","null","<div style=""font-size:60px;"">+</div>","null","fixation","","","","","","","","","15","","",""
"revaluation","236","1014347","0.0-4.0-4.0-0.8","spark_pilot_norest","10520","5","7","Male","","false","","","","","[716]","./assets/img/canyon/animals/lion.jpg","[""ArrowLeft""]","revaluation","canyon","26","{""ArrowUp,ArrowLeft"":26,""ArrowUp,ArrowRight"":10,""ArrowDown,ArrowLeft"":5,""ArrowDown,ArrowRight"":17}","true","ArrowUp,ArrowLeft","","original","1","16","","",""
"html-keyboard-response","237","1014851","0.0-4.0-4.0-1.8","spark_pilot_norest","10520","5","7","Male","","","","","","","null","<div style=""font-size:60px;"">+</div>","null","fixation","","","","","","","","","17","","",""
"revaluation","238","1018867","0.0-4.0-4.0-0.9","spark_pilot_norest","10520","5","7","Male","","false","","","","","[799.8999999761581]","./assets/img/canyon/animals/lion.jpg","[""ArrowLeft""]","revaluation","canyon","26","{""ArrowUp,ArrowLeft"":26,""ArrowUp,ArrowRight"":10,""ArrowDown,ArrowLeft"":5,""ArrowDown,ArrowRight"":17}","true","ArrowUp,ArrowLeft","","original","1","18","","",""
"html-keyboard-response","239","1019371","0.0-4.0-4.0-1.9","spark_pilot_norest","10520","5","7","Male","","","","","","","null","<div style=""font-size:60px;"">+</div>","null","fixation","","","","","","","","","19","","",""
"revaluation","240","1023387","0.0-4.0-4.0-0.10","spark_pilot_norest","10520","5","7","Male","","false","","","","","[783.8000000715256]","./assets/img/canyon/animals/giraffe.jpg","[""ArrowRight""]","revaluation","canyon","17","{""ArrowUp,ArrowLeft"":26,""ArrowUp,ArrowRight"":10,""ArrowDown,ArrowLeft"":5,""ArrowDown,ArrowRight"":17}","true","ArrowDown,ArrowRight","","original","1","20","","",""
"html-keyboard-response","241","1023891","0.0-4.0-4.0-1.10","spark_pilot_norest","10520","5","7","Male","","","","","","","null","<div style=""font-size:60px;"">+</div>","null","fixation","","","","","","","","","21","","",""
"revaluation","242","1027906","0.0-4.0-4.0-0.11","spark_pilot_norest","10520","5","7","Male","","false","","","","","[850.7000000476837]","./assets/img/canyon/animals/giraffe.jpg","[""ArrowRight""]","revaluation","canyon","17","{""ArrowUp,ArrowLeft"":26,""ArrowUp,ArrowRight"":10,""ArrowDown,ArrowLeft"":5,""ArrowDown,ArrowRight"":17}","true","ArrowDown,ArrowRight","","original","1","22","","",""
"html-keyboard-response","243","1028410","0.0-4.0-4.0-1.11","spark_pilot_norest","10520","5","7","Male","","","","","","","null","<div style=""font-size:60px;"">+</div>","null","fixation","","","","","","","","","23","","",""
"revaluation","244","1032427","0.0-4.0-4.0-0.12","spark_pilot_norest","10520","5","7","Male","","false","","","","","[771.0999999046326]","./assets/img/canyon/animals/giraffe.jpg","[""ArrowRight""]","revaluation","canyon","17","{""ArrowUp,ArrowLeft"":26,""ArrowUp,ArrowRight"":10,""ArrowDown,ArrowLeft"":5,""ArrowDown,ArrowRight"":17}","true","ArrowDown,ArrowRight","","original","1","24","","",""
"html-keyboard-response","245","1032930","0.0-4.0-4.0-1.12","spark_pilot_norest","10520","5","7","Male","","","","","","","null","<div style=""font-size:60px;"">+</div>","null","fixation","","","","","","","","","25","","",""
"revaluation","246","1036946","0.0-4.0-4.0-0.13","spark_pilot_norest","10520","5","7","Male","","false","","","","","[648.1000000238419]","./assets/img/canyon/animals/lion.jpg","[""ArrowLeft""]","revaluation","canyon","26","{""ArrowUp,ArrowLeft"":26,""ArrowUp,ArrowRight"":10,""ArrowDown,ArrowLeft"":5,""ArrowDown,ArrowRight"":17}","true","ArrowUp,ArrowLeft","","original","1","26","","",""
"html-keyboard-response","247","1037450","0.0-4.0-4.0-1.13","spark_pilot_norest","10520","5","7","Male","","","","","","","null","<div style=""font-size:60px;"">+</div>","null","fixation","","","","","","","","","27","","",""
"revaluation","248","1041465","0.0-4.0-4.0-0.14","spark_pilot_norest","10520","5","7","Male","","false","","","","","[1091.5]","./assets/img/canyon/animals/lion.jpg","[""ArrowLeft""]","revaluation","canyon","26","{""ArrowUp,ArrowLeft"":26,""ArrowUp,ArrowRight"":10,""ArrowDown,ArrowLeft"":5,""ArrowDown,ArrowRight"":17}","true","ArrowUp,ArrowLeft","","original","1","28","","",""
"html-keyboard-response","249","1041970","0.0-4.0-4.0-1.14","spark_pilot_norest","10520","5","7","Male","","","","","","","null","<div style=""font-size:60px;"">+</div>","null","fixation","","","","","","","","","29","","",""
"revaluation","250","1045986","0.0-4.0-4.0-0.15","spark_pilot_norest","10520","5","7","Male","","false","","","","","[977.6000000238419]","./assets/img/canyon/animals/giraffe.jpg","[""ArrowRight""]","revaluation","canyon","17","{""ArrowUp,ArrowLeft"":26,""ArrowUp,ArrowRight"":10,""ArrowDown,ArrowLeft"":5,""ArrowDown,ArrowRight"":17}","true","ArrowDown,ArrowRight","","original","1","30","","",""
"html-keyboard-response","251","1046489","0.0-4.0-4.0-1.15","spark_pilot_norest","10520","5","7","Male","","","","","","","null","<div style=""font-size:60px;"">+</div>","null","fixation","","","","","","","","","31","","",""
"revaluation","252","1050504","0.0-4.0-4.0-0.16","spark_pilot_norest","10520","5","7","Male","","false","","","","","[636.7000000476837]","./assets/img/canyon/animals/giraffe.jpg","[""ArrowRight""]","revaluation","canyon","17","{""ArrowUp,ArrowLeft"":26,""ArrowUp,ArrowRight"":10,""ArrowDown,ArrowLeft"":5,""ArrowDown,ArrowRight"":17}","true","ArrowDown,ArrowRight","","original","1","32","","",""
"html-keyboard-response","253","1051009","0.0-4.0-4.0-1.16","spark_pilot_norest","10520","5","7","Male","","","","","","","null","<div style=""font-size:60px;"">+</div>","null","fixation","","","","","","","","","33","","",""
"revaluation","254","1055025","0.0-4.0-4.0-0.17","spark_pilot_norest","10520","5","7","Male","","false","","","","","[465.5]","./assets/img/canyon/animals/giraffe.jpg","[""ArrowRight""]","revaluation","canyon","17","{""ArrowUp,ArrowLeft"":26,""ArrowUp,ArrowRight"":10,""ArrowDown,ArrowLeft"":5,""ArrowDown,ArrowRight"":17}","true","ArrowDown,ArrowRight","","original","1","34","","",""
"html-keyboard-response","255","1055529","0.0-4.0-4.0-1.17","spark_pilot_norest","10520","5","7","Male","","","","","","","null","<div style=""font-size:60px;"">+</div>","null","fixation","","","","","","","","","35","","",""
"learning-instructions","256","1063688","0.0-4.0-5.0-0.0","spark_pilot_norest","10520","5","7","Male","","","","","","","null","<p> You have almost finished this part of the game! </p>
            <p> We are going to ask you to make a few more choices. </p>","","instructions","","","","","","","","","","","",""
"learning-instructions","257","1079664","0.0-4.0-5.0-0.1","spark_pilot_norest","10520","5","7","Male","","","","","","","null","<p> First, you need to decide whether to go up or down. When you see each picture, use the arrow keys to make your choice. </p>
            <p><b>You will not see which animal you found, but try to get to the one that will give you the most treasure.</b></p>","","instructions","","","","","","","","","","","",""
"html-keyboard-response","258","1080671","0.0-4.0-6.0-0.0","spark_pilot_norest","10520","5","7","Male","","","","","","","null","<div style=""font-size:100px;color:red;"">Starting in...</div>","null","","","","","","","","","","","","",""
"html-keyboard-response","259","1081679","0.0-4.0-6.0-1.0","spark_pilot_norest","10520","5","7","Male","","","","","","","null","<div style=""font-size:200px;color:red;"">3</div>","null","","","","","","","","","","","","",""
"html-keyboard-response","260","1082688","0.0-4.0-6.0-2.0","spark_pilot_norest","10520","5","7","Male","","","","","","","null","<div style=""font-size:200px;color:red;"">2</div>","null","","","","","","","","","","","","",""
"html-keyboard-response","261","1083695","0.0-4.0-6.0-3.0","spark_pilot_norest","10520","5","7","Male","","","","","","","null","<div style=""font-size:200px;color:red;"">1</div>","null","","","","","","","","","","","","",""
"revaluation","262","1084504","0.0-4.0-7.0-0.0","spark_pilot_norest","10520","5","7","Male","","false","","","","","[807.8000000715256]","./assets/img/canyon/test/3.jpg","[""ArrowUp""]","first stage test","canyon","0","{""ArrowUp,ArrowLeft"":26,""ArrowUp,ArrowRight"":10,""ArrowDown,ArrowLeft"":5,""ArrowDown,ArrowRight"":17}","true","ArrowUp","false","original","1","","","",""
"html-keyboard-response","263","1085007","0.0-4.0-7.0-1.0","spark_pilot_norest","10520","5","7","Male","","","","","","","null","<div style=""font-size:60px;"">+</div>","null","fixation","","","","","","","","","","","",""
"revaluation","264","1086030","0.0-4.0-7.0-0.1","spark_pilot_norest","10520","5","7","Male","","false","","","","","[1021.6000000238419]","./assets/img/canyon/test/1.jpg","[""ArrowUp""]","first stage test","canyon","0","{""ArrowUp,ArrowLeft"":26,""ArrowUp,ArrowRight"":10,""ArrowDown,ArrowLeft"":5,""ArrowDown,ArrowRight"":17}","true","ArrowUp","false","original","1","","","",""
"html-keyboard-response","265","1086536","0.0-4.0-7.0-1.1","spark_pilot_norest","10520","5","7","Male","","","","","","","null","<div style=""font-size:60px;"">+</div>","null","fixation","","","","","","","","","","","",""
"revaluation","266","1087233","0.0-4.0-7.0-0.2","spark_pilot_norest","10520","5","7","Male","","false","","","","","[695.2999999523163]","./assets/img/canyon/test/2.jpg","[""ArrowUp""]","first stage test","canyon","0","{""ArrowUp,ArrowLeft"":26,""ArrowUp,ArrowRight"":10,""ArrowDown,ArrowLeft"":5,""ArrowDown,ArrowRight"":17}","true","ArrowUp","false","original","1","","","",""
"html-keyboard-response","267","1087735","0.0-4.0-7.0-1.2","spark_pilot_norest","10520","5","7","Male","","","","","","","null","<div style=""font-size:60px;"">+</div>","null","fixation","","","","","","","","","","","",""
"revaluation","268","1088209","0.0-4.0-7.0-0.3","spark_pilot_norest","10520","5","7","Male","","false","","","","","[472]","./assets/img/canyon/test/0.jpg","[""ArrowDown""]","first stage test","canyon","0","{""ArrowUp,ArrowLeft"":26,""ArrowUp,ArrowRight"":10,""ArrowDown,ArrowLeft"":5,""ArrowDown,ArrowRight"":17}","false","ArrowDown","false","original","1","","","",""
"html-keyboard-response","269","1088711","0.0-4.0-7.0-1.3","spark_pilot_norest","10520","5","7","Male","","","","","","","null","<div style=""font-size:60px;"">+</div>","null","fixation","","","","","","","","","","","",""
"learning-instructions","270","1102055","0.0-4.0-8.0-0.0","spark_pilot_norest","10520","5","7","Male","","","","","","","null","<p> Now you will see the animals again and can search their chests for treasure. </p>
            <p> This time, you will not see how much treasure you earned, but you will earn more bonus money for making better choices. </p>","","instructions","","","","","","","","","","","",""
"html-keyboard-response","271","1103062","0.0-4.0-9.0-0.0","spark_pilot_norest","10520","5","7","Male","","","","","","","null","<div style=""font-size:100px;color:red;"">Starting in...</div>","null","","","","","","","","","","","","",""
"html-keyboard-response","272","1104070","0.0-4.0-9.0-1.0","spark_pilot_norest","10520","5","7","Male","","","","","","","null","<div style=""font-size:200px;color:red;"">3</div>","null","","","","","","","","","","","","",""
"html-keyboard-response","273","1105078","0.0-4.0-9.0-2.0","spark_pilot_norest","10520","5","7","Male","","","","","","","null","<div style=""font-size:200px;color:red;"">2</div>","null","","","","","","","","","","","","",""
"html-keyboard-response","274","1106086","0.0-4.0-9.0-3.0","spark_pilot_norest","10520","5","7","Male","","","","","","","null","<div style=""font-size:200px;color:red;"">1</div>","null","","","","","","","","","","","","",""
"revaluation","275","1106582","0.0-4.0-10.0-0.0","spark_pilot_norest","10520","5","7","Male","","false","","","","","[492.10000002384186]","./assets/img/canyon/animals/lion.jpg","[""ArrowLeft""]","second stage test","canyon","0","{""ArrowUp,ArrowLeft"":26,""ArrowUp,ArrowRight"":10,""ArrowDown,ArrowLeft"":5,""ArrowDown,ArrowRight"":17}","true","ArrowUp,ArrowLeft","","original","1","","","",""
"html-keyboard-response","276","1107086","0.0-4.0-10.0-1.0","spark_pilot_norest","10520","5","7","Male","","","","","","","null","<div style=""font-size:60px;"">+</div>","null","fixation","","","","","","","","","","","",""
"revaluation","277","1107565","0.0-4.0-10.0-0.1","spark_pilot_norest","10520","5","7","Male","","false","","","","","[476]","./assets/img/canyon/animals/lion.jpg","[""ArrowRight""]","second stage test","canyon","0","{""ArrowUp,ArrowLeft"":26,""ArrowUp,ArrowRight"":10,""ArrowDown,ArrowLeft"":5,""ArrowDown,ArrowRight"":17}","false","ArrowUp,ArrowRight","","original","1","","","",""
"html-keyboard-response","278","1108070","0.0-4.0-10.0-1.1","spark_pilot_norest","10520","5","7","Male","","","","","","","null","<div style=""font-size:60px;"">+</div>","null","fixation","","","","","","","","","","","",""
"revaluation","279","1108560","0.0-4.0-10.0-0.2","spark_pilot_norest","10520","5","7","Male","","false","","","","","[487.59999990463257]","./assets/img/canyon/animals/lion.jpg","[""ArrowLeft""]","second stage test","canyon","0","{""ArrowUp,ArrowLeft"":26,""ArrowUp,ArrowRight"":10,""ArrowDown,ArrowLeft"":5,""ArrowDown,ArrowRight"":17}","true","ArrowUp,ArrowLeft","","original","1","","","",""
"html-keyboard-response","280","1109062","0.0-4.0-10.0-1.2","spark_pilot_norest","10520","5","7","Male","","","","","","","null","<div style=""font-size:60px;"">+</div>","null","fixation","","","","","","","","","","","",""
"revaluation","281","1109648","0.0-4.0-10.0-0.3","spark_pilot_norest","10520","5","7","Male","","false","","","","","[582.5]","./assets/img/canyon/animals/lion.jpg","[""ArrowLeft""]","second stage test","canyon","0","{""ArrowUp,ArrowLeft"":26,""ArrowUp,ArrowRight"":10,""ArrowDown,ArrowLeft"":5,""ArrowDown,ArrowRight"":17}","true","ArrowUp,ArrowLeft","","original","1","","","",""
"html-keyboard-response","282","1110150","0.0-4.0-10.0-1.3","spark_pilot_norest","10520","5","7","Male","","","","","","","null","<div style=""font-size:60px;"">+</div>","null","fixation","","","","","","","","","","","",""
"revaluation","283","1110991","0.0-4.0-10.0-0.4","spark_pilot_norest","10520","5","7","Male","","false","","","","","[837.3000000715256]","./assets/img/canyon/animals/giraffe.jpg","[""ArrowRight""]","second stage test","canyon","0","{""ArrowUp,ArrowLeft"":26,""ArrowUp,ArrowRight"":10,""ArrowDown,ArrowLeft"":5,""ArrowDown,ArrowRight"":17}","true","ArrowDown,ArrowRight","","original","1","","","",""
"html-keyboard-response","284","1111494","0.0-4.0-10.0-1.4","spark_pilot_norest","10520","5","7","Male","","","","","","","null","<div style=""font-size:60px;"">+</div>","null","fixation","","","","","","","","","","","",""
"revaluation","285","1112100","0.0-4.0-10.0-0.5","spark_pilot_norest","10520","5","7","Male","","false","","","","","[602.2000000476837]","./assets/img/canyon/animals/giraffe.jpg","[""ArrowRight""]","second stage test","canyon","0","{""ArrowUp,ArrowLeft"":26,""ArrowUp,ArrowRight"":10,""ArrowDown,ArrowLeft"":5,""ArrowDown,ArrowRight"":17}","true","ArrowDown,ArrowRight","","original","1","","","",""
"html-keyboard-response","286","1112605","0.0-4.0-10.0-1.5","spark_pilot_norest","10520","5","7","Male","","","","","","","null","<div style=""font-size:60px;"">+</div>","null","fixation","","","","","","","","","","","",""
"revaluation","287","1113037","0.0-4.0-10.0-0.6","spark_pilot_norest","10520","5","7","Male","","false","","","","","[428.89999997615814]","./assets/img/canyon/animals/giraffe.jpg","[""ArrowRight""]","second stage test","canyon","0","{""ArrowUp,ArrowLeft"":26,""ArrowUp,ArrowRight"":10,""ArrowDown,ArrowLeft"":5,""ArrowDown,ArrowRight"":17}","true","ArrowDown,ArrowRight","","original","1","","","",""
"html-keyboard-response","288","1113543","0.0-4.0-10.0-1.6","spark_pilot_norest","10520","5","7","Male","","","","","","","null","<div style=""font-size:60px;"">+</div>","null","fixation","","","","","","","","","","","",""
"revaluation","289","1113989","0.0-4.0-10.0-0.7","spark_pilot_norest","10520","5","7","Male","","false","","","","","[442.7999999523163]","./assets/img/canyon/animals/giraffe.jpg","[""ArrowRight""]","second stage test","canyon","0","{""ArrowUp,ArrowLeft"":26,""ArrowUp,ArrowRight"":10,""ArrowDown,ArrowLeft"":5,""ArrowDown,ArrowRight"":17}","true","ArrowDown,ArrowRight","","original","1","","","",""
"html-keyboard-response","290","1114494","0.0-4.0-10.0-1.7","spark_pilot_norest","10520","5","7","Male","","","","","","","null","<div style=""font-size:60px;"">+</div>","null","fixation","","","","","","","","","","","",""
"learning-instructions","291","1120247","0.0-4.0-0.1-0.2","spark_pilot_norest","10520","5","7","Male","","","","","","","3043.8000000715256","<p> This time you are searching for treasure in the <b>ocean</b>.</p>","","instructions","","","","","","","","","","","",""
"learning-instructions","292","1138823","0.0-4.0-0.1-0.3","spark_pilot_norest","10520","5","7","Male","","","","","","","1322.2000000476837","<p><b>New</b> animals with <b>new</b> treasure chests live here. You need to explore to discover where the animal with the best treasure chest is.</p>
                    <p> Like before, once you figure out which animal has the chest with the most treasure, you should try to get to that animal and select that chest! </p>","","instructions","","","","","","","","","","","",""
"learning-instructions","293","1157490","0.0-4.0-1.1-0.1","spark_pilot_norest","10520","5","7","Male","","","","","","","3937.4000000953674","<p> Remember, when you see a picture of the place, use the up and down keys to <b>find an animal</b>.</p>
            <p> When you encounter an animal, you should use the left and right keys to <b>select a treasure chest</b>.</p>
            <p> Don't forget to look out for the robber! </p>","","instructions","","","","","","","","","","","",""
"revaluation","294","1163515","0.0-4.0-2.1-0.50","spark_pilot_norest","10520","5","7","Male","","false","","","","","[820.3999999761581,518.3000000715256]","./assets/img/ocean/memory/17.jpg","[""ArrowUp"",""ArrowLeft""]","value training","ocean","23","{""ArrowUp,ArrowLeft"":23,""ArrowUp,ArrowRight"":10,""ArrowDown,ArrowLeft"":8,""ArrowDown,ArrowRight"":30}","false","ArrowUp,ArrowLeft","false","revaluation","2","0","","",""
"html-keyboard-response","295","1164019","0.0-4.0-2.1-1.50","spark_pilot_norest","10520","5","7","Male","","","","","","","null","<div style=""font-size:60px;"">+</div>","null","fixation","","","","","","","","","1","","",""
"revaluation","296","1170044","0.0-4.0-2.1-0.51","spark_pilot_norest","10520","5","7","Male","","false","","","","","[624.2999999523163,312.8000000715256]","./assets/img/ocean/memory/8.jpg","[""ArrowUp"",""ArrowRight""]","value training","ocean","10","{""ArrowUp,ArrowLeft"":23,""ArrowUp,ArrowRight"":10,""ArrowDown,ArrowLeft"":8,""ArrowDown,ArrowRight"":30}","false","ArrowUp,ArrowRight","false","revaluation","2","2","","",""
"html-keyboard-response","297","1170548","0.0-4.0-2.1-1.51","spark_pilot_norest","10520","5","7","Male","","","","","","","null","<div style=""font-size:60px;"">+</div>","null","fixation","","","","","","","","","3","","",""
"revaluation","298","1176571","0.0-4.0-2.1-0.52","spark_pilot_norest","10520","5","7","Male","","false","","","","","[768.8999999761581,501.89999997615814]","./assets/img/ocean/memory/15.jpg","[""ArrowDown"",""ArrowLeft""]","value training","ocean","8","{""ArrowUp,ArrowLeft"":23,""ArrowUp,ArrowRight"":10,""ArrowDown,ArrowLeft"":8,""ArrowDown,ArrowRight"":30}","false","ArrowDown,ArrowLeft","false","revaluation","2","4","","",""
"html-keyboard-response","299","1177075","0.0-4.0-2.1-1.52","spark_pilot_norest","10520","5","7","Male","","","","","","","null","<div style=""font-size:60px;"">+</div>","null","fixation","","","","","","","","","5","","",""
"revaluation","300","1183099","0.0-4.0-2.1-0.53","spark_pilot_norest","10520","5","7","Male","","false","","","","","[674.1000000238419,320.2000000476837]","./assets/img/ocean/memory/23.jpg","[""ArrowDown"",""ArrowRight""]","value training","ocean","30","{""ArrowUp,ArrowLeft"":23,""ArrowUp,ArrowRight"":10,""ArrowDown,ArrowLeft"":8,""ArrowDown,ArrowRight"":30}","true","ArrowDown,ArrowRight","false","revaluation","2","6","","",""
"html-keyboard-response","301","1183602","0.0-4.0-2.1-1.53","spark_pilot_norest","10520","5","7","Male","","","","","","","null","<div style=""font-size:60px;"">+</div>","null","fixation","","","","","","","","","7","","",""
"revaluation","302","1189627","0.0-4.0-2.1-0.54","spark_pilot_norest","10520","5","7","Male","","false","","","","","[565,534.3000000715256]","./assets/img/ocean/memory/7.jpg","[""ArrowDown"",""ArrowRight""]","value training","ocean","30","{""ArrowUp,ArrowLeft"":23,""ArrowUp,ArrowRight"":10,""ArrowDown,ArrowLeft"":8,""ArrowDown,ArrowRight"":30}","true","ArrowDown,ArrowRight","false","revaluation","2","8","","",""
"html-keyboard-response","303","1190130","0.0-4.0-2.1-1.54","spark_pilot_norest","10520","5","7","Male","","","","","","","null","<div style=""font-size:60px;"">+</div>","null","fixation","","","","","","","","","9","","",""
"revaluation","304","1196154","0.0-4.0-2.1-0.55","spark_pilot_norest","10520","5","7","Male","","false","","","","","[671.7000000476837,422.2999999523163]","./assets/img/ocean/memory/34.jpg","[""ArrowDown"",""ArrowRight""]","value training","ocean","30","{""ArrowUp,ArrowLeft"":23,""ArrowUp,ArrowRight"":10,""ArrowDown,ArrowLeft"":8,""ArrowDown,ArrowRight"":30}","true","ArrowDown,ArrowRight","false","revaluation","2","10","","",""
"html-keyboard-response","305","1196659","0.0-4.0-2.1-1.55","spark_pilot_norest","10520","5","7","Male","","","","","","","null","<div style=""font-size:60px;"">+</div>","null","fixation","","","","","","","","","11","","",""
"revaluation","306","1202830","0.0-4.0-2.1-0.56","spark_pilot_norest","10520","5","7","Male","","false","","","","","[1405.8999999761581,259.7999999523163]","./assets/img/ocean/memory/14.jpg","[""ArrowDown"",""ArrowRight""]","value training","ocean","30","{""ArrowUp,ArrowLeft"":23,""ArrowUp,ArrowRight"":10,""ArrowDown,ArrowLeft"":8,""ArrowDown,ArrowRight"":30}","true","ArrowDown,ArrowRight","false","revaluation","2","12","","",""
"html-keyboard-response","307","1203335","0.0-4.0-2.1-1.56","spark_pilot_norest","10520","5","7","Male","","","","","","","null","<div style=""font-size:60px;"">+</div>","null","fixation","","","","","","","","","13","","",""
"revaluation","308","1207350","0.0-4.0-2.1-0.57","spark_pilot_norest","10520","5","7","Male","","true","","","","","[]","./assets/img/ocean/memory/0.jpg","[]","value training","ocean","-5","{""ArrowUp,ArrowLeft"":23,""ArrowUp,ArrowRight"":10,""ArrowDown,ArrowLeft"":8,""ArrowDown,ArrowRight"":30}","false","","false","revaluation","2","14","","",""
"html-keyboard-response","309","1207854","0.0-4.0-2.1-1.57","spark_pilot_norest","10520","5","7","Male","","","","","","","null","<div style=""font-size:60px;"">+</div>","null","fixation","","","","","","","","","15","","",""
"revaluation","310","1213879","0.0-4.0-2.1-0.58","spark_pilot_norest","10520","5","7","Male","","false","","","","","[625.3999999761581,96.5]","./assets/img/ocean/memory/25.jpg","[""ArrowDown"",""ArrowRight""]","value training","ocean","30","{""ArrowUp,ArrowLeft"":23,""ArrowUp,ArrowRight"":10,""ArrowDown,ArrowLeft"":8,""ArrowDown,ArrowRight"":30}","true","ArrowDown,ArrowRight","false","revaluation","2","16","","",""
"html-keyboard-response","311","1214382","0.0-4.0-2.1-1.58","spark_pilot_norest","10520","5","7","Male","","","","","","","null","<div style=""font-size:60px;"">+</div>","null","fixation","","","","","","","","","17","","",""
"revaluation","312","1220406","0.0-4.0-2.1-0.59","spark_pilot_norest","10520","5","7","Male","","false","","","","","[568.1999999284744,465.8000000715256]","./assets/img/ocean/memory/38.jpg","[""ArrowDown"",""ArrowRight""]","value training","ocean","30","{""ArrowUp,ArrowLeft"":23,""ArrowUp,ArrowRight"":10,""ArrowDown,ArrowLeft"":8,""ArrowDown,ArrowRight"":30}","true","ArrowDown,ArrowRight","false","revaluation","2","18","","",""
"html-keyboard-response","313","1220910","0.0-4.0-2.1-1.59","spark_pilot_norest","10520","5","7","Male","","","","","","","null","<div style=""font-size:60px;"">+</div>","null","fixation","","","","","","","","","19","","",""
