"trial_type","trial_index","time_elapsed","internal_node_id","task_version","subject_id","assigned_condition","age","gender","success","timeout","failed_images","failed_audio","failed_video","browser_interaction","rt","stimulus","response","task_part","environment","score","rewardMap","correct","fullState","isCatch","condition","order","trial_num","key_press","ground_truth","bonus"
"pavlovia","0","2015","0.0-0.0","spark_pilot_norest","8551","5","8","Male","","","","","","","","","","","","","","","","","","","","","",""
"preload","1","78555","0.0-1.0","spark_pilot_norest","8551","5","8","Male","true","false","[]","[]","[]","[{""event"":""fullscreenenter"",""trial"":2,""time"":80715},{""event"":""blur"",""trial"":472,""time"":1706363},{""event"":""focus"",""trial"":472,""time"":1706365},{""event"":""fullscreenexit"",""trial"":472,""time"":1706378}]","","","","","","","","","","","","","","","",""
"fullscreen","2","81642","0.0-2.0","spark_pilot_norest","8551","5","8","Male","true","","","","","","","","","","","","","","","","","","","","",""
"audio-button-response","3","90044","0.0-3.0-0.0-0.0","spark_pilot_norest","8551","5","8","Male","","","","","","","8181","./assets/audio/audiotest/turtle.mp3","2","audio_test","","","","","","","","","","","",""
"learning-instructions","4","100275","0.0-3.0-1.0-0.0","spark_pilot_norest","8551","5","8","Male","","","","","","","3090.10000000149","<p> Welcome! Please remember to stay in fullscreen mode and don't click away from the experiment. </p>","","instructions","","","","","","","","","","","",""
"learning-instructions","5","111411","0.0-3.0-1.0-0.1","spark_pilot_norest","8551","5","8","Male","","","","","","","2615.7000000029802","<p> Today you will be playing a game to earn treasure. </p>
            <p> At the end of the experiment, you will earn a bonus based on how much treasure you find. </p>
            <img src='./assets/img/instructions/treasure.jpg' class='instructions-image'>","","instructions","","","","","","","","","","","",""
"learning-instructions","6","122893","0.0-3.0-1.0-0.2","spark_pilot_norest","8551","5","8","Male","","","","","","","3090.5","<p> Animals have hidden treasure in treasure chests. </p>
            <p> You need to first find an animal and then choose which of their treasure chests to search. </p>
            <img src='./assets/img/space/animals/cat.jpg' class='instructions-image'>","","instructions","","","","","","","","","","","",""
"learning-instructions","7","139305","0.0-3.0-1.0-0.3","spark_pilot_norest","8551","5","8","Male","","","","","","","3065.39999999851","<p> In each round, you will search for treasure in a different place. In the real game, there will be two rounds. </p>
            <p> You will begin with a separate, practice round where you will search for treasure in outer space. </p>
            <img src='./assets/img/space/0.jpg' class='instructions-image'>","","instructions","","","","","","","","","","","",""
"learning-instructions","8","152358","0.0-3.0-1.0-0.4","spark_pilot_norest","8551","5","8","Male","","","","","","","1442","<p> On every turn, you will see a picture of the place that you are in, but the specific image may be different each time. </p>
            <p> For example, both of these images mean you are in outer space. </p>
            <img src='./assets/img/instructions/outerspace.jpg' class='instructions-image'>","","instructions","","","","","","","","","","","",""
"learning-instructions","9","161967","0.0-3.0-1.0-0.5","spark_pilot_norest","8551","5","8","Male","","","","","","","1610.800000000745","<p> You need to decide which direction to travel in. </p>
            <p> You can choose between going <b>up or down</b> by using the arrow keys. </p>
            <img src='./assets/img/instructions/updown.jpg' class='instructions-image'>","","instructions","","","","","","","","","","","",""
"learning-instructions","10","173882","0.0-3.0-1.0-0.6","spark_pilot_norest","8551","5","8","Male","","","","","","","2975.900000002235","<p> You will have <b>2 seconds</b> to make your choice. </p>
            <p> If you do not make a choice within 2 seconds, you will not find an animal or earn treasure. </p>
            <img src='./assets/img/instructions/2seconds.jpg' class='instructions-image'>","","instructions","","","","","","","","","","","",""
"learning-instructions","11","182721","0.0-3.0-1.0-0.7","spark_pilot_norest","8551","5","8","Male","","","","","","","1618","<p> Let’s try practicing that now! </p>
            <p> When you see a picture of the place you are in, press the <b>up</b> key to travel up. </p>
            <img src='./assets/img/instructions/pressUp.jpg' class='instructions-image'>","","instructions","","","","","","","","","","","",""
"revaluation","12","186891","0.0-3.0-2.0-0.0","spark_pilot_norest","8551","5","8","Male","","false","","","","","[1069.2000000029802]","./assets/img/space/0.jpg","[""ArrowUp""]","first stage practice","space","0","null","null","ArrowUp","false","","","","","",""
"html-keyboard-response","13","187401","0.0-3.0-2.0-1.0","spark_pilot_norest","8551","5","8","Male","","","","","","","null","<div style=""font-size:60px;"">+</div>","null","fixation","","","","","","","","","","","",""
"revaluation","14","191418","0.0-3.0-2.0-0.1","spark_pilot_norest","8551","5","8","Male","","false","","","","","[857.1000000014901]","./assets/img/space/1.jpg","[""ArrowUp""]","first stage practice","space","0","null","null","ArrowUp","false","","","","","",""
"html-keyboard-response","15","191921","0.0-3.0-2.0-1.1","spark_pilot_norest","8551","5","8","Male","","","","","","","null","<div style=""font-size:60px;"">+</div>","null","fixation","","","","","","","","","","","",""
"revaluation","16","195938","0.0-3.0-2.0-0.2","spark_pilot_norest","8551","5","8","Male","","false","","","","","[592.8000000007451]","./assets/img/space/2.jpg","[""ArrowUp""]","first stage practice","space","0","null","null","ArrowUp","false","","","","","",""
"html-keyboard-response","17","196441","0.0-3.0-2.0-1.2","spark_pilot_norest","8551","5","8","Male","","","","","","","null","<div style=""font-size:60px;"">+</div>","null","fixation","","","","","","","","","","","",""
"learning-instructions","18","203265","0.0-3.0-3.0-0.0","spark_pilot_norest","8551","5","8","Male","","","","","","","1970.1000000014901","<p> Great job! Now try pressing the <b>down</b> key to travel down. </p>
            <img src='./assets/img/instructions/pressDown.jpg' class='instructions-image'>","","instructions","","","","","","","","","","","",""
"revaluation","19","207289","0.0-3.0-4.0-0.0","spark_pilot_norest","8551","5","8","Male","","false","","","","","[849.2999999970198]","./assets/img/space/3.jpg","[""ArrowDown""]","first stage practice","space","0","null","null","ArrowDown","false","","","","","",""
"html-keyboard-response","20","207793","0.0-3.0-4.0-1.0","spark_pilot_norest","8551","5","8","Male","","","","","","","null","<div style=""font-size:60px;"">+</div>","null","fixation","","","","","","","","","","","",""
"revaluation","21","211817","0.0-3.0-4.0-0.1","spark_pilot_norest","8551","5","8","Male","","false","","","","","[92.39999999850988]","./assets/img/space/4.jpg","[""ArrowDown""]","first stage practice","space","0","null","null","ArrowDown","false","","","","","",""
"html-keyboard-response","22","212321","0.0-3.0-4.0-1.1","spark_pilot_norest","8551","5","8","Male","","","","","","","null","<div style=""font-size:60px;"">+</div>","null","fixation","","","","","","","","","","","",""
"revaluation","23","216338","0.0-3.0-4.0-0.2","spark_pilot_norest","8551","5","8","Male","","false","","","","","[687.9000000022352]","./assets/img/space/5.jpg","[""ArrowDown""]","first stage practice","space","0","null","null","ArrowDown","false","","","","","",""
"html-keyboard-response","24","216841","0.0-3.0-4.0-1.2","spark_pilot_norest","8551","5","8","Male","","","","","","","null","<div style=""font-size:60px;"">+</div>","null","fixation","","","","","","","","","","","",""
"learning-instructions","25","228055","0.0-3.0-5.0-0.0","spark_pilot_norest","8551","5","8","Male","","","","","","","1236.199999999255","<p> The animals don’t move, so the animal in the upper part of a place will stay in the upper part of a place, and the animal in the lower part of a place will stay in the lower part of a place. </p>","","instructions","","","","","","","","","","","",""
"learning-instructions","26","238585","0.0-3.0-5.0-0.1","spark_pilot_norest","8551","5","8","Male","","","","","","","1216.6000000014901","<p> Each animal has two treasure chests for you to choose from. </p>
            <p> The amount of treasure in each chest can range from <b> 0 to 40 pieces.</b></p>","","instructions","","","","","","","","","","","",""
"learning-instructions","27","251235","0.0-3.0-5.0-0.2","spark_pilot_norest","8551","5","8","Male","","","","","","","1290","<p> You should decide which chest to search for treasure by using the <b>left</b> and <b>right</b> arrow keys. </p>
            <p><b> Pay attention to which animal is on the screen, as the animals have different treasure chests. </b></p>
            <img src='./assets/img/instructions/leftright.jpg' class='instructions-image'>","","instructions","","","","","","","","","","","",""
"learning-instructions","28","259104","0.0-3.0-5.0-0.3","spark_pilot_norest","8551","5","8","Male","","","","","","","1328.9000000022352","<p> Let’s try practicing that now. </p>
            <p> When you see an animal, choose which chest to search for treasure. </p>
            <img src='./assets/img/instructions/chooseChest.jpg' class='instructions-image'>","","instructions","","","","","","","","","","","",""
"revaluation","29","263122","0.0-3.0-6.0-0.0","spark_pilot_norest","8551","5","8","Male","","false","","","","","[924.8999999985099]","./assets/img/space/animals/cat.jpg","[""ArrowRight""]","second stage practice","space","36","{""ArrowUp,ArrowLeft"":3,""ArrowUp,ArrowRight"":36,""ArrowDown,ArrowLeft"":15,""ArrowDown,ArrowRight"":23}","true","ArrowUp,ArrowRight","","","","","","",""
"html-keyboard-response","30","263625","0.0-3.0-6.0-1.0","spark_pilot_norest","8551","5","8","Male","","","","","","","null","<div style=""font-size:60px;"">+</div>","null","fixation","","","","","","","","","","","",""
"revaluation","31","267650","0.0-3.0-6.0-0.1","spark_pilot_norest","8551","5","8","Male","","false","","","","","[1687.300000000745]","./assets/img/space/animals/cat.jpg","[""ArrowRight""]","second stage practice","space","36","{""ArrowUp,ArrowLeft"":3,""ArrowUp,ArrowRight"":36,""ArrowDown,ArrowLeft"":15,""ArrowDown,ArrowRight"":23}","true","ArrowUp,ArrowRight","","","","","","",""
"html-keyboard-response","32","268153","0.0-3.0-6.0-1.1","spark_pilot_norest","8551","5","8","Male","","","","","","","null","<div style=""font-size:60px;"">+</div>","null","fixation","","","","","","","","","","","",""
"revaluation","33","272170","0.0-3.0-6.0-0.2","spark_pilot_norest","8551","5","8","Male","","false","","","","","[847]","./assets/img/space/animals/rabbit.jpg","[""ArrowLeft""]","second stage practice","space","15","{""ArrowUp,ArrowLeft"":3,""ArrowUp,ArrowRight"":36,""ArrowDown,ArrowLeft"":15,""ArrowDown,ArrowRight"":23}","false","ArrowDown,ArrowLeft","","","","","","",""
"html-keyboard-response","34","272673","0.0-3.0-6.0-1.2","spark_pilot_norest","8551","5","8","Male","","","","","","","null","<div style=""font-size:60px;"">+</div>","null","fixation","","","","","","","","","","","",""
"revaluation","35","276690","0.0-3.0-6.0-0.3","spark_pilot_norest","8551","5","8","Male","","false","","","","","[331.19999999925494]","./assets/img/space/animals/rabbit.jpg","[""ArrowRight""]","second stage practice","space","23","{""ArrowUp,ArrowLeft"":3,""ArrowUp,ArrowRight"":36,""ArrowDown,ArrowLeft"":15,""ArrowDown,ArrowRight"":23}","true","ArrowDown,ArrowRight","","","","","","",""
"html-keyboard-response","36","277193","0.0-3.0-6.0-1.3","spark_pilot_norest","8551","5","8","Male","","","","","","","null","<div style=""font-size:60px;"">+</div>","null","fixation","","","","","","","","","","","",""
"learning-instructions","37","295171","0.0-3.0-7.0-0.0","spark_pilot_norest","8551","5","8","Male","","","","","","","1014","<p> Great job. Now let’s try putting it together. </p>
            <p> On each turn, you will first see a picture to remind you of the place you are in, and you need to choose whether to go up or down. </p>
            <p> Then you will see an animal and choose which of its chests to search for treasure. </p>","","instructions","","","","","","","","","","","",""
"learning-instructions","38","304110","0.0-3.0-7.0-0.1","spark_pilot_norest","8551","5","8","Male","","","","","","","501.80000000074506","<p> When you choose whether to go up or down, try to go to the animal with the chest with the most treasure. </p>
            <p> Try practicing that now! </p>","","instructions","","","","","","","","","","","",""
"revaluation","39","308130","0.0-3.0-8.0-0.0","spark_pilot_norest","8551","5","8","Male","","true","","","","","[]","./assets/img/space/6.jpg","[]","full practice","space","-5","{""ArrowUp,ArrowLeft"":3,""ArrowUp,ArrowRight"":36,""ArrowDown,ArrowLeft"":15,""ArrowDown,ArrowRight"":23}","false","","false","","","","","",""
"html-keyboard-response","40","308633","0.0-3.0-8.0-1.0","spark_pilot_norest","8551","5","8","Male","","","","","","","null","<div style=""font-size:60px;"">+</div>","null","fixation","","","","","","","","","","","",""
"revaluation","41","314658","0.0-3.0-8.0-0.1","spark_pilot_norest","8551","5","8","Male","","false","","","","","[1234,747.4000000022352]","./assets/img/space/7.jpg","[""ArrowDown"",""ArrowRight""]","full practice","space","23","{""ArrowUp,ArrowLeft"":3,""ArrowUp,ArrowRight"":36,""ArrowDown,ArrowLeft"":15,""ArrowDown,ArrowRight"":23}","false","ArrowDown,ArrowRight","false","","","","","",""
"html-keyboard-response","42","315161","0.0-3.0-8.0-1.1","spark_pilot_norest","8551","5","8","Male","","","","","","","null","<div style=""font-size:60px;"">+</div>","null","fixation","","","","","","","","","","","",""
"revaluation","43","321185","0.0-3.0-8.0-0.2","spark_pilot_norest","8551","5","8","Male","","false","","","","","[542.8999999985099,518.6999999992549]","./assets/img/space/8.jpg","[""ArrowUp"",""ArrowLeft""]","full practice","space","3","{""ArrowUp,ArrowLeft"":3,""ArrowUp,ArrowRight"":36,""ArrowDown,ArrowLeft"":15,""ArrowDown,ArrowRight"":23}","false","ArrowUp,ArrowLeft","false","","","","","",""
"html-keyboard-response","44","321689","0.0-3.0-8.0-1.2","spark_pilot_norest","8551","5","8","Male","","","","","","","null","<div style=""font-size:60px;"">+</div>","null","fixation","","","","","","","","","","","",""
"revaluation","45","327713","0.0-3.0-8.0-0.3","spark_pilot_norest","8551","5","8","Male","","false","","","","","[401.69999999925494,313.69999999925494]","./assets/img/space/9.jpg","[""ArrowDown"",""ArrowRight""]","full practice","space","23","{""ArrowUp,ArrowLeft"":3,""ArrowUp,ArrowRight"":36,""ArrowDown,ArrowLeft"":15,""ArrowDown,ArrowRight"":23}","false","ArrowDown,ArrowRight","false","","","","","",""
"html-keyboard-response","46","328217","0.0-3.0-8.0-1.3","spark_pilot_norest","8551","5","8","Male","","","","","","","null","<div style=""font-size:60px;"">+</div>","null","fixation","","","","","","","","","","","",""
"revaluation","47","334243","0.0-3.0-8.0-0.4","spark_pilot_norest","8551","5","8","Male","","false","","","","","[543.2000000029802,1037.199999999255]","./assets/img/space/10.jpg","[""ArrowDown"",""ArrowRight""]","full practice","space","23","{""ArrowUp,ArrowLeft"":3,""ArrowUp,ArrowRight"":36,""ArrowDown,ArrowLeft"":15,""ArrowDown,ArrowRight"":23}","false","ArrowDown,ArrowRight","false","","","","","",""
"html-keyboard-response","48","334753","0.0-3.0-8.0-1.4","spark_pilot_norest","8551","5","8","Male","","","","","","","null","<div style=""font-size:60px;"">+</div>","null","fixation","","","","","","","","","","","",""
"learning-instructions","49","346185","0.0-3.0-9.0-0.0","spark_pilot_norest","8551","5","8","Male","","","","","","","997.6999999992549","<p> One last thing: sometimes, you will see a robber. The robber can be anywhere in the picture. </p>
            <p> If you do not stop them, you will lose treasure. </p>
            <img src='./assets/img/instructions/robber.jpg' class='instructions-image'>","","instructions","","","","","","","","","","","",""
"learning-instructions","50","354607","0.0-3.0-9.0-0.1","spark_pilot_norest","8551","5","8","Male","","","","","","","1069.199999999255","<p> If you see the robber, you should <b>press the space bar</b> rather than using the arrow keys. </p>
            <p> Try practicing that now! </p>","","instructions","","","","","","","","","","","",""
"revaluation","51","358618","0.0-3.0-10.0-0.0","spark_pilot_norest","8551","5","8","Male","","false","","","","","[1244.4000000022352]","./assets/img/space/catch/0.jpg","[""spaceBar""]","catch practice","space","0","{""ArrowUp,ArrowLeft"":3,""ArrowUp,ArrowRight"":36,""ArrowDown,ArrowLeft"":15,""ArrowDown,ArrowRight"":23}","true","spaceBar","true","","","","","",""
"html-keyboard-response","52","359121","0.0-3.0-10.0-1.0","spark_pilot_norest","8551","5","8","Male","","","","","","","null","<div style=""font-size:60px;"">+</div>","null","fixation","","","","","","","","","","","",""
"revaluation","53","363137","0.0-3.0-10.0-0.1","spark_pilot_norest","8551","5","8","Male","","false","","","","","[698.5]","./assets/img/space/catch/1.jpg","[""spaceBar""]","catch practice","space","0","{""ArrowUp,ArrowLeft"":3,""ArrowUp,ArrowRight"":36,""ArrowDown,ArrowLeft"":15,""ArrowDown,ArrowRight"":23}","true","spaceBar","true","","","","","",""
"html-keyboard-response","54","363641","0.0-3.0-10.0-1.1","spark_pilot_norest","8551","5","8","Male","","","","","","","null","<div style=""font-size:60px;"">+</div>","null","fixation","","","","","","","","","","","",""
"revaluation","55","367657","0.0-3.0-10.0-0.2","spark_pilot_norest","8551","5","8","Male","","false","","","","","[477.9000000022352]","./assets/img/space/catch/2.jpg","[""spaceBar""]","catch practice","space","0","{""ArrowUp,ArrowLeft"":3,""ArrowUp,ArrowRight"":36,""ArrowDown,ArrowLeft"":15,""ArrowDown,ArrowRight"":23}","true","spaceBar","true","","","","","",""
"html-keyboard-response","56","368161","0.0-3.0-10.0-1.2","spark_pilot_norest","8551","5","8","Male","","","","","","","null","<div style=""font-size:60px;"">+</div>","null","fixation","","","","","","","","","","","",""
"learning-instructions","57","376064","0.0-3.0-11.0-0.0-0.0","spark_pilot_norest","8551","5","8","Male","","","","","","","2483.599999997765","<p> Now, you will practice a shortened version of the game to get a sense of how it all fits together. </p>","","instructions","","","","","","","","","","","",""
"learning-instructions","58","379987","0.0-3.0-11.0-0.0-0.1","spark_pilot_norest","8551","5","8","Male","","","","","","","572","<p>This time you are searching for treasure in outer space.</p>","","instructions","","","","","","","","","","","",""
"learning-instructions","59","395827","0.0-3.0-11.0-1.0-0.0","spark_pilot_norest","8551","5","8","Male","","","","","","","859.5999999977648","<p> Remember, when you see a picture of the place, use the up and down keys to <b>find an animal</b>.</p>
            <p> When you encounter an animal, you should use the left and right keys to <b>select a treasure chest</b>.</p>
            <p> Don't forget to look out for the robber! </p>","","instructions","","","","","","","","","","","",""
"revaluation","60","399850","0.0-3.0-11.0-2.0-0.0","spark_pilot_norest","8551","5","8","Male","","true","","","","","[]","./assets/img/space/11.jpg","[]","practice block","space","-5","{""ArrowUp,ArrowLeft"":3,""ArrowUp,ArrowRight"":36,""ArrowDown,ArrowLeft"":15,""ArrowDown,ArrowRight"":23}","false","","false","","","","","",""
"html-keyboard-response","61","400353","0.0-3.0-11.0-2.0-1.0","spark_pilot_norest","8551","5","8","Male","","","","","","","null","<div style=""font-size:60px;"">+</div>","null","fixation","","","","","","","","","","","",""
"revaluation","62","406378","0.0-3.0-11.0-2.0-0.1","spark_pilot_norest","8551","5","8","Male","","false","","","","","[1448.0999999977648,947.6999999992549]","./assets/img/space/12.jpg","[""ArrowUp"",""ArrowRight""]","practice block","space","36","{""ArrowUp,ArrowLeft"":3,""ArrowUp,ArrowRight"":36,""ArrowDown,ArrowLeft"":15,""ArrowDown,ArrowRight"":23}","true","ArrowUp,ArrowRight","false","","","","","",""
"html-keyboard-response","63","406881","0.0-3.0-11.0-2.0-1.1","spark_pilot_norest","8551","5","8","Male","","","","","","","null","<div style=""font-size:60px;"">+</div>","null","fixation","","","","","","","","","","","",""
"revaluation","64","412905","0.0-3.0-11.0-2.0-0.2","spark_pilot_norest","8551","5","8","Male","","false","","","","","[1128.6000000014901,522.6000000014901]","./assets/img/space/13.jpg","[""ArrowDown"",""ArrowRight""]","practice block","space","23","{""ArrowUp,ArrowLeft"":3,""ArrowUp,ArrowRight"":36,""ArrowDown,ArrowLeft"":15,""ArrowDown,ArrowRight"":23}","false","ArrowDown,ArrowRight","false","","","","","",""
"html-keyboard-response","65","413409","0.0-3.0-11.0-2.0-1.2","spark_pilot_norest","8551","5","8","Male","","","","","","","null","<div style=""font-size:60px;"">+</div>","null","fixation","","","","","","","","","","","",""
"revaluation","66","419433","0.0-3.0-11.0-2.0-0.3","spark_pilot_norest","8551","5","8","Male","","false","","","","","[1870.5999999977648,949.4000000022352]","./assets/img/space/14.jpg","[""ArrowDown"",""ArrowLeft""]","practice block","space","15","{""ArrowUp,ArrowLeft"":3,""ArrowUp,ArrowRight"":36,""ArrowDown,ArrowLeft"":15,""ArrowDown,ArrowRight"":23}","false","ArrowDown,ArrowLeft","false","","","","","",""
"html-keyboard-response","67","419937","0.0-3.0-11.0-2.0-1.3","spark_pilot_norest","8551","5","8","Male","","","","","","","null","<div style=""font-size:60px;"">+</div>","null","fixation","","","","","","","","","","","",""
"revaluation","68","425961","0.0-3.0-11.0-2.0-0.4","spark_pilot_norest","8551","5","8","Male","","false","","","","","[878,772.1999999992549]","./assets/img/space/11.jpg","[""ArrowDown"",""ArrowRight""]","practice block","space","23","{""ArrowUp,ArrowLeft"":3,""ArrowUp,ArrowRight"":36,""ArrowDown,ArrowLeft"":15,""ArrowDown,ArrowRight"":23}","false","ArrowDown,ArrowRight","false","","","","","",""
"html-keyboard-response","69","426465","0.0-3.0-11.0-2.0-1.4","spark_pilot_norest","8551","5","8","Male","","","","","","","null","<div style=""font-size:60px;"">+</div>","null","fixation","","","","","","","","","","","",""
"revaluation","70","432489","0.0-3.0-11.0-2.0-0.5","spark_pilot_norest","8551","5","8","Male","","false","","","","","[1043.300000000745,363.69999999925494]","./assets/img/space/12.jpg","[""ArrowDown"",""ArrowLeft""]","practice block","space","15","{""ArrowUp,ArrowLeft"":3,""ArrowUp,ArrowRight"":36,""ArrowDown,ArrowLeft"":15,""ArrowDown,ArrowRight"":23}","false","ArrowDown,ArrowLeft","false","","","","","",""
"html-keyboard-response","71","432993","0.0-3.0-11.0-2.0-1.5","spark_pilot_norest","8551","5","8","Male","","","","","","","null","<div style=""font-size:60px;"">+</div>","null","fixation","","","","","","","","","","","",""
"revaluation","72","439017","0.0-3.0-11.0-2.0-0.6","spark_pilot_norest","8551","5","8","Male","","false","","","","","[807.0999999977648,896.3999999985099]","./assets/img/space/13.jpg","[""ArrowDown"",""ArrowRight""]","practice block","space","23","{""ArrowUp,ArrowLeft"":3,""ArrowUp,ArrowRight"":36,""ArrowDown,ArrowLeft"":15,""ArrowDown,ArrowRight"":23}","false","ArrowDown,ArrowRight","false","","","","","",""
"html-keyboard-response","73","439521","0.0-3.0-11.0-2.0-1.6","spark_pilot_norest","8551","5","8","Male","","","","","","","null","<div style=""font-size:60px;"">+</div>","null","fixation","","","","","","","","","","","",""
"revaluation","74","445554","0.0-3.0-11.0-2.0-0.7","spark_pilot_norest","8551","5","8","Male","","false","","","","","[557,590.3000000007451]","./assets/img/space/14.jpg","[""ArrowUp"",""ArrowRight""]","practice block","space","36","{""ArrowUp,ArrowLeft"":3,""ArrowUp,ArrowRight"":36,""ArrowDown,ArrowLeft"":15,""ArrowDown,ArrowRight"":23}","true","ArrowUp,ArrowRight","false","","","","","",""
"html-keyboard-response","75","446057","0.0-3.0-11.0-2.0-1.7","spark_pilot_norest","8551","5","8","Male","","","","","","","null","<div style=""font-size:60px;"">+</div>","null","fixation","","","","","","","","","","","",""
"revaluation","76","450073","0.0-3.0-11.0-2.0-0.8","spark_pilot_norest","8551","5","8","Male","","false","","","","","[774.6999999992549]","./assets/img/space/catch/3.jpg","[""spaceBar""]","practice block","space","0","{""ArrowUp,ArrowLeft"":3,""ArrowUp,ArrowRight"":36,""ArrowDown,ArrowLeft"":15,""ArrowDown,ArrowRight"":23}","true","spaceBar","true","","","","","",""
"html-keyboard-response","77","450577","0.0-3.0-11.0-2.0-1.8","spark_pilot_norest","8551","5","8","Male","","","","","","","null","<div style=""font-size:60px;"">+</div>","null","fixation","","","","","","","","","","","",""
"learning-instructions","78","466253","0.0-3.0-11.0-3.0-0.0","spark_pilot_norest","8551","5","8","Male","","","","","","","2575.7000000029802","<p> Now, you will travel with a friend who will choose whether you go up or down first. </p>
            <p> On these turns, you will just see the animal that they found. You will still get to choose which chest to search for treasure.</p>","","instructions","","","","","","","","","","","",""
"revaluation","79","470274","0.0-3.0-11.0-4.0-0.0","spark_pilot_norest","8551","5","8","Male","","false","","","","","[1389.800000000745]","./assets/img/space/animals/cat.jpg","[""ArrowRight""]","practice block","space","36","{""ArrowUp,ArrowLeft"":3,""ArrowUp,ArrowRight"":36,""ArrowDown,ArrowLeft"":15,""ArrowDown,ArrowRight"":23}","true","ArrowUp,ArrowRight","","","","","","",""
"html-keyboard-response","80","470777","0.0-3.0-11.0-4.0-1.0","spark_pilot_norest","8551","5","8","Male","","","","","","","null","<div style=""font-size:60px;"">+</div>","null","fixation","","","","","","","","","","","",""
"revaluation","81","474793","0.0-3.0-11.0-4.0-0.1","spark_pilot_norest","8551","5","8","Male","","false","","","","","[1022.6000000014901]","./assets/img/space/animals/rabbit.jpg","[""ArrowRight""]","practice block","space","23","{""ArrowUp,ArrowLeft"":3,""ArrowUp,ArrowRight"":36,""ArrowDown,ArrowLeft"":15,""ArrowDown,ArrowRight"":23}","true","ArrowDown,ArrowRight","","","","","","",""
"html-keyboard-response","82","475297","0.0-3.0-11.0-4.0-1.1","spark_pilot_norest","8551","5","8","Male","","","","","","","null","<div style=""font-size:60px;"">+</div>","null","fixation","","","","","","","","","","","",""
"revaluation","83","479314","0.0-3.0-11.0-4.0-0.2","spark_pilot_norest","8551","5","8","Male","","false","","","","","[206.79999999701977]","./assets/img/space/animals/cat.jpg","[""ArrowRight""]","practice block","space","36","{""ArrowUp,ArrowLeft"":3,""ArrowUp,ArrowRight"":36,""ArrowDown,ArrowLeft"":15,""ArrowDown,ArrowRight"":23}","true","ArrowUp,ArrowRight","","","","","","",""
"html-keyboard-response","84","479817","0.0-3.0-11.0-4.0-1.2","spark_pilot_norest","8551","5","8","Male","","","","","","","null","<div style=""font-size:60px;"">+</div>","null","fixation","","","","","","","","","","","",""
"revaluation","85","483833","0.0-3.0-11.0-4.0-0.3","spark_pilot_norest","8551","5","8","Male","","false","","","","","[255.89999999850988]","./assets/img/space/animals/rabbit.jpg","[""ArrowLeft""]","practice block","space","15","{""ArrowUp,ArrowLeft"":3,""ArrowUp,ArrowRight"":36,""ArrowDown,ArrowLeft"":15,""ArrowDown,ArrowRight"":23}","false","ArrowDown,ArrowLeft","","","","","","",""
"html-keyboard-response","86","484337","0.0-3.0-11.0-4.0-1.3","spark_pilot_norest","8551","5","8","Male","","","","","","","null","<div style=""font-size:60px;"">+</div>","null","fixation","","","","","","","","","","","",""
"learning-instructions","87","492617","0.0-3.0-11.0-5.0-0.0","spark_pilot_norest","8551","5","8","Male","","","","","","","null","<p> You have almost finished this part of the game! </p>
            <p> We are going to ask you to make a few more choices. </p>","","instructions","","","","","","","","","","","",""
"learning-instructions","88","508785","0.0-3.0-11.0-5.0-0.1","spark_pilot_norest","8551","5","8","Male","","","","","","","null","<p> First, you need to decide whether to go up or down. When you see each picture, use the arrow keys to make your choice. </p>
            <p><b>You will not see which animal you found, but try to get to the one that will give you the most treasure.</b></p>","","instructions","","","","","","","","","","","",""
"html-keyboard-response","89","509793","0.0-3.0-11.0-6.0-0.0","spark_pilot_norest","8551","5","8","Male","","","","","","","null","<div style=""font-size:100px;color:red;"">Starting in...</div>","null","","","","","","","","","","","","",""
"html-keyboard-response","90","510801","0.0-3.0-11.0-6.0-1.0","spark_pilot_norest","8551","5","8","Male","","","","","","","null","<div style=""font-size:200px;color:red;"">3</div>","null","","","","","","","","","","","","",""
"html-keyboard-response","91","511809","0.0-3.0-11.0-6.0-2.0","spark_pilot_norest","8551","5","8","Male","","","","","","","null","<div style=""font-size:200px;color:red;"">2</div>","null","","","","","","","","","","","","",""
"html-keyboard-response","92","512817","0.0-3.0-11.0-6.0-3.0","spark_pilot_norest","8551","5","8","Male","","","","","","","null","<div style=""font-size:200px;color:red;"">1</div>","null","","","","","","","","","","","","",""
"revaluation","93","513312","0.0-3.0-11.0-7.0","spark_pilot_norest","8551","5","8","Male","","false","","","","","[484.4000000022352]","./assets/img/space/15.jpg","[""ArrowDown""]","practice block","space","0","{""ArrowUp,ArrowLeft"":3,""ArrowUp,ArrowRight"":36,""ArrowDown,ArrowLeft"":15,""ArrowDown,ArrowRight"":23}","false","ArrowDown","false","","","","","",""
"html-keyboard-response","94","513817","0.0-3.0-11.0-8.0","spark_pilot_norest","8551","5","8","Male","","","","","","","null","<div style=""font-size:60px;"">+</div>","null","fixation","","","","","","","","","","","",""
"learning-instructions","95","527385","0.0-3.0-11.0-9.0-0.0","spark_pilot_norest","8551","5","8","Male","","","","","","","null","<p> Now you will see the animals again and can search their chests for treasure. </p>
            <p> This time, you will not see how much treasure you earned, but you will earn more bonus money for making better choices. </p>","","instructions","","","","","","","","","","","",""
"html-keyboard-response","96","528393","0.0-3.0-11.0-10.0-0.0","spark_pilot_norest","8551","5","8","Male","","","","","","","null","<div style=""font-size:100px;color:red;"">Starting in...</div>","null","","","","","","","","","","","","",""
"html-keyboard-response","97","529401","0.0-3.0-11.0-10.0-1.0","spark_pilot_norest","8551","5","8","Male","","","","","","","null","<div style=""font-size:200px;color:red;"">3</div>","null","","","","","","","","","","","","",""
"html-keyboard-response","98","530409","0.0-3.0-11.0-10.0-2.0","spark_pilot_norest","8551","5","8","Male","","","","","","","null","<div style=""font-size:200px;color:red;"">2</div>","null","","","","","","","","","","","","",""
"html-keyboard-response","99","531418","0.0-3.0-11.0-10.0-3.0","spark_pilot_norest","8551","5","8","Male","","","","","","","null","<div style=""font-size:200px;color:red;"">1</div>","null","","","","","","","","","","","","",""
"revaluation","100","532129","0.0-3.0-11.0-11.0-0.0","spark_pilot_norest","8551","5","8","Male","","false","","","","","[701]","./assets/img/space/animals/cat.jpg","[""ArrowRight""]","practice block","space","0","{""ArrowUp,ArrowLeft"":3,""ArrowUp,ArrowRight"":36,""ArrowDown,ArrowLeft"":15,""ArrowDown,ArrowRight"":23}","true","ArrowUp,ArrowRight","","","","","","",""
"html-keyboard-response","101","532633","0.0-3.0-11.0-11.0-1.0","spark_pilot_norest","8551","5","8","Male","","","","","","","null","<div style=""font-size:60px;"">+</div>","null","fixation","","","","","","","","","","","",""
"revaluation","102","533104","0.0-3.0-11.0-11.0-0.1","spark_pilot_norest","8551","5","8","Male","","false","","","","","[462.30000000074506]","./assets/img/space/animals/rabbit.jpg","[""ArrowRight""]","practice block","space","0","{""ArrowUp,ArrowLeft"":3,""ArrowUp,ArrowRight"":36,""ArrowDown,ArrowLeft"":15,""ArrowDown,ArrowRight"":23}","true","ArrowDown,ArrowRight","","","","","","",""
"html-keyboard-response","103","533609","0.0-3.0-11.0-11.0-1.1","spark_pilot_norest","8551","5","8","Male","","","","","","","null","<div style=""font-size:60px;"">+</div>","null","fixation","","","","","","","","","","","",""
"learning-instructions","104","540072","0.0-3.0-12.0-0.0","spark_pilot_norest","8551","5","8","Male","","","","","","","1728.5999999977648","<p> Before you start, we're going to ask you a few questions about how the game works. </p>","","instructions","","","","","","","","","","","",""
"comp-q","105","547306","0.0-3.0-13.0-0.0-0.0","spark_pilot_norest","8551","5","8","Male","","","","","","","1466.5999999977648","<p> <b> True or False? </b> </p>
            <p> There can be 50 pieces of treasure in a given animal's chest. </p>","1","comp_question","","","","true","","","","","","","",""
"comp-q","106","555196","0.0-3.0-13.0-0.0-1.0","spark_pilot_norest","8551","5","8","Male","","","","","","","1066","<p> <b> That's right! </b> The amount of treasure in each chest can range from 0 to 40 pieces. </p>","0","comp_answer","","","","","","","","","","","",""
"comp-q","107","563160","0.0-3.0-13.0-0.1-0.1","spark_pilot_norest","8551","5","8","Male","","","","","","","677.5","<p> <b> True or False? </b> </p><p> In this game, all animals have the same amount of treasure in their left and right chests. </p>","1","comp_question","","","","true","","","","","","","",""
"comp-q","108","569685","0.0-3.0-13.0-0.1-1.1","spark_pilot_norest","8551","5","8","Male","","","","","","","1133.7999999970198","<p> <b> That's right! </b> Animals have different amounts of treasure in their treasure chests. </p>","0","comp_answer","","","","","","","","","","","",""
"comp-q","109","576330","0.0-3.0-13.0-0.2-0.2","spark_pilot_norest","8551","5","8","Male","","","","","","","631.4000000022352","<p> <b> True or False? </b> </p><p> The same animal will always be there if you go up in the same place. </p>","0","comp_question","","","","true","","","","","","","",""
"comp-q","110","584783","0.0-3.0-13.0-0.2-1.2","spark_pilot_norest","8551","5","8","Male","","","","","","","1884.9000000022352","<p> <b> That's right! </b> One animal lives in the upper part and one lives in the lower part of every place. </p>","0","comp_answer","","","","","","","","","","","",""
"comp-q","111","591480","0.0-3.0-13.0-0.3-0.3","spark_pilot_norest","8551","5","8","Male","","","","","","","998","<p> <b> True or False? </b> </p><p> If you see a different picture, it means you are in a new place. </p>","0","comp_question","","","","false","","","","","","","",""
"comp-q","112","605107","0.0-3.0-13.0-0.3-1.3","spark_pilot_norest","8551","5","8","Male","","","","","","","2443.89999999851","<p> <b>Incorrect.</b> Lots of different images may show the same place. For example,  you may see three different images that all remind you that you are in outer space. </p>","0","comp_answer","","","","","","","","","","","",""
"comp-q","113","611340","0.0-3.0-13.0-0.4-0.4","spark_pilot_norest","8551","5","8","Male","","","","","","","730.6999999992549","<p> <b> True or False? </b> </p><p> If you see a different picture, it means you are in a new place. </p>","1","comp_question","","","","true","","","","","","","",""
"comp-q","114","626317","0.0-3.0-13.0-0.4-1.4","spark_pilot_norest","8551","5","8","Male","","","","","","","3557.199999999255","<p> <b> That's right! </b> Lots of different images may show the same place. For example,  you may see three different images that all remind you that you are in outer space. </p>","0","comp_answer","","","","","","","","","","","",""
"learning-instructions","115","638138","0.0-3.0-14.0-0.0","spark_pilot_norest","8551","5","8","Male","","","","","","","1788.9000000022352","<p> Good job. Remember to do your best because the amount of treasure you earn will be converted into bonus money. </p>
            <p> It’s time to start the real game! </p>","","instructions","","","","","","","","","","","",""
"learning-instructions","116","641962","0.0-4.0-0.0-0.0","spark_pilot_norest","8551","5","8","Male","","","","","","","909.1999999992549","<p> This time you are searching for treasure in the <b>canyon</b>.</p>","","instructions","","","","","","","","","","","",""
"learning-instructions","117","660419","0.0-4.0-0.0-0.1","spark_pilot_norest","8551","5","8","Male","","","","","","","925.2999999970198","<p><b>New</b> animals with <b>new</b> treasure chests live here. You need to explore to discover where the animal with the best treasure chest is.</p>
                    <p> Like before, once you figure out which animal has the chest with the most treasure, you should try to get to that animal and select that chest! </p>","","instructions","","","","","","","","","","","",""
"learning-instructions","118","676182","0.0-4.0-1.0-0.0","spark_pilot_norest","8551","5","8","Male","","","","","","","1030.199999999255","<p> Remember, when you see a picture of the place, use the up and down keys to <b>find an animal</b>.</p>
            <p> When you encounter an animal, you should use the left and right keys to <b>select a treasure chest</b>.</p>
            <p> Don't forget to look out for the robber! </p>","","instructions","","","","","","","","","","","",""
"revaluation","119","680202","0.0-4.0-2.0-0.0","spark_pilot_norest","8551","5","8","Male","","true","","","","","[]","./assets/img/canyon/memory/36.jpg","[]","value training","canyon","-5","{""ArrowUp,ArrowLeft"":26,""ArrowUp,ArrowRight"":10,""ArrowDown,ArrowLeft"":5,""ArrowDown,ArrowRight"":17}","false","","false","original","1","0","","",""
"html-keyboard-response","120","680721","0.0-4.0-2.0-1.0","spark_pilot_norest","8551","5","8","Male","","","","","","","null","<div style=""font-size:60px;"">+</div>","null","fixation","","","","","","","","","1","","",""
"revaluation","121","686742","0.0-4.0-2.0-0.1","spark_pilot_norest","8551","5","8","Male","","false","","","","","[259.9000000022352,898.9000000022352]","./assets/img/canyon/memory/9.jpg","[""ArrowUp"",""ArrowRight""]","value training","canyon","10","{""ArrowUp,ArrowLeft"":26,""ArrowUp,ArrowRight"":10,""ArrowDown,ArrowLeft"":5,""ArrowDown,ArrowRight"":17}","false","ArrowUp,ArrowRight","false","original","1","2","","",""
"html-keyboard-response","122","687249","0.0-4.0-2.0-1.1","spark_pilot_norest","8551","5","8","Male","","","","","","","null","<div style=""font-size:60px;"">+</div>","null","fixation","","","","","","","","","3","","",""
"revaluation","123","693265","0.0-4.0-2.0-0.2","spark_pilot_norest","8551","5","8","Male","","false","","","","","[393.5999999977648,545.3999999985099]","./assets/img/canyon/memory/15.jpg","[""ArrowDown"",""ArrowRight""]","value training","canyon","17","{""ArrowUp,ArrowLeft"":26,""ArrowUp,ArrowRight"":10,""ArrowDown,ArrowLeft"":5,""ArrowDown,ArrowRight"":17}","false","ArrowDown,ArrowRight","false","original","1","4","","",""
"html-keyboard-response","124","693769","0.0-4.0-2.0-1.2","spark_pilot_norest","8551","5","8","Male","","","","","","","null","<div style=""font-size:60px;"">+</div>","null","fixation","","","","","","","","","5","","",""
"revaluation","125","699793","0.0-4.0-2.0-0.3","spark_pilot_norest","8551","5","8","Male","","false","","","","","[848.3999999985099,434.80000000074506]","./assets/img/canyon/memory/21.jpg","[""ArrowUp"",""ArrowLeft""]","value training","canyon","26","{""ArrowUp,ArrowLeft"":26,""ArrowUp,ArrowRight"":10,""ArrowDown,ArrowLeft"":5,""ArrowDown,ArrowRight"":17}","true","ArrowUp,ArrowLeft","false","original","1","6","","",""
"html-keyboard-response","126","700297","0.0-4.0-2.0-1.3","spark_pilot_norest","8551","5","8","Male","","","","","","","null","<div style=""font-size:60px;"">+</div>","null","fixation","","","","","","","","","7","","",""
"revaluation","127","706321","0.0-4.0-2.0-0.4","spark_pilot_norest","8551","5","8","Male","","false","","","","","[791.8000000007451,965]","./assets/img/canyon/memory/16.jpg","[""ArrowUp"",""ArrowLeft""]","value training","canyon","26","{""ArrowUp,ArrowLeft"":26,""ArrowUp,ArrowRight"":10,""ArrowDown,ArrowLeft"":5,""ArrowDown,ArrowRight"":17}","true","ArrowUp,ArrowLeft","false","original","1","8","","",""
"html-keyboard-response","128","706826","0.0-4.0-2.0-1.4","spark_pilot_norest","8551","5","8","Male","","","","","","","null","<div style=""font-size:60px;"">+</div>","null","fixation","","","","","","","","","9","","",""
"revaluation","129","712857","0.0-4.0-2.0-0.5","spark_pilot_norest","8551","5","8","Male","","false","","","","","[430.6000000014901,1133.800000000745]","./assets/img/canyon/memory/14.jpg","[""ArrowDown"",""ArrowLeft""]","value training","canyon","5","{""ArrowUp,ArrowLeft"":26,""ArrowUp,ArrowRight"":10,""ArrowDown,ArrowLeft"":5,""ArrowDown,ArrowRight"":17}","false","ArrowDown,ArrowLeft","false","original","1","10","","",""
"html-keyboard-response","130","713361","0.0-4.0-2.0-1.5","spark_pilot_norest","8551","5","8","Male","","","","","","","null","<div style=""font-size:60px;"">+</div>","null","fixation","","","","","","","","","11","","",""
"revaluation","131","719386","0.0-4.0-2.0-0.6","spark_pilot_norest","8551","5","8","Male","","false","","","","","[254.60000000149012,1645.699999999255]","./assets/img/canyon/memory/25.jpg","[""ArrowDown"",""ArrowRight""]","value training","canyon","17","{""ArrowUp,ArrowLeft"":26,""ArrowUp,ArrowRight"":10,""ArrowDown,ArrowLeft"":5,""ArrowDown,ArrowRight"":17}","false","ArrowDown,ArrowRight","false","original","1","12","","",""
"html-keyboard-response","132","719889","0.0-4.0-2.0-1.6","spark_pilot_norest","8551","5","8","Male","","","","","","","null","<div style=""font-size:60px;"">+</div>","null","fixation","","","","","","","","","13","","",""
"revaluation","133","725921","0.0-4.0-2.0-0.7","spark_pilot_norest","8551","5","8","Male","","false","","","","","[421,511.5]","./assets/img/canyon/memory/16.jpg","[""ArrowUp"",""ArrowLeft""]","value training","canyon","26","{""ArrowUp,ArrowLeft"":26,""ArrowUp,ArrowRight"":10,""ArrowDown,ArrowLeft"":5,""ArrowDown,ArrowRight"":17}","true","ArrowUp,ArrowLeft","false","original","1","14","","",""
"html-keyboard-response","134","726425","0.0-4.0-2.0-1.7","spark_pilot_norest","8551","5","8","Male","","","","","","","null","<div style=""font-size:60px;"">+</div>","null","fixation","","","","","","","","","15","","",""
"revaluation","135","730441","0.0-4.0-2.0-0.8","spark_pilot_norest","8551","5","8","Male","","false","","","","","[586.5]","./assets/img/canyon/catch/7.jpg","[""ArrowUp""]","value training","canyon","-10","{""ArrowUp,ArrowLeft"":26,""ArrowUp,ArrowRight"":10,""ArrowDown,ArrowLeft"":5,""ArrowDown,ArrowRight"":17}","false","ArrowUp","true","original","1","16","","",""
"html-keyboard-response","136","730945","0.0-4.0-2.0-1.8","spark_pilot_norest","8551","5","8","Male","","","","","","","null","<div style=""font-size:60px;"">+</div>","null","fixation","","","","","","","","","17","","",""
"revaluation","137","736962","0.0-4.0-2.0-0.9","spark_pilot_norest","8551","5","8","Male","","false","","","","","[971,821.6000000014901]","./assets/img/canyon/memory/4.jpg","[""ArrowUp"",""ArrowLeft""]","value training","canyon","26","{""ArrowUp,ArrowLeft"":26,""ArrowUp,ArrowRight"":10,""ArrowDown,ArrowLeft"":5,""ArrowDown,ArrowRight"":17}","true","ArrowUp,ArrowLeft","false","original","1","18","","",""
"html-keyboard-response","138","737465","0.0-4.0-2.0-1.9","spark_pilot_norest","8551","5","8","Male","","","","","","","null","<div style=""font-size:60px;"">+</div>","null","fixation","","","","","","","","","19","","",""
"revaluation","139","743497","0.0-4.0-2.0-0.10","spark_pilot_norest","8551","5","8","Male","","false","","","","","[658.1999999992549,877.3000000007451]","./assets/img/canyon/memory/12.jpg","[""ArrowUp"",""ArrowLeft""]","value training","canyon","26","{""ArrowUp,ArrowLeft"":26,""ArrowUp,ArrowRight"":10,""ArrowDown,ArrowLeft"":5,""ArrowDown,ArrowRight"":17}","true","ArrowUp,ArrowLeft","false","original","1","20","","",""
"html-keyboard-response","140","744001","0.0-4.0-2.0-1.10","spark_pilot_norest","8551","5","8","Male","","","","","","","null","<div style=""font-size:60px;"">+</div>","null","fixation","","","","","","","","","21","","",""
"revaluation","141","748017","0.0-4.0-2.0-0.11","spark_pilot_norest","8551","5","8","Male","","false","","","","","[761.1999999992549]","./assets/img/canyon/catch/6.jpg","[""spaceBar""]","value training","canyon","0","{""ArrowUp,ArrowLeft"":26,""ArrowUp,ArrowRight"":10,""ArrowDown,ArrowLeft"":5,""ArrowDown,ArrowRight"":17}","true","spaceBar","true","original","1","22","","",""
"html-keyboard-response","142","748521","0.0-4.0-2.0-1.11","spark_pilot_norest","8551","5","8","Male","","","","","","","null","<div style=""font-size:60px;"">+</div>","null","fixation","","","","","","","","","23","","",""
"revaluation","143","754545","0.0-4.0-2.0-0.12","spark_pilot_norest","8551","5","8","Male","","false","","","","","[994.8000000007451,411.69999999925494]","./assets/img/canyon/memory/3.jpg","[""ArrowUp"",""ArrowLeft""]","value training","canyon","26","{""ArrowUp,ArrowLeft"":26,""ArrowUp,ArrowRight"":10,""ArrowDown,ArrowLeft"":5,""ArrowDown,ArrowRight"":17}","true","ArrowUp,ArrowLeft","false","original","1","24","","",""
"html-keyboard-response","144","755049","0.0-4.0-2.0-1.12","spark_pilot_norest","8551","5","8","Male","","","","","","","null","<div style=""font-size:60px;"">+</div>","null","fixation","","","","","","","","","25","","",""
"revaluation","145","761073","0.0-4.0-2.0-0.13","spark_pilot_norest","8551","5","8","Male","","false","","","","","[1208.300000000745,385.4000000022352]","./assets/img/canyon/memory/31.jpg","[""ArrowUp"",""ArrowLeft""]","value training","canyon","26","{""ArrowUp,ArrowLeft"":26,""ArrowUp,ArrowRight"":10,""ArrowDown,ArrowLeft"":5,""ArrowDown,ArrowRight"":17}","true","ArrowUp,ArrowLeft","false","original","1","26","","",""
"html-keyboard-response","146","761577","0.0-4.0-2.0-1.13","spark_pilot_norest","8551","5","8","Male","","","","","","","null","<div style=""font-size:60px;"">+</div>","null","fixation","","","","","","","","","27","","",""
"revaluation","147","767601","0.0-4.0-2.0-0.14","spark_pilot_norest","8551","5","8","Male","","false","","","","","[758,382.19999999925494]","./assets/img/canyon/memory/3.jpg","[""ArrowUp"",""ArrowLeft""]","value training","canyon","26","{""ArrowUp,ArrowLeft"":26,""ArrowUp,ArrowRight"":10,""ArrowDown,ArrowLeft"":5,""ArrowDown,ArrowRight"":17}","true","ArrowUp,ArrowLeft","false","original","1","28","","",""
"html-keyboard-response","148","768105","0.0-4.0-2.0-1.14","spark_pilot_norest","8551","5","8","Male","","","","","","","null","<div style=""font-size:60px;"">+</div>","null","fixation","","","","","","","","","29","","",""
"revaluation","149","774129","0.0-4.0-2.0-0.15","spark_pilot_norest","8551","5","8","Male","","false","","","","","[905.8999999985099,679.1000000014901]","./assets/img/canyon/memory/6.jpg","[""ArrowUp"",""ArrowLeft""]","value training","canyon","26","{""ArrowUp,ArrowLeft"":26,""ArrowUp,ArrowRight"":10,""ArrowDown,ArrowLeft"":5,""ArrowDown,ArrowRight"":17}","true","ArrowUp,ArrowLeft","false","original","1","30","","",""
"html-keyboard-response","150","774633","0.0-4.0-2.0-1.15","spark_pilot_norest","8551","5","8","Male","","","","","","","null","<div style=""font-size:60px;"">+</div>","null","fixation","","","","","","","","","31","","",""
"revaluation","151","780657","0.0-4.0-2.0-0.16","spark_pilot_norest","8551","5","8","Male","","false","","","","","[1377,631.3000000007451]","./assets/img/canyon/memory/32.jpg","[""ArrowUp"",""ArrowLeft""]","value training","canyon","26","{""ArrowUp,ArrowLeft"":26,""ArrowUp,ArrowRight"":10,""ArrowDown,ArrowLeft"":5,""ArrowDown,ArrowRight"":17}","true","ArrowUp,ArrowLeft","false","original","1","32","","",""
"html-keyboard-response","152","781161","0.0-4.0-2.0-1.16","spark_pilot_norest","8551","5","8","Male","","","","","","","null","<div style=""font-size:60px;"">+</div>","null","fixation","","","","","","","","","33","","",""
"revaluation","153","785177","0.0-4.0-2.0-0.17","spark_pilot_norest","8551","5","8","Male","","false","","","","","[478.8999999985099]","./assets/img/canyon/catch/0.jpg","[""spaceBar""]","value training","canyon","0","{""ArrowUp,ArrowLeft"":26,""ArrowUp,ArrowRight"":10,""ArrowDown,ArrowLeft"":5,""ArrowDown,ArrowRight"":17}","true","spaceBar","true","original","1","34","","",""
"html-keyboard-response","154","785681","0.0-4.0-2.0-1.17","spark_pilot_norest","8551","5","8","Male","","","","","","","null","<div style=""font-size:60px;"">+</div>","null","fixation","","","","","","","","","35","","",""
"revaluation","155","791705","0.0-4.0-2.0-0.18","spark_pilot_norest","8551","5","8","Male","","false","","","","","[1089.5999999977648,586.9000000022352]","./assets/img/canyon/memory/7.jpg","[""ArrowUp"",""ArrowLeft""]","value training","canyon","26","{""ArrowUp,ArrowLeft"":26,""ArrowUp,ArrowRight"":10,""ArrowDown,ArrowLeft"":5,""ArrowDown,ArrowRight"":17}","true","ArrowUp,ArrowLeft","false","original","1","36","","",""
"html-keyboard-response","156","792209","0.0-4.0-2.0-1.18","spark_pilot_norest","8551","5","8","Male","","","","","","","null","<div style=""font-size:60px;"">+</div>","null","fixation","","","","","","","","","37","","",""
"revaluation","157","798233","0.0-4.0-2.0-0.19","spark_pilot_norest","8551","5","8","Male","","false","","","","","[486.1000000014901,374.30000000074506]","./assets/img/canyon/memory/15.jpg","[""ArrowUp"",""ArrowLeft""]","value training","canyon","26","{""ArrowUp,ArrowLeft"":26,""ArrowUp,ArrowRight"":10,""ArrowDown,ArrowLeft"":5,""ArrowDown,ArrowRight"":17}","true","ArrowUp,ArrowLeft","false","original","1","38","","",""
"html-keyboard-response","158","798737","0.0-4.0-2.0-1.19","spark_pilot_norest","8551","5","8","Male","","","","","","","null","<div style=""font-size:60px;"">+</div>","null","fixation","","","","","","","","","39","","",""
"revaluation","159","804769","0.0-4.0-2.0-0.20","spark_pilot_norest","8551","5","8","Male","","false","","","","","[502.19999999925494,408.19999999925494]","./assets/img/canyon/memory/28.jpg","[""ArrowUp"",""ArrowLeft""]","value training","canyon","26","{""ArrowUp,ArrowLeft"":26,""ArrowUp,ArrowRight"":10,""ArrowDown,ArrowLeft"":5,""ArrowDown,ArrowRight"":17}","true","ArrowUp,ArrowLeft","false","original","1","40","","",""
"html-keyboard-response","160","805273","0.0-4.0-2.0-1.20","spark_pilot_norest","8551","5","8","Male","","","","","","","null","<div style=""font-size:60px;"">+</div>","null","fixation","","","","","","","","","41","","",""
"revaluation","161","811297","0.0-4.0-2.0-0.21","spark_pilot_norest","8551","5","8","Male","","false","","","","","[984.1999999992549,268.80000000074506]","./assets/img/canyon/memory/13.jpg","[""ArrowUp"",""ArrowLeft""]","value training","canyon","26","{""ArrowUp,ArrowLeft"":26,""ArrowUp,ArrowRight"":10,""ArrowDown,ArrowLeft"":5,""ArrowDown,ArrowRight"":17}","true","ArrowUp,ArrowLeft","false","original","1","42","","",""
"html-keyboard-response","162","811801","0.0-4.0-2.0-1.21","spark_pilot_norest","8551","5","8","Male","","","","","","","null","<div style=""font-size:60px;"">+</div>","null","fixation","","","","","","","","","43","","",""
"revaluation","163","817826","0.0-4.0-2.0-0.22","spark_pilot_norest","8551","5","8","Male","","false","","","","","[960.6999999992549,341.5]","./assets/img/canyon/memory/36.jpg","[""ArrowUp"",""ArrowLeft""]","value training","canyon","26","{""ArrowUp,ArrowLeft"":26,""ArrowUp,ArrowRight"":10,""ArrowDown,ArrowLeft"":5,""ArrowDown,ArrowRight"":17}","true","ArrowUp,ArrowLeft","false","original","1","44","","",""
"html-keyboard-response","164","818329","0.0-4.0-2.0-1.22","spark_pilot_norest","8551","5","8","Male","","","","","","","null","<div style=""font-size:60px;"">+</div>","null","fixation","","","","","","","","","45","","",""
"revaluation","165","824353","0.0-4.0-2.0-0.23","spark_pilot_norest","8551","5","8","Male","","false","","","","","[926.0999999977648,315.69999999925494]","./assets/img/canyon/memory/24.jpg","[""ArrowUp"",""ArrowLeft""]","value training","canyon","26","{""ArrowUp,ArrowLeft"":26,""ArrowUp,ArrowRight"":10,""ArrowDown,ArrowLeft"":5,""ArrowDown,ArrowRight"":17}","true","ArrowUp,ArrowLeft","false","original","1","46","","",""
"html-keyboard-response","166","824857","0.0-4.0-2.0-1.23","spark_pilot_norest","8551","5","8","Male","","","","","","","null","<div style=""font-size:60px;"">+</div>","null","fixation","","","","","","","","","47","","",""
"revaluation","167","830881","0.0-4.0-2.0-0.24","spark_pilot_norest","8551","5","8","Male","","false","","","","","[702.1000000014901,800.8000000007451]","./assets/img/canyon/memory/25.jpg","[""ArrowUp"",""ArrowLeft""]","value training","canyon","26","{""ArrowUp,ArrowLeft"":26,""ArrowUp,ArrowRight"":10,""ArrowDown,ArrowLeft"":5,""ArrowDown,ArrowRight"":17}","true","ArrowUp,ArrowLeft","false","original","1","48","","",""
"html-keyboard-response","168","831385","0.0-4.0-2.0-1.24","spark_pilot_norest","8551","5","8","Male","","","","","","","null","<div style=""font-size:60px;"">+</div>","null","fixation","","","","","","","","","49","","",""
"revaluation","169","837409","0.0-4.0-2.0-0.25","spark_pilot_norest","8551","5","8","Male","","false","","","","","[721.0999999977648,849.5]","./assets/img/canyon/memory/31.jpg","[""ArrowUp"",""ArrowLeft""]","value training","canyon","26","{""ArrowUp,ArrowLeft"":26,""ArrowUp,ArrowRight"":10,""ArrowDown,ArrowLeft"":5,""ArrowDown,ArrowRight"":17}","true","ArrowUp,ArrowLeft","false","original","1","50","","",""
"html-keyboard-response","170","837913","0.0-4.0-2.0-1.25","spark_pilot_norest","8551","5","8","Male","","","","","","","null","<div style=""font-size:60px;"">+</div>","null","fixation","","","","","","","","","51","","",""
"revaluation","171","843938","0.0-4.0-2.0-0.26","spark_pilot_norest","8551","5","8","Male","","false","","","","","[744,426.4000000022352]","./assets/img/canyon/memory/7.jpg","[""ArrowUp"",""ArrowLeft""]","value training","canyon","26","{""ArrowUp,ArrowLeft"":26,""ArrowUp,ArrowRight"":10,""ArrowDown,ArrowLeft"":5,""ArrowDown,ArrowRight"":17}","true","ArrowUp,ArrowLeft","false","original","1","52","","",""
"html-keyboard-response","172","844441","0.0-4.0-2.0-1.26","spark_pilot_norest","8551","5","8","Male","","","","","","","null","<div style=""font-size:60px;"">+</div>","null","fixation","","","","","","","","","53","","",""
"revaluation","173","850465","0.0-4.0-2.0-0.27","spark_pilot_norest","8551","5","8","Male","","false","","","","","[1136.300000000745,499.0999999977648]","./assets/img/canyon/memory/32.jpg","[""ArrowUp"",""ArrowLeft""]","value training","canyon","26","{""ArrowUp,ArrowLeft"":26,""ArrowUp,ArrowRight"":10,""ArrowDown,ArrowLeft"":5,""ArrowDown,ArrowRight"":17}","true","ArrowUp,ArrowLeft","false","original","1","54","","",""
"html-keyboard-response","174","850969","0.0-4.0-2.0-1.27","spark_pilot_norest","8551","5","8","Male","","","","","","","null","<div style=""font-size:60px;"">+</div>","null","fixation","","","","","","","","","55","","",""
"revaluation","175","856989","0.0-4.0-2.0-0.28","spark_pilot_norest","8551","5","8","Male","","false","","","","","[1040.1000000014901,976.7999999970198]","./assets/img/canyon/memory/23.jpg","[""ArrowUp"",""ArrowLeft""]","value training","canyon","26","{""ArrowUp,ArrowLeft"":26,""ArrowUp,ArrowRight"":10,""ArrowDown,ArrowLeft"":5,""ArrowDown,ArrowRight"":17}","true","ArrowUp,ArrowLeft","false","original","1","56","","",""
"html-keyboard-response","176","857497","0.0-4.0-2.0-1.28","spark_pilot_norest","8551","5","8","Male","","","","","","","null","<div style=""font-size:60px;"">+</div>","null","fixation","","","","","","","","","57","","",""
"revaluation","177","863522","0.0-4.0-2.0-0.29","spark_pilot_norest","8551","5","8","Male","","false","","","","","[499.5999999977648,1183.1000000014901]","./assets/img/canyon/memory/12.jpg","[""ArrowUp"",""ArrowLeft""]","value training","canyon","26","{""ArrowUp,ArrowLeft"":26,""ArrowUp,ArrowRight"":10,""ArrowDown,ArrowLeft"":5,""ArrowDown,ArrowRight"":17}","true","ArrowUp,ArrowLeft","false","original","1","58","","",""
"html-keyboard-response","178","864025","0.0-4.0-2.0-1.29","spark_pilot_norest","8551","5","8","Male","","","","","","","null","<div style=""font-size:60px;"">+</div>","null","fixation","","","","","","","","","59","","",""
"revaluation","179","870049","0.0-4.0-2.0-0.30","spark_pilot_norest","8551","5","8","Male","","false","","","","","[557.6999999992549,378.6000000014901]","./assets/img/canyon/memory/6.jpg","[""ArrowUp"",""ArrowLeft""]","value training","canyon","26","{""ArrowUp,ArrowLeft"":26,""ArrowUp,ArrowRight"":10,""ArrowDown,ArrowLeft"":5,""ArrowDown,ArrowRight"":17}","true","ArrowUp,ArrowLeft","false","original","1","60","","",""
"html-keyboard-response","180","870553","0.0-4.0-2.0-1.30","spark_pilot_norest","8551","5","8","Male","","","","","","","null","<div style=""font-size:60px;"">+</div>","null","fixation","","","","","","","","","61","","",""
"revaluation","181","874569","0.0-4.0-2.0-0.31","spark_pilot_norest","8551","5","8","Male","","false","","","","","[869.4000000022352]","./assets/img/canyon/catch/2.jpg","[""spaceBar""]","value training","canyon","0","{""ArrowUp,ArrowLeft"":26,""ArrowUp,ArrowRight"":10,""ArrowDown,ArrowLeft"":5,""ArrowDown,ArrowRight"":17}","true","spaceBar","true","original","1","62","","",""
"html-keyboard-response","182","875073","0.0-4.0-2.0-1.31","spark_pilot_norest","8551","5","8","Male","","","","","","","null","<div style=""font-size:60px;"">+</div>","null","fixation","","","","","","","","","63","","",""
"revaluation","183","881098","0.0-4.0-2.0-0.32","spark_pilot_norest","8551","5","8","Male","","false","","","","","[937.5,309.5]","./assets/img/canyon/memory/4.jpg","[""ArrowUp"",""ArrowLeft""]","value training","canyon","26","{""ArrowUp,ArrowLeft"":26,""ArrowUp,ArrowRight"":10,""ArrowDown,ArrowLeft"":5,""ArrowDown,ArrowRight"":17}","true","ArrowUp,ArrowLeft","false","original","1","64","","",""
"html-keyboard-response","184","881601","0.0-4.0-2.0-1.32","spark_pilot_norest","8551","5","8","Male","","","","","","","null","<div style=""font-size:60px;"">+</div>","null","fixation","","","","","","","","","65","","",""
"revaluation","185","887625","0.0-4.0-2.0-0.33","spark_pilot_norest","8551","5","8","Male","","false","","","","","[508.9000000022352,359.4000000022352]","./assets/img/canyon/memory/17.jpg","[""ArrowUp"",""ArrowLeft""]","value training","canyon","26","{""ArrowUp,ArrowLeft"":26,""ArrowUp,ArrowRight"":10,""ArrowDown,ArrowLeft"":5,""ArrowDown,ArrowRight"":17}","true","ArrowUp,ArrowLeft","false","original","1","66","","",""
"html-keyboard-response","186","888129","0.0-4.0-2.0-1.33","spark_pilot_norest","8551","5","8","Male","","","","","","","null","<div style=""font-size:60px;"">+</div>","null","fixation","","","","","","","","","67","","",""
"revaluation","187","892145","0.0-4.0-2.0-0.34","spark_pilot_norest","8551","5","8","Male","","false","","","","","[1130.6000000014901]","./assets/img/canyon/catch/3.jpg","[""spaceBar""]","value training","canyon","0","{""ArrowUp,ArrowLeft"":26,""ArrowUp,ArrowRight"":10,""ArrowDown,ArrowLeft"":5,""ArrowDown,ArrowRight"":17}","true","spaceBar","true","original","1","68","","",""
"html-keyboard-response","188","892649","0.0-4.0-2.0-1.34","spark_pilot_norest","8551","5","8","Male","","","","","","","null","<div style=""font-size:60px;"">+</div>","null","fixation","","","","","","","","","69","","",""
"revaluation","189","898673","0.0-4.0-2.0-0.35","spark_pilot_norest","8551","5","8","Male","","false","","","","","[610.3999999985099,328.30000000074506]","./assets/img/canyon/memory/11.jpg","[""ArrowUp"",""ArrowLeft""]","value training","canyon","26","{""ArrowUp,ArrowLeft"":26,""ArrowUp,ArrowRight"":10,""ArrowDown,ArrowLeft"":5,""ArrowDown,ArrowRight"":17}","true","ArrowUp,ArrowLeft","false","original","1","70","","",""
"html-keyboard-response","190","899177","0.0-4.0-2.0-1.35","spark_pilot_norest","8551","5","8","Male","","","","","","","null","<div style=""font-size:60px;"">+</div>","null","fixation","","","","","","","","","71","","",""
"revaluation","191","905201","0.0-4.0-2.0-0.36","spark_pilot_norest","8551","5","8","Male","","false","","","","","[1083.699999999255,409.1000000014901]","./assets/img/canyon/memory/9.jpg","[""ArrowUp"",""ArrowLeft""]","value training","canyon","26","{""ArrowUp,ArrowLeft"":26,""ArrowUp,ArrowRight"":10,""ArrowDown,ArrowLeft"":5,""ArrowDown,ArrowRight"":17}","true","ArrowUp,ArrowLeft","false","original","1","72","","",""
"html-keyboard-response","192","905705","0.0-4.0-2.0-1.36","spark_pilot_norest","8551","5","8","Male","","","","","","","null","<div style=""font-size:60px;"">+</div>","null","fixation","","","","","","","","","73","","",""
"revaluation","193","911729","0.0-4.0-2.0-0.37","spark_pilot_norest","8551","5","8","Male","","false","","","","","[1057.199999999255,466.1000000014901]","./assets/img/canyon/memory/14.jpg","[""ArrowUp"",""ArrowLeft""]","value training","canyon","26","{""ArrowUp,ArrowLeft"":26,""ArrowUp,ArrowRight"":10,""ArrowDown,ArrowLeft"":5,""ArrowDown,ArrowRight"":17}","true","ArrowUp,ArrowLeft","false","original","1","74","","",""
"html-keyboard-response","194","912233","0.0-4.0-2.0-1.37","spark_pilot_norest","8551","5","8","Male","","","","","","","null","<div style=""font-size:60px;"">+</div>","null","fixation","","","","","","","","","75","","",""
"revaluation","195","918257","0.0-4.0-2.0-0.38","spark_pilot_norest","8551","5","8","Male","","false","","","","","[593,619.6999999992549]","./assets/img/canyon/memory/23.jpg","[""ArrowUp"",""ArrowLeft""]","value training","canyon","26","{""ArrowUp,ArrowLeft"":26,""ArrowUp,ArrowRight"":10,""ArrowDown,ArrowLeft"":5,""ArrowDown,ArrowRight"":17}","true","ArrowUp,ArrowLeft","false","original","1","76","","",""
"html-keyboard-response","196","918761","0.0-4.0-2.0-1.38","spark_pilot_norest","8551","5","8","Male","","","","","","","null","<div style=""font-size:60px;"">+</div>","null","fixation","","","","","","","","","77","","",""
"revaluation","197","924786","0.0-4.0-2.0-0.39","spark_pilot_norest","8551","5","8","Male","","false","","","","","[406.30000000074506,353.80000000074506]","./assets/img/canyon/memory/39.jpg","[""ArrowUp"",""ArrowLeft""]","value training","canyon","26","{""ArrowUp,ArrowLeft"":26,""ArrowUp,ArrowRight"":10,""ArrowDown,ArrowLeft"":5,""ArrowDown,ArrowRight"":17}","true","ArrowUp,ArrowLeft","false","original","1","78","","",""
"html-keyboard-response","198","925297","0.0-4.0-2.0-1.39","spark_pilot_norest","8551","5","8","Male","","","","","","","null","<div style=""font-size:60px;"">+</div>","null","fixation","","","","","","","","","79","","",""
"revaluation","199","929313","0.0-4.0-2.0-0.40","spark_pilot_norest","8551","5","8","Male","","false","","","","","[716.4000000022352]","./assets/img/canyon/catch/4.jpg","[""spaceBar""]","value training","canyon","0","{""ArrowUp,ArrowLeft"":26,""ArrowUp,ArrowRight"":10,""ArrowDown,ArrowLeft"":5,""ArrowDown,ArrowRight"":17}","true","spaceBar","true","original","1","80","","",""
"html-keyboard-response","200","929817","0.0-4.0-2.0-1.40","spark_pilot_norest","8551","5","8","Male","","","","","","","null","<div style=""font-size:60px;"">+</div>","null","fixation","","","","","","","","","81","","",""
"revaluation","201","935842","0.0-4.0-2.0-0.41","spark_pilot_norest","8551","5","8","Male","","false","","","","","[944.1999999992549,459.19999999925494]","./assets/img/canyon/memory/39.jpg","[""ArrowUp"",""ArrowLeft""]","value training","canyon","26","{""ArrowUp,ArrowLeft"":26,""ArrowUp,ArrowRight"":10,""ArrowDown,ArrowLeft"":5,""ArrowDown,ArrowRight"":17}","true","ArrowUp,ArrowLeft","false","original","1","82","","",""
"html-keyboard-response","202","936345","0.0-4.0-2.0-1.41","spark_pilot_norest","8551","5","8","Male","","","","","","","null","<div style=""font-size:60px;"">+</div>","null","fixation","","","","","","","","","83","","",""
"revaluation","203","940361","0.0-4.0-2.0-0.42","spark_pilot_norest","8551","5","8","Male","","false","","","","","[911.8999999985099]","./assets/img/canyon/catch/5.jpg","[""spaceBar""]","value training","canyon","0","{""ArrowUp,ArrowLeft"":26,""ArrowUp,ArrowRight"":10,""ArrowDown,ArrowLeft"":5,""ArrowDown,ArrowRight"":17}","true","spaceBar","true","original","1","84","","",""
"html-keyboard-response","204","940865","0.0-4.0-2.0-1.42","spark_pilot_norest","8551","5","8","Male","","","","","","","null","<div style=""font-size:60px;"">+</div>","null","fixation","","","","","","","","","85","","",""
"revaluation","205","946889","0.0-4.0-2.0-0.43","spark_pilot_norest","8551","5","8","Male","","false","","","","","[897.1000000014901,330.19999999925494]","./assets/img/canyon/memory/24.jpg","[""ArrowUp"",""ArrowLeft""]","value training","canyon","26","{""ArrowUp,ArrowLeft"":26,""ArrowUp,ArrowRight"":10,""ArrowDown,ArrowLeft"":5,""ArrowDown,ArrowRight"":17}","true","ArrowUp,ArrowLeft","false","original","1","86","","",""
"html-keyboard-response","206","947393","0.0-4.0-2.0-1.43","spark_pilot_norest","8551","5","8","Male","","","","","","","null","<div style=""font-size:60px;"">+</div>","null","fixation","","","","","","","","","87","","",""
"revaluation","207","951409","0.0-4.0-2.0-0.44","spark_pilot_norest","8551","5","8","Male","","false","","","","","[866.5]","./assets/img/canyon/catch/1.jpg","[""spaceBar""]","value training","canyon","0","{""ArrowUp,ArrowLeft"":26,""ArrowUp,ArrowRight"":10,""ArrowDown,ArrowLeft"":5,""ArrowDown,ArrowRight"":17}","true","spaceBar","true","original","1","88","","",""
"html-keyboard-response","208","951913","0.0-4.0-2.0-1.44","spark_pilot_norest","8551","5","8","Male","","","","","","","null","<div style=""font-size:60px;"">+</div>","null","fixation","","","","","","","","","89","","",""
"revaluation","209","957937","0.0-4.0-2.0-0.45","spark_pilot_norest","8551","5","8","Male","","false","","","","","[742.9000000022352,307.4000000022352]","./assets/img/canyon/memory/21.jpg","[""ArrowUp"",""ArrowLeft""]","value training","canyon","26","{""ArrowUp,ArrowLeft"":26,""ArrowUp,ArrowRight"":10,""ArrowDown,ArrowLeft"":5,""ArrowDown,ArrowRight"":17}","true","ArrowUp,ArrowLeft","false","original","1","90","","",""
"html-keyboard-response","210","958441","0.0-4.0-2.0-1.45","spark_pilot_norest","8551","5","8","Male","","","","","","","null","<div style=""font-size:60px;"">+</div>","null","fixation","","","","","","","","","91","","",""
"revaluation","211","964465","0.0-4.0-2.0-0.46","spark_pilot_norest","8551","5","8","Male","","false","","","","","[565.3000000007451,139.40000000223517]","./assets/img/canyon/memory/28.jpg","[""ArrowUp"",""ArrowLeft""]","value training","canyon","26","{""ArrowUp,ArrowLeft"":26,""ArrowUp,ArrowRight"":10,""ArrowDown,ArrowLeft"":5,""ArrowDown,ArrowRight"":17}","true","ArrowUp,ArrowLeft","false","original","1","92","","",""
"html-keyboard-response","212","964969","0.0-4.0-2.0-1.46","spark_pilot_norest","8551","5","8","Male","","","","","","","null","<div style=""font-size:60px;"">+</div>","null","fixation","","","","","","","","","93","","",""
"revaluation","213","970993","0.0-4.0-2.0-0.47","spark_pilot_norest","8551","5","8","Male","","false","","","","","[1042.5999999977648,316.1000000014901]","./assets/img/canyon/memory/13.jpg","[""ArrowUp"",""ArrowLeft""]","value training","canyon","26","{""ArrowUp,ArrowLeft"":26,""ArrowUp,ArrowRight"":10,""ArrowDown,ArrowLeft"":5,""ArrowDown,ArrowRight"":17}","true","ArrowUp,ArrowLeft","false","original","1","94","","",""
"html-keyboard-response","214","971497","0.0-4.0-2.0-1.47","spark_pilot_norest","8551","5","8","Male","","","","","","","null","<div style=""font-size:60px;"">+</div>","null","fixation","","","","","","","","","95","","",""
"revaluation","215","977521","0.0-4.0-2.0-0.48","spark_pilot_norest","8551","5","8","Male","","false","","","","","[1017.3000000007451,155.60000000149012]","./assets/img/canyon/memory/17.jpg","[""ArrowUp"",""ArrowLeft""]","value training","canyon","26","{""ArrowUp,ArrowLeft"":26,""ArrowUp,ArrowRight"":10,""ArrowDown,ArrowLeft"":5,""ArrowDown,ArrowRight"":17}","true","ArrowUp,ArrowLeft","false","original","1","96","","",""
"html-keyboard-response","216","978025","0.0-4.0-2.0-1.48","spark_pilot_norest","8551","5","8","Male","","","","","","","null","<div style=""font-size:60px;"">+</div>","null","fixation","","","","","","","","","97","","",""
"revaluation","217","984050","0.0-4.0-2.0-0.49","spark_pilot_norest","8551","5","8","Male","","false","","","","","[617.8999999985099,273]","./assets/img/canyon/memory/11.jpg","[""ArrowUp"",""ArrowLeft""]","value training","canyon","26","{""ArrowUp,ArrowLeft"":26,""ArrowUp,ArrowRight"":10,""ArrowDown,ArrowLeft"":5,""ArrowDown,ArrowRight"":17}","true","ArrowUp,ArrowLeft","false","original","1","98","","",""
"html-keyboard-response","218","984553","0.0-4.0-2.0-1.49","spark_pilot_norest","8551","5","8","Male","","","","","","","null","<div style=""font-size:60px;"">+</div>","null","fixation","","","","","","","","","99","","",""
"learning-instructions","219","1000507","0.0-4.0-3.0-0.0","spark_pilot_norest","8551","5","8","Male","","","","","","","3059.099999997765","<p> Now, you will travel with a friend who will choose whether you go up or down first. </p>
            <p> On these turns, you will just see the animal that they found. You will still get to choose which chest to search for treasure.</p>","","instructions","","","","","","","","","","","",""
"revaluation","220","1004530","0.0-4.0-4.0-0.0","spark_pilot_norest","8551","5","8","Male","","false","","","","","[2006.5999999977648]","./assets/img/canyon/animals/lion.jpg","[""ArrowRight""]","revaluation","canyon","17","{""ArrowUp,ArrowLeft"":26,""ArrowUp,ArrowRight"":10,""ArrowDown,ArrowLeft"":5,""ArrowDown,ArrowRight"":17}","true","ArrowDown,ArrowRight","","original","1","0","","",""
"html-keyboard-response","221","1005041","0.0-4.0-4.0-1.0","spark_pilot_norest","8551","5","8","Male","","","","","","","null","<div style=""font-size:60px;"">+</div>","null","fixation","","","","","","","","","1","","",""
"revaluation","222","1009058","0.0-4.0-4.0-0.1","spark_pilot_norest","8551","5","8","Male","","false","","","","","[309.3999999985099]","./assets/img/canyon/animals/lion.jpg","[""ArrowLeft""]","revaluation","canyon","5","{""ArrowUp,ArrowLeft"":26,""ArrowUp,ArrowRight"":10,""ArrowDown,ArrowLeft"":5,""ArrowDown,ArrowRight"":17}","false","ArrowDown,ArrowLeft","","original","1","2","","",""
"html-keyboard-response","223","1009561","0.0-4.0-4.0-1.1","spark_pilot_norest","8551","5","8","Male","","","","","","","null","<div style=""font-size:60px;"">+</div>","null","fixation","","","","","","","","","3","","",""
"revaluation","224","1013577","0.0-4.0-4.0-0.2","spark_pilot_norest","8551","5","8","Male","","false","","","","","[381.5]","./assets/img/canyon/animals/giraffe.jpg","[""ArrowRight""]","revaluation","canyon","10","{""ArrowUp,ArrowLeft"":26,""ArrowUp,ArrowRight"":10,""ArrowDown,ArrowLeft"":5,""ArrowDown,ArrowRight"":17}","false","ArrowUp,ArrowRight","","original","1","4","","",""
"html-keyboard-response","225","1014081","0.0-4.0-4.0-1.2","spark_pilot_norest","8551","5","8","Male","","","","","","","null","<div style=""font-size:60px;"">+</div>","null","fixation","","","","","","","","","5","","",""
"revaluation","226","1018098","0.0-4.0-4.0-0.3","spark_pilot_norest","8551","5","8","Male","","false","","","","","[1680]","./assets/img/canyon/animals/lion.jpg","[""ArrowRight""]","revaluation","canyon","17","{""ArrowUp,ArrowLeft"":26,""ArrowUp,ArrowRight"":10,""ArrowDown,ArrowLeft"":5,""ArrowDown,ArrowRight"":17}","true","ArrowDown,ArrowRight","","original","1","6","","",""
"html-keyboard-response","227","1018601","0.0-4.0-4.0-1.3","spark_pilot_norest","8551","5","8","Male","","","","","","","null","<div style=""font-size:60px;"">+</div>","null","fixation","","","","","","","","","7","","",""
"revaluation","228","1022617","0.0-4.0-4.0-0.4","spark_pilot_norest","8551","5","8","Male","","false","","","","","[655]","./assets/img/canyon/animals/giraffe.jpg","[""ArrowLeft""]","revaluation","canyon","26","{""ArrowUp,ArrowLeft"":26,""ArrowUp,ArrowRight"":10,""ArrowDown,ArrowLeft"":5,""ArrowDown,ArrowRight"":17}","true","ArrowUp,ArrowLeft","","original","1","8","","",""
"html-keyboard-response","229","1023121","0.0-4.0-4.0-1.4","spark_pilot_norest","8551","5","8","Male","","","","","","","null","<div style=""font-size:60px;"">+</div>","null","fixation","","","","","","","","","9","","",""
"revaluation","230","1027137","0.0-4.0-4.0-0.5","spark_pilot_norest","8551","5","8","Male","","false","","","","","[888.1000000014901]","./assets/img/canyon/animals/lion.jpg","[""ArrowRight""]","revaluation","canyon","17","{""ArrowUp,ArrowLeft"":26,""ArrowUp,ArrowRight"":10,""ArrowDown,ArrowLeft"":5,""ArrowDown,ArrowRight"":17}","true","ArrowDown,ArrowRight","","original","1","10","","",""
"html-keyboard-response","231","1027641","0.0-4.0-4.0-1.5","spark_pilot_norest","8551","5","8","Male","","","","","","","null","<div style=""font-size:60px;"">+</div>","null","fixation","","","","","","","","","11","","",""
"revaluation","232","1031657","0.0-4.0-4.0-0.6","spark_pilot_norest","8551","5","8","Male","","false","","","","","[867.3000000007451]","./assets/img/canyon/animals/giraffe.jpg","[""ArrowLeft""]","revaluation","canyon","26","{""ArrowUp,ArrowLeft"":26,""ArrowUp,ArrowRight"":10,""ArrowDown,ArrowLeft"":5,""ArrowDown,ArrowRight"":17}","true","ArrowUp,ArrowLeft","","original","1","12","","",""
"html-keyboard-response","233","1032161","0.0-4.0-4.0-1.6","spark_pilot_norest","8551","5","8","Male","","","","","","","null","<div style=""font-size:60px;"">+</div>","null","fixation","","","","","","","","","13","","",""
"revaluation","234","1036177","0.0-4.0-4.0-0.7","spark_pilot_norest","8551","5","8","Male","","false","","","","","[600.0999999977648]","./assets/img/canyon/animals/giraffe.jpg","[""ArrowRight""]","revaluation","canyon","10","{""ArrowUp,ArrowLeft"":26,""ArrowUp,ArrowRight"":10,""ArrowDown,ArrowLeft"":5,""ArrowDown,ArrowRight"":17}","false","ArrowUp,ArrowRight","","original","1","14","","",""
"html-keyboard-response","235","1036681","0.0-4.0-4.0-1.7","spark_pilot_norest","8551","5","8","Male","","","","","","","null","<div style=""font-size:60px;"">+</div>","null","fixation","","","","","","","","","15","","",""
"revaluation","236","1040697","0.0-4.0-4.0-0.8","spark_pilot_norest","8551","5","8","Male","","false","","","","","[1084.3999999985099]","./assets/img/canyon/animals/giraffe.jpg","[""ArrowLeft""]","revaluation","canyon","26","{""ArrowUp,ArrowLeft"":26,""ArrowUp,ArrowRight"":10,""ArrowDown,ArrowLeft"":5,""ArrowDown,ArrowRight"":17}","true","ArrowUp,ArrowLeft","","original","1","16","","",""
"html-keyboard-response","237","1041201","0.0-4.0-4.0-1.8","spark_pilot_norest","8551","5","8","Male","","","","","","","null","<div style=""font-size:60px;"">+</div>","null","fixation","","","","","","","","","17","","",""
"revaluation","238","1045217","0.0-4.0-4.0-0.9","spark_pilot_norest","8551","5","8","Male","","false","","","","","[810.5999999977648]","./assets/img/canyon/animals/lion.jpg","[""ArrowRight""]","revaluation","canyon","17","{""ArrowUp,ArrowLeft"":26,""ArrowUp,ArrowRight"":10,""ArrowDown,ArrowLeft"":5,""ArrowDown,ArrowRight"":17}","true","ArrowDown,ArrowRight","","original","1","18","","",""
"html-keyboard-response","239","1045721","0.0-4.0-4.0-1.9","spark_pilot_norest","8551","5","8","Male","","","","","","","null","<div style=""font-size:60px;"">+</div>","null","fixation","","","","","","","","","19","","",""
"revaluation","240","1049737","0.0-4.0-4.0-0.10","spark_pilot_norest","8551","5","8","Male","","false","","","","","[1286.5]","./assets/img/canyon/animals/lion.jpg","[""ArrowRight""]","revaluation","canyon","17","{""ArrowUp,ArrowLeft"":26,""ArrowUp,ArrowRight"":10,""ArrowDown,ArrowLeft"":5,""ArrowDown,ArrowRight"":17}","true","ArrowDown,ArrowRight","","original","1","20","","",""
"html-keyboard-response","241","1050241","0.0-4.0-4.0-1.10","spark_pilot_norest","8551","5","8","Male","","","","","","","null","<div style=""font-size:60px;"">+</div>","null","fixation","","","","","","","","","21","","",""
"revaluation","242","1054257","0.0-4.0-4.0-0.11","spark_pilot_norest","8551","5","8","Male","","false","","","","","[766]","./assets/img/canyon/animals/giraffe.jpg","[""ArrowLeft""]","revaluation","canyon","26","{""ArrowUp,ArrowLeft"":26,""ArrowUp,ArrowRight"":10,""ArrowDown,ArrowLeft"":5,""ArrowDown,ArrowRight"":17}","true","ArrowUp,ArrowLeft","","original","1","22","","",""
"html-keyboard-response","243","1054761","0.0-4.0-4.0-1.11","spark_pilot_norest","8551","5","8","Male","","","","","","","null","<div style=""font-size:60px;"">+</div>","null","fixation","","","","","","","","","23","","",""
"revaluation","244","1058777","0.0-4.0-4.0-0.12","spark_pilot_norest","8551","5","8","Male","","false","","","","","[1498.5]","./assets/img/canyon/animals/giraffe.jpg","[""ArrowLeft""]","revaluation","canyon","26","{""ArrowUp,ArrowLeft"":26,""ArrowUp,ArrowRight"":10,""ArrowDown,ArrowLeft"":5,""ArrowDown,ArrowRight"":17}","true","ArrowUp,ArrowLeft","","original","1","24","","",""
"html-keyboard-response","245","1059281","0.0-4.0-4.0-1.12","spark_pilot_norest","8551","5","8","Male","","","","","","","null","<div style=""font-size:60px;"">+</div>","null","fixation","","","","","","","","","25","","",""
"revaluation","246","1063297","0.0-4.0-4.0-0.13","spark_pilot_norest","8551","5","8","Male","","false","","","","","[977.3000000007451]","./assets/img/canyon/animals/lion.jpg","[""ArrowRight""]","revaluation","canyon","17","{""ArrowUp,ArrowLeft"":26,""ArrowUp,ArrowRight"":10,""ArrowDown,ArrowLeft"":5,""ArrowDown,ArrowRight"":17}","true","ArrowDown,ArrowRight","","original","1","26","","",""
"html-keyboard-response","247","1063801","0.0-4.0-4.0-1.13","spark_pilot_norest","8551","5","8","Male","","","","","","","null","<div style=""font-size:60px;"">+</div>","null","fixation","","","","","","","","","27","","",""
"revaluation","248","1067817","0.0-4.0-4.0-0.14","spark_pilot_norest","8551","5","8","Male","","false","","","","","[961.2999999970198]","./assets/img/canyon/animals/lion.jpg","[""ArrowRight""]","revaluation","canyon","17","{""ArrowUp,ArrowLeft"":26,""ArrowUp,ArrowRight"":10,""ArrowDown,ArrowLeft"":5,""ArrowDown,ArrowRight"":17}","true","ArrowDown,ArrowRight","","original","1","28","","",""
"html-keyboard-response","249","1068321","0.0-4.0-4.0-1.14","spark_pilot_norest","8551","5","8","Male","","","","","","","null","<div style=""font-size:60px;"">+</div>","null","fixation","","","","","","","","","29","","",""
"revaluation","250","1072337","0.0-4.0-4.0-0.15","spark_pilot_norest","8551","5","8","Male","","false","","","","","[637.3000000007451]","./assets/img/canyon/animals/giraffe.jpg","[""ArrowLeft""]","revaluation","canyon","26","{""ArrowUp,ArrowLeft"":26,""ArrowUp,ArrowRight"":10,""ArrowDown,ArrowLeft"":5,""ArrowDown,ArrowRight"":17}","true","ArrowUp,ArrowLeft","","original","1","30","","",""
"html-keyboard-response","251","1072841","0.0-4.0-4.0-1.15","spark_pilot_norest","8551","5","8","Male","","","","","","","null","<div style=""font-size:60px;"">+</div>","null","fixation","","","","","","","","","31","","",""
"revaluation","252","1076857","0.0-4.0-4.0-0.16","spark_pilot_norest","8551","5","8","Male","","false","","","","","[1167.5]","./assets/img/canyon/animals/lion.jpg","[""ArrowRight""]","revaluation","canyon","17","{""ArrowUp,ArrowLeft"":26,""ArrowUp,ArrowRight"":10,""ArrowDown,ArrowLeft"":5,""ArrowDown,ArrowRight"":17}","true","ArrowDown,ArrowRight","","original","1","32","","",""
"html-keyboard-response","253","1077361","0.0-4.0-4.0-1.16","spark_pilot_norest","8551","5","8","Male","","","","","","","null","<div style=""font-size:60px;"">+</div>","null","fixation","","","","","","","","","33","","",""
"revaluation","254","1081377","0.0-4.0-4.0-0.17","spark_pilot_norest","8551","5","8","Male","","false","","","","","[651.9000000022352]","./assets/img/canyon/animals/giraffe.jpg","[""ArrowLeft""]","revaluation","canyon","26","{""ArrowUp,ArrowLeft"":26,""ArrowUp,ArrowRight"":10,""ArrowDown,ArrowLeft"":5,""ArrowDown,ArrowRight"":17}","true","ArrowUp,ArrowLeft","","original","1","34","","",""
"html-keyboard-response","255","1081881","0.0-4.0-4.0-1.17","spark_pilot_norest","8551","5","8","Male","","","","","","","null","<div style=""font-size:60px;"">+</div>","null","fixation","","","","","","","","","35","","",""
"learning-instructions","256","1089985","0.0-4.0-5.0-0.0","spark_pilot_norest","8551","5","8","Male","","","","","","","null","<p> You have almost finished this part of the game! </p>
            <p> We are going to ask you to make a few more choices. </p>","","instructions","","","","","","","","","","","",""
"learning-instructions","257","1105953","0.0-4.0-5.0-0.1","spark_pilot_norest","8551","5","8","Male","","","","","","","null","<p> First, you need to decide whether to go up or down. When you see each picture, use the arrow keys to make your choice. </p>
            <p><b>You will not see which animal you found, but try to get to the one that will give you the most treasure.</b></p>","","instructions","","","","","","","","","","","",""
"html-keyboard-response","258","1106961","0.0-4.0-6.0-0.0","spark_pilot_norest","8551","5","8","Male","","","","","","","null","<div style=""font-size:100px;color:red;"">Starting in...</div>","null","","","","","","","","","","","","",""
"html-keyboard-response","259","1107969","0.0-4.0-6.0-1.0","spark_pilot_norest","8551","5","8","Male","","","","","","","null","<div style=""font-size:200px;color:red;"">3</div>","null","","","","","","","","","","","","",""
"html-keyboard-response","260","1108977","0.0-4.0-6.0-2.0","spark_pilot_norest","8551","5","8","Male","","","","","","","null","<div style=""font-size:200px;color:red;"">2</div>","null","","","","","","","","","","","","",""
"html-keyboard-response","261","1109985","0.0-4.0-6.0-3.0","spark_pilot_norest","8551","5","8","Male","","","","","","","null","<div style=""font-size:200px;color:red;"">1</div>","null","","","","","","","","","","","","",""
"revaluation","262","1110772","0.0-4.0-7.0-0.0","spark_pilot_norest","8551","5","8","Male","","false","","","","","[779.5999999977648]","./assets/img/canyon/test/2.jpg","[""ArrowUp""]","first stage test","canyon","0","{""ArrowUp,ArrowLeft"":26,""ArrowUp,ArrowRight"":10,""ArrowDown,ArrowLeft"":5,""ArrowDown,ArrowRight"":17}","true","ArrowUp","false","original","1","","","",""
"html-keyboard-response","263","1111281","0.0-4.0-7.0-1.0","spark_pilot_norest","8551","5","8","Male","","","","","","","null","<div style=""font-size:60px;"">+</div>","null","fixation","","","","","","","","","","","",""
"revaluation","264","1112337","0.0-4.0-7.0-0.1","spark_pilot_norest","8551","5","8","Male","","false","","","","","[1048.800000000745]","./assets/img/canyon/test/3.jpg","[""ArrowUp""]","first stage test","canyon","0","{""ArrowUp,ArrowLeft"":26,""ArrowUp,ArrowRight"":10,""ArrowDown,ArrowLeft"":5,""ArrowDown,ArrowRight"":17}","true","ArrowUp","false","original","1","","","",""
"html-keyboard-response","265","1112841","0.0-4.0-7.0-1.1","spark_pilot_norest","8551","5","8","Male","","","","","","","null","<div style=""font-size:60px;"">+</div>","null","fixation","","","","","","","","","","","",""
"revaluation","266","1113178","0.0-4.0-7.0-0.2","spark_pilot_norest","8551","5","8","Male","","false","","","","","[324.5]","./assets/img/canyon/test/0.jpg","[""ArrowUp""]","first stage test","canyon","0","{""ArrowUp,ArrowLeft"":26,""ArrowUp,ArrowRight"":10,""ArrowDown,ArrowLeft"":5,""ArrowDown,ArrowRight"":17}","true","ArrowUp","false","original","1","","","",""
"html-keyboard-response","267","1113681","0.0-4.0-7.0-1.2","spark_pilot_norest","8551","5","8","Male","","","","","","","null","<div style=""font-size:60px;"">+</div>","null","fixation","","","","","","","","","","","",""
"revaluation","268","1116017","0.0-4.0-7.0-0.3","spark_pilot_norest","8551","5","8","Male","","false","","","","","[2329.300000000745]","./assets/img/canyon/test/1.jpg","[""ArrowDown""]","first stage test","canyon","0","{""ArrowUp,ArrowLeft"":26,""ArrowUp,ArrowRight"":10,""ArrowDown,ArrowLeft"":5,""ArrowDown,ArrowRight"":17}","false","ArrowDown","false","original","1","","","",""
"html-keyboard-response","269","1116521","0.0-4.0-7.0-1.3","spark_pilot_norest","8551","5","8","Male","","","","","","","null","<div style=""font-size:60px;"">+</div>","null","fixation","","","","","","","","","","","",""
"learning-instructions","270","1129873","0.0-4.0-8.0-0.0","spark_pilot_norest","8551","5","8","Male","","","","","","","null","<p> Now you will see the animals again and can search their chests for treasure. </p>
            <p> This time, you will not see how much treasure you earned, but you will earn more bonus money for making better choices. </p>","","instructions","","","","","","","","","","","",""
"html-keyboard-response","271","1130881","0.0-4.0-9.0-0.0","spark_pilot_norest","8551","5","8","Male","","","","","","","null","<div style=""font-size:100px;color:red;"">Starting in...</div>","null","","","","","","","","","","","","",""
"html-keyboard-response","272","1131889","0.0-4.0-9.0-1.0","spark_pilot_norest","8551","5","8","Male","","","","","","","null","<div style=""font-size:200px;color:red;"">3</div>","null","","","","","","","","","","","","",""
"html-keyboard-response","273","1132897","0.0-4.0-9.0-2.0","spark_pilot_norest","8551","5","8","Male","","","","","","","null","<div style=""font-size:200px;color:red;"">2</div>","null","","","","","","","","","","","","",""
"html-keyboard-response","274","1133905","0.0-4.0-9.0-3.0","spark_pilot_norest","8551","5","8","Male","","","","","","","null","<div style=""font-size:200px;color:red;"">1</div>","null","","","","","","","","","","","","",""
"revaluation","275","1135016","0.0-4.0-10.0-0.0","spark_pilot_norest","8551","5","8","Male","","false","","","","","[1104.699999999255]","./assets/img/canyon/animals/giraffe.jpg","[""ArrowLeft""]","second stage test","canyon","0","{""ArrowUp,ArrowLeft"":26,""ArrowUp,ArrowRight"":10,""ArrowDown,ArrowLeft"":5,""ArrowDown,ArrowRight"":17}","true","ArrowUp,ArrowLeft","","original","1","","","",""
"html-keyboard-response","276","1135521","0.0-4.0-10.0-1.0","spark_pilot_norest","8551","5","8","Male","","","","","","","null","<div style=""font-size:60px;"">+</div>","null","fixation","","","","","","","","","","","",""
"revaluation","277","1136308","0.0-4.0-10.0-0.1","spark_pilot_norest","8551","5","8","Male","","false","","","","","[780.1000000014901]","./assets/img/canyon/animals/giraffe.jpg","[""ArrowLeft""]","second stage test","canyon","0","{""ArrowUp,ArrowLeft"":26,""ArrowUp,ArrowRight"":10,""ArrowDown,ArrowLeft"":5,""ArrowDown,ArrowRight"":17}","true","ArrowUp,ArrowLeft","","original","1","","","",""
"html-keyboard-response","278","1136817","0.0-4.0-10.0-1.1","spark_pilot_norest","8551","5","8","Male","","","","","","","null","<div style=""font-size:60px;"">+</div>","null","fixation","","","","","","","","","","","",""
"revaluation","279","1137178","0.0-4.0-10.0-0.2","spark_pilot_norest","8551","5","8","Male","","false","","","","","[355.30000000074506]","./assets/img/canyon/animals/giraffe.jpg","[""ArrowLeft""]","second stage test","canyon","0","{""ArrowUp,ArrowLeft"":26,""ArrowUp,ArrowRight"":10,""ArrowDown,ArrowLeft"":5,""ArrowDown,ArrowRight"":17}","true","ArrowUp,ArrowLeft","","original","1","","","",""
"html-keyboard-response","280","1137681","0.0-4.0-10.0-1.2","spark_pilot_norest","8551","5","8","Male","","","","","","","null","<div style=""font-size:60px;"">+</div>","null","fixation","","","","","","","","","","","",""
"revaluation","281","1137883","0.0-4.0-10.0-0.3","spark_pilot_norest","8551","5","8","Male","","false","","","","","[195]","./assets/img/canyon/animals/giraffe.jpg","[""ArrowLeft""]","second stage test","canyon","0","{""ArrowUp,ArrowLeft"":26,""ArrowUp,ArrowRight"":10,""ArrowDown,ArrowLeft"":5,""ArrowDown,ArrowRight"":17}","true","ArrowUp,ArrowLeft","","original","1","","","",""
"html-keyboard-response","282","1138385","0.0-4.0-10.0-1.3","spark_pilot_norest","8551","5","8","Male","","","","","","","null","<div style=""font-size:60px;"">+</div>","null","fixation","","","","","","","","","","","",""
"revaluation","283","1138701","0.0-4.0-10.0-0.4","spark_pilot_norest","8551","5","8","Male","","false","","","","","[310.19999999925494]","./assets/img/canyon/animals/lion.jpg","[""ArrowLeft""]","second stage test","canyon","0","{""ArrowUp,ArrowLeft"":26,""ArrowUp,ArrowRight"":10,""ArrowDown,ArrowLeft"":5,""ArrowDown,ArrowRight"":17}","false","ArrowDown,ArrowLeft","","original","1","","","",""
"html-keyboard-response","284","1139209","0.0-4.0-10.0-1.4","spark_pilot_norest","8551","5","8","Male","","","","","","","null","<div style=""font-size:60px;"">+</div>","null","fixation","","","","","","","","","","","",""
"revaluation","285","1139810","0.0-4.0-10.0-0.5","spark_pilot_norest","8551","5","8","Male","","false","","","","","[597.1999999992549]","./assets/img/canyon/animals/lion.jpg","[""ArrowRight""]","second stage test","canyon","0","{""ArrowUp,ArrowLeft"":26,""ArrowUp,ArrowRight"":10,""ArrowDown,ArrowLeft"":5,""ArrowDown,ArrowRight"":17}","true","ArrowDown,ArrowRight","","original","1","","","",""
"html-keyboard-response","286","1140313","0.0-4.0-10.0-1.5","spark_pilot_norest","8551","5","8","Male","","","","","","","null","<div style=""font-size:60px;"">+</div>","null","fixation","","","","","","","","","","","",""
"revaluation","287","1140703","0.0-4.0-10.0-0.6","spark_pilot_norest","8551","5","8","Male","","false","","","","","[386.5999999977648]","./assets/img/canyon/animals/lion.jpg","[""ArrowRight""]","second stage test","canyon","0","{""ArrowUp,ArrowLeft"":26,""ArrowUp,ArrowRight"":10,""ArrowDown,ArrowLeft"":5,""ArrowDown,ArrowRight"":17}","true","ArrowDown,ArrowRight","","original","1","","","",""
"html-keyboard-response","288","1141209","0.0-4.0-10.0-1.6","spark_pilot_norest","8551","5","8","Male","","","","","","","null","<div style=""font-size:60px;"">+</div>","null","fixation","","","","","","","","","","","",""
"revaluation","289","1141782","0.0-4.0-10.0-0.7","spark_pilot_norest","8551","5","8","Male","","false","","","","","[567.1999999992549]","./assets/img/canyon/animals/lion.jpg","[""ArrowRight""]","second stage test","canyon","0","{""ArrowUp,ArrowLeft"":26,""ArrowUp,ArrowRight"":10,""ArrowDown,ArrowLeft"":5,""ArrowDown,ArrowRight"":17}","true","ArrowDown,ArrowRight","","original","1","","","",""
"html-keyboard-response","290","1142289","0.0-4.0-10.0-1.7","spark_pilot_norest","8551","5","8","Male","","","","","","","null","<div style=""font-size:60px;"">+</div>","null","fixation","","","","","","","","","","","",""
"learning-instructions","291","1149736","0.0-4.0-0.1-0.2","spark_pilot_norest","8551","5","8","Male","","","","","","","4600.5","<p> This time you are searching for treasure in the <b>ocean</b>.</p>","","instructions","","","","","","","","","","","",""
"learning-instructions","292","1168967","0.0-4.0-0.1-0.3","spark_pilot_norest","8551","5","8","Male","","","","","","","1975.5","<p><b>New</b> animals with <b>new</b> treasure chests live here. You need to explore to discover where the animal with the best treasure chest is.</p>
                    <p> Like before, once you figure out which animal has the chest with the most treasure, you should try to get to that animal and select that chest! </p>","","instructions","","","","","","","","","","","",""
"learning-instructions","293","1186759","0.0-4.0-1.1-0.1","spark_pilot_norest","8551","5","8","Male","","","","","","","3063.2999999970198","<p> Remember, when you see a picture of the place, use the up and down keys to <b>find an animal</b>.</p>
            <p> When you encounter an animal, you should use the left and right keys to <b>select a treasure chest</b>.</p>
            <p> Don't forget to look out for the robber! </p>","","instructions","","","","","","","","","","","",""
"revaluation","294","1192785","0.0-4.0-2.1-0.50","spark_pilot_norest","8551","5","8","Male","","false","","","","","[1248.2999999970198,601.6000000014901]","./assets/img/ocean/memory/32.jpg","[""ArrowUp"",""ArrowLeft""]","value training","ocean","23","{""ArrowUp,ArrowLeft"":23,""ArrowUp,ArrowRight"":10,""ArrowDown,ArrowLeft"":8,""ArrowDown,ArrowRight"":30}","false","ArrowUp,ArrowLeft","false","revaluation","2","0","","",""
"html-keyboard-response","295","1193289","0.0-4.0-2.1-1.50","spark_pilot_norest","8551","5","8","Male","","","","","","","null","<div style=""font-size:60px;"">+</div>","null","fixation","","","","","","","","","1","","",""
"revaluation","296","1199321","0.0-4.0-2.1-0.51","spark_pilot_norest","8551","5","8","Male","","false","","","","","[720.3000000007451,831.1999999992549]","./assets/img/ocean/memory/13.jpg","[""ArrowDown"",""ArrowRight""]","value training","ocean","30","{""ArrowUp,ArrowLeft"":23,""ArrowUp,ArrowRight"":10,""ArrowDown,ArrowLeft"":8,""ArrowDown,ArrowRight"":30}","true","ArrowDown,ArrowRight","false","revaluation","2","2","","",""
"html-keyboard-response","297","1199825","0.0-4.0-2.1-1.51","spark_pilot_norest","8551","5","8","Male","","","","","","","null","<div style=""font-size:60px;"">+</div>","null","fixation","","","","","","","","","3","","",""
"revaluation","298","1205849","0.0-4.0-2.1-0.52","spark_pilot_norest","8551","5","8","Male","","false","","","","","[434.80000000074506,303.6000000014901]","./assets/img/ocean/memory/14.jpg","[""ArrowDown"",""ArrowLeft""]","value training","ocean","8","{""ArrowUp,ArrowLeft"":23,""ArrowUp,ArrowRight"":10,""ArrowDown,ArrowLeft"":8,""ArrowDown,ArrowRight"":30}","false","ArrowDown,ArrowLeft","false","revaluation","2","4","","",""
"html-keyboard-response","299","1206353","0.0-4.0-2.1-1.52","spark_pilot_norest","8551","5","8","Male","","","","","","","null","<div style=""font-size:60px;"">+</div>","null","fixation","","","","","","","","","5","","",""
"revaluation","300","1212377","0.0-4.0-2.1-0.53","spark_pilot_norest","8551","5","8","Male","","false","","","","","[456.4000000022352,472.4000000022352]","./assets/img/ocean/memory/15.jpg","[""ArrowUp"",""ArrowRight""]","value training","ocean","10","{""ArrowUp,ArrowLeft"":23,""ArrowUp,ArrowRight"":10,""ArrowDown,ArrowLeft"":8,""ArrowDown,ArrowRight"":30}","false","ArrowUp,ArrowRight","false","revaluation","2","6","","",""
"html-keyboard-response","301","1212881","0.0-4.0-2.1-1.53","spark_pilot_norest","8551","5","8","Male","","","","","","","null","<div style=""font-size:60px;"">+</div>","null","fixation","","","","","","","","","7","","",""
"revaluation","302","1218905","0.0-4.0-2.1-0.54","spark_pilot_norest","8551","5","8","Male","","false","","","","","[375.80000000074506,327.30000000074506]","./assets/img/ocean/memory/7.jpg","[""ArrowDown"",""ArrowRight""]","value training","ocean","30","{""ArrowUp,ArrowLeft"":23,""ArrowUp,ArrowRight"":10,""ArrowDown,ArrowLeft"":8,""ArrowDown,ArrowRight"":30}","true","ArrowDown,ArrowRight","false","revaluation","2","8","","",""
"html-keyboard-response","303","1219409","0.0-4.0-2.1-1.54","spark_pilot_norest","8551","5","8","Male","","","","","","","null","<div style=""font-size:60px;"">+</div>","null","fixation","","","","","","","","","9","","",""
"revaluation","304","1225433","0.0-4.0-2.1-0.55","spark_pilot_norest","8551","5","8","Male","","false","","","","","[603.6000000014901,346.30000000074506]","./assets/img/ocean/memory/11.jpg","[""ArrowDown"",""ArrowRight""]","value training","ocean","30","{""ArrowUp,ArrowLeft"":23,""ArrowUp,ArrowRight"":10,""ArrowDown,ArrowLeft"":8,""ArrowDown,ArrowRight"":30}","true","ArrowDown,ArrowRight","false","revaluation","2","10","","",""
"html-keyboard-response","305","1225937","0.0-4.0-2.1-1.55","spark_pilot_norest","8551","5","8","Male","","","","","","","null","<div style=""font-size:60px;"">+</div>","null","fixation","","","","","","","","","11","","",""
"revaluation","306","1231961","0.0-4.0-2.1-0.56","spark_pilot_norest","8551","5","8","Male","","false","","","","","[1073.699999999255,464.1000000014901]","./assets/img/ocean/memory/13.jpg","[""ArrowDown"",""ArrowRight""]","value training","ocean","30","{""ArrowUp,ArrowLeft"":23,""ArrowUp,ArrowRight"":10,""ArrowDown,ArrowLeft"":8,""ArrowDown,ArrowRight"":30}","true","ArrowDown,ArrowRight","false","revaluation","2","12","","",""
"html-keyboard-response","307","1232465","0.0-4.0-2.1-1.56","spark_pilot_norest","8551","5","8","Male","","","","","","","null","<div style=""font-size:60px;"">+</div>","null","fixation","","","","","","","","","13","","",""
"revaluation","308","1238489","0.0-4.0-2.1-0.57","spark_pilot_norest","8551","5","8","Male","","false","","","","","[795.0999999977648,663.1999999992549]","./assets/img/ocean/memory/23.jpg","[""ArrowDown"",""ArrowRight""]","value training","ocean","30","{""ArrowUp,ArrowLeft"":23,""ArrowUp,ArrowRight"":10,""ArrowDown,ArrowLeft"":8,""ArrowDown,ArrowRight"":30}","true","ArrowDown,ArrowRight","false","revaluation","2","14","","",""
"html-keyboard-response","309","1238993","0.0-4.0-2.1-1.57","spark_pilot_norest","8551","5","8","Male","","","","","","","null","<div style=""font-size:60px;"">+</div>","null","fixation","","","","","","","","","15","","",""
"revaluation","310","1245017","0.0-4.0-2.1-0.58","spark_pilot_norest","8551","5","8","Male","","false","","","","","[1522.199999999255,458.19999999925494]","./assets/img/ocean/memory/16.jpg","[""ArrowDown"",""ArrowRight""]","value training","ocean","30","{""ArrowUp,ArrowLeft"":23,""ArrowUp,ArrowRight"":10,""ArrowDown,ArrowLeft"":8,""ArrowDown,ArrowRight"":30}","true","ArrowDown,ArrowRight","false","revaluation","2","16","","",""
"html-keyboard-response","311","1245521","0.0-4.0-2.1-1.58","spark_pilot_norest","8551","5","8","Male","","","","","","","null","<div style=""font-size:60px;"">+</div>","null","fixation","","","","","","","","","17","","",""
"revaluation","312","1251545","0.0-4.0-2.1-0.59","spark_pilot_norest","8551","5","8","Male","","false","","","","","[991.2999999970198,530.1000000014901]","./assets/img/ocean/memory/36.jpg","[""ArrowDown"",""ArrowRight""]","value training","ocean","30","{""ArrowUp,ArrowLeft"":23,""ArrowUp,ArrowRight"":10,""ArrowDown,ArrowLeft"":8,""ArrowDown,ArrowRight"":30}","true","ArrowDown,ArrowRight","false","revaluation","2","18","","",""
"html-keyboard-response","313","1252049","0.0-4.0-2.1-1.59","spark_pilot_norest","8551","5","8","Male","","","","","","","null","<div style=""font-size:60px;"">+</div>","null","fixation","","","","","","","","","19","","",""
