"trial_type","trial_index","time_elapsed","internal_node_id","task_version","subject_id","assigned_condition","age","gender","success","timeout","failed_images","failed_audio","failed_video","browser_interaction","rt","stimulus","response","task_part","environment","score","rewardMap","correct","fullState","isCatch","condition","order","trial_num","key_press","ground_truth","bonus"
"pavlovia","0","2435","0.0-0.0","spark_pilot_norest","8564","3","10","Male","","","","","","","","","","","","","","","","","","","","","",""
"preload","1","34799","0.0-1.0","spark_pilot_norest","8564","3","10","Male","true","false","[]","[]","[]","[{""event"":""fullscreenenter"",""trial"":2,""time"":40300}]","","","","","","","","","","","","","","","",""
"fullscreen","2","41281","0.0-2.0","spark_pilot_norest","8564","3","10","Male","true","","","","","","","","","","","","","","","","","","","","",""
"audio-button-response","3","42448","0.0-3.0-0.0-0.0","spark_pilot_norest","8564","3","10","Male","","","","","","","1101","./assets/audio/audiotest/turtle.mp3","2","audio_test","","","","","","","","","","","",""
"learning-instructions","4","55301","0.0-3.0-1.0-0.0","spark_pilot_norest","8564","3","10","Male","","","","","","","5876.799999982119","<p> Welcome! Please remember to stay in fullscreen mode and don't click away from the experiment. </p>","","instructions","","","","","","","","","","","",""
"learning-instructions","5","67091","0.0-3.0-1.0-0.1","spark_pilot_norest","8564","3","10","Male","","","","","","","3384.100000023842","<p> Today you will be playing a game to earn treasure. </p>
            <p> At the end of the experiment, you will earn a bonus based on how much treasure you find. </p>
            <img src='./assets/img/instructions/treasure.jpg' class='instructions-image'>","","instructions","","","","","","","","","","","",""
"learning-instructions","6","97348","0.0-3.0-1.0-0.2","spark_pilot_norest","8564","3","10","Male","","","","","","","22001.20000001788","<p> Animals have hidden treasure in treasure chests. </p>
            <p> You need to first find an animal and then choose which of their treasure chests to search. </p>
            <img src='./assets/img/space/animals/cat.jpg' class='instructions-image'>","","instructions","","","","","","","","","","","",""
"learning-instructions","7","113019","0.0-3.0-1.0-0.3","spark_pilot_norest","8564","3","10","Male","","","","","","","2529","<p> In each round, you will search for treasure in a different place. In the real game, there will be two rounds. </p>
            <p> You will begin with a separate, practice round where you will search for treasure in outer space. </p>
            <img src='./assets/img/space/0.jpg' class='instructions-image'>","","instructions","","","","","","","","","","","",""
"learning-instructions","8","125224","0.0-3.0-1.0-0.4","spark_pilot_norest","8564","3","10","Male","","","","","","","784.3000000119209","<p> On every turn, you will see a picture of the place that you are in, but the specific image may be different each time. </p>
            <p> For example, both of these images mean you are in outer space. </p>
            <img src='./assets/img/instructions/outerspace.jpg' class='instructions-image'>","","instructions","","","","","","","","","","","",""
"learning-instructions","9","134334","0.0-3.0-1.0-0.5","spark_pilot_norest","8564","3","10","Male","","","","","","","1293.2000000178814","<p> You need to decide which direction to travel in. </p>
            <p> You can choose between going <b>up or down</b> by using the arrow keys. </p>
            <img src='./assets/img/instructions/updown.jpg' class='instructions-image'>","","instructions","","","","","","","","","","","",""
"learning-instructions","10","144551","0.0-3.0-1.0-0.6","spark_pilot_norest","8564","3","10","Male","","","","","","","1391.5","<p> You will have <b>2 seconds</b> to make your choice. </p>
            <p> If you do not make a choice within 2 seconds, you will not find an animal or earn treasure. </p>
            <img src='./assets/img/instructions/2seconds.jpg' class='instructions-image'>","","instructions","","","","","","","","","","","",""
"learning-instructions","11","152807","0.0-3.0-1.0-0.7","spark_pilot_norest","8564","3","10","Male","","","","","","","1216.7999999821186","<p> Let’s try practicing that now! </p>
            <p> When you see a picture of the place you are in, press the <b>up</b> key to travel up. </p>
            <img src='./assets/img/instructions/pressUp.jpg' class='instructions-image'>","","instructions","","","","","","","","","","","",""
"revaluation","12","156825","0.0-3.0-2.0-0.0","spark_pilot_norest","8564","3","10","Male","","false","","","","","[541.1999999880791]","./assets/img/space/0.jpg","[""ArrowUp""]","first stage practice","space","0","null","null","ArrowUp","false","","","","","",""
"html-keyboard-response","13","157339","0.0-3.0-2.0-1.0","spark_pilot_norest","8564","3","10","Male","","","","","","","null","<div style=""font-size:60px;"">+</div>","null","fixation","","","","","","","","","","","",""
"revaluation","14","161348","0.0-3.0-2.0-0.1","spark_pilot_norest","8564","3","10","Male","","true","","","","","[]","./assets/img/space/1.jpg","[]","first stage practice","space","-5","null","null","","false","","","","","",""
"html-keyboard-response","15","161861","0.0-3.0-2.0-1.1","spark_pilot_norest","8564","3","10","Male","","","","","","","null","<div style=""font-size:60px;"">+</div>","null","fixation","","","","","","","","","","","",""
"revaluation","16","165877","0.0-3.0-2.0-0.2","spark_pilot_norest","8564","3","10","Male","","false","","","","","[523.9000000059605]","./assets/img/space/2.jpg","[""ArrowUp""]","first stage practice","space","0","null","null","ArrowUp","false","","","","","",""
"html-keyboard-response","17","166388","0.0-3.0-2.0-1.2","spark_pilot_norest","8564","3","10","Male","","","","","","","null","<div style=""font-size:60px;"">+</div>","null","fixation","","","","","","","","","","","",""
"learning-instructions","18","172648","0.0-3.0-3.0-0.0","spark_pilot_norest","8564","3","10","Male","","","","","","","1569.300000011921","<p> Great job! Now try pressing the <b>down</b> key to travel down. </p>
            <img src='./assets/img/instructions/pressDown.jpg' class='instructions-image'>","","instructions","","","","","","","","","","","",""
"revaluation","19","176667","0.0-3.0-4.0-0.0","spark_pilot_norest","8564","3","10","Male","","false","","","","","[605.5]","./assets/img/space/3.jpg","[""ArrowDown""]","first stage practice","space","0","null","null","ArrowDown","false","","","","","",""
"html-keyboard-response","20","177183","0.0-3.0-4.0-1.0","spark_pilot_norest","8564","3","10","Male","","","","","","","null","<div style=""font-size:60px;"">+</div>","null","fixation","","","","","","","","","","","",""
"revaluation","21","181190","0.0-3.0-4.0-0.1","spark_pilot_norest","8564","3","10","Male","","false","","","","","[38.60000002384186]","./assets/img/space/4.jpg","[""ArrowDown""]","first stage practice","space","0","null","null","ArrowDown","false","","","","","",""
"html-keyboard-response","22","181708","0.0-3.0-4.0-1.1","spark_pilot_norest","8564","3","10","Male","","","","","","","null","<div style=""font-size:60px;"">+</div>","null","fixation","","","","","","","","","","","",""
"revaluation","23","185742","0.0-3.0-4.0-0.2","spark_pilot_norest","8564","3","10","Male","","false","","","","","[88.10000002384186]","./assets/img/space/5.jpg","[""ArrowDown""]","first stage practice","space","0","null","null","ArrowDown","false","","","","","",""
"html-keyboard-response","24","186256","0.0-3.0-4.0-1.2","spark_pilot_norest","8564","3","10","Male","","","","","","","null","<div style=""font-size:60px;"">+</div>","null","fixation","","","","","","","","","","","",""
"learning-instructions","25","207175","0.0-3.0-5.0-0.0","spark_pilot_norest","8564","3","10","Male","","","","","","","11063.899999976158","<p> The animals don’t move, so the animal in the upper part of a place will stay in the upper part of a place, and the animal in the lower part of a place will stay in the lower part of a place. </p>","","instructions","","","","","","","","","","","",""
"learning-instructions","26","217265","0.0-3.0-5.0-0.1","spark_pilot_norest","8564","3","10","Male","","","","","","","943.9000000059605","<p> Each animal has two treasure chests for you to choose from. </p>
            <p> The amount of treasure in each chest can range from <b> 0 to 40 pieces.</b></p>","","instructions","","","","","","","","","","","",""
"learning-instructions","27","229142","0.0-3.0-5.0-0.2","spark_pilot_norest","8564","3","10","Male","","","","","","","690.9000000059605","<p> You should decide which chest to search for treasure by using the <b>left</b> and <b>right</b> arrow keys. </p>
            <p><b> Pay attention to which animal is on the screen, as the animals have different treasure chests. </b></p>
            <img src='./assets/img/instructions/leftright.jpg' class='instructions-image'>","","instructions","","","","","","","","","","","",""
"learning-instructions","28","236383","0.0-3.0-5.0-0.3","spark_pilot_norest","8564","3","10","Male","","","","","","","872.9000000059605","<p> Let’s try practicing that now. </p>
            <p> When you see an animal, choose which chest to search for treasure. </p>
            <img src='./assets/img/instructions/chooseChest.jpg' class='instructions-image'>","","instructions","","","","","","","","","","","",""
"revaluation","29","240408","0.0-3.0-6.0-0.0","spark_pilot_norest","8564","3","10","Male","","false","","","","","[574.9000000059605]","./assets/img/space/animals/rabbit.jpg","[""ArrowRight""]","second stage practice","space","23","{""ArrowUp,ArrowLeft"":3,""ArrowUp,ArrowRight"":36,""ArrowDown,ArrowLeft"":15,""ArrowDown,ArrowRight"":23}","true","ArrowDown,ArrowRight","","","","","","",""
"html-keyboard-response","30","240913","0.0-3.0-6.0-1.0","spark_pilot_norest","8564","3","10","Male","","","","","","","null","<div style=""font-size:60px;"">+</div>","null","fixation","","","","","","","","","","","",""
"revaluation","31","244930","0.0-3.0-6.0-0.1","spark_pilot_norest","8564","3","10","Male","","false","","","","","[808.2000000178814]","./assets/img/space/animals/cat.jpg","[""ArrowRight""]","second stage practice","space","36","{""ArrowUp,ArrowLeft"":3,""ArrowUp,ArrowRight"":36,""ArrowDown,ArrowLeft"":15,""ArrowDown,ArrowRight"":23}","true","ArrowUp,ArrowRight","","","","","","",""
"html-keyboard-response","32","245435","0.0-3.0-6.0-1.1","spark_pilot_norest","8564","3","10","Male","","","","","","","null","<div style=""font-size:60px;"">+</div>","null","fixation","","","","","","","","","","","",""
"revaluation","33","249453","0.0-3.0-6.0-0.2","spark_pilot_norest","8564","3","10","Male","","false","","","","","[947.5]","./assets/img/space/animals/rabbit.jpg","[""ArrowRight""]","second stage practice","space","23","{""ArrowUp,ArrowLeft"":3,""ArrowUp,ArrowRight"":36,""ArrowDown,ArrowLeft"":15,""ArrowDown,ArrowRight"":23}","true","ArrowDown,ArrowRight","","","","","","",""
"html-keyboard-response","34","249960","0.0-3.0-6.0-1.2","spark_pilot_norest","8564","3","10","Male","","","","","","","null","<div style=""font-size:60px;"">+</div>","null","fixation","","","","","","","","","","","",""
"revaluation","35","253983","0.0-3.0-6.0-0.3","spark_pilot_norest","8564","3","10","Male","","false","","","","","[140.5]","./assets/img/space/animals/cat.jpg","[""ArrowRight""]","second stage practice","space","36","{""ArrowUp,ArrowLeft"":3,""ArrowUp,ArrowRight"":36,""ArrowDown,ArrowLeft"":15,""ArrowDown,ArrowRight"":23}","true","ArrowUp,ArrowRight","","","","","","",""
"html-keyboard-response","36","254490","0.0-3.0-6.0-1.3","spark_pilot_norest","8564","3","10","Male","","","","","","","null","<div style=""font-size:60px;"">+</div>","null","fixation","","","","","","","","","","","",""
"learning-instructions","37","276911","0.0-3.0-7.0-0.0","spark_pilot_norest","8564","3","10","Male","","","","","","","5589.100000023842","<p> Great job. Now let’s try putting it together. </p>
            <p> On each turn, you will first see a picture to remind you of the place you are in, and you need to choose whether to go up or down. </p>
            <p> Then you will see an animal and choose which of its chests to search for treasure. </p>","","instructions","","","","","","","","","","","",""
"learning-instructions","38","286173","0.0-3.0-7.0-0.1","spark_pilot_norest","8564","3","10","Male","","","","","","","972.7000000178814","<p> When you choose whether to go up or down, try to go to the animal with the chest with the most treasure. </p>
            <p> Try practicing that now! </p>","","instructions","","","","","","","","","","","",""
"revaluation","39","292198","0.0-3.0-8.0-0.0","spark_pilot_norest","8564","3","10","Male","","false","","","","","[835.4000000059605,541.0999999940395]","./assets/img/space/6.jpg","[""ArrowUp"",""ArrowRight""]","full practice","space","36","{""ArrowUp,ArrowLeft"":3,""ArrowUp,ArrowRight"":36,""ArrowDown,ArrowLeft"":15,""ArrowDown,ArrowRight"":23}","true","ArrowUp,ArrowRight","false","","","","","",""
"html-keyboard-response","40","292704","0.0-3.0-8.0-1.0","spark_pilot_norest","8564","3","10","Male","","","","","","","null","<div style=""font-size:60px;"">+</div>","null","fixation","","","","","","","","","","","",""
"revaluation","41","298730","0.0-3.0-8.0-0.1","spark_pilot_norest","8564","3","10","Male","","false","","","","","[657.2000000178814,945.4000000059605]","./assets/img/space/7.jpg","[""ArrowDown"",""ArrowLeft""]","full practice","space","15","{""ArrowUp,ArrowLeft"":3,""ArrowUp,ArrowRight"":36,""ArrowDown,ArrowLeft"":15,""ArrowDown,ArrowRight"":23}","false","ArrowDown,ArrowLeft","false","","","","","",""
"html-keyboard-response","42","299245","0.0-3.0-8.0-1.1","spark_pilot_norest","8564","3","10","Male","","","","","","","null","<div style=""font-size:60px;"">+</div>","null","fixation","","","","","","","","","","","",""
"revaluation","43","305293","0.0-3.0-8.0-0.2","spark_pilot_norest","8564","3","10","Male","","false","","","","","[549.4000000059605,630.4000000059605]","./assets/img/space/8.jpg","[""ArrowUp"",""ArrowRight""]","full practice","space","36","{""ArrowUp,ArrowLeft"":3,""ArrowUp,ArrowRight"":36,""ArrowDown,ArrowLeft"":15,""ArrowDown,ArrowRight"":23}","true","ArrowUp,ArrowRight","false","","","","","",""
"html-keyboard-response","44","305796","0.0-3.0-8.0-1.2","spark_pilot_norest","8564","3","10","Male","","","","","","","null","<div style=""font-size:60px;"">+</div>","null","fixation","","","","","","","","","","","",""
"revaluation","45","311831","0.0-3.0-8.0-0.3","spark_pilot_norest","8564","3","10","Male","","false","","","","","[431.2000000178814,550.5999999940395]","./assets/img/space/9.jpg","[""ArrowDown"",""ArrowLeft""]","full practice","space","15","{""ArrowUp,ArrowLeft"":3,""ArrowUp,ArrowRight"":36,""ArrowDown,ArrowLeft"":15,""ArrowDown,ArrowRight"":23}","false","ArrowDown,ArrowLeft","false","","","","","",""
"html-keyboard-response","46","312346","0.0-3.0-8.0-1.3","spark_pilot_norest","8564","3","10","Male","","","","","","","null","<div style=""font-size:60px;"">+</div>","null","fixation","","","","","","","","","","","",""
"revaluation","47","318372","0.0-3.0-8.0-0.4","spark_pilot_norest","8564","3","10","Male","","false","","","","","[503.7000000178814,615.7999999821186]","./assets/img/space/10.jpg","[""ArrowUp"",""ArrowRight""]","full practice","space","36","{""ArrowUp,ArrowLeft"":3,""ArrowUp,ArrowRight"":36,""ArrowDown,ArrowLeft"":15,""ArrowDown,ArrowRight"":23}","true","ArrowUp,ArrowRight","false","","","","","",""
"html-keyboard-response","48","318881","0.0-3.0-8.0-1.4","spark_pilot_norest","8564","3","10","Male","","","","","","","null","<div style=""font-size:60px;"">+</div>","null","fixation","","","","","","","","","","","",""
"learning-instructions","49","330271","0.0-3.0-9.0-0.0","spark_pilot_norest","8564","3","10","Male","","","","","","","1054.699999988079","<p> One last thing: sometimes, you will see a robber. The robber can be anywhere in the picture. </p>
            <p> If you do not stop them, you will lose treasure. </p>
            <img src='./assets/img/instructions/robber.jpg' class='instructions-image'>","","instructions","","","","","","","","","","","",""
"learning-instructions","50","339961","0.0-3.0-9.0-0.1","spark_pilot_norest","8564","3","10","Male","","","","","","","2503.7999999821186","<p> If you see the robber, you should <b>press the space bar</b> rather than using the arrow keys. </p>
            <p> Try practicing that now! </p>","","instructions","","","","","","","","","","","",""
"revaluation","51","343976","0.0-3.0-10.0-0.0","spark_pilot_norest","8564","3","10","Male","","false","","","","","[1207.5]","./assets/img/space/catch/0.jpg","[""spaceBar""]","catch practice","space","0","{""ArrowUp,ArrowLeft"":3,""ArrowUp,ArrowRight"":36,""ArrowDown,ArrowLeft"":15,""ArrowDown,ArrowRight"":23}","true","spaceBar","true","","","","","",""
"html-keyboard-response","52","344480","0.0-3.0-10.0-1.0","spark_pilot_norest","8564","3","10","Male","","","","","","","null","<div style=""font-size:60px;"">+</div>","null","fixation","","","","","","","","","","","",""
"revaluation","53","348499","0.0-3.0-10.0-0.1","spark_pilot_norest","8564","3","10","Male","","false","","","","","[461.69999998807907]","./assets/img/space/catch/1.jpg","[""spaceBar""]","catch practice","space","0","{""ArrowUp,ArrowLeft"":3,""ArrowUp,ArrowRight"":36,""ArrowDown,ArrowLeft"":15,""ArrowDown,ArrowRight"":23}","true","spaceBar","true","","","","","",""
"html-keyboard-response","54","349007","0.0-3.0-10.0-1.1","spark_pilot_norest","8564","3","10","Male","","","","","","","null","<div style=""font-size:60px;"">+</div>","null","fixation","","","","","","","","","","","",""
"revaluation","55","353039","0.0-3.0-10.0-0.2","spark_pilot_norest","8564","3","10","Male","","false","","","","","[757.5999999940395]","./assets/img/space/catch/2.jpg","[""spaceBar""]","catch practice","space","0","{""ArrowUp,ArrowLeft"":3,""ArrowUp,ArrowRight"":36,""ArrowDown,ArrowLeft"":15,""ArrowDown,ArrowRight"":23}","true","spaceBar","true","","","","","",""
"html-keyboard-response","56","353549","0.0-3.0-10.0-1.2","spark_pilot_norest","8564","3","10","Male","","","","","","","null","<div style=""font-size:60px;"">+</div>","null","fixation","","","","","","","","","","","",""
"learning-instructions","57","360595","0.0-3.0-11.0-0.0-0.0","spark_pilot_norest","8564","3","10","Male","","","","","","","1809.4000000059605","<p> Now, you will practice a shortened version of the game to get a sense of how it all fits together. </p>","","instructions","","","","","","","","","","","",""
"learning-instructions","58","366212","0.0-3.0-11.0-0.0-0.1","spark_pilot_norest","8564","3","10","Male","","","","","","","2436.5999999940395","<p>This time you are searching for treasure in outer space.</p>","","instructions","","","","","","","","","","","",""
"learning-instructions","59","382242","0.0-3.0-11.0-1.0-0.0","spark_pilot_norest","8564","3","10","Male","","","","","","","1262.5999999940395","<p> Remember, when you see a picture of the place, use the up and down keys to <b>find an animal</b>.</p>
            <p> When you encounter an animal, you should use the left and right keys to <b>select a treasure chest</b>.</p>
            <p> Don't forget to look out for the robber! </p>","","instructions","","","","","","","","","","","",""
"revaluation","60","388267","0.0-3.0-11.0-2.0-0.0","spark_pilot_norest","8564","3","10","Male","","false","","","","","[1155.2000000178814,591]","./assets/img/space/11.jpg","[""ArrowUp"",""ArrowRight""]","practice block","space","36","{""ArrowUp,ArrowLeft"":3,""ArrowUp,ArrowRight"":36,""ArrowDown,ArrowLeft"":15,""ArrowDown,ArrowRight"":23}","true","ArrowUp,ArrowRight","false","","","","","",""
"html-keyboard-response","61","388782","0.0-3.0-11.0-2.0-1.0","spark_pilot_norest","8564","3","10","Male","","","","","","","null","<div style=""font-size:60px;"">+</div>","null","fixation","","","","","","","","","","","",""
"revaluation","62","394806","0.0-3.0-11.0-2.0-0.1","spark_pilot_norest","8564","3","10","Male","","false","","","","","[898.4000000059605,581.0999999940395]","./assets/img/space/12.jpg","[""ArrowUp"",""ArrowRight""]","practice block","space","36","{""ArrowUp,ArrowLeft"":3,""ArrowUp,ArrowRight"":36,""ArrowDown,ArrowLeft"":15,""ArrowDown,ArrowRight"":23}","true","ArrowUp,ArrowRight","false","","","","","",""
"html-keyboard-response","63","395320","0.0-3.0-11.0-2.0-1.1","spark_pilot_norest","8564","3","10","Male","","","","","","","null","<div style=""font-size:60px;"">+</div>","null","fixation","","","","","","","","","","","",""
"revaluation","64","401360","0.0-3.0-11.0-2.0-0.2","spark_pilot_norest","8564","3","10","Male","","false","","","","","[632,487.89999997615814]","./assets/img/space/13.jpg","[""ArrowUp"",""ArrowRight""]","practice block","space","36","{""ArrowUp,ArrowLeft"":3,""ArrowUp,ArrowRight"":36,""ArrowDown,ArrowLeft"":15,""ArrowDown,ArrowRight"":23}","true","ArrowUp,ArrowRight","false","","","","","",""
"html-keyboard-response","65","401869","0.0-3.0-11.0-2.0-1.2","spark_pilot_norest","8564","3","10","Male","","","","","","","null","<div style=""font-size:60px;"">+</div>","null","fixation","","","","","","","","","","","",""
"revaluation","66","407898","0.0-3.0-11.0-2.0-0.3","spark_pilot_norest","8564","3","10","Male","","false","","","","","[641.7000000178814,434.5]","./assets/img/space/14.jpg","[""ArrowUp"",""ArrowRight""]","practice block","space","36","{""ArrowUp,ArrowLeft"":3,""ArrowUp,ArrowRight"":36,""ArrowDown,ArrowLeft"":15,""ArrowDown,ArrowRight"":23}","true","ArrowUp,ArrowRight","false","","","","","",""
"html-keyboard-response","67","408404","0.0-3.0-11.0-2.0-1.3","spark_pilot_norest","8564","3","10","Male","","","","","","","null","<div style=""font-size:60px;"">+</div>","null","fixation","","","","","","","","","","","",""
"revaluation","68","414421","0.0-3.0-11.0-2.0-0.4","spark_pilot_norest","8564","3","10","Male","","false","","","","","[504.80000001192093,468.90000000596046]","./assets/img/space/11.jpg","[""ArrowDown"",""ArrowRight""]","practice block","space","23","{""ArrowUp,ArrowLeft"":3,""ArrowUp,ArrowRight"":36,""ArrowDown,ArrowLeft"":15,""ArrowDown,ArrowRight"":23}","false","ArrowDown,ArrowRight","false","","","","","",""
"html-keyboard-response","69","414931","0.0-3.0-11.0-2.0-1.4","spark_pilot_norest","8564","3","10","Male","","","","","","","null","<div style=""font-size:60px;"">+</div>","null","fixation","","","","","","","","","","","",""
"revaluation","70","420948","0.0-3.0-11.0-2.0-0.5","spark_pilot_norest","8564","3","10","Male","","false","","","","","[441.80000001192093,859.2999999821186]","./assets/img/space/12.jpg","[""ArrowUp"",""ArrowRight""]","practice block","space","36","{""ArrowUp,ArrowLeft"":3,""ArrowUp,ArrowRight"":36,""ArrowDown,ArrowLeft"":15,""ArrowDown,ArrowRight"":23}","true","ArrowUp,ArrowRight","false","","","","","",""
"html-keyboard-response","71","421450","0.0-3.0-11.0-2.0-1.5","spark_pilot_norest","8564","3","10","Male","","","","","","","null","<div style=""font-size:60px;"">+</div>","null","fixation","","","","","","","","","","","",""
"revaluation","72","427482","0.0-3.0-11.0-2.0-0.6","spark_pilot_norest","8564","3","10","Male","","false","","","","","[600.1999999880791,482.2000000178814]","./assets/img/space/13.jpg","[""ArrowUp"",""ArrowRight""]","practice block","space","36","{""ArrowUp,ArrowLeft"":3,""ArrowUp,ArrowRight"":36,""ArrowDown,ArrowLeft"":15,""ArrowDown,ArrowRight"":23}","true","ArrowUp,ArrowRight","false","","","","","",""
"html-keyboard-response","73","427989","0.0-3.0-11.0-2.0-1.6","spark_pilot_norest","8564","3","10","Male","","","","","","","null","<div style=""font-size:60px;"">+</div>","null","fixation","","","","","","","","","","","",""
"revaluation","74","434005","0.0-3.0-11.0-2.0-0.7","spark_pilot_norest","8564","3","10","Male","","false","","","","","[613.4000000059605,352.80000001192093]","./assets/img/space/14.jpg","[""ArrowUp"",""ArrowRight""]","practice block","space","36","{""ArrowUp,ArrowLeft"":3,""ArrowUp,ArrowRight"":36,""ArrowDown,ArrowLeft"":15,""ArrowDown,ArrowRight"":23}","true","ArrowUp,ArrowRight","false","","","","","",""
"html-keyboard-response","75","434519","0.0-3.0-11.0-2.0-1.7","spark_pilot_norest","8564","3","10","Male","","","","","","","null","<div style=""font-size:60px;"">+</div>","null","fixation","","","","","","","","","","","",""
"revaluation","76","438545","0.0-3.0-11.0-2.0-0.8","spark_pilot_norest","8564","3","10","Male","","false","","","","","[657.1999999880791]","./assets/img/space/catch/3.jpg","[""spaceBar""]","practice block","space","0","{""ArrowUp,ArrowLeft"":3,""ArrowUp,ArrowRight"":36,""ArrowDown,ArrowLeft"":15,""ArrowDown,ArrowRight"":23}","true","spaceBar","true","","","","","",""
"html-keyboard-response","77","439056","0.0-3.0-11.0-2.0-1.8","spark_pilot_norest","8564","3","10","Male","","","","","","","null","<div style=""font-size:60px;"">+</div>","null","fixation","","","","","","","","","","","",""
"learning-instructions","78","453538","0.0-3.0-11.0-3.0-0.0","spark_pilot_norest","8564","3","10","Male","","","","","","","966.8999999761581","<p> Now, you will travel with a friend who will choose whether you go up or down first. </p>
            <p> On these turns, you will just see the animal that they found. You will still get to choose which chest to search for treasure.</p>","","instructions","","","","","","","","","","","",""
"revaluation","79","457555","0.0-3.0-11.0-4.0-0.0","spark_pilot_norest","8564","3","10","Male","","false","","","","","[750]","./assets/img/space/animals/cat.jpg","[""ArrowRight""]","practice block","space","36","{""ArrowUp,ArrowLeft"":3,""ArrowUp,ArrowRight"":36,""ArrowDown,ArrowLeft"":15,""ArrowDown,ArrowRight"":23}","true","ArrowUp,ArrowRight","","","","","","",""
"html-keyboard-response","80","458064","0.0-3.0-11.0-4.0-1.0","spark_pilot_norest","8564","3","10","Male","","","","","","","null","<div style=""font-size:60px;"">+</div>","null","fixation","","","","","","","","","","","",""
"revaluation","81","462082","0.0-3.0-11.0-4.0-0.1","spark_pilot_norest","8564","3","10","Male","","false","","","","","[804.5999999940395]","./assets/img/space/animals/rabbit.jpg","[""ArrowRight""]","practice block","space","23","{""ArrowUp,ArrowLeft"":3,""ArrowUp,ArrowRight"":36,""ArrowDown,ArrowLeft"":15,""ArrowDown,ArrowRight"":23}","true","ArrowDown,ArrowRight","","","","","","",""
"html-keyboard-response","82","462589","0.0-3.0-11.0-4.0-1.1","spark_pilot_norest","8564","3","10","Male","","","","","","","null","<div style=""font-size:60px;"">+</div>","null","fixation","","","","","","","","","","","",""
"revaluation","83","466619","0.0-3.0-11.0-4.0-0.2","spark_pilot_norest","8564","3","10","Male","","false","","","","","[1125.5]","./assets/img/space/animals/rabbit.jpg","[""ArrowLeft""]","practice block","space","15","{""ArrowUp,ArrowLeft"":3,""ArrowUp,ArrowRight"":36,""ArrowDown,ArrowLeft"":15,""ArrowDown,ArrowRight"":23}","false","ArrowDown,ArrowLeft","","","","","","",""
"html-keyboard-response","84","467128","0.0-3.0-11.0-4.0-1.2","spark_pilot_norest","8564","3","10","Male","","","","","","","null","<div style=""font-size:60px;"">+</div>","null","fixation","","","","","","","","","","","",""
"revaluation","85","471140","0.0-3.0-11.0-4.0-0.3","spark_pilot_norest","8564","3","10","Male","","false","","","","","[337.90000000596046]","./assets/img/space/animals/cat.jpg","[""ArrowRight""]","practice block","space","36","{""ArrowUp,ArrowLeft"":3,""ArrowUp,ArrowRight"":36,""ArrowDown,ArrowLeft"":15,""ArrowDown,ArrowRight"":23}","true","ArrowUp,ArrowRight","","","","","","",""
"html-keyboard-response","86","471646","0.0-3.0-11.0-4.0-1.3","spark_pilot_norest","8564","3","10","Male","","","","","","","null","<div style=""font-size:60px;"">+</div>","null","fixation","","","","","","","","","","","",""
"learning-instructions","87","479799","0.0-3.0-11.0-5.0-0.0","spark_pilot_norest","8564","3","10","Male","","","","","","","null","<p> You have almost finished this part of the game! </p>
            <p> We are going to ask you to make a few more choices. </p>","","instructions","","","","","","","","","","","",""
"learning-instructions","88","495813","0.0-3.0-11.0-5.0-0.1","spark_pilot_norest","8564","3","10","Male","","","","","","","null","<p> First, you need to decide whether to go up or down. When you see each picture, use the arrow keys to make your choice. </p>
            <p><b>You will not see which animal you found, but try to get to the one that will give you the most treasure.</b></p>","","instructions","","","","","","","","","","","",""
"html-keyboard-response","89","496825","0.0-3.0-11.0-6.0-0.0","spark_pilot_norest","8564","3","10","Male","","","","","","","null","<div style=""font-size:100px;color:red;"">Starting in...</div>","null","","","","","","","","","","","","",""
"html-keyboard-response","90","497840","0.0-3.0-11.0-6.0-1.0","spark_pilot_norest","8564","3","10","Male","","","","","","","null","<div style=""font-size:200px;color:red;"">3</div>","null","","","","","","","","","","","","",""
"html-keyboard-response","91","498842","0.0-3.0-11.0-6.0-2.0","spark_pilot_norest","8564","3","10","Male","","","","","","","null","<div style=""font-size:200px;color:red;"">2</div>","null","","","","","","","","","","","","",""
"html-keyboard-response","92","499859","0.0-3.0-11.0-6.0-3.0","spark_pilot_norest","8564","3","10","Male","","","","","","","null","<div style=""font-size:200px;color:red;"">1</div>","null","","","","","","","","","","","","",""
"revaluation","93","500359","0.0-3.0-11.0-7.0","spark_pilot_norest","8564","3","10","Male","","false","","","","","[495.2000000178814]","./assets/img/space/15.jpg","[""ArrowUp""]","practice block","space","0","{""ArrowUp,ArrowLeft"":3,""ArrowUp,ArrowRight"":36,""ArrowDown,ArrowLeft"":15,""ArrowDown,ArrowRight"":23}","true","ArrowUp","false","","","","","",""
"html-keyboard-response","94","500875","0.0-3.0-11.0-8.0","spark_pilot_norest","8564","3","10","Male","","","","","","","null","<div style=""font-size:60px;"">+</div>","null","fixation","","","","","","","","","","","",""
"learning-instructions","95","514267","0.0-3.0-11.0-9.0-0.0","spark_pilot_norest","8564","3","10","Male","","","","","","","null","<p> Now you will see the animals again and can search their chests for treasure. </p>
            <p> This time, you will not see how much treasure you earned, but you will earn more bonus money for making better choices. </p>","","instructions","","","","","","","","","","","",""
"html-keyboard-response","96","515273","0.0-3.0-11.0-10.0-0.0","spark_pilot_norest","8564","3","10","Male","","","","","","","null","<div style=""font-size:100px;color:red;"">Starting in...</div>","null","","","","","","","","","","","","",""
"html-keyboard-response","97","516283","0.0-3.0-11.0-10.0-1.0","spark_pilot_norest","8564","3","10","Male","","","","","","","null","<div style=""font-size:200px;color:red;"">3</div>","null","","","","","","","","","","","","",""
"html-keyboard-response","98","517293","0.0-3.0-11.0-10.0-2.0","spark_pilot_norest","8564","3","10","Male","","","","","","","null","<div style=""font-size:200px;color:red;"">2</div>","null","","","","","","","","","","","","",""
"html-keyboard-response","99","518305","0.0-3.0-11.0-10.0-3.0","spark_pilot_norest","8564","3","10","Male","","","","","","","null","<div style=""font-size:200px;color:red;"">1</div>","null","","","","","","","","","","","","",""
"revaluation","100","519205","0.0-3.0-11.0-11.0-0.0","spark_pilot_norest","8564","3","10","Male","","false","","","","","[894.8000000119209]","./assets/img/space/animals/cat.jpg","[""ArrowRight""]","practice block","space","0","{""ArrowUp,ArrowLeft"":3,""ArrowUp,ArrowRight"":36,""ArrowDown,ArrowLeft"":15,""ArrowDown,ArrowRight"":23}","true","ArrowUp,ArrowRight","","","","","","",""
"html-keyboard-response","101","519722","0.0-3.0-11.0-11.0-1.0","spark_pilot_norest","8564","3","10","Male","","","","","","","null","<div style=""font-size:60px;"">+</div>","null","fixation","","","","","","","","","","","",""
"revaluation","102","520924","0.0-3.0-11.0-11.0-0.1","spark_pilot_norest","8564","3","10","Male","","false","","","","","[1194.3999999761581]","./assets/img/space/animals/rabbit.jpg","[""ArrowRight""]","practice block","space","0","{""ArrowUp,ArrowLeft"":3,""ArrowUp,ArrowRight"":36,""ArrowDown,ArrowLeft"":15,""ArrowDown,ArrowRight"":23}","true","ArrowDown,ArrowRight","","","","","","",""
"html-keyboard-response","103","521437","0.0-3.0-11.0-11.0-1.1","spark_pilot_norest","8564","3","10","Male","","","","","","","null","<div style=""font-size:60px;"">+</div>","null","fixation","","","","","","","","","","","",""
"learning-instructions","104","528103","0.0-3.0-12.0-0.0","spark_pilot_norest","8564","3","10","Male","","","","","","","1910","<p> Before you start, we're going to ask you a few questions about how the game works. </p>","","instructions","","","","","","","","","","","",""
"comp-q","105","537682","0.0-3.0-13.0-0.0-0.0","spark_pilot_norest","8564","3","10","Male","","","","","","","2440.399999976158","<p> <b> True or False? </b> </p>
            <p> There can be 50 pieces of treasure in a given animal's chest. </p>","1","comp_question","","","","true","","","","","","","",""
"comp-q","106","547155","0.0-3.0-13.0-0.0-1.0","spark_pilot_norest","8564","3","10","Male","","","","","","","2816.600000023842","<p> <b> That's right! </b> The amount of treasure in each chest can range from 0 to 40 pieces. </p>","0","comp_answer","","","","","","","","","","","",""
"comp-q","107","555866","0.0-3.0-13.0-0.1-0.1","spark_pilot_norest","8564","3","10","Male","","","","","","","1597.199999988079","<p> <b> True or False? </b> </p><p> In this game, all animals have the same amount of treasure in their left and right chests. </p>","1","comp_question","","","","true","","","","","","","",""
"comp-q","108","563115","0.0-3.0-13.0-0.1-1.1","spark_pilot_norest","8564","3","10","Male","","","","","","","2025.5","<p> <b> That's right! </b> Animals have different amounts of treasure in their treasure chests. </p>","0","comp_answer","","","","","","","","","","","",""
"comp-q","109","571370","0.0-3.0-13.0-0.2-0.2","spark_pilot_norest","8564","3","10","Male","","","","","","","2390.5","<p> <b> True or False? </b> </p><p> The same animal will always be there if you go up in the same place. </p>","0","comp_question","","","","true","","","","","","","",""
"comp-q","110","579633","0.0-3.0-13.0-0.2-1.2","spark_pilot_norest","8564","3","10","Male","","","","","","","1803.9000000059605","<p> <b> That's right! </b> One animal lives in the upper part and one lives in the lower part of every place. </p>","0","comp_answer","","","","","","","","","","","",""
"comp-q","111","587308","0.0-3.0-13.0-0.3-0.3","spark_pilot_norest","8564","3","10","Male","","","","","","","2157.9000000059605","<p> <b> True or False? </b> </p><p> If you see a different picture, it means you are in a new place. </p>","0","comp_question","","","","false","","","","","","","",""
"comp-q","112","599908","0.0-3.0-13.0-0.3-1.3","spark_pilot_norest","8564","3","10","Male","","","","","","","1518.9000000059605","<p> <b>Incorrect.</b> Lots of different images may show the same place. For example,  you may see three different images that all remind you that you are in outer space. </p>","0","comp_answer","","","","","","","","","","","",""
"comp-q","113","611355","0.0-3.0-13.0-0.4-0.4","spark_pilot_norest","8564","3","10","Male","","","","","","","5936.0999999940395","<p> <b> True or False? </b> </p><p> If you see a different picture, it means you are in a new place. </p>","1","comp_question","","","","true","","","","","","","",""
"comp-q","114","628239","0.0-3.0-13.0-0.4-1.4","spark_pilot_norest","8564","3","10","Male","","","","","","","5663","<p> <b> That's right! </b> Lots of different images may show the same place. For example,  you may see three different images that all remind you that you are in outer space. </p>","0","comp_answer","","","","","","","","","","","",""
"learning-instructions","115","640065","0.0-3.0-14.0-0.0","spark_pilot_norest","8564","3","10","Male","","","","","","","1938","<p> Good job. Remember to do your best because the amount of treasure you earn will be converted into bonus money. </p>
            <p> It’s time to start the real game! </p>","","instructions","","","","","","","","","","","",""
"learning-instructions","116","644104","0.0-4.0-0.0-0.0","spark_pilot_norest","8564","3","10","Male","","","","","","","1318.699999988079","<p> This time you are searching for treasure in the <b>ocean</b>.</p>","","instructions","","","","","","","","","","","",""
"learning-instructions","117","662861","0.0-4.0-0.0-0.1","spark_pilot_norest","8564","3","10","Male","","","","","","","1455.800000011921","<p><b>New</b> animals with <b>new</b> treasure chests live here. You need to explore to discover where the animal with the best treasure chest is.</p>
                    <p> Like before, once you figure out which animal has the chest with the most treasure, you should try to get to that animal and select that chest! </p>","","instructions","","","","","","","","","","","",""
"learning-instructions","118","678771","0.0-4.0-1.0-0.0","spark_pilot_norest","8564","3","10","Male","","","","","","","1184.7999999821186","<p> Remember, when you see a picture of the place, use the up and down keys to <b>find an animal</b>.</p>
            <p> When you encounter an animal, you should use the left and right keys to <b>select a treasure chest</b>.</p>
            <p> Don't forget to look out for the robber! </p>","","instructions","","","","","","","","","","","",""
"revaluation","119","684802","0.0-4.0-2.0-0.0","spark_pilot_norest","8564","3","10","Male","","false","","","","","[824.0999999940395,542]","./assets/img/ocean/memory/11.jpg","[""ArrowUp"",""ArrowRight""]","value training","ocean","10","{""ArrowUp,ArrowLeft"":23,""ArrowUp,ArrowRight"":10,""ArrowDown,ArrowLeft"":8,""ArrowDown,ArrowRight"":30}","false","ArrowUp,ArrowRight","false","original","1","0","","",""
"html-keyboard-response","120","685317","0.0-4.0-2.0-1.0","spark_pilot_norest","8564","3","10","Male","","","","","","","null","<div style=""font-size:60px;"">+</div>","null","fixation","","","","","","","","","1","","",""
"revaluation","121","691360","0.0-4.0-2.0-0.1","spark_pilot_norest","8564","3","10","Male","","false","","","","","[321.40000000596046,268.2999999821186]","./assets/img/ocean/memory/28.jpg","[""ArrowUp"",""ArrowLeft""]","value training","ocean","23","{""ArrowUp,ArrowLeft"":23,""ArrowUp,ArrowRight"":10,""ArrowDown,ArrowLeft"":8,""ArrowDown,ArrowRight"":30}","false","ArrowUp,ArrowLeft","false","original","1","2","","",""
"html-keyboard-response","122","691873","0.0-4.0-2.0-1.1","spark_pilot_norest","8564","3","10","Male","","","","","","","null","<div style=""font-size:60px;"">+</div>","null","fixation","","","","","","","","","3","","",""
"revaluation","123","697903","0.0-4.0-2.0-0.2","spark_pilot_norest","8564","3","10","Male","","false","","","","","[285.39999997615814,324]","./assets/img/ocean/memory/31.jpg","[""ArrowDown"",""ArrowRight""]","value training","ocean","30","{""ArrowUp,ArrowLeft"":23,""ArrowUp,ArrowRight"":10,""ArrowDown,ArrowLeft"":8,""ArrowDown,ArrowRight"":30}","true","ArrowDown,ArrowRight","false","original","1","4","","",""
"html-keyboard-response","124","698417","0.0-4.0-2.0-1.2","spark_pilot_norest","8564","3","10","Male","","","","","","","null","<div style=""font-size:60px;"">+</div>","null","fixation","","","","","","","","","5","","",""
"revaluation","125","702431","0.0-4.0-2.0-0.3","spark_pilot_norest","8564","3","10","Male","","false","","","","","[371.80000001192093]","./assets/img/ocean/catch/1.jpg","[""ArrowDown""]","value training","ocean","-10","{""ArrowUp,ArrowLeft"":23,""ArrowUp,ArrowRight"":10,""ArrowDown,ArrowLeft"":8,""ArrowDown,ArrowRight"":30}","false","ArrowDown","true","original","1","6","","",""
"html-keyboard-response","126","702939","0.0-4.0-2.0-1.3","spark_pilot_norest","8564","3","10","Male","","","","","","","null","<div style=""font-size:60px;"">+</div>","null","fixation","","","","","","","","","7","","",""
"revaluation","127","708980","0.0-4.0-2.0-0.4","spark_pilot_norest","8564","3","10","Male","","false","","","","","[1080.9000000059605,497]","./assets/img/ocean/memory/14.jpg","[""ArrowUp"",""ArrowRight""]","value training","ocean","10","{""ArrowUp,ArrowLeft"":23,""ArrowUp,ArrowRight"":10,""ArrowDown,ArrowLeft"":8,""ArrowDown,ArrowRight"":30}","false","ArrowUp,ArrowRight","false","original","1","8","","",""
"html-keyboard-response","128","709493","0.0-4.0-2.0-1.4","spark_pilot_norest","8564","3","10","Male","","","","","","","null","<div style=""font-size:60px;"">+</div>","null","fixation","","","","","","","","","9","","",""
"revaluation","129","715518","0.0-4.0-2.0-0.5","spark_pilot_norest","8564","3","10","Male","","false","","","","","[627.3999999761581,359.5]","./assets/img/ocean/memory/25.jpg","[""ArrowDown"",""ArrowLeft""]","value training","ocean","8","{""ArrowUp,ArrowLeft"":23,""ArrowUp,ArrowRight"":10,""ArrowDown,ArrowLeft"":8,""ArrowDown,ArrowRight"":30}","false","ArrowDown,ArrowLeft","false","original","1","10","","",""
"html-keyboard-response","130","716028","0.0-4.0-2.0-1.5","spark_pilot_norest","8564","3","10","Male","","","","","","","null","<div style=""font-size:60px;"">+</div>","null","fixation","","","","","","","","","11","","",""
"revaluation","131","722042","0.0-4.0-2.0-0.6","spark_pilot_norest","8564","3","10","Male","","false","","","","","[662.8000000119209,408.09999999403954]","./assets/img/ocean/memory/7.jpg","[""ArrowDown"",""ArrowRight""]","value training","ocean","30","{""ArrowUp,ArrowLeft"":23,""ArrowUp,ArrowRight"":10,""ArrowDown,ArrowLeft"":8,""ArrowDown,ArrowRight"":30}","true","ArrowDown,ArrowRight","false","original","1","12","","",""
"html-keyboard-response","132","722544","0.0-4.0-2.0-1.6","spark_pilot_norest","8564","3","10","Male","","","","","","","null","<div style=""font-size:60px;"">+</div>","null","fixation","","","","","","","","","13","","",""
"revaluation","133","728561","0.0-4.0-2.0-0.7","spark_pilot_norest","8564","3","10","Male","","false","","","","","[423.5,442.40000000596046]","./assets/img/ocean/memory/25.jpg","[""ArrowDown"",""ArrowRight""]","value training","ocean","30","{""ArrowUp,ArrowLeft"":23,""ArrowUp,ArrowRight"":10,""ArrowDown,ArrowLeft"":8,""ArrowDown,ArrowRight"":30}","true","ArrowDown,ArrowRight","false","original","1","14","","",""
"html-keyboard-response","134","729066","0.0-4.0-2.0-1.7","spark_pilot_norest","8564","3","10","Male","","","","","","","null","<div style=""font-size:60px;"">+</div>","null","fixation","","","","","","","","","15","","",""
"revaluation","135","735091","0.0-4.0-2.0-0.8","spark_pilot_norest","8564","3","10","Male","","false","","","","","[571.1999999880791,411.09999999403954]","./assets/img/ocean/memory/38.jpg","[""ArrowDown"",""ArrowRight""]","value training","ocean","30","{""ArrowUp,ArrowLeft"":23,""ArrowUp,ArrowRight"":10,""ArrowDown,ArrowLeft"":8,""ArrowDown,ArrowRight"":30}","true","ArrowDown,ArrowRight","false","original","1","16","","",""
"html-keyboard-response","136","735597","0.0-4.0-2.0-1.8","spark_pilot_norest","8564","3","10","Male","","","","","","","null","<div style=""font-size:60px;"">+</div>","null","fixation","","","","","","","","","17","","",""
"revaluation","137","741602","0.0-4.0-2.0-0.9","spark_pilot_norest","8564","3","10","Male","","false","","","","","[680.8000000119209,613.8999999761581]","./assets/img/ocean/memory/41.jpg","[""ArrowDown"",""ArrowRight""]","value training","ocean","30","{""ArrowUp,ArrowLeft"":23,""ArrowUp,ArrowRight"":10,""ArrowDown,ArrowLeft"":8,""ArrowDown,ArrowRight"":30}","true","ArrowDown,ArrowRight","false","original","1","18","","",""
"html-keyboard-response","138","742107","0.0-4.0-2.0-1.9","spark_pilot_norest","8564","3","10","Male","","","","","","","null","<div style=""font-size:60px;"">+</div>","null","fixation","","","","","","","","","19","","",""
"revaluation","139","748119","0.0-4.0-2.0-0.10","spark_pilot_norest","8564","3","10","Male","","false","","","","","[676.9000000059605,632.5]","./assets/img/ocean/memory/6.jpg","[""ArrowDown"",""ArrowRight""]","value training","ocean","30","{""ArrowUp,ArrowLeft"":23,""ArrowUp,ArrowRight"":10,""ArrowDown,ArrowLeft"":8,""ArrowDown,ArrowRight"":30}","true","ArrowDown,ArrowRight","false","original","1","20","","",""
"html-keyboard-response","140","748627","0.0-4.0-2.0-1.10","spark_pilot_norest","8564","3","10","Male","","","","","","","null","<div style=""font-size:60px;"">+</div>","null","fixation","","","","","","","","","21","","",""
"revaluation","141","754645","0.0-4.0-2.0-0.11","spark_pilot_norest","8564","3","10","Male","","false","","","","","[544.5,399.2000000178814]","./assets/img/ocean/memory/40.jpg","[""ArrowDown"",""ArrowRight""]","value training","ocean","30","{""ArrowUp,ArrowLeft"":23,""ArrowUp,ArrowRight"":10,""ArrowDown,ArrowLeft"":8,""ArrowDown,ArrowRight"":30}","true","ArrowDown,ArrowRight","false","original","1","22","","",""
"html-keyboard-response","142","755152","0.0-4.0-2.0-1.11","spark_pilot_norest","8564","3","10","Male","","","","","","","null","<div style=""font-size:60px;"">+</div>","null","fixation","","","","","","","","","23","","",""
"revaluation","143","761169","0.0-4.0-2.0-0.12","spark_pilot_norest","8564","3","10","Male","","false","","","","","[489.09999999403954,355.7999999821186]","./assets/img/ocean/memory/18.jpg","[""ArrowDown"",""ArrowRight""]","value training","ocean","30","{""ArrowUp,ArrowLeft"":23,""ArrowUp,ArrowRight"":10,""ArrowDown,ArrowLeft"":8,""ArrowDown,ArrowRight"":30}","true","ArrowDown,ArrowRight","false","original","1","24","","",""
"html-keyboard-response","144","761677","0.0-4.0-2.0-1.12","spark_pilot_norest","8564","3","10","Male","","","","","","","null","<div style=""font-size:60px;"">+</div>","null","fixation","","","","","","","","","25","","",""
"revaluation","145","765692","0.0-4.0-2.0-0.13","spark_pilot_norest","8564","3","10","Male","","false","","","","","[544.9000000059605]","./assets/img/ocean/catch/3.jpg","[""spaceBar""]","value training","ocean","0","{""ArrowUp,ArrowLeft"":23,""ArrowUp,ArrowRight"":10,""ArrowDown,ArrowLeft"":8,""ArrowDown,ArrowRight"":30}","true","spaceBar","true","original","1","26","","",""
"html-keyboard-response","146","766201","0.0-4.0-2.0-1.13","spark_pilot_norest","8564","3","10","Male","","","","","","","null","<div style=""font-size:60px;"">+</div>","null","fixation","","","","","","","","","27","","",""
"revaluation","147","772224","0.0-4.0-2.0-0.14","spark_pilot_norest","8564","3","10","Male","","false","","","","","[651,539.1000000238419]","./assets/img/ocean/memory/13.jpg","[""ArrowDown"",""ArrowRight""]","value training","ocean","30","{""ArrowUp,ArrowLeft"":23,""ArrowUp,ArrowRight"":10,""ArrowDown,ArrowLeft"":8,""ArrowDown,ArrowRight"":30}","true","ArrowDown,ArrowRight","false","original","1","28","","",""
"html-keyboard-response","148","772735","0.0-4.0-2.0-1.14","spark_pilot_norest","8564","3","10","Male","","","","","","","null","<div style=""font-size:60px;"">+</div>","null","fixation","","","","","","","","","29","","",""
"revaluation","149","776754","0.0-4.0-2.0-0.15","spark_pilot_norest","8564","3","10","Male","","false","","","","","[629.6999999880791]","./assets/img/ocean/catch/7.jpg","[""spaceBar""]","value training","ocean","0","{""ArrowUp,ArrowLeft"":23,""ArrowUp,ArrowRight"":10,""ArrowDown,ArrowLeft"":8,""ArrowDown,ArrowRight"":30}","true","spaceBar","true","original","1","30","","",""
"html-keyboard-response","150","777256","0.0-4.0-2.0-1.15","spark_pilot_norest","8564","3","10","Male","","","","","","","null","<div style=""font-size:60px;"">+</div>","null","fixation","","","","","","","","","31","","",""
"revaluation","151","783266","0.0-4.0-2.0-0.16","spark_pilot_norest","8564","3","10","Male","","false","","","","","[598.5,280.7000000178814]","./assets/img/ocean/memory/1.jpg","[""ArrowDown"",""ArrowRight""]","value training","ocean","30","{""ArrowUp,ArrowLeft"":23,""ArrowUp,ArrowRight"":10,""ArrowDown,ArrowLeft"":8,""ArrowDown,ArrowRight"":30}","true","ArrowDown,ArrowRight","false","original","1","32","","",""
"html-keyboard-response","152","783773","0.0-4.0-2.0-1.16","spark_pilot_norest","8564","3","10","Male","","","","","","","null","<div style=""font-size:60px;"">+</div>","null","fixation","","","","","","","","","33","","",""
"revaluation","153","789791","0.0-4.0-2.0-0.17","spark_pilot_norest","8564","3","10","Male","","false","","","","","[565.1999999880791,473.2999999821186]","./assets/img/ocean/memory/8.jpg","[""ArrowDown"",""ArrowRight""]","value training","ocean","30","{""ArrowUp,ArrowLeft"":23,""ArrowUp,ArrowRight"":10,""ArrowDown,ArrowLeft"":8,""ArrowDown,ArrowRight"":30}","true","ArrowDown,ArrowRight","false","original","1","34","","",""
"html-keyboard-response","154","790300","0.0-4.0-2.0-1.17","spark_pilot_norest","8564","3","10","Male","","","","","","","null","<div style=""font-size:60px;"">+</div>","null","fixation","","","","","","","","","35","","",""
"revaluation","155","796319","0.0-4.0-2.0-0.18","spark_pilot_norest","8564","3","10","Male","","false","","","","","[560.3000000119209,552.2999999821186]","./assets/img/ocean/memory/19.jpg","[""ArrowDown"",""ArrowRight""]","value training","ocean","30","{""ArrowUp,ArrowLeft"":23,""ArrowUp,ArrowRight"":10,""ArrowDown,ArrowLeft"":8,""ArrowDown,ArrowRight"":30}","true","ArrowDown,ArrowRight","false","original","1","36","","",""
"html-keyboard-response","156","796824","0.0-4.0-2.0-1.18","spark_pilot_norest","8564","3","10","Male","","","","","","","null","<div style=""font-size:60px;"">+</div>","null","fixation","","","","","","","","","37","","",""
"revaluation","157","800838","0.0-4.0-2.0-0.19","spark_pilot_norest","8564","3","10","Male","","false","","","","","[916]","./assets/img/ocean/catch/4.jpg","[""spaceBar""]","value training","ocean","0","{""ArrowUp,ArrowLeft"":23,""ArrowUp,ArrowRight"":10,""ArrowDown,ArrowLeft"":8,""ArrowDown,ArrowRight"":30}","true","spaceBar","true","original","1","38","","",""
"html-keyboard-response","158","801341","0.0-4.0-2.0-1.19","spark_pilot_norest","8564","3","10","Male","","","","","","","null","<div style=""font-size:60px;"">+</div>","null","fixation","","","","","","","","","39","","",""
"revaluation","159","805355","0.0-4.0-2.0-0.20","spark_pilot_norest","8564","3","10","Male","","false","","","","","[648.5]","./assets/img/ocean/catch/6.jpg","[""spaceBar""]","value training","ocean","0","{""ArrowUp,ArrowLeft"":23,""ArrowUp,ArrowRight"":10,""ArrowDown,ArrowLeft"":8,""ArrowDown,ArrowRight"":30}","true","spaceBar","true","original","1","40","","",""
"html-keyboard-response","160","805858","0.0-4.0-2.0-1.20","spark_pilot_norest","8564","3","10","Male","","","","","","","null","<div style=""font-size:60px;"">+</div>","null","fixation","","","","","","","","","41","","",""
"revaluation","161","811872","0.0-4.0-2.0-0.21","spark_pilot_norest","8564","3","10","Male","","false","","","","","[1122.4000000059605,506.80000001192093]","./assets/img/ocean/memory/0.jpg","[""ArrowDown"",""ArrowRight""]","value training","ocean","30","{""ArrowUp,ArrowLeft"":23,""ArrowUp,ArrowRight"":10,""ArrowDown,ArrowLeft"":8,""ArrowDown,ArrowRight"":30}","true","ArrowDown,ArrowRight","false","original","1","42","","",""
"html-keyboard-response","162","812377","0.0-4.0-2.0-1.21","spark_pilot_norest","8564","3","10","Male","","","","","","","null","<div style=""font-size:60px;"">+</div>","null","fixation","","","","","","","","","43","","",""
"revaluation","163","818396","0.0-4.0-2.0-0.22","spark_pilot_norest","8564","3","10","Male","","false","","","","","[658.5999999940395,537.2000000178814]","./assets/img/ocean/memory/5.jpg","[""ArrowDown"",""ArrowRight""]","value training","ocean","30","{""ArrowUp,ArrowLeft"":23,""ArrowUp,ArrowRight"":10,""ArrowDown,ArrowLeft"":8,""ArrowDown,ArrowRight"":30}","true","ArrowDown,ArrowRight","false","original","1","44","","",""
"html-keyboard-response","164","818897","0.0-4.0-2.0-1.22","spark_pilot_norest","8564","3","10","Male","","","","","","","null","<div style=""font-size:60px;"">+</div>","null","fixation","","","","","","","","","45","","",""
"revaluation","165","822918","0.0-4.0-2.0-0.23","spark_pilot_norest","8564","3","10","Male","","false","","","","","[472.2999999821186]","./assets/img/ocean/catch/2.jpg","[""spaceBar""]","value training","ocean","0","{""ArrowUp,ArrowLeft"":23,""ArrowUp,ArrowRight"":10,""ArrowDown,ArrowLeft"":8,""ArrowDown,ArrowRight"":30}","true","spaceBar","true","original","1","46","","",""
"html-keyboard-response","166","823422","0.0-4.0-2.0-1.23","spark_pilot_norest","8564","3","10","Male","","","","","","","null","<div style=""font-size:60px;"">+</div>","null","fixation","","","","","","","","","47","","",""
"revaluation","167","829452","0.0-4.0-2.0-0.24","spark_pilot_norest","8564","3","10","Male","","false","","","","","[1863.2999999821186,576.2000000178814]","./assets/img/ocean/memory/40.jpg","[""ArrowDown"",""ArrowRight""]","value training","ocean","30","{""ArrowUp,ArrowLeft"":23,""ArrowUp,ArrowRight"":10,""ArrowDown,ArrowLeft"":8,""ArrowDown,ArrowRight"":30}","true","ArrowDown,ArrowRight","false","original","1","48","","",""
"html-keyboard-response","168","829962","0.0-4.0-2.0-1.24","spark_pilot_norest","8564","3","10","Male","","","","","","","null","<div style=""font-size:60px;"">+</div>","null","fixation","","","","","","","","","49","","",""
"revaluation","169","835984","0.0-4.0-2.0-0.25","spark_pilot_norest","8564","3","10","Male","","false","","","","","[1171.5,907]","./assets/img/ocean/memory/39.jpg","[""ArrowDown"",""ArrowRight""]","value training","ocean","30","{""ArrowUp,ArrowLeft"":23,""ArrowUp,ArrowRight"":10,""ArrowDown,ArrowLeft"":8,""ArrowDown,ArrowRight"":30}","true","ArrowDown,ArrowRight","false","original","1","50","","",""
"html-keyboard-response","170","836492","0.0-4.0-2.0-1.25","spark_pilot_norest","8564","3","10","Male","","","","","","","null","<div style=""font-size:60px;"">+</div>","null","fixation","","","","","","","","","51","","",""
"revaluation","171","842508","0.0-4.0-2.0-0.26","spark_pilot_norest","8564","3","10","Male","","false","","","","","[498.80000001192093,303.5]","./assets/img/ocean/memory/17.jpg","[""ArrowDown"",""ArrowRight""]","value training","ocean","30","{""ArrowUp,ArrowLeft"":23,""ArrowUp,ArrowRight"":10,""ArrowDown,ArrowLeft"":8,""ArrowDown,ArrowRight"":30}","true","ArrowDown,ArrowRight","false","original","1","52","","",""
"html-keyboard-response","172","843014","0.0-4.0-2.0-1.26","spark_pilot_norest","8564","3","10","Male","","","","","","","null","<div style=""font-size:60px;"">+</div>","null","fixation","","","","","","","","","53","","",""
"revaluation","173","849037","0.0-4.0-2.0-0.27","spark_pilot_norest","8564","3","10","Male","","false","","","","","[526.7000000178814,425.19999998807907]","./assets/img/ocean/memory/22.jpg","[""ArrowDown"",""ArrowRight""]","value training","ocean","30","{""ArrowUp,ArrowLeft"":23,""ArrowUp,ArrowRight"":10,""ArrowDown,ArrowLeft"":8,""ArrowDown,ArrowRight"":30}","true","ArrowDown,ArrowRight","false","original","1","54","","",""
"html-keyboard-response","174","849552","0.0-4.0-2.0-1.27","spark_pilot_norest","8564","3","10","Male","","","","","","","null","<div style=""font-size:60px;"">+</div>","null","fixation","","","","","","","","","55","","",""
"revaluation","175","855569","0.0-4.0-2.0-0.28","spark_pilot_norest","8564","3","10","Male","","false","","","","","[462.90000000596046,634.5999999940395]","./assets/img/ocean/memory/22.jpg","[""ArrowDown"",""ArrowRight""]","value training","ocean","30","{""ArrowUp,ArrowLeft"":23,""ArrowUp,ArrowRight"":10,""ArrowDown,ArrowLeft"":8,""ArrowDown,ArrowRight"":30}","true","ArrowDown,ArrowRight","false","original","1","56","","",""
"html-keyboard-response","176","856077","0.0-4.0-2.0-1.28","spark_pilot_norest","8564","3","10","Male","","","","","","","null","<div style=""font-size:60px;"">+</div>","null","fixation","","","","","","","","","57","","",""
"revaluation","177","862096","0.0-4.0-2.0-0.29","spark_pilot_norest","8564","3","10","Male","","false","","","","","[602.0999999940395,348.59999999403954]","./assets/img/ocean/memory/28.jpg","[""ArrowDown"",""ArrowRight""]","value training","ocean","30","{""ArrowUp,ArrowLeft"":23,""ArrowUp,ArrowRight"":10,""ArrowDown,ArrowLeft"":8,""ArrowDown,ArrowRight"":30}","true","ArrowDown,ArrowRight","false","original","1","58","","",""
"html-keyboard-response","178","862603","0.0-4.0-2.0-1.29","spark_pilot_norest","8564","3","10","Male","","","","","","","null","<div style=""font-size:60px;"">+</div>","null","fixation","","","","","","","","","59","","",""
"revaluation","179","868623","0.0-4.0-2.0-0.30","spark_pilot_norest","8564","3","10","Male","","false","","","","","[733.8000000119209,476.30000001192093]","./assets/img/ocean/memory/14.jpg","[""ArrowDown"",""ArrowRight""]","value training","ocean","30","{""ArrowUp,ArrowLeft"":23,""ArrowUp,ArrowRight"":10,""ArrowDown,ArrowLeft"":8,""ArrowDown,ArrowRight"":30}","true","ArrowDown,ArrowRight","false","original","1","60","","",""
"html-keyboard-response","180","869127","0.0-4.0-2.0-1.30","spark_pilot_norest","8564","3","10","Male","","","","","","","null","<div style=""font-size:60px;"">+</div>","null","fixation","","","","","","","","","61","","",""
"revaluation","181","875146","0.0-4.0-2.0-0.31","spark_pilot_norest","8564","3","10","Male","","false","","","","","[647.1999999880791,353.7999999821186]","./assets/img/ocean/memory/0.jpg","[""ArrowDown"",""ArrowRight""]","value training","ocean","30","{""ArrowUp,ArrowLeft"":23,""ArrowUp,ArrowRight"":10,""ArrowDown,ArrowLeft"":8,""ArrowDown,ArrowRight"":30}","true","ArrowDown,ArrowRight","false","original","1","62","","",""
"html-keyboard-response","182","875660","0.0-4.0-2.0-1.31","spark_pilot_norest","8564","3","10","Male","","","","","","","null","<div style=""font-size:60px;"">+</div>","null","fixation","","","","","","","","","63","","",""
"revaluation","183","881682","0.0-4.0-2.0-0.32","spark_pilot_norest","8564","3","10","Male","","false","","","","","[567.3000000119209,430.5]","./assets/img/ocean/memory/1.jpg","[""ArrowDown"",""ArrowRight""]","value training","ocean","30","{""ArrowUp,ArrowLeft"":23,""ArrowUp,ArrowRight"":10,""ArrowDown,ArrowLeft"":8,""ArrowDown,ArrowRight"":30}","true","ArrowDown,ArrowRight","false","original","1","64","","",""
"html-keyboard-response","184","882184","0.0-4.0-2.0-1.32","spark_pilot_norest","8564","3","10","Male","","","","","","","null","<div style=""font-size:60px;"">+</div>","null","fixation","","","","","","","","","65","","",""
"revaluation","185","888200","0.0-4.0-2.0-0.33","spark_pilot_norest","8564","3","10","Male","","false","","","","","[528,532.4000000059605]","./assets/img/ocean/memory/6.jpg","[""ArrowDown"",""ArrowRight""]","value training","ocean","30","{""ArrowUp,ArrowLeft"":23,""ArrowUp,ArrowRight"":10,""ArrowDown,ArrowLeft"":8,""ArrowDown,ArrowRight"":30}","true","ArrowDown,ArrowRight","false","original","1","66","","",""
"html-keyboard-response","186","888702","0.0-4.0-2.0-1.33","spark_pilot_norest","8564","3","10","Male","","","","","","","null","<div style=""font-size:60px;"">+</div>","null","fixation","","","","","","","","","67","","",""
"revaluation","187","892719","0.0-4.0-2.0-0.34","spark_pilot_norest","8564","3","10","Male","","false","","","","","[723.3000000119209]","./assets/img/ocean/catch/0.jpg","[""spaceBar""]","value training","ocean","0","{""ArrowUp,ArrowLeft"":23,""ArrowUp,ArrowRight"":10,""ArrowDown,ArrowLeft"":8,""ArrowDown,ArrowRight"":30}","true","spaceBar","true","original","1","68","","",""
"html-keyboard-response","188","893228","0.0-4.0-2.0-1.34","spark_pilot_norest","8564","3","10","Male","","","","","","","null","<div style=""font-size:60px;"">+</div>","null","fixation","","","","","","","","","69","","",""
"revaluation","189","899250","0.0-4.0-2.0-0.35","spark_pilot_norest","8564","3","10","Male","","false","","","","","[535.5999999940395,534.5]","./assets/img/ocean/memory/11.jpg","[""ArrowDown"",""ArrowRight""]","value training","ocean","30","{""ArrowUp,ArrowLeft"":23,""ArrowUp,ArrowRight"":10,""ArrowDown,ArrowLeft"":8,""ArrowDown,ArrowRight"":30}","true","ArrowDown,ArrowRight","false","original","1","70","","",""
"html-keyboard-response","190","899754","0.0-4.0-2.0-1.35","spark_pilot_norest","8564","3","10","Male","","","","","","","null","<div style=""font-size:60px;"">+</div>","null","fixation","","","","","","","","","71","","",""
"revaluation","191","905778","0.0-4.0-2.0-0.36","spark_pilot_norest","8564","3","10","Male","","false","","","","","[460.59999999403954,600.2000000178814]","./assets/img/ocean/memory/38.jpg","[""ArrowDown"",""ArrowRight""]","value training","ocean","30","{""ArrowUp,ArrowLeft"":23,""ArrowUp,ArrowRight"":10,""ArrowDown,ArrowLeft"":8,""ArrowDown,ArrowRight"":30}","true","ArrowDown,ArrowRight","false","original","1","72","","",""
"html-keyboard-response","192","906285","0.0-4.0-2.0-1.36","spark_pilot_norest","8564","3","10","Male","","","","","","","null","<div style=""font-size:60px;"">+</div>","null","fixation","","","","","","","","","73","","",""
"revaluation","193","912314","0.0-4.0-2.0-0.37","spark_pilot_norest","8564","3","10","Male","","false","","","","","[544,690.3000000119209]","./assets/img/ocean/memory/7.jpg","[""ArrowDown"",""ArrowRight""]","value training","ocean","30","{""ArrowUp,ArrowLeft"":23,""ArrowUp,ArrowRight"":10,""ArrowDown,ArrowLeft"":8,""ArrowDown,ArrowRight"":30}","true","ArrowDown,ArrowRight","false","original","1","74","","",""
"html-keyboard-response","194","912831","0.0-4.0-2.0-1.37","spark_pilot_norest","8564","3","10","Male","","","","","","","null","<div style=""font-size:60px;"">+</div>","null","fixation","","","","","","","","","75","","",""
"revaluation","195","918849","0.0-4.0-2.0-0.38","spark_pilot_norest","8564","3","10","Male","","false","","","","","[496.2000000178814,451.59999999403954]","./assets/img/ocean/memory/5.jpg","[""ArrowDown"",""ArrowRight""]","value training","ocean","30","{""ArrowUp,ArrowLeft"":23,""ArrowUp,ArrowRight"":10,""ArrowDown,ArrowLeft"":8,""ArrowDown,ArrowRight"":30}","true","ArrowDown,ArrowRight","false","original","1","76","","",""
"html-keyboard-response","196","919365","0.0-4.0-2.0-1.38","spark_pilot_norest","8564","3","10","Male","","","","","","","null","<div style=""font-size:60px;"">+</div>","null","fixation","","","","","","","","","77","","",""
"revaluation","197","925385","0.0-4.0-2.0-0.39","spark_pilot_norest","8564","3","10","Male","","false","","","","","[544,307.7999999821186]","./assets/img/ocean/memory/24.jpg","[""ArrowDown"",""ArrowRight""]","value training","ocean","30","{""ArrowUp,ArrowLeft"":23,""ArrowUp,ArrowRight"":10,""ArrowDown,ArrowLeft"":8,""ArrowDown,ArrowRight"":30}","true","ArrowDown,ArrowRight","false","original","1","78","","",""
"html-keyboard-response","198","925893","0.0-4.0-2.0-1.39","spark_pilot_norest","8564","3","10","Male","","","","","","","null","<div style=""font-size:60px;"">+</div>","null","fixation","","","","","","","","","79","","",""
"revaluation","199","931908","0.0-4.0-2.0-0.40","spark_pilot_norest","8564","3","10","Male","","false","","","","","[522,1254.4000000059605]","./assets/img/ocean/memory/17.jpg","[""ArrowDown"",""ArrowRight""]","value training","ocean","30","{""ArrowUp,ArrowLeft"":23,""ArrowUp,ArrowRight"":10,""ArrowDown,ArrowLeft"":8,""ArrowDown,ArrowRight"":30}","true","ArrowDown,ArrowRight","false","original","1","80","","",""
"html-keyboard-response","200","932410","0.0-4.0-2.0-1.40","spark_pilot_norest","8564","3","10","Male","","","","","","","null","<div style=""font-size:60px;"">+</div>","null","fixation","","","","","","","","","81","","",""
"revaluation","201","936420","0.0-4.0-2.0-0.41","spark_pilot_norest","8564","3","10","Male","","false","","","","","[344.2999999821186]","./assets/img/ocean/catch/5.jpg","[""ArrowDown""]","value training","ocean","-10","{""ArrowUp,ArrowLeft"":23,""ArrowUp,ArrowRight"":10,""ArrowDown,ArrowLeft"":8,""ArrowDown,ArrowRight"":30}","false","ArrowDown","true","original","1","82","","",""
"html-keyboard-response","202","936928","0.0-4.0-2.0-1.41","spark_pilot_norest","8564","3","10","Male","","","","","","","null","<div style=""font-size:60px;"">+</div>","null","fixation","","","","","","","","","83","","",""
"revaluation","203","942950","0.0-4.0-2.0-0.42","spark_pilot_norest","8564","3","10","Male","","false","","","","","[658.2000000178814,625.4000000059605]","./assets/img/ocean/memory/31.jpg","[""ArrowDown"",""ArrowRight""]","value training","ocean","30","{""ArrowUp,ArrowLeft"":23,""ArrowUp,ArrowRight"":10,""ArrowDown,ArrowLeft"":8,""ArrowDown,ArrowRight"":30}","true","ArrowDown,ArrowRight","false","original","1","84","","",""
"html-keyboard-response","204","943463","0.0-4.0-2.0-1.42","spark_pilot_norest","8564","3","10","Male","","","","","","","null","<div style=""font-size:60px;"">+</div>","null","fixation","","","","","","","","","85","","",""
"revaluation","205","949485","0.0-4.0-2.0-0.43","spark_pilot_norest","8564","3","10","Male","","false","","","","","[580.3000000119209,402.5]","./assets/img/ocean/memory/24.jpg","[""ArrowDown"",""ArrowRight""]","value training","ocean","30","{""ArrowUp,ArrowLeft"":23,""ArrowUp,ArrowRight"":10,""ArrowDown,ArrowLeft"":8,""ArrowDown,ArrowRight"":30}","true","ArrowDown,ArrowRight","false","original","1","86","","",""
"html-keyboard-response","206","949993","0.0-4.0-2.0-1.43","spark_pilot_norest","8564","3","10","Male","","","","","","","null","<div style=""font-size:60px;"">+</div>","null","fixation","","","","","","","","","87","","",""
"revaluation","207","956013","0.0-4.0-2.0-0.44","spark_pilot_norest","8564","3","10","Male","","false","","","","","[913.8000000119209,440.09999999403954]","./assets/img/ocean/memory/39.jpg","[""ArrowDown"",""ArrowRight""]","value training","ocean","30","{""ArrowUp,ArrowLeft"":23,""ArrowUp,ArrowRight"":10,""ArrowDown,ArrowLeft"":8,""ArrowDown,ArrowRight"":30}","true","ArrowDown,ArrowRight","false","original","1","88","","",""
"html-keyboard-response","208","956520","0.0-4.0-2.0-1.44","spark_pilot_norest","8564","3","10","Male","","","","","","","null","<div style=""font-size:60px;"">+</div>","null","fixation","","","","","","","","","89","","",""
"revaluation","209","962543","0.0-4.0-2.0-0.45","spark_pilot_norest","8564","3","10","Male","","false","","","","","[519.6999999880791,932.2999999821186]","./assets/img/ocean/memory/41.jpg","[""ArrowDown"",""ArrowRight""]","value training","ocean","30","{""ArrowUp,ArrowLeft"":23,""ArrowUp,ArrowRight"":10,""ArrowDown,ArrowLeft"":8,""ArrowDown,ArrowRight"":30}","true","ArrowDown,ArrowRight","false","original","1","90","","",""
"html-keyboard-response","210","963048","0.0-4.0-2.0-1.45","spark_pilot_norest","8564","3","10","Male","","","","","","","null","<div style=""font-size:60px;"">+</div>","null","fixation","","","","","","","","","91","","",""
"revaluation","211","969066","0.0-4.0-2.0-0.46","spark_pilot_norest","8564","3","10","Male","","false","","","","","[488.40000000596046,783.7000000178814]","./assets/img/ocean/memory/13.jpg","[""ArrowDown"",""ArrowRight""]","value training","ocean","30","{""ArrowUp,ArrowLeft"":23,""ArrowUp,ArrowRight"":10,""ArrowDown,ArrowLeft"":8,""ArrowDown,ArrowRight"":30}","true","ArrowDown,ArrowRight","false","original","1","92","","",""
"html-keyboard-response","212","969576","0.0-4.0-2.0-1.46","spark_pilot_norest","8564","3","10","Male","","","","","","","null","<div style=""font-size:60px;"">+</div>","null","fixation","","","","","","","","","93","","",""
"revaluation","213","975596","0.0-4.0-2.0-0.47","spark_pilot_norest","8564","3","10","Male","","false","","","","","[585,1440.6000000238419]","./assets/img/ocean/memory/8.jpg","[""ArrowDown"",""ArrowRight""]","value training","ocean","30","{""ArrowUp,ArrowLeft"":23,""ArrowUp,ArrowRight"":10,""ArrowDown,ArrowLeft"":8,""ArrowDown,ArrowRight"":30}","true","ArrowDown,ArrowRight","false","original","1","94","","",""
"html-keyboard-response","214","976100","0.0-4.0-2.0-1.47","spark_pilot_norest","8564","3","10","Male","","","","","","","null","<div style=""font-size:60px;"">+</div>","null","fixation","","","","","","","","","95","","",""
"revaluation","215","982122","0.0-4.0-2.0-0.48","spark_pilot_norest","8564","3","10","Male","","false","","","","","[499.80000001192093,521.9000000059605]","./assets/img/ocean/memory/18.jpg","[""ArrowDown"",""ArrowRight""]","value training","ocean","30","{""ArrowUp,ArrowLeft"":23,""ArrowUp,ArrowRight"":10,""ArrowDown,ArrowLeft"":8,""ArrowDown,ArrowRight"":30}","true","ArrowDown,ArrowRight","false","original","1","96","","",""
"html-keyboard-response","216","982638","0.0-4.0-2.0-1.48","spark_pilot_norest","8564","3","10","Male","","","","","","","null","<div style=""font-size:60px;"">+</div>","null","fixation","","","","","","","","","97","","",""
"revaluation","217","988655","0.0-4.0-2.0-0.49","spark_pilot_norest","8564","3","10","Male","","false","","","","","[700.1000000238419,421.69999998807907]","./assets/img/ocean/memory/19.jpg","[""ArrowDown"",""ArrowRight""]","value training","ocean","30","{""ArrowUp,ArrowLeft"":23,""ArrowUp,ArrowRight"":10,""ArrowDown,ArrowLeft"":8,""ArrowDown,ArrowRight"":30}","true","ArrowDown,ArrowRight","false","original","1","98","","",""
"html-keyboard-response","218","989159","0.0-4.0-2.0-1.49","spark_pilot_norest","8564","3","10","Male","","","","","","","null","<div style=""font-size:60px;"">+</div>","null","fixation","","","","","","","","","99","","",""
"learning-instructions","219","1004694","0.0-4.0-3.0-0.0","spark_pilot_norest","8564","3","10","Male","","","","","","","2121.800000011921","<p> Now, you will travel with a friend who will choose whether you go up or down first. </p>
            <p> On these turns, you will just see the animal that they found. You will still get to choose which chest to search for treasure.</p>","","instructions","","","","","","","","","","","",""
"revaluation","220","1008717","0.0-4.0-4.0-0.0","spark_pilot_norest","8564","3","10","Male","","false","","","","","[914]","./assets/img/ocean/animals/seahorse.jpg","[""ArrowRight""]","revaluation","ocean","10","{""ArrowUp,ArrowLeft"":23,""ArrowUp,ArrowRight"":10,""ArrowDown,ArrowLeft"":8,""ArrowDown,ArrowRight"":30}","false","ArrowUp,ArrowRight","","original","1","0","","",""
"html-keyboard-response","221","1009234","0.0-4.0-4.0-1.0","spark_pilot_norest","8564","3","10","Male","","","","","","","null","<div style=""font-size:60px;"">+</div>","null","fixation","","","","","","","","","1","","",""
"revaluation","222","1013251","0.0-4.0-4.0-0.1","spark_pilot_norest","8564","3","10","Male","","false","","","","","[457.2999999821186]","./assets/img/ocean/animals/seahorse.jpg","[""ArrowLeft""]","revaluation","ocean","23","{""ArrowUp,ArrowLeft"":23,""ArrowUp,ArrowRight"":10,""ArrowDown,ArrowLeft"":8,""ArrowDown,ArrowRight"":30}","true","ArrowUp,ArrowLeft","","original","1","2","","",""
"html-keyboard-response","223","1013754","0.0-4.0-4.0-1.1","spark_pilot_norest","8564","3","10","Male","","","","","","","null","<div style=""font-size:60px;"">+</div>","null","fixation","","","","","","","","","3","","",""
"revaluation","224","1017782","0.0-4.0-4.0-0.2","spark_pilot_norest","8564","3","10","Male","","false","","","","","[473.09999999403954]","./assets/img/ocean/animals/seahorse.jpg","[""ArrowLeft""]","revaluation","ocean","23","{""ArrowUp,ArrowLeft"":23,""ArrowUp,ArrowRight"":10,""ArrowDown,ArrowLeft"":8,""ArrowDown,ArrowRight"":30}","true","ArrowUp,ArrowLeft","","original","1","4","","",""
"html-keyboard-response","225","1018296","0.0-4.0-4.0-1.2","spark_pilot_norest","8564","3","10","Male","","","","","","","null","<div style=""font-size:60px;"">+</div>","null","fixation","","","","","","","","","5","","",""
"revaluation","226","1022321","0.0-4.0-4.0-0.3","spark_pilot_norest","8564","3","10","Male","","false","","","","","[336.69999998807907]","./assets/img/ocean/animals/seahorse.jpg","[""ArrowLeft""]","revaluation","ocean","23","{""ArrowUp,ArrowLeft"":23,""ArrowUp,ArrowRight"":10,""ArrowDown,ArrowLeft"":8,""ArrowDown,ArrowRight"":30}","true","ArrowUp,ArrowLeft","","original","1","6","","",""
"html-keyboard-response","227","1022824","0.0-4.0-4.0-1.3","spark_pilot_norest","8564","3","10","Male","","","","","","","null","<div style=""font-size:60px;"">+</div>","null","fixation","","","","","","","","","7","","",""
"revaluation","228","1026844","0.0-4.0-4.0-0.4","spark_pilot_norest","8564","3","10","Male","","false","","","","","[448.89999997615814]","./assets/img/ocean/animals/seahorse.jpg","[""ArrowLeft""]","revaluation","ocean","23","{""ArrowUp,ArrowLeft"":23,""ArrowUp,ArrowRight"":10,""ArrowDown,ArrowLeft"":8,""ArrowDown,ArrowRight"":30}","true","ArrowUp,ArrowLeft","","original","1","8","","",""
"html-keyboard-response","229","1027350","0.0-4.0-4.0-1.4","spark_pilot_norest","8564","3","10","Male","","","","","","","null","<div style=""font-size:60px;"">+</div>","null","fixation","","","","","","","","","9","","",""
"revaluation","230","1031383","0.0-4.0-4.0-0.5","spark_pilot_norest","8564","3","10","Male","","false","","","","","[357]","./assets/img/ocean/animals/octopus.jpg","[""ArrowLeft""]","revaluation","ocean","8","{""ArrowUp,ArrowLeft"":23,""ArrowUp,ArrowRight"":10,""ArrowDown,ArrowLeft"":8,""ArrowDown,ArrowRight"":30}","false","ArrowDown,ArrowLeft","","original","1","10","","",""
"html-keyboard-response","231","1031894","0.0-4.0-4.0-1.5","spark_pilot_norest","8564","3","10","Male","","","","","","","null","<div style=""font-size:60px;"">+</div>","null","fixation","","","","","","","","","11","","",""
"revaluation","232","1035908","0.0-4.0-4.0-0.6","spark_pilot_norest","8564","3","10","Male","","false","","","","","[342.90000000596046]","./assets/img/ocean/animals/octopus.jpg","[""ArrowRight""]","revaluation","ocean","30","{""ArrowUp,ArrowLeft"":23,""ArrowUp,ArrowRight"":10,""ArrowDown,ArrowLeft"":8,""ArrowDown,ArrowRight"":30}","true","ArrowDown,ArrowRight","","original","1","12","","",""
"html-keyboard-response","233","1036420","0.0-4.0-4.0-1.6","spark_pilot_norest","8564","3","10","Male","","","","","","","null","<div style=""font-size:60px;"">+</div>","null","fixation","","","","","","","","","13","","",""
"revaluation","234","1040434","0.0-4.0-4.0-0.7","spark_pilot_norest","8564","3","10","Male","","false","","","","","[810.5]","./assets/img/ocean/animals/seahorse.jpg","[""ArrowLeft""]","revaluation","ocean","23","{""ArrowUp,ArrowLeft"":23,""ArrowUp,ArrowRight"":10,""ArrowDown,ArrowLeft"":8,""ArrowDown,ArrowRight"":30}","true","ArrowUp,ArrowLeft","","original","1","14","","",""
"html-keyboard-response","235","1040941","0.0-4.0-4.0-1.7","spark_pilot_norest","8564","3","10","Male","","","","","","","null","<div style=""font-size:60px;"">+</div>","null","fixation","","","","","","","","","15","","",""
"revaluation","236","1044952","0.0-4.0-4.0-0.8","spark_pilot_norest","8564","3","10","Male","","false","","","","","[453]","./assets/img/ocean/animals/octopus.jpg","[""ArrowRight""]","revaluation","ocean","30","{""ArrowUp,ArrowLeft"":23,""ArrowUp,ArrowRight"":10,""ArrowDown,ArrowLeft"":8,""ArrowDown,ArrowRight"":30}","true","ArrowDown,ArrowRight","","original","1","16","","",""
"html-keyboard-response","237","1045456","0.0-4.0-4.0-1.8","spark_pilot_norest","8564","3","10","Male","","","","","","","null","<div style=""font-size:60px;"">+</div>","null","fixation","","","","","","","","","17","","",""
"revaluation","238","1049474","0.0-4.0-4.0-0.9","spark_pilot_norest","8564","3","10","Male","","false","","","","","[754]","./assets/img/ocean/animals/octopus.jpg","[""ArrowRight""]","revaluation","ocean","30","{""ArrowUp,ArrowLeft"":23,""ArrowUp,ArrowRight"":10,""ArrowDown,ArrowLeft"":8,""ArrowDown,ArrowRight"":30}","true","ArrowDown,ArrowRight","","original","1","18","","",""
"html-keyboard-response","239","1049980","0.0-4.0-4.0-1.9","spark_pilot_norest","8564","3","10","Male","","","","","","","null","<div style=""font-size:60px;"">+</div>","null","fixation","","","","","","","","","19","","",""
"revaluation","240","1053994","0.0-4.0-4.0-0.10","spark_pilot_norest","8564","3","10","Male","","false","","","","","[636.2999999821186]","./assets/img/ocean/animals/octopus.jpg","[""ArrowRight""]","revaluation","ocean","30","{""ArrowUp,ArrowLeft"":23,""ArrowUp,ArrowRight"":10,""ArrowDown,ArrowLeft"":8,""ArrowDown,ArrowRight"":30}","true","ArrowDown,ArrowRight","","original","1","20","","",""
"html-keyboard-response","241","1054495","0.0-4.0-4.0-1.10","spark_pilot_norest","8564","3","10","Male","","","","","","","null","<div style=""font-size:60px;"">+</div>","null","fixation","","","","","","","","","21","","",""
"revaluation","242","1058508","0.0-4.0-4.0-0.11","spark_pilot_norest","8564","3","10","Male","","false","","","","","[514.6999999880791]","./assets/img/ocean/animals/octopus.jpg","[""ArrowRight""]","revaluation","ocean","30","{""ArrowUp,ArrowLeft"":23,""ArrowUp,ArrowRight"":10,""ArrowDown,ArrowLeft"":8,""ArrowDown,ArrowRight"":30}","true","ArrowDown,ArrowRight","","original","1","22","","",""
"html-keyboard-response","243","1059015","0.0-4.0-4.0-1.11","spark_pilot_norest","8564","3","10","Male","","","","","","","null","<div style=""font-size:60px;"">+</div>","null","fixation","","","","","","","","","23","","",""
"revaluation","244","1063035","0.0-4.0-4.0-0.12","spark_pilot_norest","8564","3","10","Male","","false","","","","","[653.6999999880791]","./assets/img/ocean/animals/octopus.jpg","[""ArrowRight""]","revaluation","ocean","30","{""ArrowUp,ArrowLeft"":23,""ArrowUp,ArrowRight"":10,""ArrowDown,ArrowLeft"":8,""ArrowDown,ArrowRight"":30}","true","ArrowDown,ArrowRight","","original","1","24","","",""
"html-keyboard-response","245","1063537","0.0-4.0-4.0-1.12","spark_pilot_norest","8564","3","10","Male","","","","","","","null","<div style=""font-size:60px;"">+</div>","null","fixation","","","","","","","","","25","","",""
"revaluation","246","1067550","0.0-4.0-4.0-0.13","spark_pilot_norest","8564","3","10","Male","","false","","","","","[706.8000000119209]","./assets/img/ocean/animals/seahorse.jpg","[""ArrowLeft""]","revaluation","ocean","23","{""ArrowUp,ArrowLeft"":23,""ArrowUp,ArrowRight"":10,""ArrowDown,ArrowLeft"":8,""ArrowDown,ArrowRight"":30}","true","ArrowUp,ArrowLeft","","original","1","26","","",""
"html-keyboard-response","247","1068058","0.0-4.0-4.0-1.13","spark_pilot_norest","8564","3","10","Male","","","","","","","null","<div style=""font-size:60px;"">+</div>","null","fixation","","","","","","","","","27","","",""
"revaluation","248","1072073","0.0-4.0-4.0-0.14","spark_pilot_norest","8564","3","10","Male","","false","","","","","[442.5]","./assets/img/ocean/animals/seahorse.jpg","[""ArrowLeft""]","revaluation","ocean","23","{""ArrowUp,ArrowLeft"":23,""ArrowUp,ArrowRight"":10,""ArrowDown,ArrowLeft"":8,""ArrowDown,ArrowRight"":30}","true","ArrowUp,ArrowLeft","","original","1","28","","",""
"html-keyboard-response","249","1072576","0.0-4.0-4.0-1.14","spark_pilot_norest","8564","3","10","Male","","","","","","","null","<div style=""font-size:60px;"">+</div>","null","fixation","","","","","","","","","29","","",""
"revaluation","250","1076591","0.0-4.0-4.0-0.15","spark_pilot_norest","8564","3","10","Male","","false","","","","","[1105.7999999821186]","./assets/img/ocean/animals/seahorse.jpg","[""ArrowLeft""]","revaluation","ocean","23","{""ArrowUp,ArrowLeft"":23,""ArrowUp,ArrowRight"":10,""ArrowDown,ArrowLeft"":8,""ArrowDown,ArrowRight"":30}","true","ArrowUp,ArrowLeft","","original","1","30","","",""
"html-keyboard-response","251","1077093","0.0-4.0-4.0-1.15","spark_pilot_norest","8564","3","10","Male","","","","","","","null","<div style=""font-size:60px;"">+</div>","null","fixation","","","","","","","","","31","","",""
"revaluation","252","1081114","0.0-4.0-4.0-0.16","spark_pilot_norest","8564","3","10","Male","","false","","","","","[717.1999999880791]","./assets/img/ocean/animals/octopus.jpg","[""ArrowRight""]","revaluation","ocean","30","{""ArrowUp,ArrowLeft"":23,""ArrowUp,ArrowRight"":10,""ArrowDown,ArrowLeft"":8,""ArrowDown,ArrowRight"":30}","true","ArrowDown,ArrowRight","","original","1","32","","",""
"html-keyboard-response","253","1081620","0.0-4.0-4.0-1.16","spark_pilot_norest","8564","3","10","Male","","","","","","","null","<div style=""font-size:60px;"">+</div>","null","fixation","","","","","","","","","33","","",""
"revaluation","254","1085634","0.0-4.0-4.0-0.17","spark_pilot_norest","8564","3","10","Male","","false","","","","","[709.2000000178814]","./assets/img/ocean/animals/octopus.jpg","[""ArrowRight""]","revaluation","ocean","30","{""ArrowUp,ArrowLeft"":23,""ArrowUp,ArrowRight"":10,""ArrowDown,ArrowLeft"":8,""ArrowDown,ArrowRight"":30}","true","ArrowDown,ArrowRight","","original","1","34","","",""
"html-keyboard-response","255","1086142","0.0-4.0-4.0-1.17","spark_pilot_norest","8564","3","10","Male","","","","","","","null","<div style=""font-size:60px;"">+</div>","null","fixation","","","","","","","","","35","","",""
"learning-instructions","256","1094704","0.0-4.0-5.0-0.0","spark_pilot_norest","8564","3","10","Male","","","","","","","null","<p> You have almost finished this part of the game! </p>
            <p> We are going to ask you to make a few more choices. </p>","","instructions","","","","","","","","","","","",""
"learning-instructions","257","1110686","0.0-4.0-5.0-0.1","spark_pilot_norest","8564","3","10","Male","","","","","","","null","<p> First, you need to decide whether to go up or down. When you see each picture, use the arrow keys to make your choice. </p>
            <p><b>You will not see which animal you found, but try to get to the one that will give you the most treasure.</b></p>","","instructions","","","","","","","","","","","",""
"html-keyboard-response","258","1111692","0.0-4.0-6.0-0.0","spark_pilot_norest","8564","3","10","Male","","","","","","","null","<div style=""font-size:100px;color:red;"">Starting in...</div>","null","","","","","","","","","","","","",""
"html-keyboard-response","259","1112708","0.0-4.0-6.0-1.0","spark_pilot_norest","8564","3","10","Male","","","","","","","null","<div style=""font-size:200px;color:red;"">3</div>","null","","","","","","","","","","","","",""
"html-keyboard-response","260","1113720","0.0-4.0-6.0-2.0","spark_pilot_norest","8564","3","10","Male","","","","","","","null","<div style=""font-size:200px;color:red;"">2</div>","null","","","","","","","","","","","","",""
"html-keyboard-response","261","1114722","0.0-4.0-6.0-3.0","spark_pilot_norest","8564","3","10","Male","","","","","","","null","<div style=""font-size:200px;color:red;"">1</div>","null","","","","","","","","","","","","",""
"revaluation","262","1115342","0.0-4.0-7.0-0.0","spark_pilot_norest","8564","3","10","Male","","false","","","","","[614.2999999821186]","./assets/img/ocean/test/1.jpg","[""ArrowUp""]","first stage test","ocean","0","{""ArrowUp,ArrowLeft"":23,""ArrowUp,ArrowRight"":10,""ArrowDown,ArrowLeft"":8,""ArrowDown,ArrowRight"":30}","false","ArrowUp","false","original","1","","","",""
"html-keyboard-response","263","1115847","0.0-4.0-7.0-1.0","spark_pilot_norest","8564","3","10","Male","","","","","","","null","<div style=""font-size:60px;"">+</div>","null","fixation","","","","","","","","","","","",""
"revaluation","264","1116561","0.0-4.0-7.0-0.1","spark_pilot_norest","8564","3","10","Male","","false","","","","","[705.5999999940395]","./assets/img/ocean/test/3.jpg","[""ArrowUp""]","first stage test","ocean","0","{""ArrowUp,ArrowLeft"":23,""ArrowUp,ArrowRight"":10,""ArrowDown,ArrowLeft"":8,""ArrowDown,ArrowRight"":30}","false","ArrowUp","false","original","1","","","",""
"html-keyboard-response","265","1117063","0.0-4.0-7.0-1.1","spark_pilot_norest","8564","3","10","Male","","","","","","","null","<div style=""font-size:60px;"">+</div>","null","fixation","","","","","","","","","","","",""
"revaluation","266","1117471","0.0-4.0-7.0-0.2","spark_pilot_norest","8564","3","10","Male","","false","","","","","[402.59999999403954]","./assets/img/ocean/test/2.jpg","[""ArrowUp""]","first stage test","ocean","0","{""ArrowUp,ArrowLeft"":23,""ArrowUp,ArrowRight"":10,""ArrowDown,ArrowLeft"":8,""ArrowDown,ArrowRight"":30}","false","ArrowUp","false","original","1","","","",""
"html-keyboard-response","267","1117979","0.0-4.0-7.0-1.2","spark_pilot_norest","8564","3","10","Male","","","","","","","null","<div style=""font-size:60px;"">+</div>","null","fixation","","","","","","","","","","","",""
"revaluation","268","1118272","0.0-4.0-7.0-0.3","spark_pilot_norest","8564","3","10","Male","","false","","","","","[287.2999999821186]","./assets/img/ocean/test/0.jpg","[""ArrowUp""]","first stage test","ocean","0","{""ArrowUp,ArrowLeft"":23,""ArrowUp,ArrowRight"":10,""ArrowDown,ArrowLeft"":8,""ArrowDown,ArrowRight"":30}","false","ArrowUp","false","original","1","","","",""
"html-keyboard-response","269","1118775","0.0-4.0-7.0-1.3","spark_pilot_norest","8564","3","10","Male","","","","","","","null","<div style=""font-size:60px;"">+</div>","null","fixation","","","","","","","","","","","",""
"learning-instructions","270","1132118","0.0-4.0-8.0-0.0","spark_pilot_norest","8564","3","10","Male","","","","","","","null","<p> Now you will see the animals again and can search their chests for treasure. </p>
            <p> This time, you will not see how much treasure you earned, but you will earn more bonus money for making better choices. </p>","","instructions","","","","","","","","","","","",""
"html-keyboard-response","271","1133121","0.0-4.0-9.0-0.0","spark_pilot_norest","8564","3","10","Male","","","","","","","null","<div style=""font-size:100px;color:red;"">Starting in...</div>","null","","","","","","","","","","","","",""
"html-keyboard-response","272","1134135","0.0-4.0-9.0-1.0","spark_pilot_norest","8564","3","10","Male","","","","","","","null","<div style=""font-size:200px;color:red;"">3</div>","null","","","","","","","","","","","","",""
"html-keyboard-response","273","1135147","0.0-4.0-9.0-2.0","spark_pilot_norest","8564","3","10","Male","","","","","","","null","<div style=""font-size:200px;color:red;"">2</div>","null","","","","","","","","","","","","",""
"html-keyboard-response","274","1136153","0.0-4.0-9.0-3.0","spark_pilot_norest","8564","3","10","Male","","","","","","","null","<div style=""font-size:200px;color:red;"">1</div>","null","","","","","","","","","","","","",""
"revaluation","275","1136820","0.0-4.0-10.0-0.0","spark_pilot_norest","8564","3","10","Male","","false","","","","","[664]","./assets/img/ocean/animals/seahorse.jpg","[""ArrowRight""]","second stage test","ocean","0","{""ArrowUp,ArrowLeft"":23,""ArrowUp,ArrowRight"":10,""ArrowDown,ArrowLeft"":8,""ArrowDown,ArrowRight"":30}","false","ArrowUp,ArrowRight","","original","1","","","",""
"html-keyboard-response","276","1137325","0.0-4.0-10.0-1.0","spark_pilot_norest","8564","3","10","Male","","","","","","","null","<div style=""font-size:60px;"">+</div>","null","fixation","","","","","","","","","","","",""
"revaluation","277","1138243","0.0-4.0-10.0-0.1","spark_pilot_norest","8564","3","10","Male","","false","","","","","[914.8000000119209]","./assets/img/ocean/animals/seahorse.jpg","[""ArrowRight""]","second stage test","ocean","0","{""ArrowUp,ArrowLeft"":23,""ArrowUp,ArrowRight"":10,""ArrowDown,ArrowLeft"":8,""ArrowDown,ArrowRight"":30}","false","ArrowUp,ArrowRight","","original","1","","","",""
"html-keyboard-response","278","1138749","0.0-4.0-10.0-1.1","spark_pilot_norest","8564","3","10","Male","","","","","","","null","<div style=""font-size:60px;"">+</div>","null","fixation","","","","","","","","","","","",""
"revaluation","279","1139125","0.0-4.0-10.0-0.2","spark_pilot_norest","8564","3","10","Male","","false","","","","","[371.30000001192093]","./assets/img/ocean/animals/seahorse.jpg","[""ArrowLeft""]","second stage test","ocean","0","{""ArrowUp,ArrowLeft"":23,""ArrowUp,ArrowRight"":10,""ArrowDown,ArrowLeft"":8,""ArrowDown,ArrowRight"":30}","true","ArrowUp,ArrowLeft","","original","1","","","",""
"html-keyboard-response","280","1139640","0.0-4.0-10.0-1.2","spark_pilot_norest","8564","3","10","Male","","","","","","","null","<div style=""font-size:60px;"">+</div>","null","fixation","","","","","","","","","","","",""
"revaluation","281","1140008","0.0-4.0-10.0-0.3","spark_pilot_norest","8564","3","10","Male","","false","","","","","[364.09999999403954]","./assets/img/ocean/animals/seahorse.jpg","[""ArrowLeft""]","second stage test","ocean","0","{""ArrowUp,ArrowLeft"":23,""ArrowUp,ArrowRight"":10,""ArrowDown,ArrowLeft"":8,""ArrowDown,ArrowRight"":30}","true","ArrowUp,ArrowLeft","","original","1","","","",""
"html-keyboard-response","282","1140527","0.0-4.0-10.0-1.3","spark_pilot_norest","8564","3","10","Male","","","","","","","null","<div style=""font-size:60px;"">+</div>","null","fixation","","","","","","","","","","","",""
"revaluation","283","1141073","0.0-4.0-10.0-0.4","spark_pilot_norest","8564","3","10","Male","","false","","","","","[541.7999999821186]","./assets/img/ocean/animals/octopus.jpg","[""ArrowRight""]","second stage test","ocean","0","{""ArrowUp,ArrowLeft"":23,""ArrowUp,ArrowRight"":10,""ArrowDown,ArrowLeft"":8,""ArrowDown,ArrowRight"":30}","true","ArrowDown,ArrowRight","","original","1","","","",""
"html-keyboard-response","284","1141576","0.0-4.0-10.0-1.4","spark_pilot_norest","8564","3","10","Male","","","","","","","null","<div style=""font-size:60px;"">+</div>","null","fixation","","","","","","","","","","","",""
"revaluation","285","1142238","0.0-4.0-10.0-0.5","spark_pilot_norest","8564","3","10","Male","","false","","","","","[657.5]","./assets/img/ocean/animals/octopus.jpg","[""ArrowRight""]","second stage test","ocean","0","{""ArrowUp,ArrowLeft"":23,""ArrowUp,ArrowRight"":10,""ArrowDown,ArrowLeft"":8,""ArrowDown,ArrowRight"":30}","true","ArrowDown,ArrowRight","","original","1","","","",""
"html-keyboard-response","286","1142747","0.0-4.0-10.0-1.5","spark_pilot_norest","8564","3","10","Male","","","","","","","null","<div style=""font-size:60px;"">+</div>","null","fixation","","","","","","","","","","","",""
"revaluation","287","1143413","0.0-4.0-10.0-0.6","spark_pilot_norest","8564","3","10","Male","","false","","","","","[662.5]","./assets/img/ocean/animals/octopus.jpg","[""ArrowRight""]","second stage test","ocean","0","{""ArrowUp,ArrowLeft"":23,""ArrowUp,ArrowRight"":10,""ArrowDown,ArrowLeft"":8,""ArrowDown,ArrowRight"":30}","true","ArrowDown,ArrowRight","","original","1","","","",""
"html-keyboard-response","288","1143916","0.0-4.0-10.0-1.6","spark_pilot_norest","8564","3","10","Male","","","","","","","null","<div style=""font-size:60px;"">+</div>","null","fixation","","","","","","","","","","","",""
"revaluation","289","1144248","0.0-4.0-10.0-0.7","spark_pilot_norest","8564","3","10","Male","","false","","","","","[328]","./assets/img/ocean/animals/octopus.jpg","[""ArrowRight""]","second stage test","ocean","0","{""ArrowUp,ArrowLeft"":23,""ArrowUp,ArrowRight"":10,""ArrowDown,ArrowLeft"":8,""ArrowDown,ArrowRight"":30}","true","ArrowDown,ArrowRight","","original","1","","","",""
"html-keyboard-response","290","1144755","0.0-4.0-10.0-1.7","spark_pilot_norest","8564","3","10","Male","","","","","","","null","<div style=""font-size:60px;"">+</div>","null","fixation","","","","","","","","","","","",""
"learning-instructions","291","1151628","0.0-4.0-0.1-0.2","spark_pilot_norest","8564","3","10","Male","","","","","","","4106.9000000059605","<p> This time you are searching for treasure in the <b>canyon</b>.</p>","","instructions","","","","","","","","","","","",""
"learning-instructions","292","1173970","0.0-4.0-0.1-0.3","spark_pilot_norest","8564","3","10","Male","","","","","","","5087.5","<p><b>New</b> animals with <b>new</b> treasure chests live here. You need to explore to discover where the animal with the best treasure chest is.</p>
                    <p> Like before, once you figure out which animal has the chest with the most treasure, you should try to get to that animal and select that chest! </p>","","instructions","","","","","","","","","","","",""
"learning-instructions","293","1189805","0.0-4.0-1.1-0.1","spark_pilot_norest","8564","3","10","Male","","","","","","","1103.5","<p> Remember, when you see a picture of the place, use the up and down keys to <b>find an animal</b>.</p>
            <p> When you encounter an animal, you should use the left and right keys to <b>select a treasure chest</b>.</p>
            <p> Don't forget to look out for the robber! </p>","","instructions","","","","","","","","","","","",""
"revaluation","294","1193817","0.0-4.0-2.1-0.50","spark_pilot_norest","8564","3","10","Male","","false","","","","","[703]","./assets/img/canyon/catch/5.jpg","[""ArrowUp""]","value training","canyon","-10","{""ArrowUp,ArrowLeft"":26,""ArrowUp,ArrowRight"":10,""ArrowDown,ArrowLeft"":5,""ArrowDown,ArrowRight"":17}","false","ArrowUp","true","revaluation","2","0","","",""
"html-keyboard-response","295","1194330","0.0-4.0-2.1-1.50","spark_pilot_norest","8564","3","10","Male","","","","","","","null","<div style=""font-size:60px;"">+</div>","null","fixation","","","","","","","","","1","","",""
"revaluation","296","1198365","0.0-4.0-2.1-0.51","spark_pilot_norest","8564","3","10","Male","","false","","","","","[634.8000000119209]","./assets/img/canyon/catch/4.jpg","[""ArrowUp""]","value training","canyon","-10","{""ArrowUp,ArrowLeft"":26,""ArrowUp,ArrowRight"":10,""ArrowDown,ArrowLeft"":5,""ArrowDown,ArrowRight"":17}","false","ArrowUp","true","revaluation","2","2","","",""
"html-keyboard-response","297","1198878","0.0-4.0-2.1-1.51","spark_pilot_norest","8564","3","10","Male","","","","","","","null","<div style=""font-size:60px;"">+</div>","null","fixation","","","","","","","","","3","","",""
"revaluation","298","1204898","0.0-4.0-2.1-0.52","spark_pilot_norest","8564","3","10","Male","","false","","","","","[662.3000000119209,397.7000000178814]","./assets/img/canyon/memory/1.jpg","[""ArrowUp"",""ArrowRight""]","value training","canyon","10","{""ArrowUp,ArrowLeft"":26,""ArrowUp,ArrowRight"":10,""ArrowDown,ArrowLeft"":5,""ArrowDown,ArrowRight"":17}","false","ArrowUp,ArrowRight","false","revaluation","2","4","","",""
"html-keyboard-response","299","1205406","0.0-4.0-2.1-1.52","spark_pilot_norest","8564","3","10","Male","","","","","","","null","<div style=""font-size:60px;"">+</div>","null","fixation","","","","","","","","","5","","",""
"revaluation","300","1211443","0.0-4.0-2.1-0.53","spark_pilot_norest","8564","3","10","Male","","false","","","","","[520.8000000119209,585.7000000178814]","./assets/img/canyon/memory/0.jpg","[""ArrowUp"",""ArrowLeft""]","value training","canyon","26","{""ArrowUp,ArrowLeft"":26,""ArrowUp,ArrowRight"":10,""ArrowDown,ArrowLeft"":5,""ArrowDown,ArrowRight"":17}","true","ArrowUp,ArrowLeft","false","revaluation","2","6","","",""
"html-keyboard-response","301","1211962","0.0-4.0-2.1-1.53","spark_pilot_norest","8564","3","10","Male","","","","","","","null","<div style=""font-size:60px;"">+</div>","null","fixation","","","","","","","","","7","","",""
"revaluation","302","1215972","0.0-4.0-2.1-0.54","spark_pilot_norest","8564","3","10","Male","","false","","","","","[528.0999999940395]","./assets/img/canyon/catch/0.jpg","[""ArrowDown""]","value training","canyon","-10","{""ArrowUp,ArrowLeft"":26,""ArrowUp,ArrowRight"":10,""ArrowDown,ArrowLeft"":5,""ArrowDown,ArrowRight"":17}","false","ArrowDown","true","revaluation","2","8","","",""
"html-keyboard-response","303","1216480","0.0-4.0-2.1-1.54","spark_pilot_norest","8564","3","10","Male","","","","","","","null","<div style=""font-size:60px;"">+</div>","null","fixation","","","","","","","","","9","","",""
"revaluation","304","1222503","0.0-4.0-2.1-0.55","spark_pilot_norest","8564","3","10","Male","","false","","","","","[847.4000000059605,511.90000000596046]","./assets/img/canyon/memory/19.jpg","[""ArrowUp"",""ArrowLeft""]","value training","canyon","26","{""ArrowUp,ArrowLeft"":26,""ArrowUp,ArrowRight"":10,""ArrowDown,ArrowLeft"":5,""ArrowDown,ArrowRight"":17}","true","ArrowUp,ArrowLeft","false","revaluation","2","10","","",""
"html-keyboard-response","305","1223005","0.0-4.0-2.1-1.55","spark_pilot_norest","8564","3","10","Male","","","","","","","null","<div style=""font-size:60px;"">+</div>","null","fixation","","","","","","","","","11","","",""
"revaluation","306","1229021","0.0-4.0-2.1-0.56","spark_pilot_norest","8564","3","10","Male","","false","","","","","[610.7999999821186,602.2999999821186]","./assets/img/canyon/memory/8.jpg","[""ArrowDown"",""ArrowRight""]","value training","canyon","17","{""ArrowUp,ArrowLeft"":26,""ArrowUp,ArrowRight"":10,""ArrowDown,ArrowLeft"":5,""ArrowDown,ArrowRight"":17}","false","ArrowDown,ArrowRight","false","revaluation","2","12","","",""
"html-keyboard-response","307","1229532","0.0-4.0-2.1-1.56","spark_pilot_norest","8564","3","10","Male","","","","","","","null","<div style=""font-size:60px;"">+</div>","null","fixation","","","","","","","","","13","","",""
"revaluation","308","1235545","0.0-4.0-2.1-0.57","spark_pilot_norest","8564","3","10","Male","","false","","","","","[507.40000000596046,559]","./assets/img/canyon/memory/17.jpg","[""ArrowDown"",""ArrowLeft""]","value training","canyon","5","{""ArrowUp,ArrowLeft"":26,""ArrowUp,ArrowRight"":10,""ArrowDown,ArrowLeft"":5,""ArrowDown,ArrowRight"":17}","false","ArrowDown,ArrowLeft","false","revaluation","2","14","","",""
"html-keyboard-response","309","1236052","0.0-4.0-2.1-1.57","spark_pilot_norest","8564","3","10","Male","","","","","","","null","<div style=""font-size:60px;"">+</div>","null","fixation","","","","","","","","","15","","",""
"revaluation","310","1242073","0.0-4.0-2.1-0.58","spark_pilot_norest","8564","3","10","Male","","false","","","","","[656.9000000059605,274.09999999403954]","./assets/img/canyon/memory/22.jpg","[""ArrowUp"",""ArrowLeft""]","value training","canyon","26","{""ArrowUp,ArrowLeft"":26,""ArrowUp,ArrowRight"":10,""ArrowDown,ArrowLeft"":5,""ArrowDown,ArrowRight"":17}","true","ArrowUp,ArrowLeft","false","revaluation","2","16","","",""
"html-keyboard-response","311","1242581","0.0-4.0-2.1-1.58","spark_pilot_norest","8564","3","10","Male","","","","","","","null","<div style=""font-size:60px;"">+</div>","null","fixation","","","","","","","","","17","","",""
"revaluation","312","1248599","0.0-4.0-2.1-0.59","spark_pilot_norest","8564","3","10","Male","","false","","","","","[752.1999999880791,468.19999998807907]","./assets/img/canyon/memory/11.jpg","[""ArrowUp"",""ArrowLeft""]","value training","canyon","26","{""ArrowUp,ArrowLeft"":26,""ArrowUp,ArrowRight"":10,""ArrowDown,ArrowLeft"":5,""ArrowDown,ArrowRight"":17}","true","ArrowUp,ArrowLeft","false","revaluation","2","18","","",""
"html-keyboard-response","313","1249108","0.0-4.0-2.1-1.59","spark_pilot_norest","8564","3","10","Male","","","","","","","null","<div style=""font-size:60px;"">+</div>","null","fixation","","","","","","","","","19","","",""
