"trial_type","trial_index","time_elapsed","internal_node_id","task_version","subject_id","assigned_condition","age","gender","success","timeout","failed_images","failed_audio","failed_video","browser_interaction","rt","stimulus","response","task_part","environment","score","rewardMap","correct","fullState","isCatch","condition","order","trial_num","key_press","ground_truth","bonus"
"pavlovia","0","714","0.0-0.0","spark_pilot_norest","10828","4","17","Female","","","","","","","","","","","","","","","","","","","","","",""
"preload","1","49445","0.0-1.0","spark_pilot_norest","10828","4","17","Female","true","false","[]","[]","[]","[{""event"":""fullscreenenter"",""trial"":2,""time"":112572}]","","","","","","","","","","","","","","","",""
"fullscreen","2","113420","0.0-2.0","spark_pilot_norest","10828","4","17","Female","true","","","","","","","","","","","","","","","","","","","","",""
"audio-button-response","3","115260","0.0-3.0-0.0-0.0","spark_pilot_norest","10828","4","17","Female","","","","","","","0","./assets/audio/audiotest/turtle.mp3","4","audio_test","","","","","","","","","","","",""
"audio-button-response","4","118001","0.0-3.0-0.1-0.1","spark_pilot_norest","10828","4","17","Female","","","","","","","1344","./assets/audio/audiotest/turtle.mp3","2","audio_test","","","","","","","","","","","",""
"learning-instructions","5","129536","0.0-3.0-1.0-0.0","spark_pilot_norest","10828","4","17","Female","","","","","","","3411.9999999999854","<p> Welcome! Please remember to stay in fullscreen mode and don't click away from the experiment. </p>","","instructions","","","","","","","","","","","",""
"learning-instructions","6","139086","0.0-3.0-1.0-0.1","spark_pilot_norest","10828","4","17","Female","","","","","","","866","<p> Today you will be playing a game to earn treasure. </p>
            <p> At the end of the experiment, you will earn a bonus based on how much treasure you find. </p>
            <img src='./assets/img/instructions/treasure.jpg' class='instructions-image'>","","instructions","","","","","","","","","","","",""
"learning-instructions","7","150920","0.0-3.0-1.0-0.2","spark_pilot_norest","10828","4","17","Female","","","","","","","3535","<p> Animals have hidden treasure in treasure chests. </p>
            <p> You need to first find an animal and then choose which of their treasure chests to search. </p>
            <img src='./assets/img/space/animals/cat.jpg' class='instructions-image'>","","instructions","","","","","","","","","","","",""
"learning-instructions","8","165545","0.0-3.0-1.0-0.3","spark_pilot_norest","10828","4","17","Female","","","","","","","1450","<p> In each round, you will search for treasure in a different place. In the real game, there will be two rounds. </p>
            <p> You will begin with a separate, practice round where you will search for treasure in outer space. </p>
            <img src='./assets/img/space/0.jpg' class='instructions-image'>","","instructions","","","","","","","","","","","",""
"learning-instructions","9","177841","0.0-3.0-1.0-0.4","spark_pilot_norest","10828","4","17","Female","","","","","","","776","<p> On every turn, you will see a picture of the place that you are in, but the specific image may be different each time. </p>
            <p> For example, both of these images mean you are in outer space. </p>
            <img src='./assets/img/instructions/outerspace.jpg' class='instructions-image'>","","instructions","","","","","","","","","","","",""
"learning-instructions","10","186736","0.0-3.0-1.0-0.5","spark_pilot_norest","10828","4","17","Female","","","","","","","1007","<p> You need to decide which direction to travel in. </p>
            <p> You can choose between going <b>up or down</b> by using the arrow keys. </p>
            <img src='./assets/img/instructions/updown.jpg' class='instructions-image'>","","instructions","","","","","","","","","","","",""
"learning-instructions","11","196903","0.0-3.0-1.0-0.6","spark_pilot_norest","10828","4","17","Female","","","","","","","1346.000000000029","<p> You will have <b>2 seconds</b> to make your choice. </p>
            <p> If you do not make a choice within 2 seconds, you will not find an animal or earn treasure. </p>
            <img src='./assets/img/instructions/2seconds.jpg' class='instructions-image'>","","instructions","","","","","","","","","","","",""
"learning-instructions","12","209279","0.0-3.0-1.0-0.7","spark_pilot_norest","10828","4","17","Female","","","","","","","4076","<p> Let’s try practicing that now! </p>
            <p> When you see a picture of the place you are in, press the <b>up</b> key to travel up. </p>
            <img src='./assets/img/instructions/pressUp.jpg' class='instructions-image'>","","instructions","","","","","","","","","","","",""
"revaluation","13","213347","0.0-3.0-2.0-0.0","spark_pilot_norest","10828","4","17","Female","","true","","","","","[]","./assets/img/space/0.jpg","[]","first stage practice","space","-5","null","null","","false","","","","","",""
"html-keyboard-response","14","213851","0.0-3.0-2.0-1.0","spark_pilot_norest","10828","4","17","Female","","","","","","","null","<div style=""font-size:60px;"">+</div>","null","fixation","","","","","","","","","","","",""
"revaluation","15","217861","0.0-3.0-2.0-0.1","spark_pilot_norest","10828","4","17","Female","","true","","","","","[]","./assets/img/space/1.jpg","[]","first stage practice","space","-5","null","null","","false","","","","","",""
"html-keyboard-response","16","218365","0.0-3.0-2.0-1.1","spark_pilot_norest","10828","4","17","Female","","","","","","","null","<div style=""font-size:60px;"">+</div>","null","fixation","","","","","","","","","","","",""
"revaluation","17","222375","0.0-3.0-2.0-0.2","spark_pilot_norest","10828","4","17","Female","","false","","","","","[1766.999999999971]","./assets/img/space/2.jpg","[""ArrowUp""]","first stage practice","space","0","null","null","ArrowUp","false","","","","","",""
"html-keyboard-response","18","222879","0.0-3.0-2.0-1.2","spark_pilot_norest","10828","4","17","Female","","","","","","","null","<div style=""font-size:60px;"">+</div>","null","fixation","","","","","","","","","","","",""
"learning-instructions","19","229779","0.0-3.0-3.0-0.0","spark_pilot_norest","10828","4","17","Female","","","","","","","1200","<p> Great job! Now try pressing the <b>down</b> key to travel down. </p>
            <img src='./assets/img/instructions/pressDown.jpg' class='instructions-image'>","","instructions","","","","","","","","","","","",""
"revaluation","20","233789","0.0-3.0-4.0-0.0","spark_pilot_norest","10828","4","17","Female","","false","","","","","[819]","./assets/img/space/3.jpg","[""ArrowDown""]","first stage practice","space","0","null","null","ArrowDown","false","","","","","",""
"html-keyboard-response","21","234295","0.0-3.0-4.0-1.0","spark_pilot_norest","10828","4","17","Female","","","","","","","null","<div style=""font-size:60px;"">+</div>","null","fixation","","","","","","","","","","","",""
"revaluation","22","238308","0.0-3.0-4.0-0.1","spark_pilot_norest","10828","4","17","Female","","true","","","","","[]","./assets/img/space/4.jpg","[]","first stage practice","space","-5","null","null","","false","","","","","",""
"html-keyboard-response","23","238814","0.0-3.0-4.0-1.1","spark_pilot_norest","10828","4","17","Female","","","","","","","null","<div style=""font-size:60px;"">+</div>","null","fixation","","","","","","","","","","","",""
"revaluation","24","242826","0.0-3.0-4.0-0.2","spark_pilot_norest","10828","4","17","Female","","true","","","","","[]","./assets/img/space/5.jpg","[]","first stage practice","space","-5","null","null","","false","","","","","",""
"html-keyboard-response","25","243332","0.0-3.0-4.0-1.2","spark_pilot_norest","10828","4","17","Female","","","","","","","null","<div style=""font-size:60px;"">+</div>","null","fixation","","","","","","","","","","","",""
"learning-instructions","26","254404","0.0-3.0-5.0-0.0","spark_pilot_norest","10828","4","17","Female","","","","","","","1218","<p> The animals don’t move, so the animal in the upper part of a place will stay in the upper part of a place, and the animal in the lower part of a place will stay in the lower part of a place. </p>","","instructions","","","","","","","","","","","",""
"learning-instructions","27","267402","0.0-3.0-5.0-0.1","spark_pilot_norest","10828","4","17","Female","","","","","","","2463","<p> Each animal has two treasure chests for you to choose from. </p>
            <p> The amount of treasure in each chest can range from <b> 0 to 40 pieces.</b></p>","","instructions","","","","","","","","","","","",""
"learning-instructions","28","280605","0.0-3.0-5.0-0.2","spark_pilot_norest","10828","4","17","Female","","","","","","","2004","<p> You should decide which chest to search for treasure by using the <b>left</b> and <b>right</b> arrow keys. </p>
            <p><b> Pay attention to which animal is on the screen, as the animals have different treasure chests. </b></p>
            <img src='./assets/img/instructions/leftright.jpg' class='instructions-image'>","","instructions","","","","","","","","","","","",""
"learning-instructions","29","288516","0.0-3.0-5.0-0.3","spark_pilot_norest","10828","4","17","Female","","","","","","","1504","<p> Let’s try practicing that now. </p>
            <p> When you see an animal, choose which chest to search for treasure. </p>
            <img src='./assets/img/instructions/chooseChest.jpg' class='instructions-image'>","","instructions","","","","","","","","","","","",""
"revaluation","30","292531","0.0-3.0-6.0-0.0","spark_pilot_norest","10828","4","17","Female","","false","","","","","[1117.9999999999418]","./assets/img/space/animals/cat.jpg","[""ArrowRight""]","second stage practice","space","36","{""ArrowUp,ArrowLeft"":3,""ArrowUp,ArrowRight"":36,""ArrowDown,ArrowLeft"":15,""ArrowDown,ArrowRight"":23}","true","ArrowUp,ArrowRight","","","","","","",""
"html-keyboard-response","31","293035","0.0-3.0-6.0-1.0","spark_pilot_norest","10828","4","17","Female","","","","","","","null","<div style=""font-size:60px;"">+</div>","null","fixation","","","","","","","","","","","",""
"revaluation","32","297046","0.0-3.0-6.0-0.1","spark_pilot_norest","10828","4","17","Female","","false","","","","","[769]","./assets/img/space/animals/rabbit.jpg","[""ArrowLeft""]","second stage practice","space","15","{""ArrowUp,ArrowLeft"":3,""ArrowUp,ArrowRight"":36,""ArrowDown,ArrowLeft"":15,""ArrowDown,ArrowRight"":23}","false","ArrowDown,ArrowLeft","","","","","","",""
"html-keyboard-response","33","297551","0.0-3.0-6.0-1.1","spark_pilot_norest","10828","4","17","Female","","","","","","","null","<div style=""font-size:60px;"">+</div>","null","fixation","","","","","","","","","","","",""
"revaluation","34","301564","0.0-3.0-6.0-0.2","spark_pilot_norest","10828","4","17","Female","","false","","","","","[556]","./assets/img/space/animals/cat.jpg","[""ArrowRight""]","second stage practice","space","36","{""ArrowUp,ArrowLeft"":3,""ArrowUp,ArrowRight"":36,""ArrowDown,ArrowLeft"":15,""ArrowDown,ArrowRight"":23}","true","ArrowUp,ArrowRight","","","","","","",""
"html-keyboard-response","35","302067","0.0-3.0-6.0-1.2","spark_pilot_norest","10828","4","17","Female","","","","","","","null","<div style=""font-size:60px;"">+</div>","null","fixation","","","","","","","","","","","",""
"revaluation","36","306082","0.0-3.0-6.0-0.3","spark_pilot_norest","10828","4","17","Female","","false","","","","","[23]","./assets/img/space/animals/rabbit.jpg","[""ArrowRight""]","second stage practice","space","23","{""ArrowUp,ArrowLeft"":3,""ArrowUp,ArrowRight"":36,""ArrowDown,ArrowLeft"":15,""ArrowDown,ArrowRight"":23}","true","ArrowDown,ArrowRight","","","","","","",""
"html-keyboard-response","37","306586","0.0-3.0-6.0-1.3","spark_pilot_norest","10828","4","17","Female","","","","","","","null","<div style=""font-size:60px;"">+</div>","null","fixation","","","","","","","","","","","",""
"learning-instructions","38","329479","0.0-3.0-7.0-0.0","spark_pilot_norest","10828","4","17","Female","","","","","","","1919.9999999999418","<p> Great job. Now let’s try putting it together. </p>
            <p> On each turn, you will first see a picture to remind you of the place you are in, and you need to choose whether to go up or down. </p>
            <p> Then you will see an animal and choose which of its chests to search for treasure. </p>","","instructions","","","","","","","","","","","",""
"learning-instructions","39","338797","0.0-3.0-7.0-0.1","spark_pilot_norest","10828","4","17","Female","","","","","","","1046","<p> When you choose whether to go up or down, try to go to the animal with the chest with the most treasure. </p>
            <p> Try practicing that now! </p>","","instructions","","","","","","","","","","","",""
"revaluation","40","344809","0.0-3.0-8.0-0.0","spark_pilot_norest","10828","4","17","Female","","false","","","","","[1220,1256]","./assets/img/space/6.jpg","[""ArrowUp"",""ArrowRight""]","full practice","space","36","{""ArrowUp,ArrowLeft"":3,""ArrowUp,ArrowRight"":36,""ArrowDown,ArrowLeft"":15,""ArrowDown,ArrowRight"":23}","true","ArrowUp,ArrowRight","false","","","","","",""
"html-keyboard-response","41","345313","0.0-3.0-8.0-1.0","spark_pilot_norest","10828","4","17","Female","","","","","","","null","<div style=""font-size:60px;"">+</div>","null","fixation","","","","","","","","","","","",""
"revaluation","42","351323","0.0-3.0-8.0-0.1","spark_pilot_norest","10828","4","17","Female","","false","","","","","[1036,679.9999999999418]","./assets/img/space/7.jpg","[""ArrowDown"",""ArrowRight""]","full practice","space","23","{""ArrowUp,ArrowLeft"":3,""ArrowUp,ArrowRight"":36,""ArrowDown,ArrowLeft"":15,""ArrowDown,ArrowRight"":23}","false","ArrowDown,ArrowRight","false","","","","","",""
"html-keyboard-response","43","351828","0.0-3.0-8.0-1.1","spark_pilot_norest","10828","4","17","Female","","","","","","","null","<div style=""font-size:60px;"">+</div>","null","fixation","","","","","","","","","","","",""
"revaluation","44","357838","0.0-3.0-8.0-0.2","spark_pilot_norest","10828","4","17","Female","","false","","","","","[480,586.0000000000582]","./assets/img/space/8.jpg","[""ArrowDown"",""ArrowRight""]","full practice","space","23","{""ArrowUp,ArrowLeft"":3,""ArrowUp,ArrowRight"":36,""ArrowDown,ArrowLeft"":15,""ArrowDown,ArrowRight"":23}","false","ArrowDown,ArrowRight","false","","","","","",""
"html-keyboard-response","45","358341","0.0-3.0-8.0-1.2","spark_pilot_norest","10828","4","17","Female","","","","","","","null","<div style=""font-size:60px;"">+</div>","null","fixation","","","","","","","","","","","",""
"revaluation","46","364353","0.0-3.0-8.0-0.3","spark_pilot_norest","10828","4","17","Female","","false","","","","","[1161.0000000000582,444]","./assets/img/space/9.jpg","[""ArrowDown"",""ArrowRight""]","full practice","space","23","{""ArrowUp,ArrowLeft"":3,""ArrowUp,ArrowRight"":36,""ArrowDown,ArrowLeft"":15,""ArrowDown,ArrowRight"":23}","false","ArrowDown,ArrowRight","false","","","","","",""
"html-keyboard-response","47","364857","0.0-3.0-8.0-1.3","spark_pilot_norest","10828","4","17","Female","","","","","","","null","<div style=""font-size:60px;"">+</div>","null","fixation","","","","","","","","","","","",""
"revaluation","48","370868","0.0-3.0-8.0-0.4","spark_pilot_norest","10828","4","17","Female","","false","","","","","[889,320.0000000000582]","./assets/img/space/10.jpg","[""ArrowDown"",""ArrowRight""]","full practice","space","23","{""ArrowUp,ArrowLeft"":3,""ArrowUp,ArrowRight"":36,""ArrowDown,ArrowLeft"":15,""ArrowDown,ArrowRight"":23}","false","ArrowDown,ArrowRight","false","","","","","",""
"html-keyboard-response","49","371372","0.0-3.0-8.0-1.4","spark_pilot_norest","10828","4","17","Female","","","","","","","null","<div style=""font-size:60px;"">+</div>","null","fixation","","","","","","","","","","","",""
"learning-instructions","50","385899","0.0-3.0-9.0-0.0","spark_pilot_norest","10828","4","17","Female","","","","","","","2023","<p> One last thing: sometimes, you will see a robber. The robber can be anywhere in the picture. </p>
            <p> If you do not stop them, you will lose treasure. </p>
            <img src='./assets/img/instructions/robber.jpg' class='instructions-image'>","","instructions","","","","","","","","","","","",""
"learning-instructions","51","395377","0.0-3.0-9.0-0.1","spark_pilot_norest","10828","4","17","Female","","","","","","","2293","<p> If you see the robber, you should <b>press the space bar</b> rather than using the arrow keys. </p>
            <p> Try practicing that now! </p>","","instructions","","","","","","","","","","","",""
"revaluation","52","399383","0.0-3.0-10.0-0.0","spark_pilot_norest","10828","4","17","Female","","false","","","","","[1164.0000000000582]","./assets/img/space/catch/0.jpg","[""spaceBar""]","catch practice","space","0","{""ArrowUp,ArrowLeft"":3,""ArrowUp,ArrowRight"":36,""ArrowDown,ArrowLeft"":15,""ArrowDown,ArrowRight"":23}","true","spaceBar","true","","","","","",""
"html-keyboard-response","53","399889","0.0-3.0-10.0-1.0","spark_pilot_norest","10828","4","17","Female","","","","","","","null","<div style=""font-size:60px;"">+</div>","null","fixation","","","","","","","","","","","",""
"revaluation","54","403898","0.0-3.0-10.0-0.1","spark_pilot_norest","10828","4","17","Female","","false","","","","","[929]","./assets/img/space/catch/1.jpg","[""spaceBar""]","catch practice","space","0","{""ArrowUp,ArrowLeft"":3,""ArrowUp,ArrowRight"":36,""ArrowDown,ArrowLeft"":15,""ArrowDown,ArrowRight"":23}","true","spaceBar","true","","","","","",""
"html-keyboard-response","55","404402","0.0-3.0-10.0-1.1","spark_pilot_norest","10828","4","17","Female","","","","","","","null","<div style=""font-size:60px;"">+</div>","null","fixation","","","","","","","","","","","",""
"revaluation","56","408444","0.0-3.0-10.0-0.2","spark_pilot_norest","10828","4","17","Female","","false","","","","","[548]","./assets/img/space/catch/2.jpg","[""spaceBar""]","catch practice","space","0","{""ArrowUp,ArrowLeft"":3,""ArrowUp,ArrowRight"":36,""ArrowDown,ArrowLeft"":15,""ArrowDown,ArrowRight"":23}","true","spaceBar","true","","","","","",""
"html-keyboard-response","57","408948","0.0-3.0-10.0-1.2","spark_pilot_norest","10828","4","17","Female","","","","","","","null","<div style=""font-size:60px;"">+</div>","null","fixation","","","","","","","","","","","",""
"learning-instructions","58","417109","0.0-3.0-11.0-0.0-0.0","spark_pilot_norest","10828","4","17","Female","","","","","","","1512","<p> Now, you will practice a shortened version of the game to get a sense of how it all fits together. </p>","","instructions","","","","","","","","","","","",""
"learning-instructions","59","422222","0.0-3.0-11.0-0.0-0.1","spark_pilot_norest","10828","4","17","Female","","","","","","","1784","<p>This time you are searching for treasure in outer space.</p>","","instructions","","","","","","","","","","","",""
"learning-instructions","60","439077","0.0-3.0-11.0-1.0-0.0","spark_pilot_norest","10828","4","17","Female","","","","","","","1946","<p> Remember, when you see a picture of the place, use the up and down keys to <b>find an animal</b>.</p>
            <p> When you encounter an animal, you should use the left and right keys to <b>select a treasure chest</b>.</p>
            <p> Don't forget to look out for the robber! </p>","","instructions","","","","","","","","","","","",""
"revaluation","61","445086","0.0-3.0-11.0-2.0-0.0","spark_pilot_norest","10828","4","17","Female","","false","","","","","[1146,506]","./assets/img/space/11.jpg","[""ArrowDown"",""ArrowRight""]","practice block","space","23","{""ArrowUp,ArrowLeft"":3,""ArrowUp,ArrowRight"":36,""ArrowDown,ArrowLeft"":15,""ArrowDown,ArrowRight"":23}","false","ArrowDown,ArrowRight","false","","","","","",""
"html-keyboard-response","62","445590","0.0-3.0-11.0-2.0-1.0","spark_pilot_norest","10828","4","17","Female","","","","","","","null","<div style=""font-size:60px;"">+</div>","null","fixation","","","","","","","","","","","",""
"revaluation","63","451599","0.0-3.0-11.0-2.0-0.1","spark_pilot_norest","10828","4","17","Female","","false","","","","","[793,466.0000000000582]","./assets/img/space/12.jpg","[""ArrowDown"",""ArrowRight""]","practice block","space","23","{""ArrowUp,ArrowLeft"":3,""ArrowUp,ArrowRight"":36,""ArrowDown,ArrowLeft"":15,""ArrowDown,ArrowRight"":23}","false","ArrowDown,ArrowRight","false","","","","","",""
"html-keyboard-response","64","452103","0.0-3.0-11.0-2.0-1.1","spark_pilot_norest","10828","4","17","Female","","","","","","","null","<div style=""font-size:60px;"">+</div>","null","fixation","","","","","","","","","","","",""
"revaluation","65","458114","0.0-3.0-11.0-2.0-0.2","spark_pilot_norest","10828","4","17","Female","","false","","","","","[547.0000000000582,432]","./assets/img/space/13.jpg","[""ArrowDown"",""ArrowRight""]","practice block","space","23","{""ArrowUp,ArrowLeft"":3,""ArrowUp,ArrowRight"":36,""ArrowDown,ArrowLeft"":15,""ArrowDown,ArrowRight"":23}","false","ArrowDown,ArrowRight","false","","","","","",""
"html-keyboard-response","66","458618","0.0-3.0-11.0-2.0-1.2","spark_pilot_norest","10828","4","17","Female","","","","","","","null","<div style=""font-size:60px;"">+</div>","null","fixation","","","","","","","","","","","",""
"revaluation","67","464625","0.0-3.0-11.0-2.0-0.3","spark_pilot_norest","10828","4","17","Female","","false","","","","","[457,419.0000000000582]","./assets/img/space/14.jpg","[""ArrowUp"",""ArrowLeft""]","practice block","space","3","{""ArrowUp,ArrowLeft"":3,""ArrowUp,ArrowRight"":36,""ArrowDown,ArrowLeft"":15,""ArrowDown,ArrowRight"":23}","false","ArrowUp,ArrowLeft","false","","","","","",""
"html-keyboard-response","68","465128","0.0-3.0-11.0-2.0-1.3","spark_pilot_norest","10828","4","17","Female","","","","","","","null","<div style=""font-size:60px;"">+</div>","null","fixation","","","","","","","","","","","",""
"revaluation","69","471138","0.0-3.0-11.0-2.0-0.4","spark_pilot_norest","10828","4","17","Female","","false","","","","","[703.0000000000582,403]","./assets/img/space/11.jpg","[""ArrowDown"",""ArrowRight""]","practice block","space","23","{""ArrowUp,ArrowLeft"":3,""ArrowUp,ArrowRight"":36,""ArrowDown,ArrowLeft"":15,""ArrowDown,ArrowRight"":23}","false","ArrowDown,ArrowRight","false","","","","","",""
"html-keyboard-response","70","471641","0.0-3.0-11.0-2.0-1.4","spark_pilot_norest","10828","4","17","Female","","","","","","","null","<div style=""font-size:60px;"">+</div>","null","fixation","","","","","","","","","","","",""
"revaluation","71","477651","0.0-3.0-11.0-2.0-0.5","spark_pilot_norest","10828","4","17","Female","","false","","","","","[389,338]","./assets/img/space/12.jpg","[""ArrowDown"",""ArrowRight""]","practice block","space","23","{""ArrowUp,ArrowLeft"":3,""ArrowUp,ArrowRight"":36,""ArrowDown,ArrowLeft"":15,""ArrowDown,ArrowRight"":23}","false","ArrowDown,ArrowRight","false","","","","","",""
"html-keyboard-response","72","478154","0.0-3.0-11.0-2.0-1.5","spark_pilot_norest","10828","4","17","Female","","","","","","","null","<div style=""font-size:60px;"">+</div>","null","fixation","","","","","","","","","","","",""
"revaluation","73","484164","0.0-3.0-11.0-2.0-0.6","spark_pilot_norest","10828","4","17","Female","","false","","","","","[390.0000000000582,320]","./assets/img/space/13.jpg","[""ArrowDown"",""ArrowLeft""]","practice block","space","15","{""ArrowUp,ArrowLeft"":3,""ArrowUp,ArrowRight"":36,""ArrowDown,ArrowLeft"":15,""ArrowDown,ArrowRight"":23}","false","ArrowDown,ArrowLeft","false","","","","","",""
"html-keyboard-response","74","484667","0.0-3.0-11.0-2.0-1.6","spark_pilot_norest","10828","4","17","Female","","","","","","","null","<div style=""font-size:60px;"">+</div>","null","fixation","","","","","","","","","","","",""
"revaluation","75","490677","0.0-3.0-11.0-2.0-0.7","spark_pilot_norest","10828","4","17","Female","","false","","","","","[398,302]","./assets/img/space/14.jpg","[""ArrowUp"",""ArrowRight""]","practice block","space","36","{""ArrowUp,ArrowLeft"":3,""ArrowUp,ArrowRight"":36,""ArrowDown,ArrowLeft"":15,""ArrowDown,ArrowRight"":23}","true","ArrowUp,ArrowRight","false","","","","","",""
"html-keyboard-response","76","491179","0.0-3.0-11.0-2.0-1.7","spark_pilot_norest","10828","4","17","Female","","","","","","","null","<div style=""font-size:60px;"">+</div>","null","fixation","","","","","","","","","","","",""
"revaluation","77","495187","0.0-3.0-11.0-2.0-0.8","spark_pilot_norest","10828","4","17","Female","","false","","","","","[1027]","./assets/img/space/catch/3.jpg","[""spaceBar""]","practice block","space","0","{""ArrowUp,ArrowLeft"":3,""ArrowUp,ArrowRight"":36,""ArrowDown,ArrowLeft"":15,""ArrowDown,ArrowRight"":23}","true","spaceBar","true","","","","","",""
"html-keyboard-response","78","495692","0.0-3.0-11.0-2.0-1.8","spark_pilot_norest","10828","4","17","Female","","","","","","","null","<div style=""font-size:60px;"">+</div>","null","fixation","","","","","","","","","","","",""
"learning-instructions","79","526208","0.0-3.0-11.0-3.0-0.0","spark_pilot_norest","10828","4","17","Female","","","","","","","15230","<p> Now, you will travel with a friend who will choose whether you go up or down first. </p>
            <p> On these turns, you will just see the animal that they found. You will still get to choose which chest to search for treasure.</p>","","instructions","","","","","","","","","","","",""
"revaluation","80","530215","0.0-3.0-11.0-4.0-0.0","spark_pilot_norest","10828","4","17","Female","","false","","","","","[977]","./assets/img/space/animals/cat.jpg","[""ArrowRight""]","practice block","space","36","{""ArrowUp,ArrowLeft"":3,""ArrowUp,ArrowRight"":36,""ArrowDown,ArrowLeft"":15,""ArrowDown,ArrowRight"":23}","true","ArrowUp,ArrowRight","","","","","","",""
"html-keyboard-response","81","530719","0.0-3.0-11.0-4.0-1.0","spark_pilot_norest","10828","4","17","Female","","","","","","","null","<div style=""font-size:60px;"">+</div>","null","fixation","","","","","","","","","","","",""
"revaluation","82","534728","0.0-3.0-11.0-4.0-0.1","spark_pilot_norest","10828","4","17","Female","","false","","","","","[609.0000000001164]","./assets/img/space/animals/cat.jpg","[""ArrowRight""]","practice block","space","36","{""ArrowUp,ArrowLeft"":3,""ArrowUp,ArrowRight"":36,""ArrowDown,ArrowLeft"":15,""ArrowDown,ArrowRight"":23}","true","ArrowUp,ArrowRight","","","","","","",""
"html-keyboard-response","83","535233","0.0-3.0-11.0-4.0-1.1","spark_pilot_norest","10828","4","17","Female","","","","","","","null","<div style=""font-size:60px;"">+</div>","null","fixation","","","","","","","","","","","",""
"revaluation","84","539245","0.0-3.0-11.0-4.0-0.2","spark_pilot_norest","10828","4","17","Female","","false","","","","","[335]","./assets/img/space/animals/rabbit.jpg","[""ArrowRight""]","practice block","space","23","{""ArrowUp,ArrowLeft"":3,""ArrowUp,ArrowRight"":36,""ArrowDown,ArrowLeft"":15,""ArrowDown,ArrowRight"":23}","true","ArrowDown,ArrowRight","","","","","","",""
"html-keyboard-response","85","539748","0.0-3.0-11.0-4.0-1.2","spark_pilot_norest","10828","4","17","Female","","","","","","","null","<div style=""font-size:60px;"">+</div>","null","fixation","","","","","","","","","","","",""
"revaluation","86","543757","0.0-3.0-11.0-4.0-0.3","spark_pilot_norest","10828","4","17","Female","","true","","","","","[]","./assets/img/space/animals/rabbit.jpg","[]","practice block","space","-5","{""ArrowUp,ArrowLeft"":3,""ArrowUp,ArrowRight"":36,""ArrowDown,ArrowLeft"":15,""ArrowDown,ArrowRight"":23}","false","ArrowDown","","","","","","",""
"html-keyboard-response","87","544263","0.0-3.0-11.0-4.0-1.3","spark_pilot_norest","10828","4","17","Female","","","","","","","null","<div style=""font-size:60px;"">+</div>","null","fixation","","","","","","","","","","","",""
"learning-instructions","88","553540","0.0-3.0-11.0-5.0-0.0","spark_pilot_norest","10828","4","17","Female","","","","","","","null","<p> You have almost finished this part of the game! </p>
            <p> We are going to ask you to make a few more choices. </p>","","instructions","","","","","","","","","","","",""
"learning-instructions","89","571219","0.0-3.0-11.0-5.0-0.1","spark_pilot_norest","10828","4","17","Female","","","","","","","null","<p> First, you need to decide whether to go up or down. When you see each picture, use the arrow keys to make your choice. </p>
            <p><b>You will not see which animal you found, but try to get to the one that will give you the most treasure.</b></p>","","instructions","","","","","","","","","","","",""
"html-keyboard-response","90","572225","0.0-3.0-11.0-6.0-0.0","spark_pilot_norest","10828","4","17","Female","","","","","","","null","<div style=""font-size:100px;color:red;"">Starting in...</div>","null","","","","","","","","","","","","",""
"html-keyboard-response","91","573229","0.0-3.0-11.0-6.0-1.0","spark_pilot_norest","10828","4","17","Female","","","","","","","null","<div style=""font-size:200px;color:red;"">3</div>","null","","","","","","","","","","","","",""
"html-keyboard-response","92","574233","0.0-3.0-11.0-6.0-2.0","spark_pilot_norest","10828","4","17","Female","","","","","","","null","<div style=""font-size:200px;color:red;"">2</div>","null","","","","","","","","","","","","",""
"html-keyboard-response","93","575237","0.0-3.0-11.0-6.0-3.0","spark_pilot_norest","10828","4","17","Female","","","","","","","null","<div style=""font-size:200px;color:red;"">1</div>","null","","","","","","","","","","","","",""
"revaluation","94","576528","0.0-3.0-11.0-7.0","spark_pilot_norest","10828","4","17","Female","","false","","","","","[1284]","./assets/img/space/15.jpg","[""ArrowDown""]","practice block","space","0","{""ArrowUp,ArrowLeft"":3,""ArrowUp,ArrowRight"":36,""ArrowDown,ArrowLeft"":15,""ArrowDown,ArrowRight"":23}","false","ArrowDown","false","","","","","",""
"html-keyboard-response","95","577031","0.0-3.0-11.0-8.0","spark_pilot_norest","10828","4","17","Female","","","","","","","null","<div style=""font-size:60px;"">+</div>","null","fixation","","","","","","","","","","","",""
"learning-instructions","96","590407","0.0-3.0-11.0-9.0-0.0","spark_pilot_norest","10828","4","17","Female","","","","","","","null","<p> Now you will see the animals again and can search their chests for treasure. </p>
            <p> This time, you will not see how much treasure you earned, but you will earn more bonus money for making better choices. </p>","","instructions","","","","","","","","","","","",""
"html-keyboard-response","97","591411","0.0-3.0-11.0-10.0-0.0","spark_pilot_norest","10828","4","17","Female","","","","","","","null","<div style=""font-size:100px;color:red;"">Starting in...</div>","null","","","","","","","","","","","","",""
"html-keyboard-response","98","592416","0.0-3.0-11.0-10.0-1.0","spark_pilot_norest","10828","4","17","Female","","","","","","","null","<div style=""font-size:200px;color:red;"">3</div>","null","","","","","","","","","","","","",""
"html-keyboard-response","99","593419","0.0-3.0-11.0-10.0-2.0","spark_pilot_norest","10828","4","17","Female","","","","","","","null","<div style=""font-size:200px;color:red;"">2</div>","null","","","","","","","","","","","","",""
"html-keyboard-response","100","594423","0.0-3.0-11.0-10.0-3.0","spark_pilot_norest","10828","4","17","Female","","","","","","","null","<div style=""font-size:200px;color:red;"">1</div>","null","","","","","","","","","","","","",""
"revaluation","101","594839","0.0-3.0-11.0-11.0-0.0","spark_pilot_norest","10828","4","17","Female","","false","","","","","[407]","./assets/img/space/animals/cat.jpg","[""ArrowRight""]","practice block","space","0","{""ArrowUp,ArrowLeft"":3,""ArrowUp,ArrowRight"":36,""ArrowDown,ArrowLeft"":15,""ArrowDown,ArrowRight"":23}","true","ArrowUp,ArrowRight","","","","","","",""
"html-keyboard-response","102","595343","0.0-3.0-11.0-11.0-1.0","spark_pilot_norest","10828","4","17","Female","","","","","","","null","<div style=""font-size:60px;"">+</div>","null","fixation","","","","","","","","","","","",""
"revaluation","103","595858","0.0-3.0-11.0-11.0-0.1","spark_pilot_norest","10828","4","17","Female","","false","","","","","[509]","./assets/img/space/animals/rabbit.jpg","[""ArrowRight""]","practice block","space","0","{""ArrowUp,ArrowLeft"":3,""ArrowUp,ArrowRight"":36,""ArrowDown,ArrowLeft"":15,""ArrowDown,ArrowRight"":23}","true","ArrowDown,ArrowRight","","","","","","",""
"html-keyboard-response","104","596362","0.0-3.0-11.0-11.0-1.1","spark_pilot_norest","10828","4","17","Female","","","","","","","null","<div style=""font-size:60px;"">+</div>","null","fixation","","","","","","","","","","","",""
"learning-instructions","105","614416","0.0-3.0-12.0-0.0","spark_pilot_norest","10828","4","17","Female","","","","","","","12498","<p> Before you start, we're going to ask you a few questions about how the game works. </p>","","instructions","","","","","","","","","","","",""
"comp-q","106","622487","0.0-3.0-13.0-0.0-0.0","spark_pilot_norest","10828","4","17","Female","","","","","","","1286","<p> <b> True or False? </b> </p>
            <p> There can be 50 pieces of treasure in a given animal's chest. </p>","1","comp_question","","","","true","","","","","","","",""
"comp-q","107","637876","0.0-3.0-13.0-0.0-1.0","spark_pilot_norest","10828","4","17","Female","","","","","","","7446","<p> <b> That's right! </b> The amount of treasure in each chest can range from 0 to 40 pieces. </p>","0","comp_answer","","","","","","","","","","","",""
"comp-q","108","650479","0.0-3.0-13.0-0.1-0.1","spark_pilot_norest","10828","4","17","Female","","","","","","","5478","<p> <b> True or False? </b> </p><p> In this game, all animals have the same amount of treasure in their left and right chests. </p>","1","comp_question","","","","true","","","","","","","",""
"comp-q","109","664946","0.0-3.0-13.0-0.1-1.1","spark_pilot_norest","10828","4","17","Female","","","","","","","8159.000000000116","<p> <b> That's right! </b> Animals have different amounts of treasure in their treasure chests. </p>","0","comp_answer","","","","","","","","","","","",""
"comp-q","110","674420","0.0-3.0-13.0-0.2-0.2","spark_pilot_norest","10828","4","17","Female","","","","","","","2330","<p> <b> True or False? </b> </p><p> The same animal will always be there if you go up in the same place. </p>","0","comp_question","","","","true","","","","","","","",""
"comp-q","111","683664","0.0-3.0-13.0-0.2-1.2","spark_pilot_norest","10828","4","17","Female","","","","","","","2783","<p> <b> That's right! </b> One animal lives in the upper part and one lives in the lower part of every place. </p>","0","comp_answer","","","","","","","","","","","",""
"comp-q","112","691189","0.0-3.0-13.0-0.3-0.3","spark_pilot_norest","10828","4","17","Female","","","","","","","853","<p> <b> True or False? </b> </p><p> If you see a different picture, it means you are in a new place. </p>","0","comp_question","","","","false","","","","","","","",""
"comp-q","113","703888","0.0-3.0-13.0-0.3-1.3","spark_pilot_norest","10828","4","17","Female","","","","","","","1599","<p> <b>Incorrect.</b> Lots of different images may show the same place. For example,  you may see three different images that all remind you that you are in outer space. </p>","0","comp_answer","","","","","","","","","","","",""
"comp-q","114","710185","0.0-3.0-13.0-0.4-0.4","spark_pilot_norest","10828","4","17","Female","","","","","","","798","<p> <b> True or False? </b> </p><p> If you see a different picture, it means you are in a new place. </p>","1","comp_question","","","","true","","","","","","","",""
"comp-q","115","726899","0.0-3.0-13.0-0.4-1.4","spark_pilot_norest","10828","4","17","Female","","","","","","","3687","<p> <b> That's right! </b> Lots of different images may show the same place. For example,  you may see three different images that all remind you that you are in outer space. </p>","0","comp_answer","","","","","","","","","","","",""
"learning-instructions","116","739796","0.0-3.0-14.0-0.0","spark_pilot_norest","10828","4","17","Female","","","","","","","3004","<p> Good job. Remember to do your best because the amount of treasure you earn will be converted into bonus money. </p>
            <p> It’s time to start the real game! </p>","","instructions","","","","","","","","","","","",""
"learning-instructions","117","744621","0.0-4.0-0.0-0.0","spark_pilot_norest","10828","4","17","Female","","","","","","","2116.9999999998836","<p> This time you are searching for treasure in the <b>ocean</b>.</p>","","instructions","","","","","","","","","","","",""
"learning-instructions","118","763454","0.0-4.0-0.0-0.1","spark_pilot_norest","10828","4","17","Female","","","","","","","1537.0000000001164","<p><b>New</b> animals with <b>new</b> treasure chests live here. You need to explore to discover where the animal with the best treasure chest is.</p>
                    <p> Like before, once you figure out which animal has the chest with the most treasure, you should try to get to that animal and select that chest! </p>","","instructions","","","","","","","","","","","",""
"learning-instructions","119","781208","0.0-4.0-1.0-0.0","spark_pilot_norest","10828","4","17","Female","","","","","","","2974","<p> Remember, when you see a picture of the place, use the up and down keys to <b>find an animal</b>.</p>
            <p> When you encounter an animal, you should use the left and right keys to <b>select a treasure chest</b>.</p>
            <p> Don't forget to look out for the robber! </p>","","instructions","","","","","","","","","","","",""
"revaluation","120","787228","0.0-4.0-2.0-0.0","spark_pilot_norest","10828","4","17","Female","","true","","","","","[1670]","./assets/img/ocean/memory/35.jpg","[""ArrowDown""]","value training","ocean","-5","{""ArrowUp,ArrowLeft"":26,""ArrowUp,ArrowRight"":10,""ArrowDown,ArrowLeft"":5,""ArrowDown,ArrowRight"":17}","false","ArrowDown","false","revaluation","1","0","","",""
"html-keyboard-response","121","787736","0.0-4.0-2.0-1.0","spark_pilot_norest","10828","4","17","Female","","","","","","","null","<div style=""font-size:60px;"">+</div>","null","fixation","","","","","","","","","1","","",""
"revaluation","122","793745","0.0-4.0-2.0-0.1","spark_pilot_norest","10828","4","17","Female","","false","","","","","[1521,929]","./assets/img/ocean/memory/38.jpg","[""ArrowUp"",""ArrowLeft""]","value training","ocean","26","{""ArrowUp,ArrowLeft"":26,""ArrowUp,ArrowRight"":10,""ArrowDown,ArrowLeft"":5,""ArrowDown,ArrowRight"":17}","true","ArrowUp,ArrowLeft","false","revaluation","1","2","","",""
"html-keyboard-response","123","794248","0.0-4.0-2.0-1.1","spark_pilot_norest","10828","4","17","Female","","","","","","","null","<div style=""font-size:60px;"">+</div>","null","fixation","","","","","","","","","3","","",""
"revaluation","124","800258","0.0-4.0-2.0-0.2","spark_pilot_norest","10828","4","17","Female","","false","","","","","[1563,706]","./assets/img/ocean/memory/28.jpg","[""ArrowDown"",""ArrowRight""]","value training","ocean","17","{""ArrowUp,ArrowLeft"":26,""ArrowUp,ArrowRight"":10,""ArrowDown,ArrowLeft"":5,""ArrowDown,ArrowRight"":17}","false","ArrowDown,ArrowRight","false","revaluation","1","4","","",""
"html-keyboard-response","125","800761","0.0-4.0-2.0-1.2","spark_pilot_norest","10828","4","17","Female","","","","","","","null","<div style=""font-size:60px;"">+</div>","null","fixation","","","","","","","","","5","","",""
"revaluation","126","806771","0.0-4.0-2.0-0.3","spark_pilot_norest","10828","4","17","Female","","false","","","","","[810,1554]","./assets/img/ocean/memory/29.jpg","[""ArrowUp"",""ArrowLeft""]","value training","ocean","26","{""ArrowUp,ArrowLeft"":26,""ArrowUp,ArrowRight"":10,""ArrowDown,ArrowLeft"":5,""ArrowDown,ArrowRight"":17}","true","ArrowUp,ArrowLeft","false","revaluation","1","6","","",""
"html-keyboard-response","127","807275","0.0-4.0-2.0-1.3","spark_pilot_norest","10828","4","17","Female","","","","","","","null","<div style=""font-size:60px;"">+</div>","null","fixation","","","","","","","","","7","","",""
"revaluation","128","813285","0.0-4.0-2.0-0.4","spark_pilot_norest","10828","4","17","Female","","false","","","","","[1436.0000000001164,709.0000000001164]","./assets/img/ocean/memory/7.jpg","[""ArrowDown"",""ArrowRight""]","value training","ocean","17","{""ArrowUp,ArrowLeft"":26,""ArrowUp,ArrowRight"":10,""ArrowDown,ArrowLeft"":5,""ArrowDown,ArrowRight"":17}","false","ArrowDown,ArrowRight","false","revaluation","1","8","","",""
"html-keyboard-response","129","813788","0.0-4.0-2.0-1.4","spark_pilot_norest","10828","4","17","Female","","","","","","","null","<div style=""font-size:60px;"">+</div>","null","fixation","","","","","","","","","9","","",""
"revaluation","130","819797","0.0-4.0-2.0-0.5","spark_pilot_norest","10828","4","17","Female","","false","","","","","[1136,609]","./assets/img/ocean/memory/34.jpg","[""ArrowUp"",""ArrowRight""]","value training","ocean","10","{""ArrowUp,ArrowLeft"":26,""ArrowUp,ArrowRight"":10,""ArrowDown,ArrowLeft"":5,""ArrowDown,ArrowRight"":17}","false","ArrowUp,ArrowRight","false","revaluation","1","10","","",""
"html-keyboard-response","131","820301","0.0-4.0-2.0-1.5","spark_pilot_norest","10828","4","17","Female","","","","","","","null","<div style=""font-size:60px;"">+</div>","null","fixation","","","","","","","","","11","","",""
"revaluation","132","826309","0.0-4.0-2.0-0.6","spark_pilot_norest","10828","4","17","Female","","false","","","","","[1420,661.0000000001164]","./assets/img/ocean/memory/19.jpg","[""ArrowUp"",""ArrowLeft""]","value training","ocean","26","{""ArrowUp,ArrowLeft"":26,""ArrowUp,ArrowRight"":10,""ArrowDown,ArrowLeft"":5,""ArrowDown,ArrowRight"":17}","true","ArrowUp,ArrowLeft","false","revaluation","1","12","","",""
"html-keyboard-response","133","826812","0.0-4.0-2.0-1.6","spark_pilot_norest","10828","4","17","Female","","","","","","","null","<div style=""font-size:60px;"">+</div>","null","fixation","","","","","","","","","13","","",""
"revaluation","134","832824","0.0-4.0-2.0-0.7","spark_pilot_norest","10828","4","17","Female","","false","","","","","[1082,1646.0000000001164]","./assets/img/ocean/memory/10.jpg","[""ArrowUp"",""ArrowRight""]","value training","ocean","10","{""ArrowUp,ArrowLeft"":26,""ArrowUp,ArrowRight"":10,""ArrowDown,ArrowLeft"":5,""ArrowDown,ArrowRight"":17}","false","ArrowUp,ArrowRight","false","revaluation","1","14","","",""
"html-keyboard-response","135","833328","0.0-4.0-2.0-1.7","spark_pilot_norest","10828","4","17","Female","","","","","","","null","<div style=""font-size:60px;"">+</div>","null","fixation","","","","","","","","","15","","",""
"revaluation","136","839337","0.0-4.0-2.0-0.8","spark_pilot_norest","10828","4","17","Female","","false","","","","","[1602,1357]","./assets/img/ocean/memory/7.jpg","[""ArrowDown"",""ArrowLeft""]","value training","ocean","5","{""ArrowUp,ArrowLeft"":26,""ArrowUp,ArrowRight"":10,""ArrowDown,ArrowLeft"":5,""ArrowDown,ArrowRight"":17}","false","ArrowDown,ArrowLeft","false","revaluation","1","16","","",""
"html-keyboard-response","137","839841","0.0-4.0-2.0-1.8","spark_pilot_norest","10828","4","17","Female","","","","","","","null","<div style=""font-size:60px;"">+</div>","null","fixation","","","","","","","","","17","","",""
"revaluation","138","845853","0.0-4.0-2.0-0.9","spark_pilot_norest","10828","4","17","Female","","false","","","","","[1059,1221]","./assets/img/ocean/memory/29.jpg","[""ArrowUp"",""ArrowRight""]","value training","ocean","10","{""ArrowUp,ArrowLeft"":26,""ArrowUp,ArrowRight"":10,""ArrowDown,ArrowLeft"":5,""ArrowDown,ArrowRight"":17}","false","ArrowUp,ArrowRight","false","revaluation","1","18","","",""
"html-keyboard-response","139","846359","0.0-4.0-2.0-1.9","spark_pilot_norest","10828","4","17","Female","","","","","","","null","<div style=""font-size:60px;"">+</div>","null","fixation","","","","","","","","","19","","",""
"revaluation","140","852368","0.0-4.0-2.0-0.10","spark_pilot_norest","10828","4","17","Female","","false","","","","","[1262,731.9999999998836]","./assets/img/ocean/memory/40.jpg","[""ArrowDown"",""ArrowRight""]","value training","ocean","17","{""ArrowUp,ArrowLeft"":26,""ArrowUp,ArrowRight"":10,""ArrowDown,ArrowLeft"":5,""ArrowDown,ArrowRight"":17}","false","ArrowDown,ArrowRight","false","revaluation","1","20","","",""
"html-keyboard-response","141","852872","0.0-4.0-2.0-1.10","spark_pilot_norest","10828","4","17","Female","","","","","","","null","<div style=""font-size:60px;"">+</div>","null","fixation","","","","","","","","","21","","",""
"revaluation","142","856879","0.0-4.0-2.0-0.11","spark_pilot_norest","10828","4","17","Female","","true","","","","","[]","./assets/img/ocean/memory/39.jpg","[]","value training","ocean","-5","{""ArrowUp,ArrowLeft"":26,""ArrowUp,ArrowRight"":10,""ArrowDown,ArrowLeft"":5,""ArrowDown,ArrowRight"":17}","false","","false","revaluation","1","22","","",""
"html-keyboard-response","143","857383","0.0-4.0-2.0-1.11","spark_pilot_norest","10828","4","17","Female","","","","","","","null","<div style=""font-size:60px;"">+</div>","null","fixation","","","","","","","","","23","","",""
"revaluation","144","861391","0.0-4.0-2.0-0.12","spark_pilot_norest","10828","4","17","Female","","false","","","","","[737.0000000001164]","./assets/img/ocean/catch/4.jpg","[""ArrowDown""]","value training","ocean","-10","{""ArrowUp,ArrowLeft"":26,""ArrowUp,ArrowRight"":10,""ArrowDown,ArrowLeft"":5,""ArrowDown,ArrowRight"":17}","false","ArrowDown","true","revaluation","1","24","","",""
"html-keyboard-response","145","861895","0.0-4.0-2.0-1.12","spark_pilot_norest","10828","4","17","Female","","","","","","","null","<div style=""font-size:60px;"">+</div>","null","fixation","","","","","","","","","25","","",""
"revaluation","146","867905","0.0-4.0-2.0-0.13","spark_pilot_norest","10828","4","17","Female","","false","","","","","[847,1078]","./assets/img/ocean/memory/2.jpg","[""ArrowDown"",""ArrowRight""]","value training","ocean","17","{""ArrowUp,ArrowLeft"":26,""ArrowUp,ArrowRight"":10,""ArrowDown,ArrowLeft"":5,""ArrowDown,ArrowRight"":17}","false","ArrowDown,ArrowRight","false","revaluation","1","26","","",""
"html-keyboard-response","147","868408","0.0-4.0-2.0-1.13","spark_pilot_norest","10828","4","17","Female","","","","","","","null","<div style=""font-size:60px;"">+</div>","null","fixation","","","","","","","","","27","","",""
"revaluation","148","874418","0.0-4.0-2.0-0.14","spark_pilot_norest","10828","4","17","Female","","false","","","","","[646.9999999998836,1247]","./assets/img/ocean/memory/22.jpg","[""ArrowDown"",""ArrowLeft""]","value training","ocean","5","{""ArrowUp,ArrowLeft"":26,""ArrowUp,ArrowRight"":10,""ArrowDown,ArrowLeft"":5,""ArrowDown,ArrowRight"":17}","false","ArrowDown,ArrowLeft","false","revaluation","1","28","","",""
"html-keyboard-response","149","874922","0.0-4.0-2.0-1.14","spark_pilot_norest","10828","4","17","Female","","","","","","","null","<div style=""font-size:60px;"">+</div>","null","fixation","","","","","","","","","29","","",""
"revaluation","150","880931","0.0-4.0-2.0-0.15","spark_pilot_norest","10828","4","17","Female","","false","","","","","[1065.9999999998836,701]","./assets/img/ocean/memory/28.jpg","[""ArrowDown"",""ArrowRight""]","value training","ocean","17","{""ArrowUp,ArrowLeft"":26,""ArrowUp,ArrowRight"":10,""ArrowDown,ArrowLeft"":5,""ArrowDown,ArrowRight"":17}","false","ArrowDown,ArrowRight","false","revaluation","1","30","","",""
"html-keyboard-response","151","881435","0.0-4.0-2.0-1.15","spark_pilot_norest","10828","4","17","Female","","","","","","","null","<div style=""font-size:60px;"">+</div>","null","fixation","","","","","","","","","31","","",""
"revaluation","152","887444","0.0-4.0-2.0-0.16","spark_pilot_norest","10828","4","17","Female","","false","","","","","[824.0000000001164,846]","./assets/img/ocean/memory/39.jpg","[""ArrowDown"",""ArrowLeft""]","value training","ocean","5","{""ArrowUp,ArrowLeft"":26,""ArrowUp,ArrowRight"":10,""ArrowDown,ArrowLeft"":5,""ArrowDown,ArrowRight"":17}","false","ArrowDown,ArrowLeft","false","revaluation","1","32","","",""
"html-keyboard-response","153","887948","0.0-4.0-2.0-1.16","spark_pilot_norest","10828","4","17","Female","","","","","","","null","<div style=""font-size:60px;"">+</div>","null","fixation","","","","","","","","","33","","",""
"revaluation","154","891956","0.0-4.0-2.0-0.17","spark_pilot_norest","10828","4","17","Female","","false","","","","","[1373.0000000001164]","./assets/img/ocean/catch/2.jpg","[""spaceBar""]","value training","ocean","0","{""ArrowUp,ArrowLeft"":26,""ArrowUp,ArrowRight"":10,""ArrowDown,ArrowLeft"":5,""ArrowDown,ArrowRight"":17}","true","spaceBar","true","revaluation","1","34","","",""
"html-keyboard-response","155","892461","0.0-4.0-2.0-1.17","spark_pilot_norest","10828","4","17","Female","","","","","","","null","<div style=""font-size:60px;"">+</div>","null","fixation","","","","","","","","","35","","",""
"revaluation","156","898470","0.0-4.0-2.0-0.18","spark_pilot_norest","10828","4","17","Female","","false","","","","","[878,498]","./assets/img/ocean/memory/32.jpg","[""ArrowDown"",""ArrowRight""]","value training","ocean","17","{""ArrowUp,ArrowLeft"":26,""ArrowUp,ArrowRight"":10,""ArrowDown,ArrowLeft"":5,""ArrowDown,ArrowRight"":17}","false","ArrowDown,ArrowRight","false","revaluation","1","36","","",""
"html-keyboard-response","157","898973","0.0-4.0-2.0-1.18","spark_pilot_norest","10828","4","17","Female","","","","","","","null","<div style=""font-size:60px;"">+</div>","null","fixation","","","","","","","","","37","","",""
"revaluation","158","904983","0.0-4.0-2.0-0.19","spark_pilot_norest","10828","4","17","Female","","false","","","","","[591,763]","./assets/img/ocean/memory/4.jpg","[""ArrowUp"",""ArrowLeft""]","value training","ocean","26","{""ArrowUp,ArrowLeft"":26,""ArrowUp,ArrowRight"":10,""ArrowDown,ArrowLeft"":5,""ArrowDown,ArrowRight"":17}","true","ArrowUp,ArrowLeft","false","revaluation","1","38","","",""
"html-keyboard-response","159","905487","0.0-4.0-2.0-1.19","spark_pilot_norest","10828","4","17","Female","","","","","","","null","<div style=""font-size:60px;"">+</div>","null","fixation","","","","","","","","","39","","",""
"revaluation","160","911496","0.0-4.0-2.0-0.20","spark_pilot_norest","10828","4","17","Female","","false","","","","","[812,566]","./assets/img/ocean/memory/41.jpg","[""ArrowDown"",""ArrowRight""]","value training","ocean","17","{""ArrowUp,ArrowLeft"":26,""ArrowUp,ArrowRight"":10,""ArrowDown,ArrowLeft"":5,""ArrowDown,ArrowRight"":17}","false","ArrowDown,ArrowRight","false","revaluation","1","40","","",""
"html-keyboard-response","161","912000","0.0-4.0-2.0-1.20","spark_pilot_norest","10828","4","17","Female","","","","","","","null","<div style=""font-size:60px;"">+</div>","null","fixation","","","","","","","","","41","","",""
"revaluation","162","918010","0.0-4.0-2.0-0.21","spark_pilot_norest","10828","4","17","Female","","false","","","","","[574,459.0000000001164]","./assets/img/ocean/memory/38.jpg","[""ArrowDown"",""ArrowLeft""]","value training","ocean","5","{""ArrowUp,ArrowLeft"":26,""ArrowUp,ArrowRight"":10,""ArrowDown,ArrowLeft"":5,""ArrowDown,ArrowRight"":17}","false","ArrowDown,ArrowLeft","false","revaluation","1","42","","",""
"html-keyboard-response","163","918513","0.0-4.0-2.0-1.21","spark_pilot_norest","10828","4","17","Female","","","","","","","null","<div style=""font-size:60px;"">+</div>","null","fixation","","","","","","","","","43","","",""
"revaluation","164","924526","0.0-4.0-2.0-0.22","spark_pilot_norest","10828","4","17","Female","","false","","","","","[1090,500]","./assets/img/ocean/memory/5.jpg","[""ArrowUp"",""ArrowRight""]","value training","ocean","10","{""ArrowUp,ArrowLeft"":26,""ArrowUp,ArrowRight"":10,""ArrowDown,ArrowLeft"":5,""ArrowDown,ArrowRight"":17}","false","ArrowUp,ArrowRight","false","revaluation","1","44","","",""
"html-keyboard-response","165","925029","0.0-4.0-2.0-1.22","spark_pilot_norest","10828","4","17","Female","","","","","","","null","<div style=""font-size:60px;"">+</div>","null","fixation","","","","","","","","","45","","",""
"revaluation","166","931049","0.0-4.0-2.0-0.23","spark_pilot_norest","10828","4","17","Female","","false","","","","","[583,439]","./assets/img/ocean/memory/35.jpg","[""ArrowDown"",""ArrowRight""]","value training","ocean","17","{""ArrowUp,ArrowLeft"":26,""ArrowUp,ArrowRight"":10,""ArrowDown,ArrowLeft"":5,""ArrowDown,ArrowRight"":17}","false","ArrowDown,ArrowRight","false","revaluation","1","46","","",""
"html-keyboard-response","167","931554","0.0-4.0-2.0-1.23","spark_pilot_norest","10828","4","17","Female","","","","","","","null","<div style=""font-size:60px;"">+</div>","null","fixation","","","","","","","","","47","","",""
"revaluation","168","935568","0.0-4.0-2.0-0.24","spark_pilot_norest","10828","4","17","Female","","false","","","","","[1345]","./assets/img/ocean/catch/6.jpg","[""spaceBar""]","value training","ocean","0","{""ArrowUp,ArrowLeft"":26,""ArrowUp,ArrowRight"":10,""ArrowDown,ArrowLeft"":5,""ArrowDown,ArrowRight"":17}","true","spaceBar","true","revaluation","1","48","","",""
"html-keyboard-response","169","936072","0.0-4.0-2.0-1.24","spark_pilot_norest","10828","4","17","Female","","","","","","","null","<div style=""font-size:60px;"">+</div>","null","fixation","","","","","","","","","49","","",""
"revaluation","170","942088","0.0-4.0-2.0-0.25","spark_pilot_norest","10828","4","17","Female","","false","","","","","[778,470.0000000001164]","./assets/img/ocean/memory/3.jpg","[""ArrowDown"",""ArrowRight""]","value training","ocean","17","{""ArrowUp,ArrowLeft"":26,""ArrowUp,ArrowRight"":10,""ArrowDown,ArrowLeft"":5,""ArrowDown,ArrowRight"":17}","false","ArrowDown,ArrowRight","false","revaluation","1","50","","",""
"html-keyboard-response","171","942593","0.0-4.0-2.0-1.25","spark_pilot_norest","10828","4","17","Female","","","","","","","null","<div style=""font-size:60px;"">+</div>","null","fixation","","","","","","","","","51","","",""
"revaluation","172","946604","0.0-4.0-2.0-0.26","spark_pilot_norest","10828","4","17","Female","","false","","","","","[1094]","./assets/img/ocean/catch/0.jpg","[""spaceBar""]","value training","ocean","0","{""ArrowUp,ArrowLeft"":26,""ArrowUp,ArrowRight"":10,""ArrowDown,ArrowLeft"":5,""ArrowDown,ArrowRight"":17}","true","spaceBar","true","revaluation","1","52","","",""
"html-keyboard-response","173","947108","0.0-4.0-2.0-1.26","spark_pilot_norest","10828","4","17","Female","","","","","","","null","<div style=""font-size:60px;"">+</div>","null","fixation","","","","","","","","","53","","",""
"revaluation","174","953118","0.0-4.0-2.0-0.27","spark_pilot_norest","10828","4","17","Female","","false","","","","","[1005,442]","./assets/img/ocean/memory/32.jpg","[""ArrowDown"",""ArrowLeft""]","value training","ocean","5","{""ArrowUp,ArrowLeft"":26,""ArrowUp,ArrowRight"":10,""ArrowDown,ArrowLeft"":5,""ArrowDown,ArrowRight"":17}","false","ArrowDown,ArrowLeft","false","revaluation","1","54","","",""
"html-keyboard-response","175","953624","0.0-4.0-2.0-1.27","spark_pilot_norest","10828","4","17","Female","","","","","","","null","<div style=""font-size:60px;"">+</div>","null","fixation","","","","","","","","","55","","",""
"revaluation","176","959634","0.0-4.0-2.0-0.28","spark_pilot_norest","10828","4","17","Female","","false","","","","","[1094,378.9999999998836]","./assets/img/ocean/memory/41.jpg","[""ArrowUp"",""ArrowRight""]","value training","ocean","10","{""ArrowUp,ArrowLeft"":26,""ArrowUp,ArrowRight"":10,""ArrowDown,ArrowLeft"":5,""ArrowDown,ArrowRight"":17}","false","ArrowUp,ArrowRight","false","revaluation","1","56","","",""
"html-keyboard-response","177","960138","0.0-4.0-2.0-1.28","spark_pilot_norest","10828","4","17","Female","","","","","","","null","<div style=""font-size:60px;"">+</div>","null","fixation","","","","","","","","","57","","",""
"revaluation","178","966150","0.0-4.0-2.0-0.29","spark_pilot_norest","10828","4","17","Female","","false","","","","","[676.0000000001164,311]","./assets/img/ocean/memory/3.jpg","[""ArrowDown"",""ArrowRight""]","value training","ocean","17","{""ArrowUp,ArrowLeft"":26,""ArrowUp,ArrowRight"":10,""ArrowDown,ArrowLeft"":5,""ArrowDown,ArrowRight"":17}","false","ArrowDown,ArrowRight","false","revaluation","1","58","","",""
"html-keyboard-response","179","966654","0.0-4.0-2.0-1.29","spark_pilot_norest","10828","4","17","Female","","","","","","","null","<div style=""font-size:60px;"">+</div>","null","fixation","","","","","","","","","59","","",""
"revaluation","180","972664","0.0-4.0-2.0-0.30","spark_pilot_norest","10828","4","17","Female","","false","","","","","[1007,550]","./assets/img/ocean/memory/30.jpg","[""ArrowDown"",""ArrowLeft""]","value training","ocean","5","{""ArrowUp,ArrowLeft"":26,""ArrowUp,ArrowRight"":10,""ArrowDown,ArrowLeft"":5,""ArrowDown,ArrowRight"":17}","false","ArrowDown,ArrowLeft","false","revaluation","1","60","","",""
"html-keyboard-response","181","973167","0.0-4.0-2.0-1.30","spark_pilot_norest","10828","4","17","Female","","","","","","","null","<div style=""font-size:60px;"">+</div>","null","fixation","","","","","","","","","61","","",""
"revaluation","182","979172","0.0-4.0-2.0-0.31","spark_pilot_norest","10828","4","17","Female","","false","","","","","[927.0000000001164,283]","./assets/img/ocean/memory/19.jpg","[""ArrowDown"",""ArrowRight""]","value training","ocean","17","{""ArrowUp,ArrowLeft"":26,""ArrowUp,ArrowRight"":10,""ArrowDown,ArrowLeft"":5,""ArrowDown,ArrowRight"":17}","false","ArrowDown,ArrowRight","false","revaluation","1","62","","",""
"html-keyboard-response","183","979675","0.0-4.0-2.0-1.31","spark_pilot_norest","10828","4","17","Female","","","","","","","null","<div style=""font-size:60px;"">+</div>","null","fixation","","","","","","","","","63","","",""
"revaluation","184","985680","0.0-4.0-2.0-0.32","spark_pilot_norest","10828","4","17","Female","","false","","","","","[1830,985]","./assets/img/ocean/memory/22.jpg","[""ArrowDown"",""ArrowLeft""]","value training","ocean","5","{""ArrowUp,ArrowLeft"":26,""ArrowUp,ArrowRight"":10,""ArrowDown,ArrowLeft"":5,""ArrowDown,ArrowRight"":17}","false","ArrowDown,ArrowLeft","false","revaluation","1","64","","",""
"html-keyboard-response","185","986181","0.0-4.0-2.0-1.32","spark_pilot_norest","10828","4","17","Female","","","","","","","null","<div style=""font-size:60px;"">+</div>","null","fixation","","","","","","","","","65","","",""
"revaluation","186","992186","0.0-4.0-2.0-0.33","spark_pilot_norest","10828","4","17","Female","","false","","","","","[1878.9999999998836,867]","./assets/img/ocean/memory/6.jpg","[""ArrowDown"",""ArrowRight""]","value training","ocean","17","{""ArrowUp,ArrowLeft"":26,""ArrowUp,ArrowRight"":10,""ArrowDown,ArrowLeft"":5,""ArrowDown,ArrowRight"":17}","false","ArrowDown,ArrowRight","false","revaluation","1","66","","",""
"html-keyboard-response","187","992688","0.0-4.0-2.0-1.33","spark_pilot_norest","10828","4","17","Female","","","","","","","null","<div style=""font-size:60px;"">+</div>","null","fixation","","","","","","","","","67","","",""
"revaluation","188","998693","0.0-4.0-2.0-0.34","spark_pilot_norest","10828","4","17","Female","","false","","","","","[876,195]","./assets/img/ocean/memory/34.jpg","[""ArrowUp"",""ArrowRight""]","value training","ocean","10","{""ArrowUp,ArrowLeft"":26,""ArrowUp,ArrowRight"":10,""ArrowDown,ArrowLeft"":5,""ArrowDown,ArrowRight"":17}","false","ArrowUp,ArrowRight","false","revaluation","1","68","","",""
"html-keyboard-response","189","999195","0.0-4.0-2.0-1.34","spark_pilot_norest","10828","4","17","Female","","","","","","","null","<div style=""font-size:60px;"">+</div>","null","fixation","","","","","","","","","69","","",""
"revaluation","190","1005201","0.0-4.0-2.0-0.35","spark_pilot_norest","10828","4","17","Female","","false","","","","","[384,769.9999999998836]","./assets/img/ocean/memory/17.jpg","[""ArrowDown"",""ArrowRight""]","value training","ocean","17","{""ArrowUp,ArrowLeft"":26,""ArrowUp,ArrowRight"":10,""ArrowDown,ArrowLeft"":5,""ArrowDown,ArrowRight"":17}","false","ArrowDown,ArrowRight","false","revaluation","1","70","","",""
"html-keyboard-response","191","1005704","0.0-4.0-2.0-1.35","spark_pilot_norest","10828","4","17","Female","","","","","","","null","<div style=""font-size:60px;"">+</div>","null","fixation","","","","","","","","","71","","",""
"revaluation","192","1011713","0.0-4.0-2.0-0.36","spark_pilot_norest","10828","4","17","Female","","false","","","","","[569,1172]","./assets/img/ocean/memory/18.jpg","[""ArrowDown"",""ArrowLeft""]","value training","ocean","5","{""ArrowUp,ArrowLeft"":26,""ArrowUp,ArrowRight"":10,""ArrowDown,ArrowLeft"":5,""ArrowDown,ArrowRight"":17}","false","ArrowDown,ArrowLeft","false","revaluation","1","72","","",""
"html-keyboard-response","193","1012215","0.0-4.0-2.0-1.36","spark_pilot_norest","10828","4","17","Female","","","","","","","null","<div style=""font-size:60px;"">+</div>","null","fixation","","","","","","","","","73","","",""
"revaluation","194","1016219","0.0-4.0-2.0-0.37","spark_pilot_norest","10828","4","17","Female","","false","","","","","[1755]","./assets/img/ocean/catch/1.jpg","[""spaceBar""]","value training","ocean","0","{""ArrowUp,ArrowLeft"":26,""ArrowUp,ArrowRight"":10,""ArrowDown,ArrowLeft"":5,""ArrowDown,ArrowRight"":17}","true","spaceBar","true","revaluation","1","74","","",""
"html-keyboard-response","195","1016721","0.0-4.0-2.0-1.37","spark_pilot_norest","10828","4","17","Female","","","","","","","null","<div style=""font-size:60px;"">+</div>","null","fixation","","","","","","","","","75","","",""
"revaluation","196","1022731","0.0-4.0-2.0-0.38","spark_pilot_norest","10828","4","17","Female","","false","","","","","[1131,441]","./assets/img/ocean/memory/5.jpg","[""ArrowDown"",""ArrowRight""]","value training","ocean","17","{""ArrowUp,ArrowLeft"":26,""ArrowUp,ArrowRight"":10,""ArrowDown,ArrowLeft"":5,""ArrowDown,ArrowRight"":17}","false","ArrowDown,ArrowRight","false","revaluation","1","76","","",""
"html-keyboard-response","197","1023235","0.0-4.0-2.0-1.38","spark_pilot_norest","10828","4","17","Female","","","","","","","null","<div style=""font-size:60px;"">+</div>","null","fixation","","","","","","","","","77","","",""
"revaluation","198","1029248","0.0-4.0-2.0-0.39","spark_pilot_norest","10828","4","17","Female","","false","","","","","[1049,703]","./assets/img/ocean/memory/17.jpg","[""ArrowUp"",""ArrowRight""]","value training","ocean","10","{""ArrowUp,ArrowLeft"":26,""ArrowUp,ArrowRight"":10,""ArrowDown,ArrowLeft"":5,""ArrowDown,ArrowRight"":17}","false","ArrowUp,ArrowRight","false","revaluation","1","78","","",""
"html-keyboard-response","199","1029752","0.0-4.0-2.0-1.39","spark_pilot_norest","10828","4","17","Female","","","","","","","null","<div style=""font-size:60px;"">+</div>","null","fixation","","","","","","","","","79","","",""
"revaluation","200","1035763","0.0-4.0-2.0-0.40","spark_pilot_norest","10828","4","17","Female","","false","","","","","[1910.9999999998836,904]","./assets/img/ocean/memory/40.jpg","[""ArrowDown"",""ArrowRight""]","value training","ocean","17","{""ArrowUp,ArrowLeft"":26,""ArrowUp,ArrowRight"":10,""ArrowDown,ArrowLeft"":5,""ArrowDown,ArrowRight"":17}","false","ArrowDown,ArrowRight","false","revaluation","1","80","","",""
"html-keyboard-response","201","1036268","0.0-4.0-2.0-1.40","spark_pilot_norest","10828","4","17","Female","","","","","","","null","<div style=""font-size:60px;"">+</div>","null","fixation","","","","","","","","","81","","",""
"revaluation","202","1042280","0.0-4.0-2.0-0.41","spark_pilot_norest","10828","4","17","Female","","false","","","","","[1697.0000000001164,1031.9999999998836]","./assets/img/ocean/memory/4.jpg","[""ArrowUp"",""ArrowLeft""]","value training","ocean","26","{""ArrowUp,ArrowLeft"":26,""ArrowUp,ArrowRight"":10,""ArrowDown,ArrowLeft"":5,""ArrowDown,ArrowRight"":17}","true","ArrowUp,ArrowLeft","false","revaluation","1","82","","",""
"html-keyboard-response","203","1042784","0.0-4.0-2.0-1.41","spark_pilot_norest","10828","4","17","Female","","","","","","","null","<div style=""font-size:60px;"">+</div>","null","fixation","","","","","","","","","83","","",""
"revaluation","204","1048795","0.0-4.0-2.0-0.42","spark_pilot_norest","10828","4","17","Female","","false","","","","","[658.9999999998836,304.0000000001164]","./assets/img/ocean/memory/30.jpg","[""ArrowDown"",""ArrowRight""]","value training","ocean","17","{""ArrowUp,ArrowLeft"":26,""ArrowUp,ArrowRight"":10,""ArrowDown,ArrowLeft"":5,""ArrowDown,ArrowRight"":17}","false","ArrowDown,ArrowRight","false","revaluation","1","84","","",""
"html-keyboard-response","205","1049298","0.0-4.0-2.0-1.42","spark_pilot_norest","10828","4","17","Female","","","","","","","null","<div style=""font-size:60px;"">+</div>","null","fixation","","","","","","","","","85","","",""
"revaluation","206","1053304","0.0-4.0-2.0-0.43","spark_pilot_norest","10828","4","17","Female","","false","","","","","[1212]","./assets/img/ocean/catch/5.jpg","[""spaceBar""]","value training","ocean","0","{""ArrowUp,ArrowLeft"":26,""ArrowUp,ArrowRight"":10,""ArrowDown,ArrowLeft"":5,""ArrowDown,ArrowRight"":17}","true","spaceBar","true","revaluation","1","86","","",""
"html-keyboard-response","207","1053809","0.0-4.0-2.0-1.43","spark_pilot_norest","10828","4","17","Female","","","","","","","null","<div style=""font-size:60px;"">+</div>","null","fixation","","","","","","","","","87","","",""
"revaluation","208","1059818","0.0-4.0-2.0-0.44","spark_pilot_norest","10828","4","17","Female","","false","","","","","[899,546.9999999997672]","./assets/img/ocean/memory/18.jpg","[""ArrowDown"",""ArrowRight""]","value training","ocean","17","{""ArrowUp,ArrowLeft"":26,""ArrowUp,ArrowRight"":10,""ArrowDown,ArrowLeft"":5,""ArrowDown,ArrowRight"":17}","false","ArrowDown,ArrowRight","false","revaluation","1","88","","",""
"html-keyboard-response","209","1060323","0.0-4.0-2.0-1.44","spark_pilot_norest","10828","4","17","Female","","","","","","","null","<div style=""font-size:60px;"">+</div>","null","fixation","","","","","","","","","89","","",""
"revaluation","210","1066333","0.0-4.0-2.0-0.45","spark_pilot_norest","10828","4","17","Female","","false","","","","","[1014,313.00000000023283]","./assets/img/ocean/memory/2.jpg","[""ArrowDown"",""ArrowLeft""]","value training","ocean","5","{""ArrowUp,ArrowLeft"":26,""ArrowUp,ArrowRight"":10,""ArrowDown,ArrowLeft"":5,""ArrowDown,ArrowRight"":17}","false","ArrowDown,ArrowLeft","false","revaluation","1","90","","",""
"html-keyboard-response","211","1066838","0.0-4.0-2.0-1.45","spark_pilot_norest","10828","4","17","Female","","","","","","","null","<div style=""font-size:60px;"">+</div>","null","fixation","","","","","","","","","91","","",""
"revaluation","212","1072852","0.0-4.0-2.0-0.46","spark_pilot_norest","10828","4","17","Female","","true","","","","","[866]","./assets/img/ocean/memory/10.jpg","[""ArrowDown""]","value training","ocean","-5","{""ArrowUp,ArrowLeft"":26,""ArrowUp,ArrowRight"":10,""ArrowDown,ArrowLeft"":5,""ArrowDown,ArrowRight"":17}","false","ArrowDown","false","revaluation","1","92","","",""
"html-keyboard-response","213","1073357","0.0-4.0-2.0-1.46","spark_pilot_norest","10828","4","17","Female","","","","","","","null","<div style=""font-size:60px;"">+</div>","null","fixation","","","","","","","","","93","","",""
"revaluation","214","1077367","0.0-4.0-2.0-0.47","spark_pilot_norest","10828","4","17","Female","","false","","","","","[1484]","./assets/img/ocean/catch/7.jpg","[""spaceBar""]","value training","ocean","0","{""ArrowUp,ArrowLeft"":26,""ArrowUp,ArrowRight"":10,""ArrowDown,ArrowLeft"":5,""ArrowDown,ArrowRight"":17}","true","spaceBar","true","revaluation","1","94","","",""
"html-keyboard-response","215","1077871","0.0-4.0-2.0-1.47","spark_pilot_norest","10828","4","17","Female","","","","","","","null","<div style=""font-size:60px;"">+</div>","null","fixation","","","","","","","","","95","","",""
"revaluation","216","1081878","0.0-4.0-2.0-0.48","spark_pilot_norest","10828","4","17","Female","","false","","","","","[1211]","./assets/img/ocean/catch/3.jpg","[""spaceBar""]","value training","ocean","0","{""ArrowUp,ArrowLeft"":26,""ArrowUp,ArrowRight"":10,""ArrowDown,ArrowLeft"":5,""ArrowDown,ArrowRight"":17}","true","spaceBar","true","revaluation","1","96","","",""
"html-keyboard-response","217","1082383","0.0-4.0-2.0-1.48","spark_pilot_norest","10828","4","17","Female","","","","","","","null","<div style=""font-size:60px;"">+</div>","null","fixation","","","","","","","","","97","","",""
"revaluation","218","1088393","0.0-4.0-2.0-0.49","spark_pilot_norest","10828","4","17","Female","","false","","","","","[628.0000000002328,338]","./assets/img/ocean/memory/6.jpg","[""ArrowDown"",""ArrowRight""]","value training","ocean","17","{""ArrowUp,ArrowLeft"":26,""ArrowUp,ArrowRight"":10,""ArrowDown,ArrowLeft"":5,""ArrowDown,ArrowRight"":17}","false","ArrowDown,ArrowRight","false","revaluation","1","98","","",""
"html-keyboard-response","219","1088898","0.0-4.0-2.0-1.49","spark_pilot_norest","10828","4","17","Female","","","","","","","null","<div style=""font-size:60px;"">+</div>","null","fixation","","","","","","","","","99","","",""
"learning-instructions","220","1105129","0.0-4.0-3.0-0.0","spark_pilot_norest","10828","4","17","Female","","","","","","","3310","<p> Now, you will travel with a friend who will choose whether you go up or down first. </p>
            <p> On these turns, you will just see the animal that they found. You will still get to choose which chest to search for treasure.</p>","","instructions","","","","","","","","","","","",""
"revaluation","221","1109136","0.0-4.0-4.0-0.0","spark_pilot_norest","10828","4","17","Female","","true","","","","","[]","./assets/img/ocean/animals/seahorse.jpg","[]","revaluation","ocean","-5","{""ArrowUp,ArrowLeft"":2,""ArrowUp,ArrowRight"":11,""ArrowDown,ArrowLeft"":8,""ArrowDown,ArrowRight"":27}","false","ArrowDown","","revaluation","1","0","","",""
"html-keyboard-response","222","1109642","0.0-4.0-4.0-1.0","spark_pilot_norest","10828","4","17","Female","","","","","","","null","<div style=""font-size:60px;"">+</div>","null","fixation","","","","","","","","","1","","",""
"revaluation","223","1113650","0.0-4.0-4.0-0.1","spark_pilot_norest","10828","4","17","Female","","false","","","","","[519]","./assets/img/ocean/animals/octopus.jpg","[""ArrowRight""]","revaluation","ocean","11","{""ArrowUp,ArrowLeft"":2,""ArrowUp,ArrowRight"":11,""ArrowDown,ArrowLeft"":8,""ArrowDown,ArrowRight"":27}","true","ArrowUp,ArrowRight","","revaluation","1","2","","",""
"html-keyboard-response","224","1114152","0.0-4.0-4.0-1.1","spark_pilot_norest","10828","4","17","Female","","","","","","","null","<div style=""font-size:60px;"">+</div>","null","fixation","","","","","","","","","3","","",""
"revaluation","225","1118158","0.0-4.0-4.0-0.2","spark_pilot_norest","10828","4","17","Female","","false","","","","","[1533]","./assets/img/ocean/animals/seahorse.jpg","[""ArrowLeft""]","revaluation","ocean","8","{""ArrowUp,ArrowLeft"":2,""ArrowUp,ArrowRight"":11,""ArrowDown,ArrowLeft"":8,""ArrowDown,ArrowRight"":27}","false","ArrowDown,ArrowLeft","","revaluation","1","4","","",""
"html-keyboard-response","226","1118662","0.0-4.0-4.0-1.2","spark_pilot_norest","10828","4","17","Female","","","","","","","null","<div style=""font-size:60px;"">+</div>","null","fixation","","","","","","","","","5","","",""
"revaluation","227","1122669","0.0-4.0-4.0-0.3","spark_pilot_norest","10828","4","17","Female","","false","","","","","[451]","./assets/img/ocean/animals/octopus.jpg","[""ArrowRight""]","revaluation","ocean","11","{""ArrowUp,ArrowLeft"":2,""ArrowUp,ArrowRight"":11,""ArrowDown,ArrowLeft"":8,""ArrowDown,ArrowRight"":27}","true","ArrowUp,ArrowRight","","revaluation","1","6","","",""
"html-keyboard-response","228","1123173","0.0-4.0-4.0-1.3","spark_pilot_norest","10828","4","17","Female","","","","","","","null","<div style=""font-size:60px;"">+</div>","null","fixation","","","","","","","","","7","","",""
"revaluation","229","1127181","0.0-4.0-4.0-0.4","spark_pilot_norest","10828","4","17","Female","","false","","","","","[413]","./assets/img/ocean/animals/octopus.jpg","[""ArrowRight""]","revaluation","ocean","11","{""ArrowUp,ArrowLeft"":2,""ArrowUp,ArrowRight"":11,""ArrowDown,ArrowLeft"":8,""ArrowDown,ArrowRight"":27}","true","ArrowUp,ArrowRight","","revaluation","1","8","","",""
"html-keyboard-response","230","1127686","0.0-4.0-4.0-1.4","spark_pilot_norest","10828","4","17","Female","","","","","","","null","<div style=""font-size:60px;"">+</div>","null","fixation","","","","","","","","","9","","",""
"revaluation","231","1131694","0.0-4.0-4.0-0.5","spark_pilot_norest","10828","4","17","Female","","false","","","","","[411.00000000023283]","./assets/img/ocean/animals/seahorse.jpg","[""ArrowLeft""]","revaluation","ocean","8","{""ArrowUp,ArrowLeft"":2,""ArrowUp,ArrowRight"":11,""ArrowDown,ArrowLeft"":8,""ArrowDown,ArrowRight"":27}","false","ArrowDown,ArrowLeft","","revaluation","1","10","","",""
"html-keyboard-response","232","1132198","0.0-4.0-4.0-1.5","spark_pilot_norest","10828","4","17","Female","","","","","","","null","<div style=""font-size:60px;"">+</div>","null","fixation","","","","","","","","","11","","",""
"revaluation","233","1136206","0.0-4.0-4.0-0.6","spark_pilot_norest","10828","4","17","Female","","false","","","","","[463]","./assets/img/ocean/animals/octopus.jpg","[""ArrowLeft""]","revaluation","ocean","2","{""ArrowUp,ArrowLeft"":2,""ArrowUp,ArrowRight"":11,""ArrowDown,ArrowLeft"":8,""ArrowDown,ArrowRight"":27}","false","ArrowUp,ArrowLeft","","revaluation","1","12","","",""
"html-keyboard-response","234","1136709","0.0-4.0-4.0-1.6","spark_pilot_norest","10828","4","17","Female","","","","","","","null","<div style=""font-size:60px;"">+</div>","null","fixation","","","","","","","","","13","","",""
"revaluation","235","1140717","0.0-4.0-4.0-0.7","spark_pilot_norest","10828","4","17","Female","","false","","","","","[412]","./assets/img/ocean/animals/seahorse.jpg","[""ArrowRight""]","revaluation","ocean","27","{""ArrowUp,ArrowLeft"":2,""ArrowUp,ArrowRight"":11,""ArrowDown,ArrowLeft"":8,""ArrowDown,ArrowRight"":27}","true","ArrowDown,ArrowRight","","revaluation","1","14","","",""
"html-keyboard-response","236","1141223","0.0-4.0-4.0-1.7","spark_pilot_norest","10828","4","17","Female","","","","","","","null","<div style=""font-size:60px;"">+</div>","null","fixation","","","","","","","","","15","","",""
"revaluation","237","1145234","0.0-4.0-4.0-0.8","spark_pilot_norest","10828","4","17","Female","","false","","","","","[1064]","./assets/img/ocean/animals/octopus.jpg","[""ArrowRight""]","revaluation","ocean","11","{""ArrowUp,ArrowLeft"":2,""ArrowUp,ArrowRight"":11,""ArrowDown,ArrowLeft"":8,""ArrowDown,ArrowRight"":27}","true","ArrowUp,ArrowRight","","revaluation","1","16","","",""
"html-keyboard-response","238","1145738","0.0-4.0-4.0-1.8","spark_pilot_norest","10828","4","17","Female","","","","","","","null","<div style=""font-size:60px;"">+</div>","null","fixation","","","","","","","","","17","","",""
"revaluation","239","1149747","0.0-4.0-4.0-0.9","spark_pilot_norest","10828","4","17","Female","","false","","","","","[395]","./assets/img/ocean/animals/octopus.jpg","[""ArrowLeft""]","revaluation","ocean","2","{""ArrowUp,ArrowLeft"":2,""ArrowUp,ArrowRight"":11,""ArrowDown,ArrowLeft"":8,""ArrowDown,ArrowRight"":27}","false","ArrowUp,ArrowLeft","","revaluation","1","18","","",""
"html-keyboard-response","240","1150251","0.0-4.0-4.0-1.9","spark_pilot_norest","10828","4","17","Female","","","","","","","null","<div style=""font-size:60px;"">+</div>","null","fixation","","","","","","","","","19","","",""
"revaluation","241","1154257","0.0-4.0-4.0-0.10","spark_pilot_norest","10828","4","17","Female","","false","","","","","[323]","./assets/img/ocean/animals/seahorse.jpg","[""ArrowLeft""]","revaluation","ocean","8","{""ArrowUp,ArrowLeft"":2,""ArrowUp,ArrowRight"":11,""ArrowDown,ArrowLeft"":8,""ArrowDown,ArrowRight"":27}","false","ArrowDown,ArrowLeft","","revaluation","1","20","","",""
"html-keyboard-response","242","1154761","0.0-4.0-4.0-1.10","spark_pilot_norest","10828","4","17","Female","","","","","","","null","<div style=""font-size:60px;"">+</div>","null","fixation","","","","","","","","","21","","",""
"revaluation","243","1158769","0.0-4.0-4.0-0.11","spark_pilot_norest","10828","4","17","Female","","false","","","","","[358.99999999976717]","./assets/img/ocean/animals/seahorse.jpg","[""ArrowLeft""]","revaluation","ocean","8","{""ArrowUp,ArrowLeft"":2,""ArrowUp,ArrowRight"":11,""ArrowDown,ArrowLeft"":8,""ArrowDown,ArrowRight"":27}","false","ArrowDown,ArrowLeft","","revaluation","1","22","","",""
"html-keyboard-response","244","1159272","0.0-4.0-4.0-1.11","spark_pilot_norest","10828","4","17","Female","","","","","","","null","<div style=""font-size:60px;"">+</div>","null","fixation","","","","","","","","","23","","",""
"revaluation","245","1163280","0.0-4.0-4.0-0.12","spark_pilot_norest","10828","4","17","Female","","false","","","","","[673]","./assets/img/ocean/animals/octopus.jpg","[""ArrowRight""]","revaluation","ocean","11","{""ArrowUp,ArrowLeft"":2,""ArrowUp,ArrowRight"":11,""ArrowDown,ArrowLeft"":8,""ArrowDown,ArrowRight"":27}","true","ArrowUp,ArrowRight","","revaluation","1","24","","",""
"html-keyboard-response","246","1163784","0.0-4.0-4.0-1.12","spark_pilot_norest","10828","4","17","Female","","","","","","","null","<div style=""font-size:60px;"">+</div>","null","fixation","","","","","","","","","25","","",""
"revaluation","247","1167790","0.0-4.0-4.0-0.13","spark_pilot_norest","10828","4","17","Female","","false","","","","","[347]","./assets/img/ocean/animals/seahorse.jpg","[""ArrowRight""]","revaluation","ocean","27","{""ArrowUp,ArrowLeft"":2,""ArrowUp,ArrowRight"":11,""ArrowDown,ArrowLeft"":8,""ArrowDown,ArrowRight"":27}","true","ArrowDown,ArrowRight","","revaluation","1","26","","",""
"html-keyboard-response","248","1168293","0.0-4.0-4.0-1.13","spark_pilot_norest","10828","4","17","Female","","","","","","","null","<div style=""font-size:60px;"">+</div>","null","fixation","","","","","","","","","27","","",""
"revaluation","249","1172302","0.0-4.0-4.0-0.14","spark_pilot_norest","10828","4","17","Female","","false","","","","","[291]","./assets/img/ocean/animals/octopus.jpg","[""ArrowLeft""]","revaluation","ocean","2","{""ArrowUp,ArrowLeft"":2,""ArrowUp,ArrowRight"":11,""ArrowDown,ArrowLeft"":8,""ArrowDown,ArrowRight"":27}","false","ArrowUp,ArrowLeft","","revaluation","1","28","","",""
"html-keyboard-response","250","1172805","0.0-4.0-4.0-1.14","spark_pilot_norest","10828","4","17","Female","","","","","","","null","<div style=""font-size:60px;"">+</div>","null","fixation","","","","","","","","","29","","",""
"revaluation","251","1176811","0.0-4.0-4.0-0.15","spark_pilot_norest","10828","4","17","Female","","false","","","","","[277]","./assets/img/ocean/animals/seahorse.jpg","[""ArrowRight""]","revaluation","ocean","27","{""ArrowUp,ArrowLeft"":2,""ArrowUp,ArrowRight"":11,""ArrowDown,ArrowLeft"":8,""ArrowDown,ArrowRight"":27}","true","ArrowDown,ArrowRight","","revaluation","1","30","","",""
"html-keyboard-response","252","1177315","0.0-4.0-4.0-1.15","spark_pilot_norest","10828","4","17","Female","","","","","","","null","<div style=""font-size:60px;"">+</div>","null","fixation","","","","","","","","","31","","",""
"revaluation","253","1181323","0.0-4.0-4.0-0.16","spark_pilot_norest","10828","4","17","Female","","false","","","","","[285]","./assets/img/ocean/animals/octopus.jpg","[""ArrowLeft""]","revaluation","ocean","2","{""ArrowUp,ArrowLeft"":2,""ArrowUp,ArrowRight"":11,""ArrowDown,ArrowLeft"":8,""ArrowDown,ArrowRight"":27}","false","ArrowUp,ArrowLeft","","revaluation","1","32","","",""
"html-keyboard-response","254","1181827","0.0-4.0-4.0-1.16","spark_pilot_norest","10828","4","17","Female","","","","","","","null","<div style=""font-size:60px;"">+</div>","null","fixation","","","","","","","","","33","","",""
"revaluation","255","1185836","0.0-4.0-4.0-0.17","spark_pilot_norest","10828","4","17","Female","","false","","","","","[302]","./assets/img/ocean/animals/seahorse.jpg","[""ArrowLeft""]","revaluation","ocean","8","{""ArrowUp,ArrowLeft"":2,""ArrowUp,ArrowRight"":11,""ArrowDown,ArrowLeft"":8,""ArrowDown,ArrowRight"":27}","false","ArrowDown,ArrowLeft","","revaluation","1","34","","",""
"html-keyboard-response","256","1186339","0.0-4.0-4.0-1.17","spark_pilot_norest","10828","4","17","Female","","","","","","","null","<div style=""font-size:60px;"">+</div>","null","fixation","","","","","","","","","35","","",""
"learning-instructions","257","1194449","0.0-4.0-5.0-0.0","spark_pilot_norest","10828","4","17","Female","","","","","","","null","<p> You have almost finished this part of the game! </p>
            <p> We are going to ask you to make a few more choices. </p>","","instructions","","","","","","","","","","","",""
"learning-instructions","258","1210427","0.0-4.0-5.0-0.1","spark_pilot_norest","10828","4","17","Female","","","","","","","null","<p> First, you need to decide whether to go up or down. When you see each picture, use the arrow keys to make your choice. </p>
            <p><b>You will not see which animal you found, but try to get to the one that will give you the most treasure.</b></p>","","instructions","","","","","","","","","","","",""
"html-keyboard-response","259","1211430","0.0-4.0-6.0-0.0","spark_pilot_norest","10828","4","17","Female","","","","","","","null","<div style=""font-size:100px;color:red;"">Starting in...</div>","null","","","","","","","","","","","","",""
"html-keyboard-response","260","1212433","0.0-4.0-6.0-1.0","spark_pilot_norest","10828","4","17","Female","","","","","","","null","<div style=""font-size:200px;color:red;"">3</div>","null","","","","","","","","","","","","",""
"html-keyboard-response","261","1213435","0.0-4.0-6.0-2.0","spark_pilot_norest","10828","4","17","Female","","","","","","","null","<div style=""font-size:200px;color:red;"">2</div>","null","","","","","","","","","","","","",""
"html-keyboard-response","262","1214439","0.0-4.0-6.0-3.0","spark_pilot_norest","10828","4","17","Female","","","","","","","null","<div style=""font-size:200px;color:red;"">1</div>","null","","","","","","","","","","","","",""
"revaluation","263","1215168","0.0-4.0-7.0-0.0","spark_pilot_norest","10828","4","17","Female","","false","","","","","[724]","./assets/img/ocean/test/0.jpg","[""ArrowUp""]","first stage test","ocean","0","{""ArrowUp,ArrowLeft"":2,""ArrowUp,ArrowRight"":11,""ArrowDown,ArrowLeft"":8,""ArrowDown,ArrowRight"":27}","false","ArrowUp","false","revaluation","1","","","",""
"html-keyboard-response","264","1215672","0.0-4.0-7.0-1.0","spark_pilot_norest","10828","4","17","Female","","","","","","","null","<div style=""font-size:60px;"">+</div>","null","fixation","","","","","","","","","","","",""
"revaluation","265","1217339","0.0-4.0-7.0-0.1","spark_pilot_norest","10828","4","17","Female","","false","","","","","[1664]","./assets/img/ocean/test/3.jpg","[""ArrowUp""]","first stage test","ocean","0","{""ArrowUp,ArrowLeft"":2,""ArrowUp,ArrowRight"":11,""ArrowDown,ArrowLeft"":8,""ArrowDown,ArrowRight"":27}","false","ArrowUp","false","revaluation","1","","","",""
"html-keyboard-response","266","1217844","0.0-4.0-7.0-1.1","spark_pilot_norest","10828","4","17","Female","","","","","","","null","<div style=""font-size:60px;"">+</div>","null","fixation","","","","","","","","","","","",""
"revaluation","267","1219452","0.0-4.0-7.0-0.2","spark_pilot_norest","10828","4","17","Female","","false","","","","","[1604]","./assets/img/ocean/test/2.jpg","[""ArrowDown""]","first stage test","ocean","0","{""ArrowUp,ArrowLeft"":2,""ArrowUp,ArrowRight"":11,""ArrowDown,ArrowLeft"":8,""ArrowDown,ArrowRight"":27}","true","ArrowDown","false","revaluation","1","","","",""
"html-keyboard-response","268","1219955","0.0-4.0-7.0-1.2","spark_pilot_norest","10828","4","17","Female","","","","","","","null","<div style=""font-size:60px;"">+</div>","null","fixation","","","","","","","","","","","",""
"revaluation","269","1221358","0.0-4.0-7.0-0.3","spark_pilot_norest","10828","4","17","Female","","false","","","","","[1401]","./assets/img/ocean/test/1.jpg","[""ArrowDown""]","first stage test","ocean","0","{""ArrowUp,ArrowLeft"":2,""ArrowUp,ArrowRight"":11,""ArrowDown,ArrowLeft"":8,""ArrowDown,ArrowRight"":27}","true","ArrowDown","false","revaluation","1","","","",""
"html-keyboard-response","270","1221862","0.0-4.0-7.0-1.3","spark_pilot_norest","10828","4","17","Female","","","","","","","null","<div style=""font-size:60px;"">+</div>","null","fixation","","","","","","","","","","","",""
"learning-instructions","271","1235208","0.0-4.0-8.0-0.0","spark_pilot_norest","10828","4","17","Female","","","","","","","null","<p> Now you will see the animals again and can search their chests for treasure. </p>
            <p> This time, you will not see how much treasure you earned, but you will earn more bonus money for making better choices. </p>","","instructions","","","","","","","","","","","",""
"html-keyboard-response","272","1236212","0.0-4.0-9.0-0.0","spark_pilot_norest","10828","4","17","Female","","","","","","","null","<div style=""font-size:100px;color:red;"">Starting in...</div>","null","","","","","","","","","","","","",""
"html-keyboard-response","273","1237217","0.0-4.0-9.0-1.0","spark_pilot_norest","10828","4","17","Female","","","","","","","null","<div style=""font-size:200px;color:red;"">3</div>","null","","","","","","","","","","","","",""
"html-keyboard-response","274","1238220","0.0-4.0-9.0-2.0","spark_pilot_norest","10828","4","17","Female","","","","","","","null","<div style=""font-size:200px;color:red;"">2</div>","null","","","","","","","","","","","","",""
"html-keyboard-response","275","1239224","0.0-4.0-9.0-3.0","spark_pilot_norest","10828","4","17","Female","","","","","","","null","<div style=""font-size:200px;color:red;"">1</div>","null","","","","","","","","","","","","",""
"revaluation","276","1239893","0.0-4.0-10.0-0.0","spark_pilot_norest","10828","4","17","Female","","false","","","","","[662]","./assets/img/ocean/animals/octopus.jpg","[""ArrowRight""]","second stage test","ocean","0","{""ArrowUp,ArrowLeft"":2,""ArrowUp,ArrowRight"":11,""ArrowDown,ArrowLeft"":8,""ArrowDown,ArrowRight"":27}","true","ArrowUp,ArrowRight","","revaluation","1","","","",""
"html-keyboard-response","277","1240395","0.0-4.0-10.0-1.0","spark_pilot_norest","10828","4","17","Female","","","","","","","null","<div style=""font-size:60px;"">+</div>","null","fixation","","","","","","","","","","","",""
"revaluation","278","1241370","0.0-4.0-10.0-0.1","spark_pilot_norest","10828","4","17","Female","","false","","","","","[972]","./assets/img/ocean/animals/octopus.jpg","[""ArrowRight""]","second stage test","ocean","0","{""ArrowUp,ArrowLeft"":2,""ArrowUp,ArrowRight"":11,""ArrowDown,ArrowLeft"":8,""ArrowDown,ArrowRight"":27}","true","ArrowUp,ArrowRight","","revaluation","1","","","",""
"html-keyboard-response","279","1241874","0.0-4.0-10.0-1.1","spark_pilot_norest","10828","4","17","Female","","","","","","","null","<div style=""font-size:60px;"">+</div>","null","fixation","","","","","","","","","","","",""
"revaluation","280","1242474","0.0-4.0-10.0-0.2","spark_pilot_norest","10828","4","17","Female","","false","","","","","[595]","./assets/img/ocean/animals/octopus.jpg","[""ArrowLeft""]","second stage test","ocean","0","{""ArrowUp,ArrowLeft"":2,""ArrowUp,ArrowRight"":11,""ArrowDown,ArrowLeft"":8,""ArrowDown,ArrowRight"":27}","false","ArrowUp,ArrowLeft","","revaluation","1","","","",""
"html-keyboard-response","281","1242976","0.0-4.0-10.0-1.2","spark_pilot_norest","10828","4","17","Female","","","","","","","null","<div style=""font-size:60px;"">+</div>","null","fixation","","","","","","","","","","","",""
"revaluation","282","1243603","0.0-4.0-10.0-0.3","spark_pilot_norest","10828","4","17","Female","","false","","","","","[625]","./assets/img/ocean/animals/octopus.jpg","[""ArrowRight""]","second stage test","ocean","0","{""ArrowUp,ArrowLeft"":2,""ArrowUp,ArrowRight"":11,""ArrowDown,ArrowLeft"":8,""ArrowDown,ArrowRight"":27}","true","ArrowUp,ArrowRight","","revaluation","1","","","",""
"html-keyboard-response","283","1244106","0.0-4.0-10.0-1.3","spark_pilot_norest","10828","4","17","Female","","","","","","","null","<div style=""font-size:60px;"">+</div>","null","fixation","","","","","","","","","","","",""
"revaluation","284","1244842","0.0-4.0-10.0-0.4","spark_pilot_norest","10828","4","17","Female","","false","","","","","[734]","./assets/img/ocean/animals/seahorse.jpg","[""ArrowRight""]","second stage test","ocean","0","{""ArrowUp,ArrowLeft"":2,""ArrowUp,ArrowRight"":11,""ArrowDown,ArrowLeft"":8,""ArrowDown,ArrowRight"":27}","true","ArrowDown,ArrowRight","","revaluation","1","","","",""
"html-keyboard-response","285","1245345","0.0-4.0-10.0-1.4","spark_pilot_norest","10828","4","17","Female","","","","","","","null","<div style=""font-size:60px;"">+</div>","null","fixation","","","","","","","","","","","",""
"revaluation","286","1245877","0.0-4.0-10.0-0.5","spark_pilot_norest","10828","4","17","Female","","false","","","","","[531]","./assets/img/ocean/animals/seahorse.jpg","[""ArrowLeft""]","second stage test","ocean","0","{""ArrowUp,ArrowLeft"":2,""ArrowUp,ArrowRight"":11,""ArrowDown,ArrowLeft"":8,""ArrowDown,ArrowRight"":27}","false","ArrowDown,ArrowLeft","","revaluation","1","","","",""
"html-keyboard-response","287","1246379","0.0-4.0-10.0-1.5","spark_pilot_norest","10828","4","17","Female","","","","","","","null","<div style=""font-size:60px;"">+</div>","null","fixation","","","","","","","","","","","",""
"revaluation","288","1247665","0.0-4.0-10.0-0.6","spark_pilot_norest","10828","4","17","Female","","false","","","","","[1280]","./assets/img/ocean/animals/seahorse.jpg","[""ArrowLeft""]","second stage test","ocean","0","{""ArrowUp,ArrowLeft"":2,""ArrowUp,ArrowRight"":11,""ArrowDown,ArrowLeft"":8,""ArrowDown,ArrowRight"":27}","false","ArrowDown,ArrowLeft","","revaluation","1","","","",""
"html-keyboard-response","289","1248167","0.0-4.0-10.0-1.6","spark_pilot_norest","10828","4","17","Female","","","","","","","null","<div style=""font-size:60px;"">+</div>","null","fixation","","","","","","","","","","","",""
"revaluation","290","1248494","0.0-4.0-10.0-0.7","spark_pilot_norest","10828","4","17","Female","","false","","","","","[321]","./assets/img/ocean/animals/seahorse.jpg","[""ArrowLeft""]","second stage test","ocean","0","{""ArrowUp,ArrowLeft"":2,""ArrowUp,ArrowRight"":11,""ArrowDown,ArrowLeft"":8,""ArrowDown,ArrowRight"":27}","false","ArrowDown,ArrowLeft","","revaluation","1","","","",""
"html-keyboard-response","291","1248998","0.0-4.0-10.0-1.7","spark_pilot_norest","10828","4","17","Female","","","","","","","null","<div style=""font-size:60px;"">+</div>","null","fixation","","","","","","","","","","","",""
"learning-instructions","292","1255528","0.0-4.0-0.1-0.2","spark_pilot_norest","10828","4","17","Female","","","","","","","2203","<p> This time you are searching for treasure in the <b>canyon</b>.</p>","","instructions","","","","","","","","","","","",""
"learning-instructions","293","1274079","0.0-4.0-0.1-0.3","spark_pilot_norest","10828","4","17","Female","","","","","","","1290","<p><b>New</b> animals with <b>new</b> treasure chests live here. You need to explore to discover where the animal with the best treasure chest is.</p>
                    <p> Like before, once you figure out which animal has the chest with the most treasure, you should try to get to that animal and select that chest! </p>","","instructions","","","","","","","","","","","",""
"learning-instructions","294","1290135","0.0-4.0-1.1-0.1","spark_pilot_norest","10828","4","17","Female","","","","","","","1312.9999999997672","<p> Remember, when you see a picture of the place, use the up and down keys to <b>find an animal</b>.</p>
            <p> When you encounter an animal, you should use the left and right keys to <b>select a treasure chest</b>.</p>
            <p> Don't forget to look out for the robber! </p>","","instructions","","","","","","","","","","","",""
"revaluation","295","1296143","0.0-4.0-2.1-0.50","spark_pilot_norest","10828","4","17","Female","","false","","","","","[1252.9999999997672,1421.0000000002328]","./assets/img/canyon/memory/10.jpg","[""ArrowDown"",""ArrowRight""]","value training","canyon","30","{""ArrowUp,ArrowLeft"":23,""ArrowUp,ArrowRight"":10,""ArrowDown,ArrowLeft"":8,""ArrowDown,ArrowRight"":30}","true","ArrowDown,ArrowRight","false","original","2","0","","",""
"html-keyboard-response","296","1296648","0.0-4.0-2.1-1.50","spark_pilot_norest","10828","4","17","Female","","","","","","","null","<div style=""font-size:60px;"">+</div>","null","fixation","","","","","","","","","1","","",""
"revaluation","297","1302659","0.0-4.0-2.1-0.51","spark_pilot_norest","10828","4","17","Female","","false","","","","","[949,676]","./assets/img/canyon/memory/30.jpg","[""ArrowUp"",""ArrowRight""]","value training","canyon","10","{""ArrowUp,ArrowLeft"":23,""ArrowUp,ArrowRight"":10,""ArrowDown,ArrowLeft"":8,""ArrowDown,ArrowRight"":30}","false","ArrowUp,ArrowRight","false","original","2","2","","",""
"html-keyboard-response","298","1303162","0.0-4.0-2.1-1.51","spark_pilot_norest","10828","4","17","Female","","","","","","","null","<div style=""font-size:60px;"">+</div>","null","fixation","","","","","","","","","3","","",""
"revaluation","299","1309170","0.0-4.0-2.1-0.52","spark_pilot_norest","10828","4","17","Female","","false","","","","","[1247.9999999997672,878.9999999997672]","./assets/img/canyon/memory/32.jpg","[""ArrowDown"",""ArrowLeft""]","value training","canyon","8","{""ArrowUp,ArrowLeft"":23,""ArrowUp,ArrowRight"":10,""ArrowDown,ArrowLeft"":8,""ArrowDown,ArrowRight"":30}","false","ArrowDown,ArrowLeft","false","original","2","4","","",""
"html-keyboard-response","300","1309674","0.0-4.0-2.1-1.52","spark_pilot_norest","10828","4","17","Female","","","","","","","null","<div style=""font-size:60px;"">+</div>","null","fixation","","","","","","","","","5","","",""
"revaluation","301","1315683","0.0-4.0-2.1-0.53","spark_pilot_norest","10828","4","17","Female","","false","","","","","[1439,548]","./assets/img/canyon/memory/19.jpg","[""ArrowDown"",""ArrowRight""]","value training","canyon","30","{""ArrowUp,ArrowLeft"":23,""ArrowUp,ArrowRight"":10,""ArrowDown,ArrowLeft"":8,""ArrowDown,ArrowRight"":30}","true","ArrowDown,ArrowRight","false","original","2","6","","",""
"html-keyboard-response","302","1316187","0.0-4.0-2.1-1.53","spark_pilot_norest","10828","4","17","Female","","","","","","","null","<div style=""font-size:60px;"">+</div>","null","fixation","","","","","","","","","7","","",""
"revaluation","303","1322197","0.0-4.0-2.1-0.54","spark_pilot_norest","10828","4","17","Female","","false","","","","","[849,423]","./assets/img/canyon/memory/18.jpg","[""ArrowDown"",""ArrowLeft""]","value training","canyon","8","{""ArrowUp,ArrowLeft"":23,""ArrowUp,ArrowRight"":10,""ArrowDown,ArrowLeft"":8,""ArrowDown,ArrowRight"":30}","false","ArrowDown,ArrowLeft","false","original","2","8","","",""
"html-keyboard-response","304","1322701","0.0-4.0-2.1-1.54","spark_pilot_norest","10828","4","17","Female","","","","","","","null","<div style=""font-size:60px;"">+</div>","null","fixation","","","","","","","","","9","","",""
"revaluation","305","1328709","0.0-4.0-2.1-0.55","spark_pilot_norest","10828","4","17","Female","","false","","","","","[683,765]","./assets/img/canyon/memory/7.jpg","[""ArrowDown"",""ArrowRight""]","value training","canyon","30","{""ArrowUp,ArrowLeft"":23,""ArrowUp,ArrowRight"":10,""ArrowDown,ArrowLeft"":8,""ArrowDown,ArrowRight"":30}","true","ArrowDown,ArrowRight","false","original","2","10","","",""
"html-keyboard-response","306","1329213","0.0-4.0-2.1-1.55","spark_pilot_norest","10828","4","17","Female","","","","","","","null","<div style=""font-size:60px;"">+</div>","null","fixation","","","","","","","","","11","","",""
"revaluation","307","1333221","0.0-4.0-2.1-0.56","spark_pilot_norest","10828","4","17","Female","","false","","","","","[1414]","./assets/img/canyon/catch/6.jpg","[""spaceBar""]","value training","canyon","0","{""ArrowUp,ArrowLeft"":23,""ArrowUp,ArrowRight"":10,""ArrowDown,ArrowLeft"":8,""ArrowDown,ArrowRight"":30}","true","spaceBar","true","original","2","12","","",""
"html-keyboard-response","308","1333724","0.0-4.0-2.1-1.56","spark_pilot_norest","10828","4","17","Female","","","","","","","null","<div style=""font-size:60px;"">+</div>","null","fixation","","","","","","","","","13","","",""
"revaluation","309","1339734","0.0-4.0-2.1-0.57","spark_pilot_norest","10828","4","17","Female","","false","","","","","[911,676]","./assets/img/canyon/memory/34.jpg","[""ArrowDown"",""ArrowLeft""]","value training","canyon","8","{""ArrowUp,ArrowLeft"":23,""ArrowUp,ArrowRight"":10,""ArrowDown,ArrowLeft"":8,""ArrowDown,ArrowRight"":30}","false","ArrowDown,ArrowLeft","false","original","2","14","","",""
"html-keyboard-response","310","1340239","0.0-4.0-2.1-1.57","spark_pilot_norest","10828","4","17","Female","","","","","","","null","<div style=""font-size:60px;"">+</div>","null","fixation","","","","","","","","","15","","",""
"revaluation","311","1346248","0.0-4.0-2.1-0.58","spark_pilot_norest","10828","4","17","Female","","false","","","","","[781.9999999997672,506]","./assets/img/canyon/memory/40.jpg","[""ArrowDown"",""ArrowRight""]","value training","canyon","30","{""ArrowUp,ArrowLeft"":23,""ArrowUp,ArrowRight"":10,""ArrowDown,ArrowLeft"":8,""ArrowDown,ArrowRight"":30}","true","ArrowDown,ArrowRight","false","original","2","16","","",""
"html-keyboard-response","312","1346752","0.0-4.0-2.1-1.58","spark_pilot_norest","10828","4","17","Female","","","","","","","null","<div style=""font-size:60px;"">+</div>","null","fixation","","","","","","","","","17","","",""
"revaluation","313","1352760","0.0-4.0-2.1-0.59","spark_pilot_norest","10828","4","17","Female","","false","","","","","[719,548]","./assets/img/canyon/memory/17.jpg","[""ArrowDown"",""ArrowRight""]","value training","canyon","30","{""ArrowUp,ArrowLeft"":23,""ArrowUp,ArrowRight"":10,""ArrowDown,ArrowLeft"":8,""ArrowDown,ArrowRight"":30}","true","ArrowDown,ArrowRight","false","original","2","18","","",""
"html-keyboard-response","314","1353264","0.0-4.0-2.1-1.59","spark_pilot_norest","10828","4","17","Female","","","","","","","null","<div style=""font-size:60px;"">+</div>","null","fixation","","","","","","","","","19","","",""
"revaluation","315","1359273","0.0-4.0-2.1-0.60","spark_pilot_norest","10828","4","17","Female","","false","","","","","[1108,1116]","./assets/img/canyon/memory/28.jpg","[""ArrowUp"",""ArrowLeft""]","value training","canyon","23","{""ArrowUp,ArrowLeft"":23,""ArrowUp,ArrowRight"":10,""ArrowDown,ArrowLeft"":8,""ArrowDown,ArrowRight"":30}","false","ArrowUp,ArrowLeft","false","original","2","20","","",""
"html-keyboard-response","316","1359777","0.0-4.0-2.1-1.60","spark_pilot_norest","10828","4","17","Female","","","","","","","null","<div style=""font-size:60px;"">+</div>","null","fixation","","","","","","","","","21","","",""
