"trial_type","trial_index","time_elapsed","internal_node_id","task_version","subject_id","assigned_condition","age","gender","success","timeout","failed_images","failed_audio","failed_video","browser_interaction","rt","stimulus","response","task_part","environment","score","rewardMap","correct","fullState","isCatch","condition","order","trial_num","key_press","ground_truth","bonus"
"pavlovia","0","1343","0.0-0.0","spark_pilot_norest","8365","8","20","Female","","","","","","","","","","","","","","","","","","","","","",""
"preload","1","17912","0.0-1.0","spark_pilot_norest","8365","8","20","Female","true","false","[]","[]","[]","[{""event"":""fullscreenenter"",""trial"":2,""time"":20059}]","","","","","","","","","","","","","","","",""
"fullscreen","2","21048","0.0-2.0","spark_pilot_norest","8365","8","20","Female","true","","","","","","","","","","","","","","","","","","","","",""
"audio-button-response","3","23595","0.0-3.0-0.0-0.0","spark_pilot_norest","8365","8","20","Female","","","","","","","2165","./assets/audio/audiotest/turtle.mp3","2","audio_test","","","","","","","","","","","",""
"learning-instructions","4","49996","0.0-3.0-1.0-0.0","spark_pilot_norest","8365","8","20","Female","","","","","","","19441.20000000298","<p> Welcome! Please remember to stay in fullscreen mode and don't click away from the experiment. </p>","","instructions","","","","","","","","","","","",""
"learning-instructions","5","65687","0.0-3.0-1.0-0.1","spark_pilot_norest","8365","8","20","Female","","","","","","","7292.19999999553","<p> Today you will be playing a game to earn treasure. </p>
            <p> At the end of the experiment, you will earn a bonus based on how much treasure you find. </p>
            <img src='./assets/img/instructions/treasure.jpg' class='instructions-image'>","","instructions","","","","","","","","","","","",""
"learning-instructions","6","98358","0.0-3.0-1.0-0.2","spark_pilot_norest","8365","8","20","Female","","","","","","","24421.70000000298","<p> Animals have hidden treasure in treasure chests. </p>
            <p> You need to first find an animal and then choose which of their treasure chests to search. </p>
            <img src='./assets/img/space/animals/cat.jpg' class='instructions-image'>","","instructions","","","","","","","","","","","",""
"learning-instructions","7","113768","0.0-3.0-1.0-0.3","spark_pilot_norest","8365","8","20","Female","","","","","","","2263.1999999955297","<p> In each round, you will search for treasure in a different place. In the real game, there will be two rounds. </p>
            <p> You will begin with a separate, practice round where you will search for treasure in outer space. </p>
            <img src='./assets/img/space/0.jpg' class='instructions-image'>","","instructions","","","","","","","","","","","",""
"learning-instructions","8","126080","0.0-3.0-1.0-0.4","spark_pilot_norest","8365","8","20","Female","","","","","","","912.1000000014901","<p> On every turn, you will see a picture of the place that you are in, but the specific image may be different each time. </p>
            <p> For example, both of these images mean you are in outer space. </p>
            <img src='./assets/img/instructions/outerspace.jpg' class='instructions-image'>","","instructions","","","","","","","","","","","",""
"learning-instructions","9","143814","0.0-3.0-1.0-0.5","spark_pilot_norest","8365","8","20","Female","","","","","","","9910","<p> You need to decide which direction to travel in. </p>
            <p> You can choose between going <b>up or down</b> by using the arrow keys. </p>
            <img src='./assets/img/instructions/updown.jpg' class='instructions-image'>","","instructions","","","","","","","","","","","",""
"learning-instructions","10","196893","0.0-3.0-1.0-0.6","spark_pilot_norest","8365","8","20","Female","","","","","","","44268.80000000447","<p> You will have <b>2 seconds</b> to make your choice. </p>
            <p> If you do not make a choice within 2 seconds, you will not find an animal or earn treasure. </p>
            <img src='./assets/img/instructions/2seconds.jpg' class='instructions-image'>","","instructions","","","","","","","","","","","",""
"learning-instructions","11","207048","0.0-3.0-1.0-0.7","spark_pilot_norest","8365","8","20","Female","","","","","","","2788.7999999970198","<p> Let’s try practicing that now! </p>
            <p> When you see a picture of the place you are in, press the <b>up</b> key to travel up. </p>
            <img src='./assets/img/instructions/pressUp.jpg' class='instructions-image'>","","instructions","","","","","","","","","","","",""
"revaluation","12","211069","0.0-3.0-2.0-0.0","spark_pilot_norest","8365","8","20","Female","","true","","","","","[]","./assets/img/space/0.jpg","[]","first stage practice","space","-5","null","null","","false","","","","","",""
"html-keyboard-response","13","211577","0.0-3.0-2.0-1.0","spark_pilot_norest","8365","8","20","Female","","","","","","","null","<div style=""font-size:60px;"">+</div>","null","fixation","","","","","","","","","","","",""
"revaluation","14","215594","0.0-3.0-2.0-0.1","spark_pilot_norest","8365","8","20","Female","","false","","","","","[669.2000000029802]","./assets/img/space/1.jpg","[""ArrowUp""]","first stage practice","space","0","null","null","ArrowUp","false","","","","","",""
"html-keyboard-response","15","216111","0.0-3.0-2.0-1.1","spark_pilot_norest","8365","8","20","Female","","","","","","","null","<div style=""font-size:60px;"">+</div>","null","fixation","","","","","","","","","","","",""
"revaluation","16","220141","0.0-3.0-2.0-0.2","spark_pilot_norest","8365","8","20","Female","","false","","","","","[766.3000000044703]","./assets/img/space/2.jpg","[""ArrowUp""]","first stage practice","space","0","null","null","ArrowUp","false","","","","","",""
"html-keyboard-response","17","220656","0.0-3.0-2.0-1.2","spark_pilot_norest","8365","8","20","Female","","","","","","","null","<div style=""font-size:60px;"">+</div>","null","fixation","","","","","","","","","","","",""
"learning-instructions","18","226770","0.0-3.0-3.0-0.0","spark_pilot_norest","8365","8","20","Female","","","","","","","1422.5","<p> Great job! Now try pressing the <b>down</b> key to travel down. </p>
            <img src='./assets/img/instructions/pressDown.jpg' class='instructions-image'>","","instructions","","","","","","","","","","","",""
"revaluation","19","230797","0.0-3.0-4.0-0.0","spark_pilot_norest","8365","8","20","Female","","false","","","","","[688.6000000014901]","./assets/img/space/3.jpg","[""ArrowDown""]","first stage practice","space","0","null","null","ArrowDown","false","","","","","",""
"html-keyboard-response","20","231299","0.0-3.0-4.0-1.0","spark_pilot_norest","8365","8","20","Female","","","","","","","null","<div style=""font-size:60px;"">+</div>","null","fixation","","","","","","","","","","","",""
"revaluation","21","235312","0.0-3.0-4.0-0.1","spark_pilot_norest","8365","8","20","Female","","false","","","","","[334.20000000298023]","./assets/img/space/4.jpg","[""ArrowDown""]","first stage practice","space","0","null","null","ArrowDown","false","","","","","",""
"html-keyboard-response","22","235829","0.0-3.0-4.0-1.1","spark_pilot_norest","8365","8","20","Female","","","","","","","null","<div style=""font-size:60px;"">+</div>","null","fixation","","","","","","","","","","","",""
"revaluation","23","239853","0.0-3.0-4.0-0.2","spark_pilot_norest","8365","8","20","Female","","false","","","","","[423.29999999701977]","./assets/img/space/5.jpg","[""ArrowDown""]","first stage practice","space","0","null","null","ArrowDown","false","","","","","",""
"html-keyboard-response","24","240360","0.0-3.0-4.0-1.2","spark_pilot_norest","8365","8","20","Female","","","","","","","null","<div style=""font-size:60px;"">+</div>","null","fixation","","","","","","","","","","","",""
"learning-instructions","25","708180","0.0-3.0-5.0-0.0","spark_pilot_norest","8365","8","20","Female","","","","","","","457979.1000000015","<p> The animals don’t move, so the animal in the upper part of a place will stay in the upper part of a place, and the animal in the lower part of a place will stay in the lower part of a place. </p>","","instructions","","","","","","","","","","","",""
"learning-instructions","26","718744","0.0-3.0-5.0-0.1","spark_pilot_norest","8365","8","20","Female","","","","","","","1086.2000000029802","<p> Each animal has two treasure chests for you to choose from. </p>
            <p> The amount of treasure in each chest can range from <b> 0 to 40 pieces.</b></p>","","instructions","","","","","","","","","","","",""
"learning-instructions","27","730802","0.0-3.0-5.0-0.2","spark_pilot_norest","8365","8","20","Female","","","","","","","876.6000000014901","<p> You should decide which chest to search for treasure by using the <b>left</b> and <b>right</b> arrow keys. </p>
            <p><b> Pay attention to which animal is on the screen, as the animals have different treasure chests. </b></p>
            <img src='./assets/img/instructions/leftright.jpg' class='instructions-image'>","","instructions","","","","","","","","","","","",""
"learning-instructions","28","738033","0.0-3.0-5.0-0.3","spark_pilot_norest","8365","8","20","Female","","","","","","","876.2999999970198","<p> Let’s try practicing that now. </p>
            <p> When you see an animal, choose which chest to search for treasure. </p>
            <img src='./assets/img/instructions/chooseChest.jpg' class='instructions-image'>","","instructions","","","","","","","","","","","",""
"revaluation","29","742050","0.0-3.0-6.0-0.0","spark_pilot_norest","8365","8","20","Female","","false","","","","","[918.1999999955297]","./assets/img/space/animals/rabbit.jpg","[""ArrowRight""]","second stage practice","space","23","{""ArrowUp,ArrowLeft"":3,""ArrowUp,ArrowRight"":36,""ArrowDown,ArrowLeft"":15,""ArrowDown,ArrowRight"":23}","true","ArrowDown,ArrowRight","","","","","","",""
"html-keyboard-response","30","742562","0.0-3.0-6.0-1.0","spark_pilot_norest","8365","8","20","Female","","","","","","","null","<div style=""font-size:60px;"">+</div>","null","fixation","","","","","","","","","","","",""
"revaluation","31","746595","0.0-3.0-6.0-0.1","spark_pilot_norest","8365","8","20","Female","","false","","","","","[688.5]","./assets/img/space/animals/rabbit.jpg","[""ArrowLeft""]","second stage practice","space","15","{""ArrowUp,ArrowLeft"":3,""ArrowUp,ArrowRight"":36,""ArrowDown,ArrowLeft"":15,""ArrowDown,ArrowRight"":23}","false","ArrowDown,ArrowLeft","","","","","","",""
"html-keyboard-response","32","747110","0.0-3.0-6.0-1.1","spark_pilot_norest","8365","8","20","Female","","","","","","","null","<div style=""font-size:60px;"">+</div>","null","fixation","","","","","","","","","","","",""
"revaluation","33","751141","0.0-3.0-6.0-0.2","spark_pilot_norest","8365","8","20","Female","","false","","","","","[843.3999999985099]","./assets/img/space/animals/cat.jpg","[""ArrowRight""]","second stage practice","space","36","{""ArrowUp,ArrowLeft"":3,""ArrowUp,ArrowRight"":36,""ArrowDown,ArrowLeft"":15,""ArrowDown,ArrowRight"":23}","true","ArrowUp,ArrowRight","","","","","","",""
"html-keyboard-response","34","751657","0.0-3.0-6.0-1.2","spark_pilot_norest","8365","8","20","Female","","","","","","","null","<div style=""font-size:60px;"">+</div>","null","fixation","","","","","","","","","","","",""
"revaluation","35","755689","0.0-3.0-6.0-0.3","spark_pilot_norest","8365","8","20","Female","","false","","","","","[586.8999999985099]","./assets/img/space/animals/cat.jpg","[""ArrowRight""]","second stage practice","space","36","{""ArrowUp,ArrowLeft"":3,""ArrowUp,ArrowRight"":36,""ArrowDown,ArrowLeft"":15,""ArrowDown,ArrowRight"":23}","true","ArrowUp,ArrowRight","","","","","","",""
"html-keyboard-response","36","756206","0.0-3.0-6.0-1.3","spark_pilot_norest","8365","8","20","Female","","","","","","","null","<div style=""font-size:60px;"">+</div>","null","fixation","","","","","","","","","","","",""
"learning-instructions","37","775033","0.0-3.0-7.0-0.0","spark_pilot_norest","8365","8","20","Female","","","","","","","2024.6999999955297","<p> Great job. Now let’s try putting it together. </p>
            <p> On each turn, you will first see a picture to remind you of the place you are in, and you need to choose whether to go up or down. </p>
            <p> Then you will see an animal and choose which of its chests to search for treasure. </p>","","instructions","","","","","","","","","","","",""
"learning-instructions","38","787206","0.0-3.0-7.0-0.1","spark_pilot_norest","8365","8","20","Female","","","","","","","3926.5","<p> When you choose whether to go up or down, try to go to the animal with the chest with the most treasure. </p>
            <p> Try practicing that now! </p>","","instructions","","","","","","","","","","","",""
"revaluation","39","793238","0.0-3.0-8.0-0.0","spark_pilot_norest","8365","8","20","Female","","false","","","","","[868.3000000044703,695]","./assets/img/space/6.jpg","[""ArrowUp"",""ArrowRight""]","full practice","space","36","{""ArrowUp,ArrowLeft"":3,""ArrowUp,ArrowRight"":36,""ArrowDown,ArrowLeft"":15,""ArrowDown,ArrowRight"":23}","true","ArrowUp,ArrowRight","false","","","","","",""
"html-keyboard-response","40","793753","0.0-3.0-8.0-1.0","spark_pilot_norest","8365","8","20","Female","","","","","","","null","<div style=""font-size:60px;"">+</div>","null","fixation","","","","","","","","","","","",""
"revaluation","41","799782","0.0-3.0-8.0-0.1","spark_pilot_norest","8365","8","20","Female","","false","","","","","[1054.7999999970198,866.7000000029802]","./assets/img/space/7.jpg","[""ArrowDown"",""ArrowRight""]","full practice","space","23","{""ArrowUp,ArrowLeft"":3,""ArrowUp,ArrowRight"":36,""ArrowDown,ArrowLeft"":15,""ArrowDown,ArrowRight"":23}","false","ArrowDown,ArrowRight","false","","","","","",""
"html-keyboard-response","42","800283","0.0-3.0-8.0-1.1","spark_pilot_norest","8365","8","20","Female","","","","","","","null","<div style=""font-size:60px;"">+</div>","null","fixation","","","","","","","","","","","",""
"revaluation","43","806299","0.0-3.0-8.0-0.2","spark_pilot_norest","8365","8","20","Female","","false","","","","","[838.7000000029802,572.5999999940395]","./assets/img/space/8.jpg","[""ArrowUp"",""ArrowLeft""]","full practice","space","3","{""ArrowUp,ArrowLeft"":3,""ArrowUp,ArrowRight"":36,""ArrowDown,ArrowLeft"":15,""ArrowDown,ArrowRight"":23}","false","ArrowUp,ArrowLeft","false","","","","","",""
"html-keyboard-response","44","806813","0.0-3.0-8.0-1.2","spark_pilot_norest","8365","8","20","Female","","","","","","","null","<div style=""font-size:60px;"">+</div>","null","fixation","","","","","","","","","","","",""
"revaluation","45","812860","0.0-3.0-8.0-0.3","spark_pilot_norest","8365","8","20","Female","","false","","","","","[1024.2000000029802,557.1000000014901]","./assets/img/space/9.jpg","[""ArrowUp"",""ArrowRight""]","full practice","space","36","{""ArrowUp,ArrowLeft"":3,""ArrowUp,ArrowRight"":36,""ArrowDown,ArrowLeft"":15,""ArrowDown,ArrowRight"":23}","true","ArrowUp,ArrowRight","false","","","","","",""
"html-keyboard-response","46","813362","0.0-3.0-8.0-1.3","spark_pilot_norest","8365","8","20","Female","","","","","","","null","<div style=""font-size:60px;"">+</div>","null","fixation","","","","","","","","","","","",""
"revaluation","47","819366","0.0-3.0-8.0-0.4","spark_pilot_norest","8365","8","20","Female","","false","","","","","[1116.3999999985099,403.6000000014901]","./assets/img/space/10.jpg","[""ArrowUp"",""ArrowRight""]","full practice","space","36","{""ArrowUp,ArrowLeft"":3,""ArrowUp,ArrowRight"":36,""ArrowDown,ArrowLeft"":15,""ArrowDown,ArrowRight"":23}","true","ArrowUp,ArrowRight","false","","","","","",""
"html-keyboard-response","48","819868","0.0-3.0-8.0-1.4","spark_pilot_norest","8365","8","20","Female","","","","","","","null","<div style=""font-size:60px;"">+</div>","null","fixation","","","","","","","","","","","",""
"learning-instructions","49","831420","0.0-3.0-9.0-0.0","spark_pilot_norest","8365","8","20","Female","","","","","","","880.6000000014901","<p> One last thing: sometimes, you will see a robber. The robber can be anywhere in the picture. </p>
            <p> If you do not stop them, you will lose treasure. </p>
            <img src='./assets/img/instructions/robber.jpg' class='instructions-image'>","","instructions","","","","","","","","","","","",""
"learning-instructions","50","839580","0.0-3.0-9.0-0.1","spark_pilot_norest","8365","8","20","Female","","","","","","","998.1999999955297","<p> If you see the robber, you should <b>press the space bar</b> rather than using the arrow keys. </p>
            <p> Try practicing that now! </p>","","instructions","","","","","","","","","","","",""
"revaluation","51","843610","0.0-3.0-10.0-0.0","spark_pilot_norest","8365","8","20","Female","","false","","","","","[989.6999999955297]","./assets/img/space/catch/0.jpg","[""spaceBar""]","catch practice","space","0","{""ArrowUp,ArrowLeft"":3,""ArrowUp,ArrowRight"":36,""ArrowDown,ArrowLeft"":15,""ArrowDown,ArrowRight"":23}","true","spaceBar","true","","","","","",""
"html-keyboard-response","52","844125","0.0-3.0-10.0-1.0","spark_pilot_norest","8365","8","20","Female","","","","","","","null","<div style=""font-size:60px;"">+</div>","null","fixation","","","","","","","","","","","",""
"revaluation","53","848143","0.0-3.0-10.0-0.1","spark_pilot_norest","8365","8","20","Female","","false","","","","","[656.2999999970198]","./assets/img/space/catch/1.jpg","[""spaceBar""]","catch practice","space","0","{""ArrowUp,ArrowLeft"":3,""ArrowUp,ArrowRight"":36,""ArrowDown,ArrowLeft"":15,""ArrowDown,ArrowRight"":23}","true","spaceBar","true","","","","","",""
"html-keyboard-response","54","848660","0.0-3.0-10.0-1.1","spark_pilot_norest","8365","8","20","Female","","","","","","","null","<div style=""font-size:60px;"">+</div>","null","fixation","","","","","","","","","","","",""
"revaluation","55","852688","0.0-3.0-10.0-0.2","spark_pilot_norest","8365","8","20","Female","","false","","","","","[574.6000000014901]","./assets/img/space/catch/2.jpg","[""spaceBar""]","catch practice","space","0","{""ArrowUp,ArrowLeft"":3,""ArrowUp,ArrowRight"":36,""ArrowDown,ArrowLeft"":15,""ArrowDown,ArrowRight"":23}","true","spaceBar","true","","","","","",""
"html-keyboard-response","56","853204","0.0-3.0-10.0-1.2","spark_pilot_norest","8365","8","20","Female","","","","","","","null","<div style=""font-size:60px;"">+</div>","null","fixation","","","","","","","","","","","",""
"learning-instructions","57","859862","0.0-3.0-11.0-0.0-0.0","spark_pilot_norest","8365","8","20","Female","","","","","","","1418.2999999970198","<p> Now, you will practice a shortened version of the game to get a sense of how it all fits together. </p>","","instructions","","","","","","","","","","","",""
"learning-instructions","58","864299","0.0-3.0-11.0-0.0-0.1","spark_pilot_norest","8365","8","20","Female","","","","","","","1258.2999999970198","<p>This time you are searching for treasure in outer space.</p>","","instructions","","","","","","","","","","","",""
"learning-instructions","59","947120","0.0-3.0-11.0-1.0-0.0","spark_pilot_norest","8365","8","20","Female","","","","","","","68069.29999999702","<p> Remember, when you see a picture of the place, use the up and down keys to <b>find an animal</b>.</p>
            <p> When you encounter an animal, you should use the left and right keys to <b>select a treasure chest</b>.</p>
            <p> Don't forget to look out for the robber! </p>","","instructions","","","","","","","","","","","",""
"revaluation","60","953124","0.0-3.0-11.0-2.0-0.0","spark_pilot_norest","8365","8","20","Female","","false","","","","","[1415.1999999955297,550.6000000014901]","./assets/img/space/11.jpg","[""ArrowUp"",""ArrowRight""]","practice block","space","36","{""ArrowUp,ArrowLeft"":3,""ArrowUp,ArrowRight"":36,""ArrowDown,ArrowLeft"":15,""ArrowDown,ArrowRight"":23}","true","ArrowUp,ArrowRight","false","","","","","",""
"html-keyboard-response","61","953625","0.0-3.0-11.0-2.0-1.0","spark_pilot_norest","8365","8","20","Female","","","","","","","null","<div style=""font-size:60px;"">+</div>","null","fixation","","","","","","","","","","","",""
"revaluation","62","959632","0.0-3.0-11.0-2.0-0.1","spark_pilot_norest","8365","8","20","Female","","false","","","","","[632.2999999970198,759.5]","./assets/img/space/12.jpg","[""ArrowUp"",""ArrowRight""]","practice block","space","36","{""ArrowUp,ArrowLeft"":3,""ArrowUp,ArrowRight"":36,""ArrowDown,ArrowLeft"":15,""ArrowDown,ArrowRight"":23}","true","ArrowUp,ArrowRight","false","","","","","",""
"html-keyboard-response","63","960133","0.0-3.0-11.0-2.0-1.1","spark_pilot_norest","8365","8","20","Female","","","","","","","null","<div style=""font-size:60px;"">+</div>","null","fixation","","","","","","","","","","","",""
"revaluation","64","966137","0.0-3.0-11.0-2.0-0.2","spark_pilot_norest","8365","8","20","Female","","false","","","","","[489,461.29999999701977]","./assets/img/space/13.jpg","[""ArrowUp"",""ArrowRight""]","practice block","space","36","{""ArrowUp,ArrowLeft"":3,""ArrowUp,ArrowRight"":36,""ArrowDown,ArrowLeft"":15,""ArrowDown,ArrowRight"":23}","true","ArrowUp,ArrowRight","false","","","","","",""
"html-keyboard-response","65","966638","0.0-3.0-11.0-2.0-1.2","spark_pilot_norest","8365","8","20","Female","","","","","","","null","<div style=""font-size:60px;"">+</div>","null","fixation","","","","","","","","","","","",""
"revaluation","66","972643","0.0-3.0-11.0-2.0-0.3","spark_pilot_norest","8365","8","20","Female","","false","","","","","[860.6999999955297,344.3999999985099]","./assets/img/space/14.jpg","[""ArrowDown"",""ArrowRight""]","practice block","space","23","{""ArrowUp,ArrowLeft"":3,""ArrowUp,ArrowRight"":36,""ArrowDown,ArrowLeft"":15,""ArrowDown,ArrowRight"":23}","false","ArrowDown,ArrowRight","false","","","","","",""
"html-keyboard-response","67","973144","0.0-3.0-11.0-2.0-1.3","spark_pilot_norest","8365","8","20","Female","","","","","","","null","<div style=""font-size:60px;"">+</div>","null","fixation","","","","","","","","","","","",""
"revaluation","68","979149","0.0-3.0-11.0-2.0-0.4","spark_pilot_norest","8365","8","20","Female","","false","","","","","[641.7000000029802,347.8999999985099]","./assets/img/space/11.jpg","[""ArrowUp"",""ArrowRight""]","practice block","space","36","{""ArrowUp,ArrowLeft"":3,""ArrowUp,ArrowRight"":36,""ArrowDown,ArrowLeft"":15,""ArrowDown,ArrowRight"":23}","true","ArrowUp,ArrowRight","false","","","","","",""
"html-keyboard-response","69","979650","0.0-3.0-11.0-2.0-1.4","spark_pilot_norest","8365","8","20","Female","","","","","","","null","<div style=""font-size:60px;"">+</div>","null","fixation","","","","","","","","","","","",""
"revaluation","70","985655","0.0-3.0-11.0-2.0-0.5","spark_pilot_norest","8365","8","20","Female","","false","","","","","[616.8000000044703,331]","./assets/img/space/12.jpg","[""ArrowUp"",""ArrowRight""]","practice block","space","36","{""ArrowUp,ArrowLeft"":3,""ArrowUp,ArrowRight"":36,""ArrowDown,ArrowLeft"":15,""ArrowDown,ArrowRight"":23}","true","ArrowUp,ArrowRight","false","","","","","",""
"html-keyboard-response","71","986157","0.0-3.0-11.0-2.0-1.5","spark_pilot_norest","8365","8","20","Female","","","","","","","null","<div style=""font-size:60px;"">+</div>","null","fixation","","","","","","","","","","","",""
"revaluation","72","992161","0.0-3.0-11.0-2.0-0.6","spark_pilot_norest","8365","8","20","Female","","false","","","","","[696.6999999955297,280.69999999552965]","./assets/img/space/13.jpg","[""ArrowUp"",""ArrowRight""]","practice block","space","36","{""ArrowUp,ArrowLeft"":3,""ArrowUp,ArrowRight"":36,""ArrowDown,ArrowLeft"":15,""ArrowDown,ArrowRight"":23}","true","ArrowUp,ArrowRight","false","","","","","",""
"html-keyboard-response","73","992663","0.0-3.0-11.0-2.0-1.6","spark_pilot_norest","8365","8","20","Female","","","","","","","null","<div style=""font-size:60px;"">+</div>","null","fixation","","","","","","","","","","","",""
"revaluation","74","998668","0.0-3.0-11.0-2.0-0.7","spark_pilot_norest","8365","8","20","Female","","false","","","","","[518.7999999970198,343]","./assets/img/space/14.jpg","[""ArrowUp"",""ArrowRight""]","practice block","space","36","{""ArrowUp,ArrowLeft"":3,""ArrowUp,ArrowRight"":36,""ArrowDown,ArrowLeft"":15,""ArrowDown,ArrowRight"":23}","true","ArrowUp,ArrowRight","false","","","","","",""
"html-keyboard-response","75","999169","0.0-3.0-11.0-2.0-1.7","spark_pilot_norest","8365","8","20","Female","","","","","","","null","<div style=""font-size:60px;"">+</div>","null","fixation","","","","","","","","","","","",""
"revaluation","76","1003172","0.0-3.0-11.0-2.0-0.8","spark_pilot_norest","8365","8","20","Female","","false","","","","","[588.1000000014901]","./assets/img/space/catch/3.jpg","[""spaceBar""]","practice block","space","0","{""ArrowUp,ArrowLeft"":3,""ArrowUp,ArrowRight"":36,""ArrowDown,ArrowLeft"":15,""ArrowDown,ArrowRight"":23}","true","spaceBar","true","","","","","",""
"html-keyboard-response","77","1003674","0.0-3.0-11.0-2.0-1.8","spark_pilot_norest","8365","8","20","Female","","","","","","","null","<div style=""font-size:60px;"">+</div>","null","fixation","","","","","","","","","","","",""
"learning-instructions","78","1019315","0.0-3.0-11.0-3.0-0.0","spark_pilot_norest","8365","8","20","Female","","","","","","","2376.2999999970198","<p> Now, you will travel with a friend who will choose whether you go up or down first. </p>
            <p> On these turns, you will just see the animal that they found. You will still get to choose which chest to search for treasure.</p>","","instructions","","","","","","","","","","","",""
"revaluation","79","1023345","0.0-3.0-11.0-4.0-0.0","spark_pilot_norest","8365","8","20","Female","","false","","","","","[993.7000000029802]","./assets/img/space/animals/rabbit.jpg","[""ArrowRight""]","practice block","space","23","{""ArrowUp,ArrowLeft"":3,""ArrowUp,ArrowRight"":36,""ArrowDown,ArrowLeft"":15,""ArrowDown,ArrowRight"":23}","true","ArrowDown,ArrowRight","","","","","","",""
"html-keyboard-response","80","1023861","0.0-3.0-11.0-4.0-1.0","spark_pilot_norest","8365","8","20","Female","","","","","","","null","<div style=""font-size:60px;"">+</div>","null","fixation","","","","","","","","","","","",""
"revaluation","81","1027891","0.0-3.0-11.0-4.0-0.1","spark_pilot_norest","8365","8","20","Female","","false","","","","","[531.0999999940395]","./assets/img/space/animals/cat.jpg","[""ArrowRight""]","practice block","space","36","{""ArrowUp,ArrowLeft"":3,""ArrowUp,ArrowRight"":36,""ArrowDown,ArrowLeft"":15,""ArrowDown,ArrowRight"":23}","true","ArrowUp,ArrowRight","","","","","","",""
"html-keyboard-response","82","1028408","0.0-3.0-11.0-4.0-1.1","spark_pilot_norest","8365","8","20","Female","","","","","","","null","<div style=""font-size:60px;"">+</div>","null","fixation","","","","","","","","","","","",""
"revaluation","83","1032438","0.0-3.0-11.0-4.0-0.2","spark_pilot_norest","8365","8","20","Female","","false","","","","","[723.2999999970198]","./assets/img/space/animals/cat.jpg","[""ArrowRight""]","practice block","space","36","{""ArrowUp,ArrowLeft"":3,""ArrowUp,ArrowRight"":36,""ArrowDown,ArrowLeft"":15,""ArrowDown,ArrowRight"":23}","true","ArrowUp,ArrowRight","","","","","","",""
"html-keyboard-response","84","1032955","0.0-3.0-11.0-4.0-1.2","spark_pilot_norest","8365","8","20","Female","","","","","","","null","<div style=""font-size:60px;"">+</div>","null","fixation","","","","","","","","","","","",""
"revaluation","85","1036971","0.0-3.0-11.0-4.0-0.3","spark_pilot_norest","8365","8","20","Female","","false","","","","","[646.5]","./assets/img/space/animals/rabbit.jpg","[""ArrowRight""]","practice block","space","23","{""ArrowUp,ArrowLeft"":3,""ArrowUp,ArrowRight"":36,""ArrowDown,ArrowLeft"":15,""ArrowDown,ArrowRight"":23}","true","ArrowDown,ArrowRight","","","","","","",""
"html-keyboard-response","86","1037493","0.0-3.0-11.0-4.0-1.3","spark_pilot_norest","8365","8","20","Female","","","","","","","null","<div style=""font-size:60px;"">+</div>","null","fixation","","","","","","","","","","","",""
"learning-instructions","87","1045611","0.0-3.0-11.0-5.0-0.0","spark_pilot_norest","8365","8","20","Female","","","","","","","null","<p> You have almost finished this part of the game! </p>
            <p> We are going to ask you to make a few more choices. </p>","","instructions","","","","","","","","","","","",""
"learning-instructions","88","1061610","0.0-3.0-11.0-5.0-0.1","spark_pilot_norest","8365","8","20","Female","","","","","","","null","<p> First, you need to decide whether to go up or down. When you see each picture, use the arrow keys to make your choice. </p>
            <p><b>You will not see which animal you found, but try to get to the one that will give you the most treasure.</b></p>","","instructions","","","","","","","","","","","",""
"html-keyboard-response","89","1062626","0.0-3.0-11.0-6.0-0.0","spark_pilot_norest","8365","8","20","Female","","","","","","","null","<div style=""font-size:100px;color:red;"">Starting in...</div>","null","","","","","","","","","","","","",""
"html-keyboard-response","90","1063628","0.0-3.0-11.0-6.0-1.0","spark_pilot_norest","8365","8","20","Female","","","","","","","null","<div style=""font-size:200px;color:red;"">3</div>","null","","","","","","","","","","","","",""
"html-keyboard-response","91","1064641","0.0-3.0-11.0-6.0-2.0","spark_pilot_norest","8365","8","20","Female","","","","","","","null","<div style=""font-size:200px;color:red;"">2</div>","null","","","","","","","","","","","","",""
"html-keyboard-response","92","1065657","0.0-3.0-11.0-6.0-3.0","spark_pilot_norest","8365","8","20","Female","","","","","","","null","<div style=""font-size:200px;color:red;"">1</div>","null","","","","","","","","","","","","",""
"revaluation","93","1066327","0.0-3.0-11.0-7.0","spark_pilot_norest","8365","8","20","Female","","false","","","","","[667.6000000014901]","./assets/img/space/15.jpg","[""ArrowUp""]","practice block","space","0","{""ArrowUp,ArrowLeft"":3,""ArrowUp,ArrowRight"":36,""ArrowDown,ArrowLeft"":15,""ArrowDown,ArrowRight"":23}","true","ArrowUp","false","","","","","",""
"html-keyboard-response","94","1066828","0.0-3.0-11.0-8.0","spark_pilot_norest","8365","8","20","Female","","","","","","","null","<div style=""font-size:60px;"">+</div>","null","fixation","","","","","","","","","","","",""
"learning-instructions","95","1080203","0.0-3.0-11.0-9.0-0.0","spark_pilot_norest","8365","8","20","Female","","","","","","","null","<p> Now you will see the animals again and can search their chests for treasure. </p>
            <p> This time, you will not see how much treasure you earned, but you will earn more bonus money for making better choices. </p>","","instructions","","","","","","","","","","","",""
"html-keyboard-response","96","1081204","0.0-3.0-11.0-10.0-0.0","spark_pilot_norest","8365","8","20","Female","","","","","","","null","<div style=""font-size:100px;color:red;"">Starting in...</div>","null","","","","","","","","","","","","",""
"html-keyboard-response","97","1082206","0.0-3.0-11.0-10.0-1.0","spark_pilot_norest","8365","8","20","Female","","","","","","","null","<div style=""font-size:200px;color:red;"">3</div>","null","","","","","","","","","","","","",""
"html-keyboard-response","98","1083220","0.0-3.0-11.0-10.0-2.0","spark_pilot_norest","8365","8","20","Female","","","","","","","null","<div style=""font-size:200px;color:red;"">2</div>","null","","","","","","","","","","","","",""
"html-keyboard-response","99","1084240","0.0-3.0-11.0-10.0-3.0","spark_pilot_norest","8365","8","20","Female","","","","","","","null","<div style=""font-size:200px;color:red;"">1</div>","null","","","","","","","","","","","","",""
"revaluation","100","1084993","0.0-3.0-11.0-11.0-0.0","spark_pilot_norest","8365","8","20","Female","","false","","","","","[751.6000000014901]","./assets/img/space/animals/cat.jpg","[""ArrowRight""]","practice block","space","0","{""ArrowUp,ArrowLeft"":3,""ArrowUp,ArrowRight"":36,""ArrowDown,ArrowLeft"":15,""ArrowDown,ArrowRight"":23}","true","ArrowUp,ArrowRight","","","","","","",""
"html-keyboard-response","101","1085500","0.0-3.0-11.0-11.0-1.0","spark_pilot_norest","8365","8","20","Female","","","","","","","null","<div style=""font-size:60px;"">+</div>","null","fixation","","","","","","","","","","","",""
"revaluation","102","1086627","0.0-3.0-11.0-11.0-0.1","spark_pilot_norest","8365","8","20","Female","","false","","","","","[1124.9000000059605]","./assets/img/space/animals/rabbit.jpg","[""ArrowRight""]","practice block","space","0","{""ArrowUp,ArrowLeft"":3,""ArrowUp,ArrowRight"":36,""ArrowDown,ArrowLeft"":15,""ArrowDown,ArrowRight"":23}","true","ArrowDown,ArrowRight","","","","","","",""
"html-keyboard-response","103","1087142","0.0-3.0-11.0-11.0-1.1","spark_pilot_norest","8365","8","20","Female","","","","","","","null","<div style=""font-size:60px;"">+</div>","null","fixation","","","","","","","","","","","",""
"learning-instructions","104","1093315","0.0-3.0-12.0-0.0","spark_pilot_norest","8365","8","20","Female","","","","","","","1603","<p> Before you start, we're going to ask you a few questions about how the game works. </p>","","instructions","","","","","","","","","","","",""
"comp-q","105","1101658","0.0-3.0-13.0-0.0-0.0","spark_pilot_norest","8365","8","20","Female","","","","","","","2765.39999999851","<p> <b> True or False? </b> </p>
            <p> There can be 50 pieces of treasure in a given animal's chest. </p>","0","comp_question","","","","false","","","","","","","",""
"comp-q","106","1109456","0.0-3.0-13.0-0.0-1.0","spark_pilot_norest","8365","8","20","Female","","","","","","","1285","<p> <b>Incorrect.</b> The amount of treasure in each chest can range from 0 to 40 pieces. </p>","0","comp_answer","","","","","","","","","","","",""
"comp-q","107","1115759","0.0-3.0-13.0-0.1-0.1","spark_pilot_norest","8365","8","20","Female","","","","","","","740","<p> <b> True or False? </b> </p>
            <p> There can be 50 pieces of treasure in a given animal's chest. </p>","1","comp_question","","","","true","","","","","","","",""
"comp-q","108","1124053","0.0-3.0-13.0-0.1-1.1","spark_pilot_norest","8365","8","20","Female","","","","","","","1653.0999999940395","<p> <b> That's right! </b> The amount of treasure in each chest can range from 0 to 40 pieces. </p>","0","comp_answer","","","","","","","","","","","",""
"comp-q","109","1131766","0.0-3.0-13.0-0.2-0.2","spark_pilot_norest","8365","8","20","Female","","","","","","","609.0999999940395","<p> <b> True or False? </b> </p><p> In this game, all animals have the same amount of treasure in their left and right chests. </p>","1","comp_question","","","","true","","","","","","","",""
"comp-q","110","1139108","0.0-3.0-13.0-0.2-1.2","spark_pilot_norest","8365","8","20","Female","","","","","","","2116.5","<p> <b> That's right! </b> Animals have different amounts of treasure in their treasure chests. </p>","0","comp_answer","","","","","","","","","","","",""
"comp-q","111","1148811","0.0-3.0-13.0-0.3-0.3","spark_pilot_norest","8365","8","20","Female","","","","","","","3873.3000000044703","<p> <b> True or False? </b> </p><p> The same animal will always be there if you go up in the same place. </p>","0","comp_question","","","","true","","","","","","","",""
"comp-q","112","1159013","0.0-3.0-13.0-0.3-1.3","spark_pilot_norest","8365","8","20","Female","","","","","","","3771.2000000029802","<p> <b> That's right! </b> One animal lives in the upper part and one lives in the lower part of every place. </p>","0","comp_answer","","","","","","","","","","","",""
"comp-q","113","1165688","0.0-3.0-13.0-0.4-0.4","spark_pilot_norest","8365","8","20","Female","","","","","","","1166.8000000044703","<p> <b> True or False? </b> </p><p> If you see a different picture, it means you are in a new place. </p>","1","comp_question","","","","true","","","","","","","",""
"comp-q","114","1178303","0.0-3.0-13.0-0.4-1.4","spark_pilot_norest","8365","8","20","Female","","","","","","","1397.1000000014901","<p> <b> That's right! </b> Lots of different images may show the same place. For example,  you may see three different images that all remind you that you are in outer space. </p>","0","comp_answer","","","","","","","","","","","",""
"learning-instructions","115","1214800","0.0-3.0-14.0-0.0","spark_pilot_norest","8365","8","20","Female","","","","","","","26661","<p> Good job. Remember to do your best because the amount of treasure you earn will be converted into bonus money. </p>
            <p> It’s time to start the real game! </p>","","instructions","","","","","","","","","","","",""
"learning-instructions","116","1220110","0.0-4.0-0.0-0.0","spark_pilot_norest","8365","8","20","Female","","","","","","","2552.8000000044703","<p> This time you are searching for treasure in the <b>canyon</b>.</p>","","instructions","","","","","","","","","","","",""
"learning-instructions","117","1239537","0.0-4.0-0.0-0.1","spark_pilot_norest","8365","8","20","Female","","","","","","","2140.39999999851","<p><b>New</b> animals with <b>new</b> treasure chests live here. You need to explore to discover where the animal with the best treasure chest is.</p>
                    <p> Like before, once you figure out which animal has the chest with the most treasure, you should try to get to that animal and select that chest! </p>","","instructions","","","","","","","","","","","",""
"learning-instructions","118","1256486","0.0-4.0-1.0-0.0","spark_pilot_norest","8365","8","20","Female","","","","","","","2224.5","<p> Remember, when you see a picture of the place, use the up and down keys to <b>find an animal</b>.</p>
            <p> When you encounter an animal, you should use the left and right keys to <b>select a treasure chest</b>.</p>
            <p> Don't forget to look out for the robber! </p>","","instructions","","","","","","","","","","","",""
"revaluation","119","1262501","0.0-4.0-2.0-0.0","spark_pilot_norest","8365","8","20","Female","","false","","","","","[1048.7000000029802,445.8999999985099]","./assets/img/canyon/memory/20.jpg","[""ArrowUp"",""ArrowRight""]","value training","canyon","10","{""ArrowUp,ArrowLeft"":26,""ArrowUp,ArrowRight"":10,""ArrowDown,ArrowLeft"":5,""ArrowDown,ArrowRight"":17}","false","ArrowUp,ArrowRight","false","revaluation","1","0","","",""
"html-keyboard-response","120","1263017","0.0-4.0-2.0-1.0","spark_pilot_norest","8365","8","20","Female","","","","","","","null","<div style=""font-size:60px;"">+</div>","null","fixation","","","","","","","","","1","","",""
"revaluation","121","1269034","0.0-4.0-2.0-0.1","spark_pilot_norest","8365","8","20","Female","","false","","","","","[665.3999999985099,338.70000000298023]","./assets/img/canyon/memory/1.jpg","[""ArrowUp"",""ArrowLeft""]","value training","canyon","26","{""ArrowUp,ArrowLeft"":26,""ArrowUp,ArrowRight"":10,""ArrowDown,ArrowLeft"":5,""ArrowDown,ArrowRight"":17}","true","ArrowUp,ArrowLeft","false","revaluation","1","2","","",""
"html-keyboard-response","122","1269549","0.0-4.0-2.0-1.1","spark_pilot_norest","8365","8","20","Female","","","","","","","null","<div style=""font-size:60px;"">+</div>","null","fixation","","","","","","","","","3","","",""
"revaluation","123","1275590","0.0-4.0-2.0-0.2","spark_pilot_norest","8365","8","20","Female","","false","","","","","[359.3999999985099,322.8999999985099]","./assets/img/canyon/memory/3.jpg","[""ArrowDown"",""ArrowRight""]","value training","canyon","17","{""ArrowUp,ArrowLeft"":26,""ArrowUp,ArrowRight"":10,""ArrowDown,ArrowLeft"":5,""ArrowDown,ArrowRight"":17}","false","ArrowDown,ArrowRight","false","revaluation","1","4","","",""
"html-keyboard-response","124","1276094","0.0-4.0-2.0-1.2","spark_pilot_norest","8365","8","20","Female","","","","","","","null","<div style=""font-size:60px;"">+</div>","null","fixation","","","","","","","","","5","","",""
"revaluation","125","1282125","0.0-4.0-2.0-0.3","spark_pilot_norest","8365","8","20","Female","","false","","","","","[379.30000000447035,486.70000000298023]","./assets/img/canyon/memory/0.jpg","[""ArrowDown"",""ArrowLeft""]","value training","canyon","5","{""ArrowUp,ArrowLeft"":26,""ArrowUp,ArrowRight"":10,""ArrowDown,ArrowLeft"":5,""ArrowDown,ArrowRight"":17}","false","ArrowDown,ArrowLeft","false","revaluation","1","6","","",""
"html-keyboard-response","126","1282639","0.0-4.0-2.0-1.3","spark_pilot_norest","8365","8","20","Female","","","","","","","null","<div style=""font-size:60px;"">+</div>","null","fixation","","","","","","","","","7","","",""
"revaluation","127","1286642","0.0-4.0-2.0-0.4","spark_pilot_norest","8365","8","20","Female","","false","","","","","[703.1000000014901]","./assets/img/canyon/catch/5.jpg","[""ArrowUp""]","value training","canyon","-10","{""ArrowUp,ArrowLeft"":26,""ArrowUp,ArrowRight"":10,""ArrowDown,ArrowLeft"":5,""ArrowDown,ArrowRight"":17}","false","ArrowUp","true","revaluation","1","8","","",""
"html-keyboard-response","128","1287144","0.0-4.0-2.0-1.4","spark_pilot_norest","8365","8","20","Female","","","","","","","null","<div style=""font-size:60px;"">+</div>","null","fixation","","","","","","","","","9","","",""
"revaluation","129","1291148","0.0-4.0-2.0-0.5","spark_pilot_norest","8365","8","20","Female","","false","","","","","[675.8000000044703]","./assets/img/canyon/catch/4.jpg","[""spaceBar""]","value training","canyon","0","{""ArrowUp,ArrowLeft"":26,""ArrowUp,ArrowRight"":10,""ArrowDown,ArrowLeft"":5,""ArrowDown,ArrowRight"":17}","true","spaceBar","true","revaluation","1","10","","",""
"html-keyboard-response","130","1291649","0.0-4.0-2.0-1.5","spark_pilot_norest","8365","8","20","Female","","","","","","","null","<div style=""font-size:60px;"">+</div>","null","fixation","","","","","","","","","11","","",""
"revaluation","131","1295657","0.0-4.0-2.0-0.6","spark_pilot_norest","8365","8","20","Female","","false","","","","","[572.7000000029802]","./assets/img/canyon/catch/0.jpg","[""spaceBar""]","value training","canyon","0","{""ArrowUp,ArrowLeft"":26,""ArrowUp,ArrowRight"":10,""ArrowDown,ArrowLeft"":5,""ArrowDown,ArrowRight"":17}","true","spaceBar","true","revaluation","1","12","","",""
"html-keyboard-response","132","1296159","0.0-4.0-2.0-1.6","spark_pilot_norest","8365","8","20","Female","","","","","","","null","<div style=""font-size:60px;"">+</div>","null","fixation","","","","","","","","","13","","",""
"revaluation","133","1302163","0.0-4.0-2.0-0.7","spark_pilot_norest","8365","8","20","Female","","false","","","","","[521.6999999955297,471.5]","./assets/img/canyon/memory/1.jpg","[""ArrowUp"",""ArrowLeft""]","value training","canyon","26","{""ArrowUp,ArrowLeft"":26,""ArrowUp,ArrowRight"":10,""ArrowDown,ArrowLeft"":5,""ArrowDown,ArrowRight"":17}","true","ArrowUp,ArrowLeft","false","revaluation","1","14","","",""
"html-keyboard-response","134","1302664","0.0-4.0-2.0-1.7","spark_pilot_norest","8365","8","20","Female","","","","","","","null","<div style=""font-size:60px;"">+</div>","null","fixation","","","","","","","","","15","","",""
"revaluation","135","1308669","0.0-4.0-2.0-0.8","spark_pilot_norest","8365","8","20","Female","","false","","","","","[573.5,461]","./assets/img/canyon/memory/7.jpg","[""ArrowUp"",""ArrowLeft""]","value training","canyon","26","{""ArrowUp,ArrowLeft"":26,""ArrowUp,ArrowRight"":10,""ArrowDown,ArrowLeft"":5,""ArrowDown,ArrowRight"":17}","true","ArrowUp,ArrowLeft","false","revaluation","1","16","","",""
"html-keyboard-response","136","1309171","0.0-4.0-2.0-1.8","spark_pilot_norest","8365","8","20","Female","","","","","","","null","<div style=""font-size:60px;"">+</div>","null","fixation","","","","","","","","","17","","",""
"revaluation","137","1315192","0.0-4.0-2.0-0.9","spark_pilot_norest","8365","8","20","Female","","false","","","","","[1308.7000000029802,646.6000000014901]","./assets/img/canyon/memory/5.jpg","[""ArrowUp"",""ArrowLeft""]","value training","canyon","26","{""ArrowUp,ArrowLeft"":26,""ArrowUp,ArrowRight"":10,""ArrowDown,ArrowLeft"":5,""ArrowDown,ArrowRight"":17}","true","ArrowUp,ArrowLeft","false","revaluation","1","18","","",""
"html-keyboard-response","138","1315693","0.0-4.0-2.0-1.9","spark_pilot_norest","8365","8","20","Female","","","","","","","null","<div style=""font-size:60px;"">+</div>","null","fixation","","","","","","","","","19","","",""
"revaluation","139","1321698","0.0-4.0-2.0-0.10","spark_pilot_norest","8365","8","20","Female","","false","","","","","[678.1000000014901,407.3999999985099]","./assets/img/canyon/memory/15.jpg","[""ArrowUp"",""ArrowLeft""]","value training","canyon","26","{""ArrowUp,ArrowLeft"":26,""ArrowUp,ArrowRight"":10,""ArrowDown,ArrowLeft"":5,""ArrowDown,ArrowRight"":17}","true","ArrowUp,ArrowLeft","false","revaluation","1","20","","",""
"html-keyboard-response","140","1322199","0.0-4.0-2.0-1.10","spark_pilot_norest","8365","8","20","Female","","","","","","","null","<div style=""font-size:60px;"">+</div>","null","fixation","","","","","","","","","21","","",""
"revaluation","141","1328204","0.0-4.0-2.0-0.11","spark_pilot_norest","8365","8","20","Female","","false","","","","","[613.7000000029802,389.8999999985099]","./assets/img/canyon/memory/35.jpg","[""ArrowUp"",""ArrowLeft""]","value training","canyon","26","{""ArrowUp,ArrowLeft"":26,""ArrowUp,ArrowRight"":10,""ArrowDown,ArrowLeft"":5,""ArrowDown,ArrowRight"":17}","true","ArrowUp,ArrowLeft","false","revaluation","1","22","","",""
"html-keyboard-response","142","1328706","0.0-4.0-2.0-1.11","spark_pilot_norest","8365","8","20","Female","","","","","","","null","<div style=""font-size:60px;"">+</div>","null","fixation","","","","","","","","","23","","",""
"revaluation","143","1334711","0.0-4.0-2.0-0.12","spark_pilot_norest","8365","8","20","Female","","false","","","","","[1035.3000000044703,375.79999999701977]","./assets/img/canyon/memory/27.jpg","[""ArrowUp"",""ArrowLeft""]","value training","canyon","26","{""ArrowUp,ArrowLeft"":26,""ArrowUp,ArrowRight"":10,""ArrowDown,ArrowLeft"":5,""ArrowDown,ArrowRight"":17}","true","ArrowUp,ArrowLeft","false","revaluation","1","24","","",""
"html-keyboard-response","144","1335212","0.0-4.0-2.0-1.12","spark_pilot_norest","8365","8","20","Female","","","","","","","null","<div style=""font-size:60px;"">+</div>","null","fixation","","","","","","","","","25","","",""
"revaluation","145","1339216","0.0-4.0-2.0-0.13","spark_pilot_norest","8365","8","20","Female","","false","","","","","[480.20000000298023]","./assets/img/canyon/catch/6.jpg","[""spaceBar""]","value training","canyon","0","{""ArrowUp,ArrowLeft"":26,""ArrowUp,ArrowRight"":10,""ArrowDown,ArrowLeft"":5,""ArrowDown,ArrowRight"":17}","true","spaceBar","true","revaluation","1","26","","",""
"html-keyboard-response","146","1339717","0.0-4.0-2.0-1.13","spark_pilot_norest","8365","8","20","Female","","","","","","","null","<div style=""font-size:60px;"">+</div>","null","fixation","","","","","","","","","27","","",""
"revaluation","147","1345722","0.0-4.0-2.0-0.14","spark_pilot_norest","8365","8","20","Female","","false","","","","","[512.3000000044703,247.60000000149012]","./assets/img/canyon/memory/34.jpg","[""ArrowUp"",""ArrowLeft""]","value training","canyon","26","{""ArrowUp,ArrowLeft"":26,""ArrowUp,ArrowRight"":10,""ArrowDown,ArrowLeft"":5,""ArrowDown,ArrowRight"":17}","true","ArrowUp,ArrowLeft","false","revaluation","1","28","","",""
"html-keyboard-response","148","1346223","0.0-4.0-2.0-1.14","spark_pilot_norest","8365","8","20","Female","","","","","","","null","<div style=""font-size:60px;"">+</div>","null","fixation","","","","","","","","","29","","",""
"revaluation","149","1350227","0.0-4.0-2.0-0.15","spark_pilot_norest","8365","8","20","Female","","false","","","","","[834.7000000029802]","./assets/img/canyon/catch/1.jpg","[""spaceBar""]","value training","canyon","0","{""ArrowUp,ArrowLeft"":26,""ArrowUp,ArrowRight"":10,""ArrowDown,ArrowLeft"":5,""ArrowDown,ArrowRight"":17}","true","spaceBar","true","revaluation","1","30","","",""
"html-keyboard-response","150","1350729","0.0-4.0-2.0-1.15","spark_pilot_norest","8365","8","20","Female","","","","","","","null","<div style=""font-size:60px;"">+</div>","null","fixation","","","","","","","","","31","","",""
"revaluation","151","1356733","0.0-4.0-2.0-0.16","spark_pilot_norest","8365","8","20","Female","","false","","","","","[557.8999999985099,391.20000000298023]","./assets/img/canyon/memory/40.jpg","[""ArrowUp"",""ArrowLeft""]","value training","canyon","26","{""ArrowUp,ArrowLeft"":26,""ArrowUp,ArrowRight"":10,""ArrowDown,ArrowLeft"":5,""ArrowDown,ArrowRight"":17}","true","ArrowUp,ArrowLeft","false","revaluation","1","32","","",""
"html-keyboard-response","152","1357234","0.0-4.0-2.0-1.16","spark_pilot_norest","8365","8","20","Female","","","","","","","null","<div style=""font-size:60px;"">+</div>","null","fixation","","","","","","","","","33","","",""
"revaluation","153","1363238","0.0-4.0-2.0-0.17","spark_pilot_norest","8365","8","20","Female","","false","","","","","[814.8999999985099,1025.6999999955297]","./assets/img/canyon/memory/18.jpg","[""ArrowUp"",""ArrowLeft""]","value training","canyon","26","{""ArrowUp,ArrowLeft"":26,""ArrowUp,ArrowRight"":10,""ArrowDown,ArrowLeft"":5,""ArrowDown,ArrowRight"":17}","true","ArrowUp,ArrowLeft","false","revaluation","1","34","","",""
"html-keyboard-response","154","1363743","0.0-4.0-2.0-1.17","spark_pilot_norest","8365","8","20","Female","","","","","","","null","<div style=""font-size:60px;"">+</div>","null","fixation","","","","","","","","","35","","",""
"revaluation","155","1369748","0.0-4.0-2.0-0.18","spark_pilot_norest","8365","8","20","Female","","false","","","","","[536.8999999985099,369.6000000014901]","./assets/img/canyon/memory/35.jpg","[""ArrowUp"",""ArrowLeft""]","value training","canyon","26","{""ArrowUp,ArrowLeft"":26,""ArrowUp,ArrowRight"":10,""ArrowDown,ArrowLeft"":5,""ArrowDown,ArrowRight"":17}","true","ArrowUp,ArrowLeft","false","revaluation","1","36","","",""
"html-keyboard-response","156","1370250","0.0-4.0-2.0-1.18","spark_pilot_norest","8365","8","20","Female","","","","","","","null","<div style=""font-size:60px;"">+</div>","null","fixation","","","","","","","","","37","","",""
"revaluation","157","1376253","0.0-4.0-2.0-0.19","spark_pilot_norest","8365","8","20","Female","","false","","","","","[541.3999999985099,532.1000000014901]","./assets/img/canyon/memory/37.jpg","[""ArrowUp"",""ArrowLeft""]","value training","canyon","26","{""ArrowUp,ArrowLeft"":26,""ArrowUp,ArrowRight"":10,""ArrowDown,ArrowLeft"":5,""ArrowDown,ArrowRight"":17}","true","ArrowUp,ArrowLeft","false","revaluation","1","38","","",""
"html-keyboard-response","158","1376755","0.0-4.0-2.0-1.19","spark_pilot_norest","8365","8","20","Female","","","","","","","null","<div style=""font-size:60px;"">+</div>","null","fixation","","","","","","","","","39","","",""
"revaluation","159","1382759","0.0-4.0-2.0-0.20","spark_pilot_norest","8365","8","20","Female","","false","","","","","[479.79999999701977,421.3999999985099]","./assets/img/canyon/memory/30.jpg","[""ArrowUp"",""ArrowLeft""]","value training","canyon","26","{""ArrowUp,ArrowLeft"":26,""ArrowUp,ArrowRight"":10,""ArrowDown,ArrowLeft"":5,""ArrowDown,ArrowRight"":17}","true","ArrowUp,ArrowLeft","false","revaluation","1","40","","",""
"html-keyboard-response","160","1383260","0.0-4.0-2.0-1.20","spark_pilot_norest","8365","8","20","Female","","","","","","","null","<div style=""font-size:60px;"">+</div>","null","fixation","","","","","","","","","41","","",""
"revaluation","161","1389264","0.0-4.0-2.0-0.21","spark_pilot_norest","8365","8","20","Female","","false","","","","","[646.3999999985099,291.8999999985099]","./assets/img/canyon/memory/41.jpg","[""ArrowUp"",""ArrowLeft""]","value training","canyon","26","{""ArrowUp,ArrowLeft"":26,""ArrowUp,ArrowRight"":10,""ArrowDown,ArrowLeft"":5,""ArrowDown,ArrowRight"":17}","true","ArrowUp,ArrowLeft","false","revaluation","1","42","","",""
"html-keyboard-response","162","1389764","0.0-4.0-2.0-1.21","spark_pilot_norest","8365","8","20","Female","","","","","","","null","<div style=""font-size:60px;"">+</div>","null","fixation","","","","","","","","","43","","",""
"revaluation","163","1395770","0.0-4.0-2.0-0.22","spark_pilot_norest","8365","8","20","Female","","false","","","","","[426.6000000014901,581]","./assets/img/canyon/memory/29.jpg","[""ArrowUp"",""ArrowLeft""]","value training","canyon","26","{""ArrowUp,ArrowLeft"":26,""ArrowUp,ArrowRight"":10,""ArrowDown,ArrowLeft"":5,""ArrowDown,ArrowRight"":17}","true","ArrowUp,ArrowLeft","false","revaluation","1","44","","",""
"html-keyboard-response","164","1396271","0.0-4.0-2.0-1.22","spark_pilot_norest","8365","8","20","Female","","","","","","","null","<div style=""font-size:60px;"">+</div>","null","fixation","","","","","","","","","45","","",""
"revaluation","165","1402276","0.0-4.0-2.0-0.23","spark_pilot_norest","8365","8","20","Female","","false","","","","","[393,336.29999999701977]","./assets/img/canyon/memory/0.jpg","[""ArrowUp"",""ArrowLeft""]","value training","canyon","26","{""ArrowUp,ArrowLeft"":26,""ArrowUp,ArrowRight"":10,""ArrowDown,ArrowLeft"":5,""ArrowDown,ArrowRight"":17}","true","ArrowUp,ArrowLeft","false","revaluation","1","46","","",""
"html-keyboard-response","166","1402777","0.0-4.0-2.0-1.23","spark_pilot_norest","8365","8","20","Female","","","","","","","null","<div style=""font-size:60px;"">+</div>","null","fixation","","","","","","","","","47","","",""
"revaluation","167","1406782","0.0-4.0-2.0-0.24","spark_pilot_norest","8365","8","20","Female","","false","","","","","[815.3999999985099]","./assets/img/canyon/catch/7.jpg","[""spaceBar""]","value training","canyon","0","{""ArrowUp,ArrowLeft"":26,""ArrowUp,ArrowRight"":10,""ArrowDown,ArrowLeft"":5,""ArrowDown,ArrowRight"":17}","true","spaceBar","true","revaluation","1","48","","",""
"html-keyboard-response","168","1407284","0.0-4.0-2.0-1.24","spark_pilot_norest","8365","8","20","Female","","","","","","","null","<div style=""font-size:60px;"">+</div>","null","fixation","","","","","","","","","49","","",""
"revaluation","169","1413289","0.0-4.0-2.0-0.25","spark_pilot_norest","8365","8","20","Female","","false","","","","","[824.2999999970198,259.3999999985099]","./assets/img/canyon/memory/23.jpg","[""ArrowUp"",""ArrowLeft""]","value training","canyon","26","{""ArrowUp,ArrowLeft"":26,""ArrowUp,ArrowRight"":10,""ArrowDown,ArrowLeft"":5,""ArrowDown,ArrowRight"":17}","true","ArrowUp,ArrowLeft","false","revaluation","1","50","","",""
"html-keyboard-response","170","1413791","0.0-4.0-2.0-1.25","spark_pilot_norest","8365","8","20","Female","","","","","","","null","<div style=""font-size:60px;"">+</div>","null","fixation","","","","","","","","","51","","",""
"revaluation","171","1419795","0.0-4.0-2.0-0.26","spark_pilot_norest","8365","8","20","Female","","false","","","","","[670.1000000014901,309.70000000298023]","./assets/img/canyon/memory/34.jpg","[""ArrowUp"",""ArrowLeft""]","value training","canyon","26","{""ArrowUp,ArrowLeft"":26,""ArrowUp,ArrowRight"":10,""ArrowDown,ArrowLeft"":5,""ArrowDown,ArrowRight"":17}","true","ArrowUp,ArrowLeft","false","revaluation","1","52","","",""
"html-keyboard-response","172","1420297","0.0-4.0-2.0-1.26","spark_pilot_norest","8365","8","20","Female","","","","","","","null","<div style=""font-size:60px;"">+</div>","null","fixation","","","","","","","","","53","","",""
"revaluation","173","1426302","0.0-4.0-2.0-0.27","spark_pilot_norest","8365","8","20","Female","","false","","","","","[570.1000000014901,545.4000000059605]","./assets/img/canyon/memory/23.jpg","[""ArrowUp"",""ArrowLeft""]","value training","canyon","26","{""ArrowUp,ArrowLeft"":26,""ArrowUp,ArrowRight"":10,""ArrowDown,ArrowLeft"":5,""ArrowDown,ArrowRight"":17}","true","ArrowUp,ArrowLeft","false","revaluation","1","54","","",""
"html-keyboard-response","174","1426804","0.0-4.0-2.0-1.27","spark_pilot_norest","8365","8","20","Female","","","","","","","null","<div style=""font-size:60px;"">+</div>","null","fixation","","","","","","","","","55","","",""
"revaluation","175","1432808","0.0-4.0-2.0-0.28","spark_pilot_norest","8365","8","20","Female","","false","","","","","[478.69999999552965,326.09999999403954]","./assets/img/canyon/memory/7.jpg","[""ArrowUp"",""ArrowLeft""]","value training","canyon","26","{""ArrowUp,ArrowLeft"":26,""ArrowUp,ArrowRight"":10,""ArrowDown,ArrowLeft"":5,""ArrowDown,ArrowRight"":17}","true","ArrowUp,ArrowLeft","false","revaluation","1","56","","",""
"html-keyboard-response","176","1433310","0.0-4.0-2.0-1.28","spark_pilot_norest","8365","8","20","Female","","","","","","","null","<div style=""font-size:60px;"">+</div>","null","fixation","","","","","","","","","57","","",""
"revaluation","177","1439315","0.0-4.0-2.0-0.29","spark_pilot_norest","8365","8","20","Female","","false","","","","","[717.5,849.3000000044703]","./assets/img/canyon/memory/11.jpg","[""ArrowUp"",""ArrowLeft""]","value training","canyon","26","{""ArrowUp,ArrowLeft"":26,""ArrowUp,ArrowRight"":10,""ArrowDown,ArrowLeft"":5,""ArrowDown,ArrowRight"":17}","true","ArrowUp,ArrowLeft","false","revaluation","1","58","","",""
"html-keyboard-response","178","1439817","0.0-4.0-2.0-1.29","spark_pilot_norest","8365","8","20","Female","","","","","","","null","<div style=""font-size:60px;"">+</div>","null","fixation","","","","","","","","","59","","",""
"revaluation","179","1445821","0.0-4.0-2.0-0.30","spark_pilot_norest","8365","8","20","Female","","false","","","","","[522.3000000044703,1872.7999999970198]","./assets/img/canyon/memory/18.jpg","[""ArrowUp"",""ArrowLeft""]","value training","canyon","26","{""ArrowUp,ArrowLeft"":26,""ArrowUp,ArrowRight"":10,""ArrowDown,ArrowLeft"":5,""ArrowDown,ArrowRight"":17}","true","ArrowUp,ArrowLeft","false","revaluation","1","60","","",""
"html-keyboard-response","180","1446322","0.0-4.0-2.0-1.30","spark_pilot_norest","8365","8","20","Female","","","","","","","null","<div style=""font-size:60px;"">+</div>","null","fixation","","","","","","","","","61","","",""
"revaluation","181","1452327","0.0-4.0-2.0-0.31","spark_pilot_norest","8365","8","20","Female","","false","","","","","[529.3999999985099,698.6000000014901]","./assets/img/canyon/memory/28.jpg","[""ArrowUp"",""ArrowLeft""]","value training","canyon","26","{""ArrowUp,ArrowLeft"":26,""ArrowUp,ArrowRight"":10,""ArrowDown,ArrowLeft"":5,""ArrowDown,ArrowRight"":17}","true","ArrowUp,ArrowLeft","false","revaluation","1","62","","",""
"html-keyboard-response","182","1452838","0.0-4.0-2.0-1.31","spark_pilot_norest","8365","8","20","Female","","","","","","","null","<div style=""font-size:60px;"">+</div>","null","fixation","","","","","","","","","63","","",""
"revaluation","183","1458843","0.0-4.0-2.0-0.32","spark_pilot_norest","8365","8","20","Female","","false","","","","","[571.1999999955297,299]","./assets/img/canyon/memory/29.jpg","[""ArrowUp"",""ArrowLeft""]","value training","canyon","26","{""ArrowUp,ArrowLeft"":26,""ArrowUp,ArrowRight"":10,""ArrowDown,ArrowLeft"":5,""ArrowDown,ArrowRight"":17}","true","ArrowUp,ArrowLeft","false","revaluation","1","64","","",""
"html-keyboard-response","184","1459344","0.0-4.0-2.0-1.32","spark_pilot_norest","8365","8","20","Female","","","","","","","null","<div style=""font-size:60px;"">+</div>","null","fixation","","","","","","","","","65","","",""
"revaluation","185","1465349","0.0-4.0-2.0-0.33","spark_pilot_norest","8365","8","20","Female","","false","","","","","[567,423.1000000014901]","./assets/img/canyon/memory/30.jpg","[""ArrowUp"",""ArrowLeft""]","value training","canyon","26","{""ArrowUp,ArrowLeft"":26,""ArrowUp,ArrowRight"":10,""ArrowDown,ArrowLeft"":5,""ArrowDown,ArrowRight"":17}","true","ArrowUp,ArrowLeft","false","revaluation","1","66","","",""
"html-keyboard-response","186","1465851","0.0-4.0-2.0-1.33","spark_pilot_norest","8365","8","20","Female","","","","","","","null","<div style=""font-size:60px;"">+</div>","null","fixation","","","","","","","","","67","","",""
"revaluation","187","1469854","0.0-4.0-2.0-0.34","spark_pilot_norest","8365","8","20","Female","","false","","","","","[335.5]","./assets/img/canyon/catch/2.jpg","[""ArrowUp""]","value training","canyon","-10","{""ArrowUp,ArrowLeft"":26,""ArrowUp,ArrowRight"":10,""ArrowDown,ArrowLeft"":5,""ArrowDown,ArrowRight"":17}","false","ArrowUp","true","revaluation","1","68","","",""
"html-keyboard-response","188","1470355","0.0-4.0-2.0-1.34","spark_pilot_norest","8365","8","20","Female","","","","","","","null","<div style=""font-size:60px;"">+</div>","null","fixation","","","","","","","","","69","","",""
"revaluation","189","1476359","0.0-4.0-2.0-0.35","spark_pilot_norest","8365","8","20","Female","","false","","","","","[482.1000000014901,350.79999999701977]","./assets/img/canyon/memory/37.jpg","[""ArrowUp"",""ArrowLeft""]","value training","canyon","26","{""ArrowUp,ArrowLeft"":26,""ArrowUp,ArrowRight"":10,""ArrowDown,ArrowLeft"":5,""ArrowDown,ArrowRight"":17}","true","ArrowUp,ArrowLeft","false","revaluation","1","70","","",""
"html-keyboard-response","190","1476861","0.0-4.0-2.0-1.35","spark_pilot_norest","8365","8","20","Female","","","","","","","null","<div style=""font-size:60px;"">+</div>","null","fixation","","","","","","","","","71","","",""
"revaluation","191","1482877","0.0-4.0-2.0-0.36","spark_pilot_norest","8365","8","20","Female","","false","","","","","[387.1000000014901,312.1000000014901]","./assets/img/canyon/memory/27.jpg","[""ArrowUp"",""ArrowLeft""]","value training","canyon","26","{""ArrowUp,ArrowLeft"":26,""ArrowUp,ArrowRight"":10,""ArrowDown,ArrowLeft"":5,""ArrowDown,ArrowRight"":17}","true","ArrowUp,ArrowLeft","false","revaluation","1","72","","",""
"html-keyboard-response","192","1483379","0.0-4.0-2.0-1.36","spark_pilot_norest","8365","8","20","Female","","","","","","","null","<div style=""font-size:60px;"">+</div>","null","fixation","","","","","","","","","73","","",""
"revaluation","193","1487382","0.0-4.0-2.0-0.37","spark_pilot_norest","8365","8","20","Female","","false","","","","","[457.1000000014901]","./assets/img/canyon/catch/3.jpg","[""spaceBar""]","value training","canyon","0","{""ArrowUp,ArrowLeft"":26,""ArrowUp,ArrowRight"":10,""ArrowDown,ArrowLeft"":5,""ArrowDown,ArrowRight"":17}","true","spaceBar","true","revaluation","1","74","","",""
"html-keyboard-response","194","1487884","0.0-4.0-2.0-1.37","spark_pilot_norest","8365","8","20","Female","","","","","","","null","<div style=""font-size:60px;"">+</div>","null","fixation","","","","","","","","","75","","",""
"revaluation","195","1493888","0.0-4.0-2.0-0.38","spark_pilot_norest","8365","8","20","Female","","false","","","","","[438.3999999985099,275.59999999403954]","./assets/img/canyon/memory/15.jpg","[""ArrowUp"",""ArrowLeft""]","value training","canyon","26","{""ArrowUp,ArrowLeft"":26,""ArrowUp,ArrowRight"":10,""ArrowDown,ArrowLeft"":5,""ArrowDown,ArrowRight"":17}","true","ArrowUp,ArrowLeft","false","revaluation","1","76","","",""
"html-keyboard-response","196","1494390","0.0-4.0-2.0-1.38","spark_pilot_norest","8365","8","20","Female","","","","","","","null","<div style=""font-size:60px;"">+</div>","null","fixation","","","","","","","","","77","","",""
"revaluation","197","1500394","0.0-4.0-2.0-0.39","spark_pilot_norest","8365","8","20","Female","","false","","","","","[443.3999999985099,217.19999999552965]","./assets/img/canyon/memory/5.jpg","[""ArrowUp"",""ArrowLeft""]","value training","canyon","26","{""ArrowUp,ArrowLeft"":26,""ArrowUp,ArrowRight"":10,""ArrowDown,ArrowLeft"":5,""ArrowDown,ArrowRight"":17}","true","ArrowUp,ArrowLeft","false","revaluation","1","78","","",""
"html-keyboard-response","198","1500895","0.0-4.0-2.0-1.39","spark_pilot_norest","8365","8","20","Female","","","","","","","null","<div style=""font-size:60px;"">+</div>","null","fixation","","","","","","","","","79","","",""
"revaluation","199","1506900","0.0-4.0-2.0-0.40","spark_pilot_norest","8365","8","20","Female","","false","","","","","[566.3000000044703,359]","./assets/img/canyon/memory/11.jpg","[""ArrowUp"",""ArrowLeft""]","value training","canyon","26","{""ArrowUp,ArrowLeft"":26,""ArrowUp,ArrowRight"":10,""ArrowDown,ArrowLeft"":5,""ArrowDown,ArrowRight"":17}","true","ArrowUp,ArrowLeft","false","revaluation","1","80","","",""
"html-keyboard-response","200","1507401","0.0-4.0-2.0-1.40","spark_pilot_norest","8365","8","20","Female","","","","","","","null","<div style=""font-size:60px;"">+</div>","null","fixation","","","","","","","","","81","","",""
"revaluation","201","1513406","0.0-4.0-2.0-0.41","spark_pilot_norest","8365","8","20","Female","","false","","","","","[392.20000000298023,938.1999999955297]","./assets/img/canyon/memory/3.jpg","[""ArrowUp"",""ArrowLeft""]","value training","canyon","26","{""ArrowUp,ArrowLeft"":26,""ArrowUp,ArrowRight"":10,""ArrowDown,ArrowLeft"":5,""ArrowDown,ArrowRight"":17}","true","ArrowUp,ArrowLeft","false","revaluation","1","82","","",""
"html-keyboard-response","202","1513907","0.0-4.0-2.0-1.41","spark_pilot_norest","8365","8","20","Female","","","","","","","null","<div style=""font-size:60px;"">+</div>","null","fixation","","","","","","","","","83","","",""
"revaluation","203","1519912","0.0-4.0-2.0-0.42","spark_pilot_norest","8365","8","20","Female","","false","","","","","[642.7000000029802,381.90000000596046]","./assets/img/canyon/memory/25.jpg","[""ArrowUp"",""ArrowLeft""]","value training","canyon","26","{""ArrowUp,ArrowLeft"":26,""ArrowUp,ArrowRight"":10,""ArrowDown,ArrowLeft"":5,""ArrowDown,ArrowRight"":17}","true","ArrowUp,ArrowLeft","false","revaluation","1","84","","",""
"html-keyboard-response","204","1520413","0.0-4.0-2.0-1.42","spark_pilot_norest","8365","8","20","Female","","","","","","","null","<div style=""font-size:60px;"">+</div>","null","fixation","","","","","","","","","85","","",""
"revaluation","205","1526419","0.0-4.0-2.0-0.43","spark_pilot_norest","8365","8","20","Female","","false","","","","","[430,797.7999999970198]","./assets/img/canyon/memory/2.jpg","[""ArrowUp"",""ArrowLeft""]","value training","canyon","26","{""ArrowUp,ArrowLeft"":26,""ArrowUp,ArrowRight"":10,""ArrowDown,ArrowLeft"":5,""ArrowDown,ArrowRight"":17}","true","ArrowUp,ArrowLeft","false","revaluation","1","86","","",""
"html-keyboard-response","206","1526920","0.0-4.0-2.0-1.43","spark_pilot_norest","8365","8","20","Female","","","","","","","null","<div style=""font-size:60px;"">+</div>","null","fixation","","","","","","","","","87","","",""
"revaluation","207","1532924","0.0-4.0-2.0-0.44","spark_pilot_norest","8365","8","20","Female","","false","","","","","[468.30000000447035,1787.7000000029802]","./assets/img/canyon/memory/41.jpg","[""ArrowUp"",""ArrowLeft""]","value training","canyon","26","{""ArrowUp,ArrowLeft"":26,""ArrowUp,ArrowRight"":10,""ArrowDown,ArrowLeft"":5,""ArrowDown,ArrowRight"":17}","true","ArrowUp,ArrowLeft","false","revaluation","1","88","","",""
"html-keyboard-response","208","1533427","0.0-4.0-2.0-1.44","spark_pilot_norest","8365","8","20","Female","","","","","","","null","<div style=""font-size:60px;"">+</div>","null","fixation","","","","","","","","","89","","",""
"revaluation","209","1539431","0.0-4.0-2.0-0.45","spark_pilot_norest","8365","8","20","Female","","false","","","","","[393.69999999552965,626.2000000029802]","./assets/img/canyon/memory/25.jpg","[""ArrowUp"",""ArrowLeft""]","value training","canyon","26","{""ArrowUp,ArrowLeft"":26,""ArrowUp,ArrowRight"":10,""ArrowDown,ArrowLeft"":5,""ArrowDown,ArrowRight"":17}","true","ArrowUp,ArrowLeft","false","revaluation","1","90","","",""
"html-keyboard-response","210","1539932","0.0-4.0-2.0-1.45","spark_pilot_norest","8365","8","20","Female","","","","","","","null","<div style=""font-size:60px;"">+</div>","null","fixation","","","","","","","","","91","","",""
"revaluation","211","1545937","0.0-4.0-2.0-0.46","spark_pilot_norest","8365","8","20","Female","","false","","","","","[541.8000000044703,394.1000000014901]","./assets/img/canyon/memory/40.jpg","[""ArrowUp"",""ArrowLeft""]","value training","canyon","26","{""ArrowUp,ArrowLeft"":26,""ArrowUp,ArrowRight"":10,""ArrowDown,ArrowLeft"":5,""ArrowDown,ArrowRight"":17}","true","ArrowUp,ArrowLeft","false","revaluation","1","92","","",""
"html-keyboard-response","212","1546438","0.0-4.0-2.0-1.46","spark_pilot_norest","8365","8","20","Female","","","","","","","null","<div style=""font-size:60px;"">+</div>","null","fixation","","","","","","","","","93","","",""
"revaluation","213","1552443","0.0-4.0-2.0-0.47","spark_pilot_norest","8365","8","20","Female","","false","","","","","[423.8999999985099,210.5]","./assets/img/canyon/memory/2.jpg","[""ArrowUp"",""ArrowLeft""]","value training","canyon","26","{""ArrowUp,ArrowLeft"":26,""ArrowUp,ArrowRight"":10,""ArrowDown,ArrowLeft"":5,""ArrowDown,ArrowRight"":17}","true","ArrowUp,ArrowLeft","false","revaluation","1","94","","",""
"html-keyboard-response","214","1552943","0.0-4.0-2.0-1.47","spark_pilot_norest","8365","8","20","Female","","","","","","","null","<div style=""font-size:60px;"">+</div>","null","fixation","","","","","","","","","95","","",""
"revaluation","215","1558947","0.0-4.0-2.0-0.48","spark_pilot_norest","8365","8","20","Female","","false","","","","","[475.69999999552965,286]","./assets/img/canyon/memory/28.jpg","[""ArrowUp"",""ArrowLeft""]","value training","canyon","26","{""ArrowUp,ArrowLeft"":26,""ArrowUp,ArrowRight"":10,""ArrowDown,ArrowLeft"":5,""ArrowDown,ArrowRight"":17}","true","ArrowUp,ArrowLeft","false","revaluation","1","96","","",""
"html-keyboard-response","216","1559448","0.0-4.0-2.0-1.48","spark_pilot_norest","8365","8","20","Female","","","","","","","null","<div style=""font-size:60px;"">+</div>","null","fixation","","","","","","","","","97","","",""
"revaluation","217","1565452","0.0-4.0-2.0-0.49","spark_pilot_norest","8365","8","20","Female","","false","","","","","[403.79999999701977,262.09999999403954]","./assets/img/canyon/memory/20.jpg","[""ArrowUp"",""ArrowLeft""]","value training","canyon","26","{""ArrowUp,ArrowLeft"":26,""ArrowUp,ArrowRight"":10,""ArrowDown,ArrowLeft"":5,""ArrowDown,ArrowRight"":17}","true","ArrowUp,ArrowLeft","false","revaluation","1","98","","",""
"html-keyboard-response","218","1565954","0.0-4.0-2.0-1.49","spark_pilot_norest","8365","8","20","Female","","","","","","","null","<div style=""font-size:60px;"">+</div>","null","fixation","","","","","","","","","99","","",""
"learning-instructions","219","1582534","0.0-4.0-3.0-0.0","spark_pilot_norest","8365","8","20","Female","","","","","","","3344.5","<p> Now, you will travel with a friend who will choose whether you go up or down first. </p>
            <p> On these turns, you will just see the animal that they found. You will still get to choose which chest to search for treasure.</p>","","instructions","","","","","","","","","","","",""
"revaluation","220","1586564","0.0-4.0-4.0-0.0","spark_pilot_norest","8365","8","20","Female","","false","","","","","[1404]","./assets/img/canyon/animals/lion.jpg","[""ArrowRight""]","revaluation","canyon","27","{""ArrowUp,ArrowLeft"":2,""ArrowUp,ArrowRight"":11,""ArrowDown,ArrowLeft"":8,""ArrowDown,ArrowRight"":27}","true","ArrowDown,ArrowRight","","revaluation","1","0","","",""
"html-keyboard-response","221","1587080","0.0-4.0-4.0-1.0","spark_pilot_norest","8365","8","20","Female","","","","","","","null","<div style=""font-size:60px;"">+</div>","null","fixation","","","","","","","","","1","","",""
"revaluation","222","1591096","0.0-4.0-4.0-0.1","spark_pilot_norest","8365","8","20","Female","","false","","","","","[574.3999999985099]","./assets/img/canyon/animals/giraffe.jpg","[""ArrowLeft""]","revaluation","canyon","2","{""ArrowUp,ArrowLeft"":2,""ArrowUp,ArrowRight"":11,""ArrowDown,ArrowLeft"":8,""ArrowDown,ArrowRight"":27}","false","ArrowUp,ArrowLeft","","revaluation","1","2","","",""
"html-keyboard-response","223","1591611","0.0-4.0-4.0-1.1","spark_pilot_norest","8365","8","20","Female","","","","","","","null","<div style=""font-size:60px;"">+</div>","null","fixation","","","","","","","","","3","","",""
"revaluation","224","1595643","0.0-4.0-4.0-0.2","spark_pilot_norest","8365","8","20","Female","","false","","","","","[931.5]","./assets/img/canyon/animals/lion.jpg","[""ArrowLeft""]","revaluation","canyon","8","{""ArrowUp,ArrowLeft"":2,""ArrowUp,ArrowRight"":11,""ArrowDown,ArrowLeft"":8,""ArrowDown,ArrowRight"":27}","false","ArrowDown,ArrowLeft","","revaluation","1","4","","",""
"html-keyboard-response","225","1596160","0.0-4.0-4.0-1.2","spark_pilot_norest","8365","8","20","Female","","","","","","","null","<div style=""font-size:60px;"">+</div>","null","fixation","","","","","","","","","5","","",""
"revaluation","226","1600175","0.0-4.0-4.0-0.3","spark_pilot_norest","8365","8","20","Female","","false","","","","","[380.1000000014901]","./assets/img/canyon/animals/giraffe.jpg","[""ArrowRight""]","revaluation","canyon","11","{""ArrowUp,ArrowLeft"":2,""ArrowUp,ArrowRight"":11,""ArrowDown,ArrowLeft"":8,""ArrowDown,ArrowRight"":27}","true","ArrowUp,ArrowRight","","revaluation","1","6","","",""
"html-keyboard-response","227","1600688","0.0-4.0-4.0-1.3","spark_pilot_norest","8365","8","20","Female","","","","","","","null","<div style=""font-size:60px;"">+</div>","null","fixation","","","","","","","","","7","","",""
"revaluation","228","1604704","0.0-4.0-4.0-0.4","spark_pilot_norest","8365","8","20","Female","","false","","","","","[422.1000000014901]","./assets/img/canyon/animals/lion.jpg","[""ArrowRight""]","revaluation","canyon","27","{""ArrowUp,ArrowLeft"":2,""ArrowUp,ArrowRight"":11,""ArrowDown,ArrowLeft"":8,""ArrowDown,ArrowRight"":27}","true","ArrowDown,ArrowRight","","revaluation","1","8","","",""
"html-keyboard-response","229","1605220","0.0-4.0-4.0-1.4","spark_pilot_norest","8365","8","20","Female","","","","","","","null","<div style=""font-size:60px;"">+</div>","null","fixation","","","","","","","","","9","","",""
"revaluation","230","1609251","0.0-4.0-4.0-0.5","spark_pilot_norest","8365","8","20","Female","","false","","","","","[336.70000000298023]","./assets/img/canyon/animals/giraffe.jpg","[""ArrowRight""]","revaluation","canyon","11","{""ArrowUp,ArrowLeft"":2,""ArrowUp,ArrowRight"":11,""ArrowDown,ArrowLeft"":8,""ArrowDown,ArrowRight"":27}","true","ArrowUp,ArrowRight","","revaluation","1","10","","",""
"html-keyboard-response","231","1609752","0.0-4.0-4.0-1.5","spark_pilot_norest","8365","8","20","Female","","","","","","","null","<div style=""font-size:60px;"">+</div>","null","fixation","","","","","","","","","11","","",""
"revaluation","232","1613755","0.0-4.0-4.0-0.6","spark_pilot_norest","8365","8","20","Female","","false","","","","","[448.8999999985099]","./assets/img/canyon/animals/giraffe.jpg","[""ArrowRight""]","revaluation","canyon","11","{""ArrowUp,ArrowLeft"":2,""ArrowUp,ArrowRight"":11,""ArrowDown,ArrowLeft"":8,""ArrowDown,ArrowRight"":27}","true","ArrowUp,ArrowRight","","revaluation","1","12","","",""
"html-keyboard-response","233","1614256","0.0-4.0-4.0-1.6","spark_pilot_norest","8365","8","20","Female","","","","","","","null","<div style=""font-size:60px;"">+</div>","null","fixation","","","","","","","","","13","","",""
"revaluation","234","1618259","0.0-4.0-4.0-0.7","spark_pilot_norest","8365","8","20","Female","","false","","","","","[442.3999999985099]","./assets/img/canyon/animals/lion.jpg","[""ArrowRight""]","revaluation","canyon","27","{""ArrowUp,ArrowLeft"":2,""ArrowUp,ArrowRight"":11,""ArrowDown,ArrowLeft"":8,""ArrowDown,ArrowRight"":27}","true","ArrowDown,ArrowRight","","revaluation","1","14","","",""
"html-keyboard-response","235","1618761","0.0-4.0-4.0-1.7","spark_pilot_norest","8365","8","20","Female","","","","","","","null","<div style=""font-size:60px;"">+</div>","null","fixation","","","","","","","","","15","","",""
"revaluation","236","1622766","0.0-4.0-4.0-0.8","spark_pilot_norest","8365","8","20","Female","","false","","","","","[320.30000000447035]","./assets/img/canyon/animals/giraffe.jpg","[""ArrowRight""]","revaluation","canyon","11","{""ArrowUp,ArrowLeft"":2,""ArrowUp,ArrowRight"":11,""ArrowDown,ArrowLeft"":8,""ArrowDown,ArrowRight"":27}","true","ArrowUp,ArrowRight","","revaluation","1","16","","",""
"html-keyboard-response","237","1623267","0.0-4.0-4.0-1.8","spark_pilot_norest","8365","8","20","Female","","","","","","","null","<div style=""font-size:60px;"">+</div>","null","fixation","","","","","","","","","17","","",""
"revaluation","238","1627270","0.0-4.0-4.0-0.9","spark_pilot_norest","8365","8","20","Female","","false","","","","","[257.70000000298023]","./assets/img/canyon/animals/giraffe.jpg","[""ArrowRight""]","revaluation","canyon","11","{""ArrowUp,ArrowLeft"":2,""ArrowUp,ArrowRight"":11,""ArrowDown,ArrowLeft"":8,""ArrowDown,ArrowRight"":27}","true","ArrowUp,ArrowRight","","revaluation","1","18","","",""
"html-keyboard-response","239","1627771","0.0-4.0-4.0-1.9","spark_pilot_norest","8365","8","20","Female","","","","","","","null","<div style=""font-size:60px;"">+</div>","null","fixation","","","","","","","","","19","","",""
"revaluation","240","1631775","0.0-4.0-4.0-0.10","spark_pilot_norest","8365","8","20","Female","","false","","","","","[244.5]","./assets/img/canyon/animals/lion.jpg","[""ArrowRight""]","revaluation","canyon","27","{""ArrowUp,ArrowLeft"":2,""ArrowUp,ArrowRight"":11,""ArrowDown,ArrowLeft"":8,""ArrowDown,ArrowRight"":27}","true","ArrowDown,ArrowRight","","revaluation","1","20","","",""
"html-keyboard-response","241","1632276","0.0-4.0-4.0-1.10","spark_pilot_norest","8365","8","20","Female","","","","","","","null","<div style=""font-size:60px;"">+</div>","null","fixation","","","","","","","","","21","","",""
"revaluation","242","1636291","0.0-4.0-4.0-0.11","spark_pilot_norest","8365","8","20","Female","","false","","","","","[336.5]","./assets/img/canyon/animals/lion.jpg","[""ArrowRight""]","revaluation","canyon","27","{""ArrowUp,ArrowLeft"":2,""ArrowUp,ArrowRight"":11,""ArrowDown,ArrowLeft"":8,""ArrowDown,ArrowRight"":27}","true","ArrowDown,ArrowRight","","revaluation","1","22","","",""
"html-keyboard-response","243","1636792","0.0-4.0-4.0-1.11","spark_pilot_norest","8365","8","20","Female","","","","","","","null","<div style=""font-size:60px;"">+</div>","null","fixation","","","","","","","","","23","","",""
"revaluation","244","1640796","0.0-4.0-4.0-0.12","spark_pilot_norest","8365","8","20","Female","","false","","","","","[233.60000000149012]","./assets/img/canyon/animals/giraffe.jpg","[""ArrowRight""]","revaluation","canyon","11","{""ArrowUp,ArrowLeft"":2,""ArrowUp,ArrowRight"":11,""ArrowDown,ArrowLeft"":8,""ArrowDown,ArrowRight"":27}","true","ArrowUp,ArrowRight","","revaluation","1","24","","",""
"html-keyboard-response","245","1641297","0.0-4.0-4.0-1.12","spark_pilot_norest","8365","8","20","Female","","","","","","","null","<div style=""font-size:60px;"">+</div>","null","fixation","","","","","","","","","25","","",""
"revaluation","246","1645301","0.0-4.0-4.0-0.13","spark_pilot_norest","8365","8","20","Female","","false","","","","","[185.10000000149012]","./assets/img/canyon/animals/giraffe.jpg","[""ArrowRight""]","revaluation","canyon","11","{""ArrowUp,ArrowLeft"":2,""ArrowUp,ArrowRight"":11,""ArrowDown,ArrowLeft"":8,""ArrowDown,ArrowRight"":27}","true","ArrowUp,ArrowRight","","revaluation","1","26","","",""
"html-keyboard-response","247","1645803","0.0-4.0-4.0-1.13","spark_pilot_norest","8365","8","20","Female","","","","","","","null","<div style=""font-size:60px;"">+</div>","null","fixation","","","","","","","","","27","","",""
"revaluation","248","1649806","0.0-4.0-4.0-0.14","spark_pilot_norest","8365","8","20","Female","","false","","","","","[99.79999999701977]","./assets/img/canyon/animals/lion.jpg","[""ArrowRight""]","revaluation","canyon","27","{""ArrowUp,ArrowLeft"":2,""ArrowUp,ArrowRight"":11,""ArrowDown,ArrowLeft"":8,""ArrowDown,ArrowRight"":27}","true","ArrowDown,ArrowRight","","revaluation","1","28","","",""
"html-keyboard-response","249","1650307","0.0-4.0-4.0-1.14","spark_pilot_norest","8365","8","20","Female","","","","","","","null","<div style=""font-size:60px;"">+</div>","null","fixation","","","","","","","","","29","","",""
"revaluation","250","1654310","0.0-4.0-4.0-0.15","spark_pilot_norest","8365","8","20","Female","","false","","","","","[247.60000000149012]","./assets/img/canyon/animals/lion.jpg","[""ArrowRight""]","revaluation","canyon","27","{""ArrowUp,ArrowLeft"":2,""ArrowUp,ArrowRight"":11,""ArrowDown,ArrowLeft"":8,""ArrowDown,ArrowRight"":27}","true","ArrowDown,ArrowRight","","revaluation","1","30","","",""
"html-keyboard-response","251","1654811","0.0-4.0-4.0-1.15","spark_pilot_norest","8365","8","20","Female","","","","","","","null","<div style=""font-size:60px;"">+</div>","null","fixation","","","","","","","","","31","","",""
"revaluation","252","1658815","0.0-4.0-4.0-0.16","spark_pilot_norest","8365","8","20","Female","","false","","","","","[282.20000000298023]","./assets/img/canyon/animals/giraffe.jpg","[""ArrowRight""]","revaluation","canyon","11","{""ArrowUp,ArrowLeft"":2,""ArrowUp,ArrowRight"":11,""ArrowDown,ArrowLeft"":8,""ArrowDown,ArrowRight"":27}","true","ArrowUp,ArrowRight","","revaluation","1","32","","",""
"html-keyboard-response","253","1659316","0.0-4.0-4.0-1.16","spark_pilot_norest","8365","8","20","Female","","","","","","","null","<div style=""font-size:60px;"">+</div>","null","fixation","","","","","","","","","33","","",""
"revaluation","254","1663320","0.0-4.0-4.0-0.17","spark_pilot_norest","8365","8","20","Female","","false","","","","","[178.29999999701977]","./assets/img/canyon/animals/lion.jpg","[""ArrowRight""]","revaluation","canyon","27","{""ArrowUp,ArrowLeft"":2,""ArrowUp,ArrowRight"":11,""ArrowDown,ArrowLeft"":8,""ArrowDown,ArrowRight"":27}","true","ArrowDown,ArrowRight","","revaluation","1","34","","",""
"html-keyboard-response","255","1663821","0.0-4.0-4.0-1.17","spark_pilot_norest","8365","8","20","Female","","","","","","","null","<div style=""font-size:60px;"">+</div>","null","fixation","","","","","","","","","35","","",""
"learning-instructions","256","1672282","0.0-4.0-5.0-0.0","spark_pilot_norest","8365","8","20","Female","","","","","","","null","<p> You have almost finished this part of the game! </p>
            <p> We are going to ask you to make a few more choices. </p>","","instructions","","","","","","","","","","","",""
"learning-instructions","257","1688249","0.0-4.0-5.0-0.1","spark_pilot_norest","8365","8","20","Female","","","","","","","null","<p> First, you need to decide whether to go up or down. When you see each picture, use the arrow keys to make your choice. </p>
            <p><b>You will not see which animal you found, but try to get to the one that will give you the most treasure.</b></p>","","instructions","","","","","","","","","","","",""
"html-keyboard-response","258","1689266","0.0-4.0-6.0-0.0","spark_pilot_norest","8365","8","20","Female","","","","","","","null","<div style=""font-size:100px;color:red;"">Starting in...</div>","null","","","","","","","","","","","","",""
"html-keyboard-response","259","1690282","0.0-4.0-6.0-1.0","spark_pilot_norest","8365","8","20","Female","","","","","","","null","<div style=""font-size:200px;color:red;"">3</div>","null","","","","","","","","","","","","",""
"html-keyboard-response","260","1691299","0.0-4.0-6.0-2.0","spark_pilot_norest","8365","8","20","Female","","","","","","","null","<div style=""font-size:200px;color:red;"">2</div>","null","","","","","","","","","","","","",""
"html-keyboard-response","261","1692313","0.0-4.0-6.0-3.0","spark_pilot_norest","8365","8","20","Female","","","","","","","null","<div style=""font-size:200px;color:red;"">1</div>","null","","","","","","","","","","","","",""
"revaluation","262","1692962","0.0-4.0-7.0-0.0","spark_pilot_norest","8365","8","20","Female","","false","","","","","[647.3999999985099]","./assets/img/canyon/test/2.jpg","[""ArrowUp""]","first stage test","canyon","0","{""ArrowUp,ArrowLeft"":2,""ArrowUp,ArrowRight"":11,""ArrowDown,ArrowLeft"":8,""ArrowDown,ArrowRight"":27}","false","ArrowUp","false","revaluation","1","","","",""
"html-keyboard-response","263","1693468","0.0-4.0-7.0-1.0","spark_pilot_norest","8365","8","20","Female","","","","","","","null","<div style=""font-size:60px;"">+</div>","null","fixation","","","","","","","","","","","",""
"revaluation","264","1694648","0.0-4.0-7.0-0.1","spark_pilot_norest","8365","8","20","Female","","false","","","","","[1177.7000000029802]","./assets/img/canyon/test/3.jpg","[""ArrowDown""]","first stage test","canyon","0","{""ArrowUp,ArrowLeft"":2,""ArrowUp,ArrowRight"":11,""ArrowDown,ArrowLeft"":8,""ArrowDown,ArrowRight"":27}","true","ArrowDown","false","revaluation","1","","","",""
"html-keyboard-response","265","1695165","0.0-4.0-7.0-1.1","spark_pilot_norest","8365","8","20","Female","","","","","","","null","<div style=""font-size:60px;"">+</div>","null","fixation","","","","","","","","","","","",""
"revaluation","266","1696492","0.0-4.0-7.0-0.2","spark_pilot_norest","8365","8","20","Female","","false","","","","","[1325.1999999955297]","./assets/img/canyon/test/1.jpg","[""ArrowDown""]","first stage test","canyon","0","{""ArrowUp,ArrowLeft"":2,""ArrowUp,ArrowRight"":11,""ArrowDown,ArrowLeft"":8,""ArrowDown,ArrowRight"":27}","true","ArrowDown","false","revaluation","1","","","",""
"html-keyboard-response","267","1697001","0.0-4.0-7.0-1.2","spark_pilot_norest","8365","8","20","Female","","","","","","","null","<div style=""font-size:60px;"">+</div>","null","fixation","","","","","","","","","","","",""
"revaluation","268","1698352","0.0-4.0-7.0-0.3","spark_pilot_norest","8365","8","20","Female","","false","","","","","[1349.4000000059605]","./assets/img/canyon/test/0.jpg","[""ArrowUp""]","first stage test","canyon","0","{""ArrowUp,ArrowLeft"":2,""ArrowUp,ArrowRight"":11,""ArrowDown,ArrowLeft"":8,""ArrowDown,ArrowRight"":27}","false","ArrowUp","false","revaluation","1","","","",""
"html-keyboard-response","269","1698860","0.0-4.0-7.0-1.3","spark_pilot_norest","8365","8","20","Female","","","","","","","null","<div style=""font-size:60px;"">+</div>","null","fixation","","","","","","","","","","","",""
"learning-instructions","270","1712220","0.0-4.0-8.0-0.0","spark_pilot_norest","8365","8","20","Female","","","","","","","null","<p> Now you will see the animals again and can search their chests for treasure. </p>
            <p> This time, you will not see how much treasure you earned, but you will earn more bonus money for making better choices. </p>","","instructions","","","","","","","","","","","",""
"html-keyboard-response","271","1713235","0.0-4.0-9.0-0.0","spark_pilot_norest","8365","8","20","Female","","","","","","","null","<div style=""font-size:100px;color:red;"">Starting in...</div>","null","","","","","","","","","","","","",""
"html-keyboard-response","272","1714253","0.0-4.0-9.0-1.0","spark_pilot_norest","8365","8","20","Female","","","","","","","null","<div style=""font-size:200px;color:red;"">3</div>","null","","","","","","","","","","","","",""
"html-keyboard-response","273","1715266","0.0-4.0-9.0-2.0","spark_pilot_norest","8365","8","20","Female","","","","","","","null","<div style=""font-size:200px;color:red;"">2</div>","null","","","","","","","","","","","","",""
"html-keyboard-response","274","1716281","0.0-4.0-9.0-3.0","spark_pilot_norest","8365","8","20","Female","","","","","","","null","<div style=""font-size:200px;color:red;"">1</div>","null","","","","","","","","","","","","",""
"revaluation","275","1717422","0.0-4.0-10.0-0.0","spark_pilot_norest","8365","8","20","Female","","false","","","","","[1138.8999999985099]","./assets/img/canyon/animals/giraffe.jpg","[""ArrowRight""]","second stage test","canyon","0","{""ArrowUp,ArrowLeft"":2,""ArrowUp,ArrowRight"":11,""ArrowDown,ArrowLeft"":8,""ArrowDown,ArrowRight"":27}","true","ArrowUp,ArrowRight","","revaluation","1","","","",""
"html-keyboard-response","276","1717924","0.0-4.0-10.0-1.0","spark_pilot_norest","8365","8","20","Female","","","","","","","null","<div style=""font-size:60px;"">+</div>","null","fixation","","","","","","","","","","","",""
"revaluation","277","1719420","0.0-4.0-10.0-0.1","spark_pilot_norest","8365","8","20","Female","","false","","","","","[1493.7000000029802]","./assets/img/canyon/animals/giraffe.jpg","[""ArrowRight""]","second stage test","canyon","0","{""ArrowUp,ArrowLeft"":2,""ArrowUp,ArrowRight"":11,""ArrowDown,ArrowLeft"":8,""ArrowDown,ArrowRight"":27}","true","ArrowUp,ArrowRight","","revaluation","1","","","",""
"html-keyboard-response","278","1719924","0.0-4.0-10.0-1.1","spark_pilot_norest","8365","8","20","Female","","","","","","","null","<div style=""font-size:60px;"">+</div>","null","fixation","","","","","","","","","","","",""
"revaluation","279","1721192","0.0-4.0-10.0-0.2","spark_pilot_norest","8365","8","20","Female","","false","","","","","[1266.1000000014901]","./assets/img/canyon/animals/giraffe.jpg","[""ArrowRight""]","second stage test","canyon","0","{""ArrowUp,ArrowLeft"":2,""ArrowUp,ArrowRight"":11,""ArrowDown,ArrowLeft"":8,""ArrowDown,ArrowRight"":27}","true","ArrowUp,ArrowRight","","revaluation","1","","","",""
"html-keyboard-response","280","1721703","0.0-4.0-10.0-1.2","spark_pilot_norest","8365","8","20","Female","","","","","","","null","<div style=""font-size:60px;"">+</div>","null","fixation","","","","","","","","","","","",""
"revaluation","281","1723537","0.0-4.0-10.0-0.3","spark_pilot_norest","8365","8","20","Female","","false","","","","","[1832.3000000044703]","./assets/img/canyon/animals/giraffe.jpg","[""ArrowRight""]","second stage test","canyon","0","{""ArrowUp,ArrowLeft"":2,""ArrowUp,ArrowRight"":11,""ArrowDown,ArrowLeft"":8,""ArrowDown,ArrowRight"":27}","true","ArrowUp,ArrowRight","","revaluation","1","","","",""
"html-keyboard-response","282","1724047","0.0-4.0-10.0-1.3","spark_pilot_norest","8365","8","20","Female","","","","","","","null","<div style=""font-size:60px;"">+</div>","null","fixation","","","","","","","","","","","",""
"revaluation","283","1726769","0.0-4.0-10.0-0.4","spark_pilot_norest","8365","8","20","Female","","false","","","","","[2719.7999999970198]","./assets/img/canyon/animals/lion.jpg","[""ArrowRight""]","second stage test","canyon","0","{""ArrowUp,ArrowLeft"":2,""ArrowUp,ArrowRight"":11,""ArrowDown,ArrowLeft"":8,""ArrowDown,ArrowRight"":27}","true","ArrowDown,ArrowRight","","revaluation","1","","","",""
"html-keyboard-response","284","1727281","0.0-4.0-10.0-1.4","spark_pilot_norest","8365","8","20","Female","","","","","","","null","<div style=""font-size:60px;"">+</div>","null","fixation","","","","","","","","","","","",""
"revaluation","285","1728426","0.0-4.0-10.0-0.5","spark_pilot_norest","8365","8","20","Female","","false","","","","","[1143]","./assets/img/canyon/animals/lion.jpg","[""ArrowRight""]","second stage test","canyon","0","{""ArrowUp,ArrowLeft"":2,""ArrowUp,ArrowRight"":11,""ArrowDown,ArrowLeft"":8,""ArrowDown,ArrowRight"":27}","true","ArrowDown,ArrowRight","","revaluation","1","","","",""
"html-keyboard-response","286","1728938","0.0-4.0-10.0-1.5","spark_pilot_norest","8365","8","20","Female","","","","","","","null","<div style=""font-size:60px;"">+</div>","null","fixation","","","","","","","","","","","",""
"revaluation","287","1730154","0.0-4.0-10.0-0.6","spark_pilot_norest","8365","8","20","Female","","false","","","","","[1213.7999999970198]","./assets/img/canyon/animals/lion.jpg","[""ArrowRight""]","second stage test","canyon","0","{""ArrowUp,ArrowLeft"":2,""ArrowUp,ArrowRight"":11,""ArrowDown,ArrowLeft"":8,""ArrowDown,ArrowRight"":27}","true","ArrowDown,ArrowRight","","revaluation","1","","","",""
"html-keyboard-response","288","1730663","0.0-4.0-10.0-1.6","spark_pilot_norest","8365","8","20","Female","","","","","","","null","<div style=""font-size:60px;"">+</div>","null","fixation","","","","","","","","","","","",""
"revaluation","289","1731410","0.0-4.0-10.0-0.7","spark_pilot_norest","8365","8","20","Female","","false","","","","","[744.8999999985099]","./assets/img/canyon/animals/lion.jpg","[""ArrowRight""]","second stage test","canyon","0","{""ArrowUp,ArrowLeft"":2,""ArrowUp,ArrowRight"":11,""ArrowDown,ArrowLeft"":8,""ArrowDown,ArrowRight"":27}","true","ArrowDown,ArrowRight","","revaluation","1","","","",""
"html-keyboard-response","290","1731923","0.0-4.0-10.0-1.7","spark_pilot_norest","8365","8","20","Female","","","","","","","null","<div style=""font-size:60px;"">+</div>","null","fixation","","","","","","","","","","","",""
"learning-instructions","291","1736845","0.0-4.0-0.1-0.2","spark_pilot_norest","8365","8","20","Female","","","","","","","2223.39999999851","<p> This time you are searching for treasure in the <b>ocean</b>.</p>","","instructions","","","","","","","","","","","",""
"learning-instructions","292","1756237","0.0-4.0-0.1-0.3","spark_pilot_norest","8365","8","20","Female","","","","","","","2138.3000000044703","<p><b>New</b> animals with <b>new</b> treasure chests live here. You need to explore to discover where the animal with the best treasure chest is.</p>
                    <p> Like before, once you figure out which animal has the chest with the most treasure, you should try to get to that animal and select that chest! </p>","","instructions","","","","","","","","","","","",""
"learning-instructions","293","1775625","0.0-4.0-1.1-0.1","spark_pilot_norest","8365","8","20","Female","","","","","","","4662","<p> Remember, when you see a picture of the place, use the up and down keys to <b>find an animal</b>.</p>
            <p> When you encounter an animal, you should use the left and right keys to <b>select a treasure chest</b>.</p>
            <p> Don't forget to look out for the robber! </p>","","instructions","","","","","","","","","","","",""
"revaluation","294","1781657","0.0-4.0-2.1-0.50","spark_pilot_norest","8365","8","20","Female","","false","","","","","[971.2999999970198,649.8000000044703]","./assets/img/ocean/memory/18.jpg","[""ArrowUp"",""ArrowRight""]","value training","ocean","10","{""ArrowUp,ArrowLeft"":23,""ArrowUp,ArrowRight"":10,""ArrowDown,ArrowLeft"":8,""ArrowDown,ArrowRight"":30}","false","ArrowUp,ArrowRight","false","original","2","0","","",""
"html-keyboard-response","295","1782162","0.0-4.0-2.1-1.50","spark_pilot_norest","8365","8","20","Female","","","","","","","null","<div style=""font-size:60px;"">+</div>","null","fixation","","","","","","","","","1","","",""
"revaluation","296","1788189","0.0-4.0-2.1-0.51","spark_pilot_norest","8365","8","20","Female","","false","","","","","[467.5,313.30000000447035]","./assets/img/ocean/memory/25.jpg","[""ArrowUp"",""ArrowLeft""]","value training","ocean","23","{""ArrowUp,ArrowLeft"":23,""ArrowUp,ArrowRight"":10,""ArrowDown,ArrowLeft"":8,""ArrowDown,ArrowRight"":30}","false","ArrowUp,ArrowLeft","false","original","2","2","","",""
"html-keyboard-response","297","1788711","0.0-4.0-2.1-1.51","spark_pilot_norest","8365","8","20","Female","","","","","","","null","<div style=""font-size:60px;"">+</div>","null","fixation","","","","","","","","","3","","",""
"revaluation","298","1794750","0.0-4.0-2.1-0.52","spark_pilot_norest","8365","8","20","Female","","false","","","","","[824.8000000044703,295.80000000447035]","./assets/img/ocean/memory/35.jpg","[""ArrowDown"",""ArrowLeft""]","value training","ocean","8","{""ArrowUp,ArrowLeft"":23,""ArrowUp,ArrowRight"":10,""ArrowDown,ArrowLeft"":8,""ArrowDown,ArrowRight"":30}","false","ArrowDown,ArrowLeft","false","original","2","4","","",""
"html-keyboard-response","299","1795260","0.0-4.0-2.1-1.52","spark_pilot_norest","8365","8","20","Female","","","","","","","null","<div style=""font-size:60px;"">+</div>","null","fixation","","","","","","","","","5","","",""
"revaluation","300","1801268","0.0-4.0-2.1-0.53","spark_pilot_norest","8365","8","20","Female","","false","","","","","[689.8000000044703,288.09999999403954]","./assets/img/ocean/memory/27.jpg","[""ArrowDown"",""ArrowRight""]","value training","ocean","30","{""ArrowUp,ArrowLeft"":23,""ArrowUp,ArrowRight"":10,""ArrowDown,ArrowLeft"":8,""ArrowDown,ArrowRight"":30}","true","ArrowDown,ArrowRight","false","original","2","6","","",""
"html-keyboard-response","301","1801770","0.0-4.0-2.1-1.53","spark_pilot_norest","8365","8","20","Female","","","","","","","null","<div style=""font-size:60px;"">+</div>","null","fixation","","","","","","","","","7","","",""
"revaluation","302","1807774","0.0-4.0-2.1-0.54","spark_pilot_norest","8365","8","20","Female","","false","","","","","[309.8999999985099,421.3999999985099]","./assets/img/ocean/memory/23.jpg","[""ArrowDown"",""ArrowRight""]","value training","ocean","30","{""ArrowUp,ArrowLeft"":23,""ArrowUp,ArrowRight"":10,""ArrowDown,ArrowLeft"":8,""ArrowDown,ArrowRight"":30}","true","ArrowDown,ArrowRight","false","original","2","8","","",""
"html-keyboard-response","303","1808275","0.0-4.0-2.1-1.54","spark_pilot_norest","8365","8","20","Female","","","","","","","null","<div style=""font-size:60px;"">+</div>","null","fixation","","","","","","","","","9","","",""
"revaluation","304","1814280","0.0-4.0-2.1-0.55","spark_pilot_norest","8365","8","20","Female","","false","","","","","[703.2999999970198,352.70000000298023]","./assets/img/ocean/memory/15.jpg","[""ArrowDown"",""ArrowRight""]","value training","ocean","30","{""ArrowUp,ArrowLeft"":23,""ArrowUp,ArrowRight"":10,""ArrowDown,ArrowLeft"":8,""ArrowDown,ArrowRight"":30}","true","ArrowDown,ArrowRight","false","original","2","10","","",""
"html-keyboard-response","305","1814782","0.0-4.0-2.1-1.55","spark_pilot_norest","8365","8","20","Female","","","","","","","null","<div style=""font-size:60px;"">+</div>","null","fixation","","","","","","","","","11","","",""
"revaluation","306","1820792","0.0-4.0-2.1-0.56","spark_pilot_norest","8365","8","20","Female","","false","","","","","[388,400.70000000298023]","./assets/img/ocean/memory/29.jpg","[""ArrowDown"",""ArrowRight""]","value training","ocean","30","{""ArrowUp,ArrowLeft"":23,""ArrowUp,ArrowRight"":10,""ArrowDown,ArrowLeft"":8,""ArrowDown,ArrowRight"":30}","true","ArrowDown,ArrowRight","false","original","2","12","","",""
"html-keyboard-response","307","1821300","0.0-4.0-2.1-1.56","spark_pilot_norest","8365","8","20","Female","","","","","","","null","<div style=""font-size:60px;"">+</div>","null","fixation","","","","","","","","","13","","",""
"revaluation","308","1827306","0.0-4.0-2.1-0.57","spark_pilot_norest","8365","8","20","Female","","false","","","","","[442,1101.1000000014901]","./assets/img/ocean/memory/0.jpg","[""ArrowDown"",""ArrowRight""]","value training","ocean","30","{""ArrowUp,ArrowLeft"":23,""ArrowUp,ArrowRight"":10,""ArrowDown,ArrowLeft"":8,""ArrowDown,ArrowRight"":30}","true","ArrowDown,ArrowRight","false","original","2","14","","",""
"html-keyboard-response","309","1827807","0.0-4.0-2.1-1.57","spark_pilot_norest","8365","8","20","Female","","","","","","","null","<div style=""font-size:60px;"">+</div>","null","fixation","","","","","","","","","15","","",""
"revaluation","310","1833813","0.0-4.0-2.1-0.58","spark_pilot_norest","8365","8","20","Female","","false","","","","","[849.6999999955297,851.6999999955297]","./assets/img/ocean/memory/1.jpg","[""ArrowDown"",""ArrowRight""]","value training","ocean","30","{""ArrowUp,ArrowLeft"":23,""ArrowUp,ArrowRight"":10,""ArrowDown,ArrowLeft"":8,""ArrowDown,ArrowRight"":30}","true","ArrowDown,ArrowRight","false","original","2","16","","",""
