"trial_type","trial_index","time_elapsed","internal_node_id","task_version","subject_id","assigned_condition","age","gender","success","timeout","failed_images","failed_audio","failed_video","browser_interaction","rt","stimulus","response","task_part","environment","score","rewardMap","correct","fullState","isCatch","condition","order","trial_num","key_press","ground_truth","bonus"
"pavlovia","0","1495","0.0-0.0","spark_pilot_norest","8170","1","10","Female","","","","","","","","","","","","","","","","","","","","","",""
"preload","1","12558","0.0-1.0","spark_pilot_norest","8170","1","10","Female","true","false","[]","[]","[]","[{""event"":""fullscreenenter"",""trial"":2,""time"":14405},{""event"":""blur"",""trial"":3,""time"":19776},{""event"":""focus"",""trial"":3,""time"":28885},{""event"":""blur"",""trial"":6,""time"":64459},{""event"":""focus"",""trial"":6,""time"":68611},{""event"":""blur"",""trial"":105,""time"":573426},{""event"":""focus"",""trial"":105,""time"":576580},{""event"":""blur"",""trial"":124,""time"":781939},{""event"":""focus"",""trial"":124,""time"":794069},{""event"":""blur"",""trial"":125,""time"":797327},{""event"":""focus"",""trial"":125,""time"":797519}]","","","","","","","","","","","","","","","",""
"fullscreen","2","15394","0.0-2.0","spark_pilot_norest","8170","1","10","Female","true","","","","","[{""event"":""fullscreenenter"",""trial"":2,""time"":14405},{""event"":""blur"",""trial"":3,""time"":19776},{""event"":""focus"",""trial"":3,""time"":28885},{""event"":""blur"",""trial"":6,""time"":64459},{""event"":""focus"",""trial"":6,""time"":68611},{""event"":""blur"",""trial"":105,""time"":573426},{""event"":""focus"",""trial"":105,""time"":576580},{""event"":""blur"",""trial"":124,""time"":781939},{""event"":""focus"",""trial"":124,""time"":794069},{""event"":""blur"",""trial"":125,""time"":797327},{""event"":""focus"",""trial"":125,""time"":797519}]","","","","","","","","","","","","","","","",""
"audio-button-response","3","28973","0.0-3.0-0.0-0.0","spark_pilot_norest","8170","1","10","Female","","","","","","","13408","./assets/audio/audiotest/turtle.mp3","4","audio_test","","","","","","","","","","","",""
"audio-button-response","4","43542","0.0-3.0-0.1-0.1","spark_pilot_norest","8170","1","10","Female","","","","","","","13557","./assets/audio/audiotest/turtle.mp3","2","audio_test","","","","","","","","","","","",""
"learning-instructions","5","52579","0.0-3.0-1.0-0.0","spark_pilot_norest","8170","1","10","Female","","","","","","[{""event"":""fullscreenenter"",""trial"":2,""time"":14405},{""event"":""blur"",""trial"":3,""time"":19776},{""event"":""focus"",""trial"":3,""time"":28885},{""event"":""blur"",""trial"":6,""time"":64459},{""event"":""focus"",""trial"":6,""time"":68611},{""event"":""blur"",""trial"":105,""time"":573426},{""event"":""focus"",""trial"":105,""time"":576580},{""event"":""blur"",""trial"":124,""time"":781939},{""event"":""focus"",""trial"":124,""time"":794069},{""event"":""blur"",""trial"":125,""time"":797327},{""event"":""focus"",""trial"":125,""time"":797519}]","2009.699999999255","<p> Welcome! Please remember to stay in fullscreen mode and don't click away from the experiment. </p>","","instructions","","","","","","","","","","","",""
"learning-instructions","6","70821","0.0-3.0-1.0-0.1","spark_pilot_norest","8170","1","10","Female","","","","","","","9805.299999998882","<p> Today you will be playing a game to earn treasure. </p>
            <p> At the end of the experiment, you will earn a bonus based on how much treasure you find. </p>
            <img src='./assets/img/instructions/treasure.jpg' class='instructions-image'>","","instructions","","","","","","","","","","","",""
"learning-instructions","7","81142","0.0-3.0-1.0-0.2","spark_pilot_norest","8170","1","10","Female","","","","","","","2025.5999999996275","<p> Animals have hidden treasure in treasure chests. </p>
            <p> You need to first find an animal and then choose which of their treasure chests to search. </p>
            <img src='./assets/img/space/animals/cat.jpg' class='instructions-image'>","","instructions","","","","","","","","","","","",""
"learning-instructions","8","100171","0.0-3.0-1.0-0.3","spark_pilot_norest","8170","1","10","Female","","","","","","","5833","<p> In each round, you will search for treasure in a different place. In the real game, there will be two rounds. </p>
            <p> You will begin with a separate, practice round where you will search for treasure in outer space. </p>
            <img src='./assets/img/space/0.jpg' class='instructions-image'>","","instructions","","","","","","","","","","","",""
"learning-instructions","9","112589","0.0-3.0-1.0-0.4","spark_pilot_norest","8170","1","10","Female","","","","","","","959.8000000007451","<p> On every turn, you will see a picture of the place that you are in, but the specific image may be different each time. </p>
            <p> For example, both of these images mean you are in outer space. </p>
            <img src='./assets/img/instructions/outerspace.jpg' class='instructions-image'>","","instructions","","","","","","","","","","","",""
"learning-instructions","10","123113","0.0-3.0-1.0-0.5","spark_pilot_norest","8170","1","10","Female","","","","","","","2661","<p> You need to decide which direction to travel in. </p>
            <p> You can choose between going <b>up or down</b> by using the arrow keys. </p>
            <img src='./assets/img/instructions/updown.jpg' class='instructions-image'>","","instructions","","","","","","","","","","","",""
"learning-instructions","11","134800","0.0-3.0-1.0-0.6","spark_pilot_norest","8170","1","10","Female","","","","","","","2838.7000000011176","<p> You will have <b>2 seconds</b> to make your choice. </p>
            <p> If you do not make a choice within 2 seconds, you will not find an animal or earn treasure. </p>
            <img src='./assets/img/instructions/2seconds.jpg' class='instructions-image'>","","instructions","","","","","","","","","","","",""
"learning-instructions","12","148895","0.0-3.0-1.0-0.7","spark_pilot_norest","8170","1","10","Female","","","","","","","7024.5999999996275","<p> Let’s try practicing that now! </p>
            <p> When you see a picture of the place you are in, press the <b>up</b> key to travel up. </p>
            <img src='./assets/img/instructions/pressUp.jpg' class='instructions-image'>","","instructions","","","","","","","","","","","",""
"revaluation","13","152934","0.0-3.0-2.0-0.0","spark_pilot_norest","8170","1","10","Female","","true","","","","","[]","./assets/img/space/0.jpg","[]","first stage practice","space","-5","null","null","","false","","","","","",""
"html-keyboard-response","14","153443","0.0-3.0-2.0-1.0","spark_pilot_norest","8170","1","10","Female","","","","","","","null","<div style=""font-size:60px;"">+</div>","null","fixation","","","","","","","","","","","",""
"revaluation","15","157468","0.0-3.0-2.0-0.1","spark_pilot_norest","8170","1","10","Female","","false","","","","","[379.30000000074506]","./assets/img/space/1.jpg","[""ArrowUp""]","first stage practice","space","0","null","null","ArrowUp","false","","","","","",""
"html-keyboard-response","16","157978","0.0-3.0-2.0-1.1","spark_pilot_norest","8170","1","10","Female","","","","","","","null","<div style=""font-size:60px;"">+</div>","null","fixation","","","","","","","","","","","",""
"revaluation","17","161994","0.0-3.0-2.0-0.2","spark_pilot_norest","8170","1","10","Female","","true","","","","","[]","./assets/img/space/2.jpg","[]","first stage practice","space","-5","null","null","","false","","","","","",""
"html-keyboard-response","18","162498","0.0-3.0-2.0-1.2","spark_pilot_norest","8170","1","10","Female","","","","","","","null","<div style=""font-size:60px;"">+</div>","null","fixation","","","","","","","","","","","",""
"learning-instructions","19","171020","0.0-3.0-3.0-0.0","spark_pilot_norest","8170","1","10","Female","","","","","","","3797.10000000149","<p> Great job! Now try pressing the <b>down</b> key to travel down. </p>
            <img src='./assets/img/instructions/pressDown.jpg' class='instructions-image'>","","instructions","","","","","","","","","","","",""
"revaluation","20","175035","0.0-3.0-4.0-0.0","spark_pilot_norest","8170","1","10","Female","","false","","","","","[565.3000000007451]","./assets/img/space/3.jpg","[""ArrowDown""]","first stage practice","space","0","null","null","ArrowDown","false","","","","","",""
"html-keyboard-response","21","175547","0.0-3.0-4.0-1.0","spark_pilot_norest","8170","1","10","Female","","","","","","","null","<div style=""font-size:60px;"">+</div>","null","fixation","","","","","","","","","","","",""
"revaluation","22","179571","0.0-3.0-4.0-0.1","spark_pilot_norest","8170","1","10","Female","","false","","","","","[50.09999999962747]","./assets/img/space/4.jpg","[""ArrowDown""]","first stage practice","space","0","null","null","ArrowDown","false","","","","","",""
"html-keyboard-response","23","180074","0.0-3.0-4.0-1.1","spark_pilot_norest","8170","1","10","Female","","","","","","","null","<div style=""font-size:60px;"">+</div>","null","fixation","","","","","","","","","","","",""
"revaluation","24","184099","0.0-3.0-4.0-0.2","spark_pilot_norest","8170","1","10","Female","","false","","","","","[506.2999999988824]","./assets/img/space/5.jpg","[""ArrowDown""]","first stage practice","space","0","null","null","ArrowDown","false","","","","","",""
"html-keyboard-response","25","184602","0.0-3.0-4.0-1.2","spark_pilot_norest","8170","1","10","Female","","","","","","","null","<div style=""font-size:60px;"">+</div>","null","fixation","","","","","","","","","","","",""
"learning-instructions","26","202304","0.0-3.0-5.0-0.0","spark_pilot_norest","8170","1","10","Female","","","","","","","7827.89999999851","<p> The animals don’t move, so the animal in the upper part of a place will stay in the upper part of a place, and the animal in the lower part of a place will stay in the lower part of a place. </p>","","instructions","","","","","","","","","","","",""
"learning-instructions","27","227019","0.0-3.0-5.0-0.1","spark_pilot_norest","8170","1","10","Female","","","","","","","15540.400000000373","<p> Each animal has two treasure chests for you to choose from. </p>
            <p> The amount of treasure in each chest can range from <b> 0 to 40 pieces.</b></p>","","instructions","","","","","","","","","","","",""
"learning-instructions","28","244299","0.0-3.0-5.0-0.2","spark_pilot_norest","8170","1","10","Female","","","","","","","6047.199999999255","<p> You should decide which chest to search for treasure by using the <b>left</b> and <b>right</b> arrow keys. </p>
            <p><b> Pay attention to which animal is on the screen, as the animals have different treasure chests. </b></p>
            <img src='./assets/img/instructions/leftright.jpg' class='instructions-image'>","","instructions","","","","","","","","","","","",""
"learning-instructions","29","253012","0.0-3.0-5.0-0.3","spark_pilot_norest","8170","1","10","Female","","","","","","","2309.9000000003725","<p> Let’s try practicing that now. </p>
            <p> When you see an animal, choose which chest to search for treasure. </p>
            <img src='./assets/img/instructions/chooseChest.jpg' class='instructions-image'>","","instructions","","","","","","","","","","","",""
"revaluation","30","257025","0.0-3.0-6.0-0.0","spark_pilot_norest","8170","1","10","Female","","false","","","","","[868]","./assets/img/space/animals/rabbit.jpg","[""ArrowRight""]","second stage practice","space","23","{""ArrowUp,ArrowLeft"":3,""ArrowUp,ArrowRight"":36,""ArrowDown,ArrowLeft"":15,""ArrowDown,ArrowRight"":23}","true","ArrowDown,ArrowRight","","","","","","",""
"html-keyboard-response","31","257530","0.0-3.0-6.0-1.0","spark_pilot_norest","8170","1","10","Female","","","","","","","null","<div style=""font-size:60px;"">+</div>","null","fixation","","","","","","","","","","","",""
"revaluation","32","261556","0.0-3.0-6.0-0.1","spark_pilot_norest","8170","1","10","Female","","false","","","","","[368.09999999962747]","./assets/img/space/animals/cat.jpg","[""ArrowLeft""]","second stage practice","space","3","{""ArrowUp,ArrowLeft"":3,""ArrowUp,ArrowRight"":36,""ArrowDown,ArrowLeft"":15,""ArrowDown,ArrowRight"":23}","false","ArrowUp,ArrowLeft","","","","","","",""
"html-keyboard-response","33","262067","0.0-3.0-6.0-1.1","spark_pilot_norest","8170","1","10","Female","","","","","","","null","<div style=""font-size:60px;"">+</div>","null","fixation","","","","","","","","","","","",""
"revaluation","34","266100","0.0-3.0-6.0-0.2","spark_pilot_norest","8170","1","10","Female","","false","","","","","[229.5]","./assets/img/space/animals/cat.jpg","[""ArrowRight""]","second stage practice","space","36","{""ArrowUp,ArrowLeft"":3,""ArrowUp,ArrowRight"":36,""ArrowDown,ArrowLeft"":15,""ArrowDown,ArrowRight"":23}","true","ArrowUp,ArrowRight","","","","","","",""
"html-keyboard-response","35","266610","0.0-3.0-6.0-1.2","spark_pilot_norest","8170","1","10","Female","","","","","","","null","<div style=""font-size:60px;"">+</div>","null","fixation","","","","","","","","","","","",""
"revaluation","36","270635","0.0-3.0-6.0-0.3","spark_pilot_norest","8170","1","10","Female","","false","","","","","[92.80000000074506]","./assets/img/space/animals/rabbit.jpg","[""ArrowRight""]","second stage practice","space","23","{""ArrowUp,ArrowLeft"":3,""ArrowUp,ArrowRight"":36,""ArrowDown,ArrowLeft"":15,""ArrowDown,ArrowRight"":23}","true","ArrowDown,ArrowRight","","","","","","",""
"html-keyboard-response","37","271139","0.0-3.0-6.0-1.3","spark_pilot_norest","8170","1","10","Female","","","","","","","null","<div style=""font-size:60px;"">+</div>","null","fixation","","","","","","","","","","","",""
"learning-instructions","38","288691","0.0-3.0-7.0-0.0","spark_pilot_norest","8170","1","10","Female","","","","","","","698.5999999996275","<p> Great job. Now let’s try putting it together. </p>
            <p> On each turn, you will first see a picture to remind you of the place you are in, and you need to choose whether to go up or down. </p>
            <p> Then you will see an animal and choose which of its chests to search for treasure. </p>","","instructions","","","","","","","","","","","",""
"learning-instructions","39","298306","0.0-3.0-7.0-0.1","spark_pilot_norest","8170","1","10","Female","","","","","","","1324.0999999996275","<p> When you choose whether to go up or down, try to go to the animal with the chest with the most treasure. </p>
            <p> Try practicing that now! </p>","","instructions","","","","","","","","","","","",""
"revaluation","40","304340","0.0-3.0-8.0-0.0","spark_pilot_norest","8170","1","10","Female","","false","","","","","[897.1999999992549,497.2999999988824]","./assets/img/space/6.jpg","[""ArrowUp"",""ArrowRight""]","full practice","space","36","{""ArrowUp,ArrowLeft"":3,""ArrowUp,ArrowRight"":36,""ArrowDown,ArrowLeft"":15,""ArrowDown,ArrowRight"":23}","true","ArrowUp,ArrowRight","false","","","","","",""
"html-keyboard-response","41","304842","0.0-3.0-8.0-1.0","spark_pilot_norest","8170","1","10","Female","","","","","","","null","<div style=""font-size:60px;"">+</div>","null","fixation","","","","","","","","","","","",""
"revaluation","42","310867","0.0-3.0-8.0-0.1","spark_pilot_norest","8170","1","10","Female","","false","","","","","[164.69999999925494,17.299999998882413]","./assets/img/space/7.jpg","[""ArrowDown"",""ArrowRight""]","full practice","space","23","{""ArrowUp,ArrowLeft"":3,""ArrowUp,ArrowRight"":36,""ArrowDown,ArrowLeft"":15,""ArrowDown,ArrowRight"":23}","false","ArrowDown,ArrowRight","false","","","","","",""
"html-keyboard-response","43","311370","0.0-3.0-8.0-1.1","spark_pilot_norest","8170","1","10","Female","","","","","","","null","<div style=""font-size:60px;"">+</div>","null","fixation","","","","","","","","","","","",""
"revaluation","44","317404","0.0-3.0-8.0-0.2","spark_pilot_norest","8170","1","10","Female","","false","","","","","[619.9000000003725,360.59999999962747]","./assets/img/space/8.jpg","[""ArrowDown"",""ArrowLeft""]","full practice","space","15","{""ArrowUp,ArrowLeft"":3,""ArrowUp,ArrowRight"":36,""ArrowDown,ArrowLeft"":15,""ArrowDown,ArrowRight"":23}","false","ArrowDown,ArrowLeft","false","","","","","",""
"html-keyboard-response","45","317914","0.0-3.0-8.0-1.2","spark_pilot_norest","8170","1","10","Female","","","","","","","null","<div style=""font-size:60px;"">+</div>","null","fixation","","","","","","","","","","","",""
"revaluation","46","323955","0.0-3.0-8.0-0.3","spark_pilot_norest","8170","1","10","Female","","false","","","","","[383,353.5]","./assets/img/space/9.jpg","[""ArrowUp"",""ArrowRight""]","full practice","space","36","{""ArrowUp,ArrowLeft"":3,""ArrowUp,ArrowRight"":36,""ArrowDown,ArrowLeft"":15,""ArrowDown,ArrowRight"":23}","true","ArrowUp,ArrowRight","false","","","","","",""
"html-keyboard-response","47","324458","0.0-3.0-8.0-1.3","spark_pilot_norest","8170","1","10","Female","","","","","","","null","<div style=""font-size:60px;"">+</div>","null","fixation","","","","","","","","","","","",""
"revaluation","48","330483","0.0-3.0-8.0-0.4","spark_pilot_norest","8170","1","10","Female","","false","","","","","[242.5,177.40000000037253]","./assets/img/space/10.jpg","[""ArrowUp"",""ArrowLeft""]","full practice","space","3","{""ArrowUp,ArrowLeft"":3,""ArrowUp,ArrowRight"":36,""ArrowDown,ArrowLeft"":15,""ArrowDown,ArrowRight"":23}","false","ArrowUp,ArrowLeft","false","","","","","",""
"html-keyboard-response","49","330987","0.0-3.0-8.0-1.4","spark_pilot_norest","8170","1","10","Female","","","","","","","null","<div style=""font-size:60px;"">+</div>","null","fixation","","","","","","","","","","","",""
"learning-instructions","50","343531","0.0-3.0-9.0-0.0","spark_pilot_norest","8170","1","10","Female","","","","","","","2168.300000000745","<p> One last thing: sometimes, you will see a robber. The robber can be anywhere in the picture. </p>
            <p> If you do not stop them, you will lose treasure. </p>
            <img src='./assets/img/instructions/robber.jpg' class='instructions-image'>","","instructions","","","","","","","","","","","",""
"learning-instructions","51","352079","0.0-3.0-9.0-0.1","spark_pilot_norest","8170","1","10","Female","","","","","","","1342.4000000003725","<p> If you see the robber, you should <b>press the space bar</b> rather than using the arrow keys. </p>
            <p> Try practicing that now! </p>","","instructions","","","","","","","","","","","",""
"revaluation","52","356099","0.0-3.0-10.0-0.0","spark_pilot_norest","8170","1","10","Female","","false","","","","","[752.4000000003725]","./assets/img/space/catch/0.jpg","[""spaceBar""]","catch practice","space","0","{""ArrowUp,ArrowLeft"":3,""ArrowUp,ArrowRight"":36,""ArrowDown,ArrowLeft"":15,""ArrowDown,ArrowRight"":23}","true","spaceBar","true","","","","","",""
"html-keyboard-response","53","356602","0.0-3.0-10.0-1.0","spark_pilot_norest","8170","1","10","Female","","","","","","","null","<div style=""font-size:60px;"">+</div>","null","fixation","","","","","","","","","","","",""
"revaluation","54","360619","0.0-3.0-10.0-0.1","spark_pilot_norest","8170","1","10","Female","","false","","","","","[456.19999999925494]","./assets/img/space/catch/1.jpg","[""spaceBar""]","catch practice","space","0","{""ArrowUp,ArrowLeft"":3,""ArrowUp,ArrowRight"":36,""ArrowDown,ArrowLeft"":15,""ArrowDown,ArrowRight"":23}","true","spaceBar","true","","","","","",""
"html-keyboard-response","55","361131","0.0-3.0-10.0-1.1","spark_pilot_norest","8170","1","10","Female","","","","","","","null","<div style=""font-size:60px;"">+</div>","null","fixation","","","","","","","","","","","",""
"revaluation","56","365156","0.0-3.0-10.0-0.2","spark_pilot_norest","8170","1","10","Female","","false","","","","","[666.8000000007451]","./assets/img/space/catch/2.jpg","[""spaceBar""]","catch practice","space","0","{""ArrowUp,ArrowLeft"":3,""ArrowUp,ArrowRight"":36,""ArrowDown,ArrowLeft"":15,""ArrowDown,ArrowRight"":23}","true","spaceBar","true","","","","","",""
"html-keyboard-response","57","365658","0.0-3.0-10.0-1.2","spark_pilot_norest","8170","1","10","Female","","","","","","","null","<div style=""font-size:60px;"">+</div>","null","fixation","","","","","","","","","","","",""
"learning-instructions","58","380842","0.0-3.0-11.0-0.0-0.0","spark_pilot_norest","8170","1","10","Female","","","","","","","9880.900000000373","<p> Now, you will practice a shortened version of the game to get a sense of how it all fits together. </p>","","instructions","","","","","","","","","","","",""
"learning-instructions","59","387370","0.0-3.0-11.0-0.0-0.1","spark_pilot_norest","8170","1","10","Female","","","","","","","3309.5","<p>This time you are searching for treasure in outer space.</p>","","instructions","","","","","","","","","","","",""
"learning-instructions","60","406414","0.0-3.0-11.0-1.0-0.0","spark_pilot_norest","8170","1","10","Female","","","","","","","4231.200000001118","<p> Remember, when you see a picture of the place, use the up and down keys to <b>find an animal</b>.</p>
            <p> When you encounter an animal, you should use the left and right keys to <b>select a treasure chest</b>.</p>
            <p> Don't forget to look out for the robber! </p>","","instructions","","","","","","","","","","","",""
"revaluation","61","412443","0.0-3.0-11.0-2.0-0.0","spark_pilot_norest","8170","1","10","Female","","false","","","","","[801.4000000003725,809.3000000007451]","./assets/img/space/11.jpg","[""ArrowUp"",""ArrowRight""]","practice block","space","36","{""ArrowUp,ArrowLeft"":3,""ArrowUp,ArrowRight"":36,""ArrowDown,ArrowLeft"":15,""ArrowDown,ArrowRight"":23}","true","ArrowUp,ArrowRight","false","","","","","",""
"html-keyboard-response","62","412947","0.0-3.0-11.0-2.0-1.0","spark_pilot_norest","8170","1","10","Female","","","","","","","null","<div style=""font-size:60px;"">+</div>","null","fixation","","","","","","","","","","","",""
"revaluation","63","418979","0.0-3.0-11.0-2.0-0.1","spark_pilot_norest","8170","1","10","Female","","false","","","","","[776.2000000011176,433.30000000074506]","./assets/img/space/12.jpg","[""ArrowDown"",""ArrowRight""]","practice block","space","23","{""ArrowUp,ArrowLeft"":3,""ArrowUp,ArrowRight"":36,""ArrowDown,ArrowLeft"":15,""ArrowDown,ArrowRight"":23}","false","ArrowDown,ArrowRight","false","","","","","",""
"html-keyboard-response","64","419482","0.0-3.0-11.0-2.0-1.1","spark_pilot_norest","8170","1","10","Female","","","","","","","null","<div style=""font-size:60px;"">+</div>","null","fixation","","","","","","","","","","","",""
"revaluation","65","425515","0.0-3.0-11.0-2.0-0.2","spark_pilot_norest","8170","1","10","Female","","false","","","","","[766.2999999988824,1056.699999999255]","./assets/img/space/13.jpg","[""ArrowUp"",""ArrowLeft""]","practice block","space","3","{""ArrowUp,ArrowLeft"":3,""ArrowUp,ArrowRight"":36,""ArrowDown,ArrowLeft"":15,""ArrowDown,ArrowRight"":23}","false","ArrowUp,ArrowLeft","false","","","","","",""
"html-keyboard-response","66","426019","0.0-3.0-11.0-2.0-1.2","spark_pilot_norest","8170","1","10","Female","","","","","","","null","<div style=""font-size:60px;"">+</div>","null","fixation","","","","","","","","","","","",""
"revaluation","67","432051","0.0-3.0-11.0-2.0-0.3","spark_pilot_norest","8170","1","10","Female","","false","","","","","[1217.4000000003725,769]","./assets/img/space/14.jpg","[""ArrowDown"",""ArrowRight""]","practice block","space","23","{""ArrowUp,ArrowLeft"":3,""ArrowUp,ArrowRight"":36,""ArrowDown,ArrowLeft"":15,""ArrowDown,ArrowRight"":23}","false","ArrowDown,ArrowRight","false","","","","","",""
"html-keyboard-response","68","432555","0.0-3.0-11.0-2.0-1.3","spark_pilot_norest","8170","1","10","Female","","","","","","","null","<div style=""font-size:60px;"">+</div>","null","fixation","","","","","","","","","","","",""
"revaluation","69","438595","0.0-3.0-11.0-2.0-0.4","spark_pilot_norest","8170","1","10","Female","","false","","","","","[1893.199999999255,609.5]","./assets/img/space/11.jpg","[""ArrowDown"",""ArrowRight""]","practice block","space","23","{""ArrowUp,ArrowLeft"":3,""ArrowUp,ArrowRight"":36,""ArrowDown,ArrowLeft"":15,""ArrowDown,ArrowRight"":23}","false","ArrowDown,ArrowRight","false","","","","","",""
"html-keyboard-response","70","439106","0.0-3.0-11.0-2.0-1.4","spark_pilot_norest","8170","1","10","Female","","","","","","","null","<div style=""font-size:60px;"">+</div>","null","fixation","","","","","","","","","","","",""
"revaluation","71","445148","0.0-3.0-11.0-2.0-0.5","spark_pilot_norest","8170","1","10","Female","","false","","","","","[1615.4000000003725,625.0999999996275]","./assets/img/space/12.jpg","[""ArrowDown"",""ArrowRight""]","practice block","space","23","{""ArrowUp,ArrowLeft"":3,""ArrowUp,ArrowRight"":36,""ArrowDown,ArrowLeft"":15,""ArrowDown,ArrowRight"":23}","false","ArrowDown,ArrowRight","false","","","","","",""
"html-keyboard-response","72","445659","0.0-3.0-11.0-2.0-1.5","spark_pilot_norest","8170","1","10","Female","","","","","","","null","<div style=""font-size:60px;"">+</div>","null","fixation","","","","","","","","","","","",""
"revaluation","73","451692","0.0-3.0-11.0-2.0-0.6","spark_pilot_norest","8170","1","10","Female","","false","","","","","[602.4000000003725,369.59999999962747]","./assets/img/space/13.jpg","[""ArrowDown"",""ArrowLeft""]","practice block","space","15","{""ArrowUp,ArrowLeft"":3,""ArrowUp,ArrowRight"":36,""ArrowDown,ArrowLeft"":15,""ArrowDown,ArrowRight"":23}","false","ArrowDown,ArrowLeft","false","","","","","",""
"html-keyboard-response","74","452202","0.0-3.0-11.0-2.0-1.6","spark_pilot_norest","8170","1","10","Female","","","","","","","null","<div style=""font-size:60px;"">+</div>","null","fixation","","","","","","","","","","","",""
"revaluation","75","458244","0.0-3.0-11.0-2.0-0.7","spark_pilot_norest","8170","1","10","Female","","false","","","","","[1262,337.90000000037253]","./assets/img/space/14.jpg","[""ArrowDown"",""ArrowRight""]","practice block","space","23","{""ArrowUp,ArrowLeft"":3,""ArrowUp,ArrowRight"":36,""ArrowDown,ArrowLeft"":15,""ArrowDown,ArrowRight"":23}","false","ArrowDown,ArrowRight","false","","","","","",""
"html-keyboard-response","76","458755","0.0-3.0-11.0-2.0-1.7","spark_pilot_norest","8170","1","10","Female","","","","","","","null","<div style=""font-size:60px;"">+</div>","null","fixation","","","","","","","","","","","",""
"revaluation","77","462780","0.0-3.0-11.0-2.0-0.8","spark_pilot_norest","8170","1","10","Female","","false","","","","","[710.6999999992549]","./assets/img/space/catch/3.jpg","[""spaceBar""]","practice block","space","0","{""ArrowUp,ArrowLeft"":3,""ArrowUp,ArrowRight"":36,""ArrowDown,ArrowLeft"":15,""ArrowDown,ArrowRight"":23}","true","spaceBar","true","","","","","",""
"html-keyboard-response","78","463290","0.0-3.0-11.0-2.0-1.8","spark_pilot_norest","8170","1","10","Female","","","","","","","null","<div style=""font-size:60px;"">+</div>","null","fixation","","","","","","","","","","","",""
"learning-instructions","79","496978","0.0-3.0-11.0-3.0-0.0","spark_pilot_norest","8170","1","10","Female","","","","","","","20607.400000000373","<p> Now, you will travel with a friend who will choose whether you go up or down first. </p>
            <p> On these turns, you will just see the animal that they found. You will still get to choose which chest to search for treasure.</p>","","instructions","","","","","","","","","","","",""
"revaluation","80","500987","0.0-3.0-11.0-4.0-0.0","spark_pilot_norest","8170","1","10","Female","","false","","","","","[1288]","./assets/img/space/animals/rabbit.jpg","[""ArrowRight""]","practice block","space","23","{""ArrowUp,ArrowLeft"":3,""ArrowUp,ArrowRight"":36,""ArrowDown,ArrowLeft"":15,""ArrowDown,ArrowRight"":23}","true","ArrowDown,ArrowRight","","","","","","",""
"html-keyboard-response","81","501490","0.0-3.0-11.0-4.0-1.0","spark_pilot_norest","8170","1","10","Female","","","","","","","null","<div style=""font-size:60px;"">+</div>","null","fixation","","","","","","","","","","","",""
"revaluation","82","505523","0.0-3.0-11.0-4.0-0.1","spark_pilot_norest","8170","1","10","Female","","false","","","","","[551.2999999988824]","./assets/img/space/animals/cat.jpg","[""ArrowLeft""]","practice block","space","3","{""ArrowUp,ArrowLeft"":3,""ArrowUp,ArrowRight"":36,""ArrowDown,ArrowLeft"":15,""ArrowDown,ArrowRight"":23}","false","ArrowUp,ArrowLeft","","","","","","",""
"html-keyboard-response","83","506026","0.0-3.0-11.0-4.0-1.1","spark_pilot_norest","8170","1","10","Female","","","","","","","null","<div style=""font-size:60px;"">+</div>","null","fixation","","","","","","","","","","","",""
"revaluation","84","510051","0.0-3.0-11.0-4.0-0.2","spark_pilot_norest","8170","1","10","Female","","false","","","","","[778.1999999992549]","./assets/img/space/animals/cat.jpg","[""ArrowLeft""]","practice block","space","3","{""ArrowUp,ArrowLeft"":3,""ArrowUp,ArrowRight"":36,""ArrowDown,ArrowLeft"":15,""ArrowDown,ArrowRight"":23}","false","ArrowUp,ArrowLeft","","","","","","",""
"html-keyboard-response","85","510554","0.0-3.0-11.0-4.0-1.2","spark_pilot_norest","8170","1","10","Female","","","","","","","null","<div style=""font-size:60px;"">+</div>","null","fixation","","","","","","","","","","","",""
"revaluation","86","514570","0.0-3.0-11.0-4.0-0.3","spark_pilot_norest","8170","1","10","Female","","false","","","","","[415.09999999962747]","./assets/img/space/animals/rabbit.jpg","[""ArrowRight""]","practice block","space","23","{""ArrowUp,ArrowLeft"":3,""ArrowUp,ArrowRight"":36,""ArrowDown,ArrowLeft"":15,""ArrowDown,ArrowRight"":23}","true","ArrowDown,ArrowRight","","","","","","",""
"html-keyboard-response","87","515074","0.0-3.0-11.0-4.0-1.3","spark_pilot_norest","8170","1","10","Female","","","","","","","null","<div style=""font-size:60px;"">+</div>","null","fixation","","","","","","","","","","","",""
"learning-instructions","88","523235","0.0-3.0-11.0-5.0-0.0","spark_pilot_norest","8170","1","10","Female","","","","","","","null","<p> You have almost finished this part of the game! </p>
            <p> We are going to ask you to make a few more choices. </p>","","instructions","","","","","","","","","","","",""
"learning-instructions","89","539371","0.0-3.0-11.0-5.0-0.1","spark_pilot_norest","8170","1","10","Female","","","","","","","null","<p> First, you need to decide whether to go up or down. When you see each picture, use the arrow keys to make your choice. </p>
            <p><b>You will not see which animal you found, but try to get to the one that will give you the most treasure.</b></p>","","instructions","","","","","","","","","","","",""
"html-keyboard-response","90","540378","0.0-3.0-11.0-6.0-0.0","spark_pilot_norest","8170","1","10","Female","","","","","","","null","<div style=""font-size:100px;color:red;"">Starting in...</div>","null","","","","","","","","","","","","",""
"html-keyboard-response","91","541386","0.0-3.0-11.0-6.0-1.0","spark_pilot_norest","8170","1","10","Female","","","","","","","null","<div style=""font-size:200px;color:red;"">3</div>","null","","","","","","","","","","","","",""
"html-keyboard-response","92","542394","0.0-3.0-11.0-6.0-2.0","spark_pilot_norest","8170","1","10","Female","","","","","","","null","<div style=""font-size:200px;color:red;"">2</div>","null","","","","","","","","","","","","",""
"html-keyboard-response","93","543402","0.0-3.0-11.0-6.0-3.0","spark_pilot_norest","8170","1","10","Female","","","","","","","null","<div style=""font-size:200px;color:red;"">1</div>","null","","","","","","","","","","","","",""
"revaluation","94","544211","0.0-3.0-11.0-7.0","spark_pilot_norest","8170","1","10","Female","","false","","","","","[805.9000000003725]","./assets/img/space/15.jpg","[""ArrowUp""]","practice block","space","0","{""ArrowUp,ArrowLeft"":3,""ArrowUp,ArrowRight"":36,""ArrowDown,ArrowLeft"":15,""ArrowDown,ArrowRight"":23}","true","ArrowUp","false","","","","","",""
"html-keyboard-response","95","544714","0.0-3.0-11.0-8.0","spark_pilot_norest","8170","1","10","Female","","","","","","","null","<div style=""font-size:60px;"">+</div>","null","fixation","","","","","","","","","","","",""
"learning-instructions","96","558154","0.0-3.0-11.0-9.0-0.0","spark_pilot_norest","8170","1","10","Female","","","","","","","null","<p> Now you will see the animals again and can search their chests for treasure. </p>
            <p> This time, you will not see how much treasure you earned, but you will earn more bonus money for making better choices. </p>","","instructions","","","","","","","","","","","",""
"html-keyboard-response","97","559163","0.0-3.0-11.0-10.0-0.0","spark_pilot_norest","8170","1","10","Female","","","","","","","null","<div style=""font-size:100px;color:red;"">Starting in...</div>","null","","","","","","","","","","","","",""
"html-keyboard-response","98","560171","0.0-3.0-11.0-10.0-1.0","spark_pilot_norest","8170","1","10","Female","","","","","","","null","<div style=""font-size:200px;color:red;"">3</div>","null","","","","","","","","","","","","",""
"html-keyboard-response","99","561178","0.0-3.0-11.0-10.0-2.0","spark_pilot_norest","8170","1","10","Female","","","","","","","null","<div style=""font-size:200px;color:red;"">2</div>","null","","","","","","","","","","","","",""
"html-keyboard-response","100","562187","0.0-3.0-11.0-10.0-3.0","spark_pilot_norest","8170","1","10","Female","","","","","","","null","<div style=""font-size:200px;color:red;"">1</div>","null","","","","","","","","","","","","",""
"revaluation","101","563032","0.0-3.0-11.0-11.0-0.0","spark_pilot_norest","8170","1","10","Female","","false","","","","","[831.5]","./assets/img/space/animals/cat.jpg","[""ArrowRight""]","practice block","space","0","{""ArrowUp,ArrowLeft"":3,""ArrowUp,ArrowRight"":36,""ArrowDown,ArrowLeft"":15,""ArrowDown,ArrowRight"":23}","true","ArrowUp,ArrowRight","","","","","","",""
"html-keyboard-response","102","563538","0.0-3.0-11.0-11.0-1.0","spark_pilot_norest","8170","1","10","Female","","","","","","","null","<div style=""font-size:60px;"">+</div>","null","fixation","","","","","","","","","","","",""
"revaluation","103","563717","0.0-3.0-11.0-11.0-0.1","spark_pilot_norest","8170","1","10","Female","","false","","","","","[172.5]","./assets/img/space/animals/rabbit.jpg","[""ArrowRight""]","practice block","space","0","{""ArrowUp,ArrowLeft"":3,""ArrowUp,ArrowRight"":36,""ArrowDown,ArrowLeft"":15,""ArrowDown,ArrowRight"":23}","true","ArrowDown,ArrowRight","","","","","","",""
"html-keyboard-response","104","564226","0.0-3.0-11.0-11.0-1.1","spark_pilot_norest","8170","1","10","Female","","","","","","[{""event"":""fullscreenenter"",""trial"":2,""time"":14405},{""event"":""blur"",""trial"":3,""time"":19776},{""event"":""focus"",""trial"":3,""time"":28885},{""event"":""blur"",""trial"":6,""time"":64459},{""event"":""focus"",""trial"":6,""time"":68611},{""event"":""blur"",""trial"":105,""time"":573426},{""event"":""focus"",""trial"":105,""time"":576580},{""event"":""blur"",""trial"":124,""time"":781939},{""event"":""focus"",""trial"":124,""time"":794069},{""event"":""blur"",""trial"":125,""time"":797327},{""event"":""focus"",""trial"":125,""time"":797519}]","null","<div style=""font-size:60px;"">+</div>","null","fixation","","","","","","","","","","","",""
"learning-instructions","105","578069","0.0-3.0-12.0-0.0","spark_pilot_norest","8170","1","10","Female","","","","","","","9231.5","<p> Before you start, we're going to ask you a few questions about how the game works. </p>","","instructions","","","","","","","","","","","",""
"comp-q","106","586418","0.0-3.0-13.0-0.0-0.0","spark_pilot_norest","8170","1","10","Female","","","","","","","2698.0999999996275","<p> <b> True or False? </b> </p>
            <p> There can be 50 pieces of treasure in a given animal's chest. </p>","0","comp_question","","","","false","","","","","","","",""
"comp-q","107","594276","0.0-3.0-13.0-0.0-1.0","spark_pilot_norest","8170","1","10","Female","","","","","","","1236.5","<p> <b>Incorrect.</b> The amount of treasure in each chest can range from 0 to 40 pieces. </p>","0","comp_answer","","","","","","","","","","","",""
"comp-q","108","603023","0.0-3.0-13.0-0.1-0.1","spark_pilot_norest","8170","1","10","Female","","","","","","","3177.7999999988824","<p> <b> True or False? </b> </p>
            <p> There can be 50 pieces of treasure in a given animal's chest. </p>","1","comp_question","","","","true","","","","","","","",""
"comp-q","109","613703","0.0-3.0-13.0-0.1-1.1","spark_pilot_norest","8170","1","10","Female","","","","","","","3896.2000000011176","<p> <b> That's right! </b> The amount of treasure in each chest can range from 0 to 40 pieces. </p>","0","comp_answer","","","","","","","","","","","",""
"comp-q","110","621478","0.0-3.0-13.0-0.2-0.2","spark_pilot_norest","8170","1","10","Female","","","","","","","587.9000000003725","<p> <b> True or False? </b> </p><p> In this game, all animals have the same amount of treasure in their left and right chests. </p>","1","comp_question","","","","true","","","","","","","",""
"comp-q","111","629585","0.0-3.0-13.0-0.2-1.2","spark_pilot_norest","8170","1","10","Female","","","","","","","2838.699999999255","<p> <b> That's right! </b> Animals have different amounts of treasure in their treasure chests. </p>","0","comp_answer","","","","","","","","","","","",""
"comp-q","112","637077","0.0-3.0-13.0-0.3-0.3","spark_pilot_norest","8170","1","10","Female","","","","","","","1563.0999999996275","<p> <b> True or False? </b> </p><p> The same animal will always be there if you go up in the same place. </p>","1","comp_question","","","","false","","","","","","","",""
"comp-q","113","647878","0.0-3.0-13.0-0.3-1.3","spark_pilot_norest","8170","1","10","Female","","","","","","","4460.4000000003725","<p> <b>Incorrect.</b> One animal lives in the upper part and one lives in the lower part of every place. </p>","0","comp_answer","","","","","","","","","","","",""
"comp-q","114","655476","0.0-3.0-13.0-0.4-0.4","spark_pilot_norest","8170","1","10","Female","","","","","","","1775.7999999988824","<p> <b> True or False? </b> </p><p> The same animal will always be there if you go up in the same place. </p>","0","comp_question","","","","true","","","","","","","",""
"comp-q","115","664868","0.0-3.0-13.0-0.4-1.4","spark_pilot_norest","8170","1","10","Female","","","","","","","2825.7999999988824","<p> <b> That's right! </b> One animal lives in the upper part and one lives in the lower part of every place. </p>","0","comp_answer","","","","","","","","","","","",""
"comp-q","116","674783","0.0-3.0-13.0-0.5-0.5","spark_pilot_norest","8170","1","10","Female","","","","","","","4365.0999999996275","<p> <b> True or False? </b> </p><p> If you see a different picture, it means you are in a new place. </p>","0","comp_question","","","","false","","","","","","","",""
"comp-q","117","694227","0.0-3.0-13.0-0.5-1.5","spark_pilot_norest","8170","1","10","Female","","","","","","","8310.800000000745","<p> <b>Incorrect.</b> Lots of different images may show the same place. For example,  you may see three different images that all remind you that you are in outer space. </p>","0","comp_answer","","","","","","","","","","","",""
"comp-q","118","701745","0.0-3.0-13.0-0.6-0.6","spark_pilot_norest","8170","1","10","Female","","","","","","","2016.800000000745","<p> <b> True or False? </b> </p><p> If you see a different picture, it means you are in a new place. </p>","0","comp_question","","","","false","","","","","","","",""
"comp-q","119","715023","0.0-3.0-13.0-0.6-1.6","spark_pilot_norest","8170","1","10","Female","","","","","","","2218.5","<p> <b>Incorrect.</b> Lots of different images may show the same place. For example,  you may see three different images that all remind you that you are in outer space. </p>","0","comp_answer","","","","","","","","","","","",""
"comp-q","120","724259","0.0-3.0-13.0-0.7-0.7","spark_pilot_norest","8170","1","10","Female","","","","","","","3731.0999999996275","<p> <b> True or False? </b> </p><p> If you see a different picture, it means you are in a new place. </p>","1","comp_question","","","","true","","","","","","","",""
"comp-q","121","743736","0.0-3.0-13.0-0.7-1.7","spark_pilot_norest","8170","1","10","Female","","","","","","","8210.700000001118","<p> <b> That's right! </b> Lots of different images may show the same place. For example,  you may see three different images that all remind you that you are in outer space. </p>","0","comp_answer","","","","","","","","","","","",""
"learning-instructions","122","760889","0.0-3.0-14.0-0.0","spark_pilot_norest","8170","1","10","Female","","","","","","","7263.699999999255","<p> Good job. Remember to do your best because the amount of treasure you earn will be converted into bonus money. </p>
            <p> It’s time to start the real game! </p>","","instructions","","","","","","","","","","","",""
"learning-instructions","123","770153","0.0-4.0-0.0-0.0","spark_pilot_norest","8170","1","10","Female","","","","","","[{""event"":""fullscreenenter"",""trial"":2,""time"":14405},{""event"":""blur"",""trial"":3,""time"":19776},{""event"":""focus"",""trial"":3,""time"":28885},{""event"":""blur"",""trial"":6,""time"":64459},{""event"":""focus"",""trial"":6,""time"":68611},{""event"":""blur"",""trial"":105,""time"":573426},{""event"":""focus"",""trial"":105,""time"":576580},{""event"":""blur"",""trial"":124,""time"":781939},{""event"":""focus"",""trial"":124,""time"":794069},{""event"":""blur"",""trial"":125,""time"":797327},{""event"":""focus"",""trial"":125,""time"":797519}]","6531.699999999255","<p> This time you are searching for treasure in the <b>ocean</b>.</p>","","instructions","","","","","","","","","","","",""
"learning-instructions","124","794200","0.0-4.0-0.0-0.1","spark_pilot_norest","8170","1","10","Female","","","","","","[{""event"":""fullscreenenter"",""trial"":2,""time"":14405},{""event"":""blur"",""trial"":3,""time"":19776},{""event"":""focus"",""trial"":3,""time"":28885},{""event"":""blur"",""trial"":6,""time"":64459},{""event"":""focus"",""trial"":6,""time"":68611},{""event"":""blur"",""trial"":105,""time"":573426},{""event"":""focus"",""trial"":105,""time"":576580},{""event"":""blur"",""trial"":124,""time"":781939},{""event"":""focus"",""trial"":124,""time"":794069},{""event"":""blur"",""trial"":125,""time"":797327},{""event"":""focus"",""trial"":125,""time"":797519}]","6684.9000000003725","<p><b>New</b> animals with <b>new</b> treasure chests live here. You need to explore to discover where the animal with the best treasure chest is.</p>
                    <p> Like before, once you figure out which animal has the chest with the most treasure, you should try to get to that animal and select that chest! </p>","","instructions","","","","","","","","","","","",""
"learning-instructions","125","812952","0.0-4.0-1.0-0.0","spark_pilot_norest","8170","1","10","Female","","","","","","","4018.199999999255","<p> Remember, when you see a picture of the place, use the up and down keys to <b>find an animal</b>.</p>
            <p> When you encounter an animal, you should use the left and right keys to <b>select a treasure chest</b>.</p>
            <p> Don't forget to look out for the robber! </p>","","instructions","","","","","","","","","","","",""
"revaluation","126","818979","0.0-4.0-2.0-0.0","spark_pilot_norest","8170","1","10","Female","","false","","","","","[1095.7000000011176,872.9000000003725]","./assets/img/ocean/memory/20.jpg","[""ArrowDown"",""ArrowRight""]","value training","ocean","17","{""ArrowUp,ArrowLeft"":26,""ArrowUp,ArrowRight"":10,""ArrowDown,ArrowLeft"":5,""ArrowDown,ArrowRight"":17}","false","ArrowDown,ArrowRight","false","original","1","0","","",""
"html-keyboard-response","127","819491","0.0-4.0-2.0-1.0","spark_pilot_norest","8170","1","10","Female","","","","","","","null","<div style=""font-size:60px;"">+</div>","null","fixation","","","","","","","","","1","","",""
"revaluation","128","825531","0.0-4.0-2.0-0.1","spark_pilot_norest","8170","1","10","Female","","false","","","","","[353.2999999988824,561.2000000011176]","./assets/img/ocean/memory/20.jpg","[""ArrowUp"",""ArrowRight""]","value training","ocean","10","{""ArrowUp,ArrowLeft"":26,""ArrowUp,ArrowRight"":10,""ArrowDown,ArrowLeft"":5,""ArrowDown,ArrowRight"":17}","false","ArrowUp,ArrowRight","false","original","1","2","","",""
"html-keyboard-response","129","826034","0.0-4.0-2.0-1.1","spark_pilot_norest","8170","1","10","Female","","","","","","","null","<div style=""font-size:60px;"">+</div>","null","fixation","","","","","","","","","3","","",""
"revaluation","130","832067","0.0-4.0-2.0-0.2","spark_pilot_norest","8170","1","10","Female","","false","","","","","[640.7000000011176,393.2000000011176]","./assets/img/ocean/memory/3.jpg","[""ArrowUp"",""ArrowLeft""]","value training","ocean","26","{""ArrowUp,ArrowLeft"":26,""ArrowUp,ArrowRight"":10,""ArrowDown,ArrowLeft"":5,""ArrowDown,ArrowRight"":17}","true","ArrowUp,ArrowLeft","false","original","1","4","","",""
"html-keyboard-response","131","832570","0.0-4.0-2.0-1.2","spark_pilot_norest","8170","1","10","Female","","","","","","","null","<div style=""font-size:60px;"">+</div>","null","fixation","","","","","","","","","5","","",""
"revaluation","132","838611","0.0-4.0-2.0-0.3","spark_pilot_norest","8170","1","10","Female","","false","","","","","[773.5,704.7999999988824]","./assets/img/ocean/memory/41.jpg","[""ArrowDown"",""ArrowLeft""]","value training","ocean","5","{""ArrowUp,ArrowLeft"":26,""ArrowUp,ArrowRight"":10,""ArrowDown,ArrowLeft"":5,""ArrowDown,ArrowRight"":17}","false","ArrowDown,ArrowLeft","false","original","1","6","","",""
"html-keyboard-response","133","839122","0.0-4.0-2.0-1.3","spark_pilot_norest","8170","1","10","Female","","","","","","","null","<div style=""font-size:60px;"">+</div>","null","fixation","","","","","","","","","7","","",""
"revaluation","134","845172","0.0-4.0-2.0-0.4","spark_pilot_norest","8170","1","10","Female","","false","","","","","[1247.3999999985099,1033.4000000003725]","./assets/img/ocean/memory/40.jpg","[""ArrowUp"",""ArrowRight""]","value training","ocean","10","{""ArrowUp,ArrowLeft"":26,""ArrowUp,ArrowRight"":10,""ArrowDown,ArrowLeft"":5,""ArrowDown,ArrowRight"":17}","false","ArrowUp,ArrowRight","false","original","1","8","","",""
"html-keyboard-response","135","845682","0.0-4.0-2.0-1.4","spark_pilot_norest","8170","1","10","Female","","","","","","","null","<div style=""font-size:60px;"">+</div>","null","fixation","","","","","","","","","9","","",""
"revaluation","136","851731","0.0-4.0-2.0-0.5","spark_pilot_norest","8170","1","10","Female","","false","","","","","[1632.5,721.2000000011176]","./assets/img/ocean/memory/24.jpg","[""ArrowDown"",""ArrowRight""]","value training","ocean","17","{""ArrowUp,ArrowLeft"":26,""ArrowUp,ArrowRight"":10,""ArrowDown,ArrowLeft"":5,""ArrowDown,ArrowRight"":17}","false","ArrowDown,ArrowRight","false","original","1","10","","",""
"html-keyboard-response","137","852235","0.0-4.0-2.0-1.5","spark_pilot_norest","8170","1","10","Female","","","","","","","null","<div style=""font-size:60px;"">+</div>","null","fixation","","","","","","","","","11","","",""
"revaluation","138","858275","0.0-4.0-2.0-0.6","spark_pilot_norest","8170","1","10","Female","","false","","","","","[635.5,665.5999999996275]","./assets/img/ocean/memory/39.jpg","[""ArrowUp"",""ArrowRight""]","value training","ocean","10","{""ArrowUp,ArrowLeft"":26,""ArrowUp,ArrowRight"":10,""ArrowDown,ArrowLeft"":5,""ArrowDown,ArrowRight"":17}","false","ArrowUp,ArrowRight","false","original","1","12","","",""
"html-keyboard-response","139","858787","0.0-4.0-2.0-1.6","spark_pilot_norest","8170","1","10","Female","","","","","","","null","<div style=""font-size:60px;"">+</div>","null","fixation","","","","","","","","","13","","",""
"revaluation","140","864819","0.0-4.0-2.0-0.7","spark_pilot_norest","8170","1","10","Female","","false","","","","","[935.7999999988824,409.6000000014901]","./assets/img/ocean/memory/30.jpg","[""ArrowDown"",""ArrowLeft""]","value training","ocean","5","{""ArrowUp,ArrowLeft"":26,""ArrowUp,ArrowRight"":10,""ArrowDown,ArrowLeft"":5,""ArrowDown,ArrowRight"":17}","false","ArrowDown,ArrowLeft","false","original","1","14","","",""
"html-keyboard-response","141","865323","0.0-4.0-2.0-1.7","spark_pilot_norest","8170","1","10","Female","","","","","","","null","<div style=""font-size:60px;"">+</div>","null","fixation","","","","","","","","","15","","",""
"revaluation","142","871363","0.0-4.0-2.0-0.8","spark_pilot_norest","8170","1","10","Female","","false","","","","","[757.7000000011176,649.5]","./assets/img/ocean/memory/39.jpg","[""ArrowUp"",""ArrowLeft""]","value training","ocean","26","{""ArrowUp,ArrowLeft"":26,""ArrowUp,ArrowRight"":10,""ArrowDown,ArrowLeft"":5,""ArrowDown,ArrowRight"":17}","true","ArrowUp,ArrowLeft","false","original","1","16","","",""
"html-keyboard-response","143","871874","0.0-4.0-2.0-1.8","spark_pilot_norest","8170","1","10","Female","","","","","","","null","<div style=""font-size:60px;"">+</div>","null","fixation","","","","","","","","","17","","",""
"revaluation","144","877907","0.0-4.0-2.0-0.9","spark_pilot_norest","8170","1","10","Female","","false","","","","","[1776.0999999996275,1281]","./assets/img/ocean/memory/34.jpg","[""ArrowDown"",""ArrowRight""]","value training","ocean","17","{""ArrowUp,ArrowLeft"":26,""ArrowUp,ArrowRight"":10,""ArrowDown,ArrowLeft"":5,""ArrowDown,ArrowRight"":17}","false","ArrowDown,ArrowRight","false","original","1","18","","",""
"html-keyboard-response","145","878410","0.0-4.0-2.0-1.9","spark_pilot_norest","8170","1","10","Female","","","","","","","null","<div style=""font-size:60px;"">+</div>","null","fixation","","","","","","","","","19","","",""
"revaluation","146","884443","0.0-4.0-2.0-0.10","spark_pilot_norest","8170","1","10","Female","","false","","","","","[792.6999999992549,737.2000000011176]","./assets/img/ocean/memory/5.jpg","[""ArrowDown"",""ArrowLeft""]","value training","ocean","5","{""ArrowUp,ArrowLeft"":26,""ArrowUp,ArrowRight"":10,""ArrowDown,ArrowLeft"":5,""ArrowDown,ArrowRight"":17}","false","ArrowDown,ArrowLeft","false","original","1","20","","",""
"html-keyboard-response","147","884954","0.0-4.0-2.0-1.10","spark_pilot_norest","8170","1","10","Female","","","","","","","null","<div style=""font-size:60px;"">+</div>","null","fixation","","","","","","","","","21","","",""
"revaluation","148","890995","0.0-4.0-2.0-0.11","spark_pilot_norest","8170","1","10","Female","","false","","","","","[825,929.6999999992549]","./assets/img/ocean/memory/24.jpg","[""ArrowUp"",""ArrowRight""]","value training","ocean","10","{""ArrowUp,ArrowLeft"":26,""ArrowUp,ArrowRight"":10,""ArrowDown,ArrowLeft"":5,""ArrowDown,ArrowRight"":17}","false","ArrowUp,ArrowRight","false","original","1","22","","",""
"html-keyboard-response","149","891506","0.0-4.0-2.0-1.11","spark_pilot_norest","8170","1","10","Female","","","","","","","null","<div style=""font-size:60px;"">+</div>","null","fixation","","","","","","","","","23","","",""
"revaluation","150","897555","0.0-4.0-2.0-0.12","spark_pilot_norest","8170","1","10","Female","","false","","","","","[745.5999999996275,1090]","./assets/img/ocean/memory/23.jpg","[""ArrowUp"",""ArrowRight""]","value training","ocean","10","{""ArrowUp,ArrowLeft"":26,""ArrowUp,ArrowRight"":10,""ArrowDown,ArrowLeft"":5,""ArrowDown,ArrowRight"":17}","false","ArrowUp,ArrowRight","false","original","1","24","","",""
"html-keyboard-response","151","898066","0.0-4.0-2.0-1.12","spark_pilot_norest","8170","1","10","Female","","","","","","","null","<div style=""font-size:60px;"">+</div>","null","fixation","","","","","","","","","25","","",""
"revaluation","152","904115","0.0-4.0-2.0-0.13","spark_pilot_norest","8170","1","10","Female","","false","","","","","[734.2999999988824,1009.3000000007451]","./assets/img/ocean/memory/28.jpg","[""ArrowUp"",""ArrowLeft""]","value training","ocean","26","{""ArrowUp,ArrowLeft"":26,""ArrowUp,ArrowRight"":10,""ArrowDown,ArrowLeft"":5,""ArrowDown,ArrowRight"":17}","true","ArrowUp,ArrowLeft","false","original","1","26","","",""
"html-keyboard-response","153","904619","0.0-4.0-2.0-1.13","spark_pilot_norest","8170","1","10","Female","","","","","","","null","<div style=""font-size:60px;"">+</div>","null","fixation","","","","","","","","","27","","",""
"revaluation","154","910652","0.0-4.0-2.0-0.14","spark_pilot_norest","8170","1","10","Female","","false","","","","","[816.9000000003725,729.4000000003725]","./assets/img/ocean/memory/36.jpg","[""ArrowUp"",""ArrowRight""]","value training","ocean","10","{""ArrowUp,ArrowLeft"":26,""ArrowUp,ArrowRight"":10,""ArrowDown,ArrowLeft"":5,""ArrowDown,ArrowRight"":17}","false","ArrowUp,ArrowRight","false","original","1","28","","",""
"html-keyboard-response","155","911162","0.0-4.0-2.0-1.14","spark_pilot_norest","8170","1","10","Female","","","","","","","null","<div style=""font-size:60px;"">+</div>","null","fixation","","","","","","","","","29","","",""
"revaluation","156","917193","0.0-4.0-2.0-0.15","spark_pilot_norest","8170","1","10","Female","","false","","","","","[452.5,1154.2999999988824]","./assets/img/ocean/memory/40.jpg","[""ArrowDown"",""ArrowRight""]","value training","ocean","17","{""ArrowUp,ArrowLeft"":26,""ArrowUp,ArrowRight"":10,""ArrowDown,ArrowLeft"":5,""ArrowDown,ArrowRight"":17}","false","ArrowDown,ArrowRight","false","original","1","30","","",""
"html-keyboard-response","157","917698","0.0-4.0-2.0-1.15","spark_pilot_norest","8170","1","10","Female","","","","","","","null","<div style=""font-size:60px;"">+</div>","null","fixation","","","","","","","","","31","","",""
"revaluation","158","923732","0.0-4.0-2.0-0.16","spark_pilot_norest","8170","1","10","Female","","false","","","","","[1603.5999999996275,1850.300000000745]","./assets/img/ocean/memory/8.jpg","[""ArrowUp"",""ArrowLeft""]","value training","ocean","26","{""ArrowUp,ArrowLeft"":26,""ArrowUp,ArrowRight"":10,""ArrowDown,ArrowLeft"":5,""ArrowDown,ArrowRight"":17}","true","ArrowUp,ArrowLeft","false","original","1","32","","",""
"html-keyboard-response","159","924243","0.0-4.0-2.0-1.16","spark_pilot_norest","8170","1","10","Female","","","","","","","null","<div style=""font-size:60px;"">+</div>","null","fixation","","","","","","","","","33","","",""
"revaluation","160","930275","0.0-4.0-2.0-0.17","spark_pilot_norest","8170","1","10","Female","","false","","","","","[623.6999999992549,386.69999999925494]","./assets/img/ocean/memory/17.jpg","[""ArrowDown"",""ArrowRight""]","value training","ocean","17","{""ArrowUp,ArrowLeft"":26,""ArrowUp,ArrowRight"":10,""ArrowDown,ArrowLeft"":5,""ArrowDown,ArrowRight"":17}","false","ArrowDown,ArrowRight","false","original","1","34","","",""
"html-keyboard-response","161","930786","0.0-4.0-2.0-1.17","spark_pilot_norest","8170","1","10","Female","","","","","","","null","<div style=""font-size:60px;"">+</div>","null","fixation","","","","","","","","","35","","",""
"revaluation","162","936835","0.0-4.0-2.0-0.18","spark_pilot_norest","8170","1","10","Female","","false","","","","","[1726.7999999988824,689.5999999996275]","./assets/img/ocean/memory/19.jpg","[""ArrowDown"",""ArrowLeft""]","value training","ocean","5","{""ArrowUp,ArrowLeft"":26,""ArrowUp,ArrowRight"":10,""ArrowDown,ArrowLeft"":5,""ArrowDown,ArrowRight"":17}","false","ArrowDown,ArrowLeft","false","original","1","36","","",""
"html-keyboard-response","163","937347","0.0-4.0-2.0-1.18","spark_pilot_norest","8170","1","10","Female","","","","","","","null","<div style=""font-size:60px;"">+</div>","null","fixation","","","","","","","","","37","","",""
"revaluation","164","941379","0.0-4.0-2.0-0.19","spark_pilot_norest","8170","1","10","Female","","false","","","","","[919.8000000007451]","./assets/img/ocean/catch/4.jpg","[""spaceBar""]","value training","ocean","0","{""ArrowUp,ArrowLeft"":26,""ArrowUp,ArrowRight"":10,""ArrowDown,ArrowLeft"":5,""ArrowDown,ArrowRight"":17}","true","spaceBar","true","original","1","38","","",""
"html-keyboard-response","165","941890","0.0-4.0-2.0-1.19","spark_pilot_norest","8170","1","10","Female","","","","","","","null","<div style=""font-size:60px;"">+</div>","null","fixation","","","","","","","","","39","","",""
"revaluation","166","945931","0.0-4.0-2.0-0.20","spark_pilot_norest","8170","1","10","Female","","false","","","","","[760.3000000007451]","./assets/img/ocean/catch/7.jpg","[""spaceBar""]","value training","ocean","0","{""ArrowUp,ArrowLeft"":26,""ArrowUp,ArrowRight"":10,""ArrowDown,ArrowLeft"":5,""ArrowDown,ArrowRight"":17}","true","spaceBar","true","original","1","40","","",""
"html-keyboard-response","167","946434","0.0-4.0-2.0-1.20","spark_pilot_norest","8170","1","10","Female","","","","","","","null","<div style=""font-size:60px;"">+</div>","null","fixation","","","","","","","","","41","","",""
"revaluation","168","952467","0.0-4.0-2.0-0.21","spark_pilot_norest","8170","1","10","Female","","false","","","","","[722.1999999992549,1034]","./assets/img/ocean/memory/1.jpg","[""ArrowDown"",""ArrowRight""]","value training","ocean","17","{""ArrowUp,ArrowLeft"":26,""ArrowUp,ArrowRight"":10,""ArrowDown,ArrowLeft"":5,""ArrowDown,ArrowRight"":17}","false","ArrowDown,ArrowRight","false","original","1","42","","",""
"html-keyboard-response","169","952971","0.0-4.0-2.0-1.21","spark_pilot_norest","8170","1","10","Female","","","","","","","null","<div style=""font-size:60px;"">+</div>","null","fixation","","","","","","","","","43","","",""
"revaluation","170","959011","0.0-4.0-2.0-0.22","spark_pilot_norest","8170","1","10","Female","","false","","","","","[1251.3999999985099,697.7000000011176]","./assets/img/ocean/memory/23.jpg","[""ArrowDown"",""ArrowRight""]","value training","ocean","17","{""ArrowUp,ArrowLeft"":26,""ArrowUp,ArrowRight"":10,""ArrowDown,ArrowLeft"":5,""ArrowDown,ArrowRight"":17}","false","ArrowDown,ArrowRight","false","original","1","44","","",""
"html-keyboard-response","171","959522","0.0-4.0-2.0-1.22","spark_pilot_norest","8170","1","10","Female","","","","","","","null","<div style=""font-size:60px;"">+</div>","null","fixation","","","","","","","","","45","","",""
"revaluation","172","965563","0.0-4.0-2.0-0.23","spark_pilot_norest","8170","1","10","Female","","false","","","","","[962.5,1090.199999999255]","./assets/img/ocean/memory/34.jpg","[""ArrowDown"",""ArrowRight""]","value training","ocean","17","{""ArrowUp,ArrowLeft"":26,""ArrowUp,ArrowRight"":10,""ArrowDown,ArrowLeft"":5,""ArrowDown,ArrowRight"":17}","false","ArrowDown,ArrowRight","false","original","1","46","","",""
"html-keyboard-response","173","966067","0.0-4.0-2.0-1.23","spark_pilot_norest","8170","1","10","Female","","","","","","","null","<div style=""font-size:60px;"">+</div>","null","fixation","","","","","","","","","47","","",""
"revaluation","174","972115","0.0-4.0-2.0-0.24","spark_pilot_norest","8170","1","10","Female","","false","","","","","[1039.199999999255,1073.300000000745]","./assets/img/ocean/memory/35.jpg","[""ArrowDown"",""ArrowRight""]","value training","ocean","17","{""ArrowUp,ArrowLeft"":26,""ArrowUp,ArrowRight"":10,""ArrowDown,ArrowLeft"":5,""ArrowDown,ArrowRight"":17}","false","ArrowDown,ArrowRight","false","original","1","48","","",""
"html-keyboard-response","175","972627","0.0-4.0-2.0-1.24","spark_pilot_norest","8170","1","10","Female","","","","","","","null","<div style=""font-size:60px;"">+</div>","null","fixation","","","","","","","","","49","","",""
"revaluation","176","978660","0.0-4.0-2.0-0.25","spark_pilot_norest","8170","1","10","Female","","false","","","","","[1067.4000000003725,809.4000000003725]","./assets/img/ocean/memory/28.jpg","[""ArrowDown"",""ArrowRight""]","value training","ocean","17","{""ArrowUp,ArrowLeft"":26,""ArrowUp,ArrowRight"":10,""ArrowDown,ArrowLeft"":5,""ArrowDown,ArrowRight"":17}","false","ArrowDown,ArrowRight","false","original","1","50","","",""
"html-keyboard-response","177","979170","0.0-4.0-2.0-1.25","spark_pilot_norest","8170","1","10","Female","","","","","","","null","<div style=""font-size:60px;"">+</div>","null","fixation","","","","","","","","","51","","",""
"revaluation","178","985211","0.0-4.0-2.0-0.26","spark_pilot_norest","8170","1","10","Female","","false","","","","","[855.5,1393.4000000003725]","./assets/img/ocean/memory/8.jpg","[""ArrowDown"",""ArrowRight""]","value training","ocean","17","{""ArrowUp,ArrowLeft"":26,""ArrowUp,ArrowRight"":10,""ArrowDown,ArrowLeft"":5,""ArrowDown,ArrowRight"":17}","false","ArrowDown,ArrowRight","false","original","1","52","","",""
"html-keyboard-response","179","985722","0.0-4.0-2.0-1.26","spark_pilot_norest","8170","1","10","Female","","","","","","","null","<div style=""font-size:60px;"">+</div>","null","fixation","","","","","","","","","53","","",""
"revaluation","180","991764","0.0-4.0-2.0-0.27","spark_pilot_norest","8170","1","10","Female","","false","","","","","[972.1999999992549,841.3000000007451]","./assets/img/ocean/memory/27.jpg","[""ArrowUp"",""ArrowRight""]","value training","ocean","10","{""ArrowUp,ArrowLeft"":26,""ArrowUp,ArrowRight"":10,""ArrowDown,ArrowLeft"":5,""ArrowDown,ArrowRight"":17}","false","ArrowUp,ArrowRight","false","original","1","54","","",""
"html-keyboard-response","181","992275","0.0-4.0-2.0-1.27","spark_pilot_norest","8170","1","10","Female","","","","","","","null","<div style=""font-size:60px;"">+</div>","null","fixation","","","","","","","","","55","","",""
"revaluation","182","996307","0.0-4.0-2.0-0.28","spark_pilot_norest","8170","1","10","Female","","false","","","","","[741.4000000003725]","./assets/img/ocean/catch/6.jpg","[""spaceBar""]","value training","ocean","0","{""ArrowUp,ArrowLeft"":26,""ArrowUp,ArrowRight"":10,""ArrowDown,ArrowLeft"":5,""ArrowDown,ArrowRight"":17}","true","spaceBar","true","original","1","56","","",""
"html-keyboard-response","183","996818","0.0-4.0-2.0-1.28","spark_pilot_norest","8170","1","10","Female","","","","","","","null","<div style=""font-size:60px;"">+</div>","null","fixation","","","","","","","","","57","","",""
"revaluation","184","1000859","0.0-4.0-2.0-0.29","spark_pilot_norest","8170","1","10","Female","","false","","","","","[950.7000000011176]","./assets/img/ocean/catch/5.jpg","[""spaceBar""]","value training","ocean","0","{""ArrowUp,ArrowLeft"":26,""ArrowUp,ArrowRight"":10,""ArrowDown,ArrowLeft"":5,""ArrowDown,ArrowRight"":17}","true","spaceBar","true","original","1","58","","",""
"html-keyboard-response","185","1001362","0.0-4.0-2.0-1.29","spark_pilot_norest","8170","1","10","Female","","","","","","","null","<div style=""font-size:60px;"">+</div>","null","fixation","","","","","","","","","59","","",""
"revaluation","186","1005395","0.0-4.0-2.0-0.30","spark_pilot_norest","8170","1","10","Female","","false","","","","","[593.8000000007451]","./assets/img/ocean/catch/1.jpg","[""spaceBar""]","value training","ocean","0","{""ArrowUp,ArrowLeft"":26,""ArrowUp,ArrowRight"":10,""ArrowDown,ArrowLeft"":5,""ArrowDown,ArrowRight"":17}","true","spaceBar","true","original","1","60","","",""
"html-keyboard-response","187","1005906","0.0-4.0-2.0-1.30","spark_pilot_norest","8170","1","10","Female","","","","","","","null","<div style=""font-size:60px;"">+</div>","null","fixation","","","","","","","","","61","","",""
"revaluation","188","1011947","0.0-4.0-2.0-0.31","spark_pilot_norest","8170","1","10","Female","","false","","","","","[824.4000000003725,826.2999999988824]","./assets/img/ocean/memory/17.jpg","[""ArrowDown"",""ArrowRight""]","value training","ocean","17","{""ArrowUp,ArrowLeft"":26,""ArrowUp,ArrowRight"":10,""ArrowDown,ArrowLeft"":5,""ArrowDown,ArrowRight"":17}","false","ArrowDown,ArrowRight","false","original","1","62","","",""
"html-keyboard-response","189","1012459","0.0-4.0-2.0-1.31","spark_pilot_norest","8170","1","10","Female","","","","","","","null","<div style=""font-size:60px;"">+</div>","null","fixation","","","","","","","","","63","","",""
"revaluation","190","1018492","0.0-4.0-2.0-0.32","spark_pilot_norest","8170","1","10","Female","","false","","","","","[906.4000000003725,633.0999999996275]","./assets/img/ocean/memory/12.jpg","[""ArrowUp"",""ArrowLeft""]","value training","ocean","26","{""ArrowUp,ArrowLeft"":26,""ArrowUp,ArrowRight"":10,""ArrowDown,ArrowLeft"":5,""ArrowDown,ArrowRight"":17}","true","ArrowUp,ArrowLeft","false","original","1","64","","",""
"html-keyboard-response","191","1019002","0.0-4.0-2.0-1.32","spark_pilot_norest","8170","1","10","Female","","","","","","","null","<div style=""font-size:60px;"">+</div>","null","fixation","","","","","","","","","65","","",""
"revaluation","192","1025043","0.0-4.0-2.0-0.33","spark_pilot_norest","8170","1","10","Female","","false","","","","","[684,337.2000000011176]","./assets/img/ocean/memory/35.jpg","[""ArrowDown"",""ArrowLeft""]","value training","ocean","5","{""ArrowUp,ArrowLeft"":26,""ArrowUp,ArrowRight"":10,""ArrowDown,ArrowLeft"":5,""ArrowDown,ArrowRight"":17}","false","ArrowDown,ArrowLeft","false","original","1","66","","",""
"html-keyboard-response","193","1025547","0.0-4.0-2.0-1.33","spark_pilot_norest","8170","1","10","Female","","","","","","","null","<div style=""font-size:60px;"">+</div>","null","fixation","","","","","","","","","67","","",""
"revaluation","194","1031572","0.0-4.0-2.0-0.34","spark_pilot_norest","8170","1","10","Female","","false","","","","","[717.3000000007451,378.5]","./assets/img/ocean/memory/5.jpg","[""ArrowUp"",""ArrowLeft""]","value training","ocean","26","{""ArrowUp,ArrowLeft"":26,""ArrowUp,ArrowRight"":10,""ArrowDown,ArrowLeft"":5,""ArrowDown,ArrowRight"":17}","true","ArrowUp,ArrowLeft","false","original","1","68","","",""
"html-keyboard-response","195","1032082","0.0-4.0-2.0-1.34","spark_pilot_norest","8170","1","10","Female","","","","","","","null","<div style=""font-size:60px;"">+</div>","null","fixation","","","","","","","","","69","","",""
"revaluation","196","1036123","0.0-4.0-2.0-0.35","spark_pilot_norest","8170","1","10","Female","","false","","","","","[721.8000000007451]","./assets/img/ocean/catch/0.jpg","[""spaceBar""]","value training","ocean","0","{""ArrowUp,ArrowLeft"":26,""ArrowUp,ArrowRight"":10,""ArrowDown,ArrowLeft"":5,""ArrowDown,ArrowRight"":17}","true","spaceBar","true","original","1","70","","",""
"html-keyboard-response","197","1036627","0.0-4.0-2.0-1.35","spark_pilot_norest","8170","1","10","Female","","","","","","","null","<div style=""font-size:60px;"">+</div>","null","fixation","","","","","","","","","71","","",""
"revaluation","198","1042659","0.0-4.0-2.0-0.36","spark_pilot_norest","8170","1","10","Female","","false","","","","","[828.3999999985099,393.5]","./assets/img/ocean/memory/12.jpg","[""ArrowUp"",""ArrowLeft""]","value training","ocean","26","{""ArrowUp,ArrowLeft"":26,""ArrowUp,ArrowRight"":10,""ArrowDown,ArrowLeft"":5,""ArrowDown,ArrowRight"":17}","true","ArrowUp,ArrowLeft","false","original","1","72","","",""
"html-keyboard-response","199","1043162","0.0-4.0-2.0-1.36","spark_pilot_norest","8170","1","10","Female","","","","","","","null","<div style=""font-size:60px;"">+</div>","null","fixation","","","","","","","","","73","","",""
"revaluation","200","1049196","0.0-4.0-2.0-0.37","spark_pilot_norest","8170","1","10","Female","","false","","","","","[857.7999999988824,489.59999999962747]","./assets/img/ocean/memory/29.jpg","[""ArrowUp"",""ArrowLeft""]","value training","ocean","26","{""ArrowUp,ArrowLeft"":26,""ArrowUp,ArrowRight"":10,""ArrowDown,ArrowLeft"":5,""ArrowDown,ArrowRight"":17}","true","ArrowUp,ArrowLeft","false","original","1","74","","",""
"html-keyboard-response","201","1049706","0.0-4.0-2.0-1.37","spark_pilot_norest","8170","1","10","Female","","","","","","","null","<div style=""font-size:60px;"">+</div>","null","fixation","","","","","","","","","75","","",""
"revaluation","202","1055748","0.0-4.0-2.0-0.38","spark_pilot_norest","8170","1","10","Female","","false","","","","","[773.9000000003725,873.5]","./assets/img/ocean/memory/27.jpg","[""ArrowUp"",""ArrowLeft""]","value training","ocean","26","{""ArrowUp,ArrowLeft"":26,""ArrowUp,ArrowRight"":10,""ArrowDown,ArrowLeft"":5,""ArrowDown,ArrowRight"":17}","true","ArrowUp,ArrowLeft","false","original","1","76","","",""
"html-keyboard-response","203","1056259","0.0-4.0-2.0-1.38","spark_pilot_norest","8170","1","10","Female","","","","","","","null","<div style=""font-size:60px;"">+</div>","null","fixation","","","","","","","","","77","","",""
"revaluation","204","1060299","0.0-4.0-2.0-0.39","spark_pilot_norest","8170","1","10","Female","","false","","","","","[613.3000000007451]","./assets/img/ocean/catch/3.jpg","[""spaceBar""]","value training","ocean","0","{""ArrowUp,ArrowLeft"":26,""ArrowUp,ArrowRight"":10,""ArrowDown,ArrowLeft"":5,""ArrowDown,ArrowRight"":17}","true","spaceBar","true","original","1","78","","",""
"html-keyboard-response","205","1060802","0.0-4.0-2.0-1.39","spark_pilot_norest","8170","1","10","Female","","","","","","","null","<div style=""font-size:60px;"">+</div>","null","fixation","","","","","","","","","79","","",""
"revaluation","206","1066836","0.0-4.0-2.0-0.40","spark_pilot_norest","8170","1","10","Female","","false","","","","","[1094.5,601.4000000003725]","./assets/img/ocean/memory/29.jpg","[""ArrowUp"",""ArrowLeft""]","value training","ocean","26","{""ArrowUp,ArrowLeft"":26,""ArrowUp,ArrowRight"":10,""ArrowDown,ArrowLeft"":5,""ArrowDown,ArrowRight"":17}","true","ArrowUp,ArrowLeft","false","original","1","80","","",""
"html-keyboard-response","207","1067347","0.0-4.0-2.0-1.40","spark_pilot_norest","8170","1","10","Female","","","","","","","null","<div style=""font-size:60px;"">+</div>","null","fixation","","","","","","","","","81","","",""
"revaluation","208","1073380","0.0-4.0-2.0-0.41","spark_pilot_norest","8170","1","10","Female","","false","","","","","[883.8999999985099,650]","./assets/img/ocean/memory/36.jpg","[""ArrowDown"",""ArrowRight""]","value training","ocean","17","{""ArrowUp,ArrowLeft"":26,""ArrowUp,ArrowRight"":10,""ArrowDown,ArrowLeft"":5,""ArrowDown,ArrowRight"":17}","false","ArrowDown,ArrowRight","false","original","1","82","","",""
"html-keyboard-response","209","1073891","0.0-4.0-2.0-1.41","spark_pilot_norest","8170","1","10","Female","","","","","","","null","<div style=""font-size:60px;"">+</div>","null","fixation","","","","","","","","","83","","",""
"revaluation","210","1077915","0.0-4.0-2.0-0.42","spark_pilot_norest","8170","1","10","Female","","false","","","","","[614.3999999985099]","./assets/img/ocean/catch/2.jpg","[""spaceBar""]","value training","ocean","0","{""ArrowUp,ArrowLeft"":26,""ArrowUp,ArrowRight"":10,""ArrowDown,ArrowLeft"":5,""ArrowDown,ArrowRight"":17}","true","spaceBar","true","original","1","84","","",""
"html-keyboard-response","211","1078426","0.0-4.0-2.0-1.42","spark_pilot_norest","8170","1","10","Female","","","","","","","null","<div style=""font-size:60px;"">+</div>","null","fixation","","","","","","","","","85","","",""
"revaluation","212","1084469","0.0-4.0-2.0-0.43","spark_pilot_norest","8170","1","10","Female","","false","","","","","[1165.7000000011176,673]","./assets/img/ocean/memory/21.jpg","[""ArrowUp"",""ArrowRight""]","value training","ocean","10","{""ArrowUp,ArrowLeft"":26,""ArrowUp,ArrowRight"":10,""ArrowDown,ArrowLeft"":5,""ArrowDown,ArrowRight"":17}","false","ArrowUp,ArrowRight","false","original","1","86","","",""
"html-keyboard-response","213","1084979","0.0-4.0-2.0-1.43","spark_pilot_norest","8170","1","10","Female","","","","","","","null","<div style=""font-size:60px;"">+</div>","null","fixation","","","","","","","","","87","","",""
"revaluation","214","1091011","0.0-4.0-2.0-0.44","spark_pilot_norest","8170","1","10","Female","","false","","","","","[1522.9000000003725,961.3999999985099]","./assets/img/ocean/memory/1.jpg","[""ArrowDown"",""ArrowRight""]","value training","ocean","17","{""ArrowUp,ArrowLeft"":26,""ArrowUp,ArrowRight"":10,""ArrowDown,ArrowLeft"":5,""ArrowDown,ArrowRight"":17}","false","ArrowDown,ArrowRight","false","original","1","88","","",""
"html-keyboard-response","215","1091515","0.0-4.0-2.0-1.44","spark_pilot_norest","8170","1","10","Female","","","","","","","null","<div style=""font-size:60px;"">+</div>","null","fixation","","","","","","","","","89","","",""
"revaluation","216","1097537","0.0-4.0-2.0-0.45","spark_pilot_norest","8170","1","10","Female","","false","","","","","[780.3000000007451,502.90000000037253]","./assets/img/ocean/memory/30.jpg","[""ArrowUp"",""ArrowLeft""]","value training","ocean","26","{""ArrowUp,ArrowLeft"":26,""ArrowUp,ArrowRight"":10,""ArrowDown,ArrowLeft"":5,""ArrowDown,ArrowRight"":17}","true","ArrowUp,ArrowLeft","false","original","1","90","","",""
"html-keyboard-response","217","1098042","0.0-4.0-2.0-1.45","spark_pilot_norest","8170","1","10","Female","","","","","","","null","<div style=""font-size:60px;"">+</div>","null","fixation","","","","","","","","","91","","",""
"revaluation","218","1104067","0.0-4.0-2.0-0.46","spark_pilot_norest","8170","1","10","Female","","false","","","","","[675.6999999992549,704.8000000007451]","./assets/img/ocean/memory/41.jpg","[""ArrowUp"",""ArrowLeft""]","value training","ocean","26","{""ArrowUp,ArrowLeft"":26,""ArrowUp,ArrowRight"":10,""ArrowDown,ArrowLeft"":5,""ArrowDown,ArrowRight"":17}","true","ArrowUp,ArrowLeft","false","original","1","92","","",""
"html-keyboard-response","219","1104570","0.0-4.0-2.0-1.46","spark_pilot_norest","8170","1","10","Female","","","","","","","null","<div style=""font-size:60px;"">+</div>","null","fixation","","","","","","","","","93","","",""
"revaluation","220","1110587","0.0-4.0-2.0-0.47","spark_pilot_norest","8170","1","10","Female","","false","","","","","[914.2999999988824,556.5]","./assets/img/ocean/memory/21.jpg","[""ArrowDown"",""ArrowLeft""]","value training","ocean","5","{""ArrowUp,ArrowLeft"":26,""ArrowUp,ArrowRight"":10,""ArrowDown,ArrowLeft"":5,""ArrowDown,ArrowRight"":17}","false","ArrowDown,ArrowLeft","false","original","1","94","","",""
"html-keyboard-response","221","1111090","0.0-4.0-2.0-1.47","spark_pilot_norest","8170","1","10","Female","","","","","","","null","<div style=""font-size:60px;"">+</div>","null","fixation","","","","","","","","","95","","",""
"revaluation","222","1117123","0.0-4.0-2.0-0.48","spark_pilot_norest","8170","1","10","Female","","false","","","","","[929,1171.199999999255]","./assets/img/ocean/memory/19.jpg","[""ArrowUp"",""ArrowRight""]","value training","ocean","10","{""ArrowUp,ArrowLeft"":26,""ArrowUp,ArrowRight"":10,""ArrowDown,ArrowLeft"":5,""ArrowDown,ArrowRight"":17}","false","ArrowUp,ArrowRight","false","original","1","96","","",""
"html-keyboard-response","223","1117634","0.0-4.0-2.0-1.48","spark_pilot_norest","8170","1","10","Female","","","","","","","null","<div style=""font-size:60px;"">+</div>","null","fixation","","","","","","","","","97","","",""
"revaluation","224","1123658","0.0-4.0-2.0-0.49","spark_pilot_norest","8170","1","10","Female","","false","","","","","[1468.1000000014901,637.4000000003725]","./assets/img/ocean/memory/3.jpg","[""ArrowUp"",""ArrowLeft""]","value training","ocean","26","{""ArrowUp,ArrowLeft"":26,""ArrowUp,ArrowRight"":10,""ArrowDown,ArrowLeft"":5,""ArrowDown,ArrowRight"":17}","true","ArrowUp,ArrowLeft","false","original","1","98","","",""
"html-keyboard-response","225","1124162","0.0-4.0-2.0-1.49","spark_pilot_norest","8170","1","10","Female","","","","","","","null","<div style=""font-size:60px;"">+</div>","null","fixation","","","","","","","","","99","","",""
"learning-instructions","226","1146562","0.0-4.0-3.0-0.0","spark_pilot_norest","8170","1","10","Female","","","","","","","9445.900000000373","<p> Now, you will travel with a friend who will choose whether you go up or down first. </p>
            <p> On these turns, you will just see the animal that they found. You will still get to choose which chest to search for treasure.</p>","","instructions","","","","","","","","","","","",""
"revaluation","227","1150579","0.0-4.0-4.0-0.0","spark_pilot_norest","8170","1","10","Female","","false","","","","","[1030.7000000011176]","./assets/img/ocean/animals/seahorse.jpg","[""ArrowLeft""]","revaluation","ocean","5","{""ArrowUp,ArrowLeft"":26,""ArrowUp,ArrowRight"":10,""ArrowDown,ArrowLeft"":5,""ArrowDown,ArrowRight"":17}","false","ArrowDown,ArrowLeft","","original","1","0","","",""
"html-keyboard-response","228","1151090","0.0-4.0-4.0-1.0","spark_pilot_norest","8170","1","10","Female","","","","","","","null","<div style=""font-size:60px;"">+</div>","null","fixation","","","","","","","","","1","","",""
"revaluation","229","1155122","0.0-4.0-4.0-0.1","spark_pilot_norest","8170","1","10","Female","","false","","","","","[919.5999999996275]","./assets/img/ocean/animals/octopus.jpg","[""ArrowLeft""]","revaluation","ocean","26","{""ArrowUp,ArrowLeft"":26,""ArrowUp,ArrowRight"":10,""ArrowDown,ArrowLeft"":5,""ArrowDown,ArrowRight"":17}","true","ArrowUp,ArrowLeft","","original","1","2","","",""
"html-keyboard-response","230","1155626","0.0-4.0-4.0-1.1","spark_pilot_norest","8170","1","10","Female","","","","","","","null","<div style=""font-size:60px;"">+</div>","null","fixation","","","","","","","","","3","","",""
"revaluation","231","1159643","0.0-4.0-4.0-0.2","spark_pilot_norest","8170","1","10","Female","","false","","","","","[568.7999999988824]","./assets/img/ocean/animals/octopus.jpg","[""ArrowLeft""]","revaluation","ocean","26","{""ArrowUp,ArrowLeft"":26,""ArrowUp,ArrowRight"":10,""ArrowDown,ArrowLeft"":5,""ArrowDown,ArrowRight"":17}","true","ArrowUp,ArrowLeft","","original","1","4","","",""
"html-keyboard-response","232","1160146","0.0-4.0-4.0-1.2","spark_pilot_norest","8170","1","10","Female","","","","","","","null","<div style=""font-size:60px;"">+</div>","null","fixation","","","","","","","","","5","","",""
"revaluation","233","1164163","0.0-4.0-4.0-0.3","spark_pilot_norest","8170","1","10","Female","","false","","","","","[634.2999999988824]","./assets/img/ocean/animals/seahorse.jpg","[""ArrowRight""]","revaluation","ocean","17","{""ArrowUp,ArrowLeft"":26,""ArrowUp,ArrowRight"":10,""ArrowDown,ArrowLeft"":5,""ArrowDown,ArrowRight"":17}","true","ArrowDown,ArrowRight","","original","1","6","","",""
"html-keyboard-response","234","1164666","0.0-4.0-4.0-1.3","spark_pilot_norest","8170","1","10","Female","","","","","","","null","<div style=""font-size:60px;"">+</div>","null","fixation","","","","","","","","","7","","",""
"revaluation","235","1168683","0.0-4.0-4.0-0.4","spark_pilot_norest","8170","1","10","Female","","false","","","","","[690.1999999992549]","./assets/img/ocean/animals/seahorse.jpg","[""ArrowLeft""]","revaluation","ocean","5","{""ArrowUp,ArrowLeft"":26,""ArrowUp,ArrowRight"":10,""ArrowDown,ArrowLeft"":5,""ArrowDown,ArrowRight"":17}","false","ArrowDown,ArrowLeft","","original","1","8","","",""
"html-keyboard-response","236","1169186","0.0-4.0-4.0-1.4","spark_pilot_norest","8170","1","10","Female","","","","","","","null","<div style=""font-size:60px;"">+</div>","null","fixation","","","","","","","","","9","","",""
"revaluation","237","1173203","0.0-4.0-4.0-0.5","spark_pilot_norest","8170","1","10","Female","","false","","","","","[630.1999999992549]","./assets/img/ocean/animals/octopus.jpg","[""ArrowLeft""]","revaluation","ocean","26","{""ArrowUp,ArrowLeft"":26,""ArrowUp,ArrowRight"":10,""ArrowDown,ArrowLeft"":5,""ArrowDown,ArrowRight"":17}","true","ArrowUp,ArrowLeft","","original","1","10","","",""
"html-keyboard-response","238","1173707","0.0-4.0-4.0-1.5","spark_pilot_norest","8170","1","10","Female","","","","","","","null","<div style=""font-size:60px;"">+</div>","null","fixation","","","","","","","","","11","","",""
"revaluation","239","1177731","0.0-4.0-4.0-0.6","spark_pilot_norest","8170","1","10","Female","","false","","","","","[673.9000000003725]","./assets/img/ocean/animals/octopus.jpg","[""ArrowLeft""]","revaluation","ocean","26","{""ArrowUp,ArrowLeft"":26,""ArrowUp,ArrowRight"":10,""ArrowDown,ArrowLeft"":5,""ArrowDown,ArrowRight"":17}","true","ArrowUp,ArrowLeft","","original","1","12","","",""
"html-keyboard-response","240","1178234","0.0-4.0-4.0-1.6","spark_pilot_norest","8170","1","10","Female","","","","","","","null","<div style=""font-size:60px;"">+</div>","null","fixation","","","","","","","","","13","","",""
"revaluation","241","1182251","0.0-4.0-4.0-0.7","spark_pilot_norest","8170","1","10","Female","","false","","","","","[1052]","./assets/img/ocean/animals/seahorse.jpg","[""ArrowRight""]","revaluation","ocean","17","{""ArrowUp,ArrowLeft"":26,""ArrowUp,ArrowRight"":10,""ArrowDown,ArrowLeft"":5,""ArrowDown,ArrowRight"":17}","true","ArrowDown,ArrowRight","","original","1","14","","",""
"html-keyboard-response","242","1182754","0.0-4.0-4.0-1.7","spark_pilot_norest","8170","1","10","Female","","","","","","","null","<div style=""font-size:60px;"">+</div>","null","fixation","","","","","","","","","15","","",""
"revaluation","243","1186771","0.0-4.0-4.0-0.8","spark_pilot_norest","8170","1","10","Female","","false","","","","","[435]","./assets/img/ocean/animals/seahorse.jpg","[""ArrowLeft""]","revaluation","ocean","5","{""ArrowUp,ArrowLeft"":26,""ArrowUp,ArrowRight"":10,""ArrowDown,ArrowLeft"":5,""ArrowDown,ArrowRight"":17}","false","ArrowDown,ArrowLeft","","original","1","16","","",""
"html-keyboard-response","244","1187274","0.0-4.0-4.0-1.8","spark_pilot_norest","8170","1","10","Female","","","","","","","null","<div style=""font-size:60px;"">+</div>","null","fixation","","","","","","","","","17","","",""
"revaluation","245","1191298","0.0-4.0-4.0-0.9","spark_pilot_norest","8170","1","10","Female","","false","","","","","[733.6999999992549]","./assets/img/ocean/animals/octopus.jpg","[""ArrowLeft""]","revaluation","ocean","26","{""ArrowUp,ArrowLeft"":26,""ArrowUp,ArrowRight"":10,""ArrowDown,ArrowLeft"":5,""ArrowDown,ArrowRight"":17}","true","ArrowUp,ArrowLeft","","original","1","18","","",""
"html-keyboard-response","246","1191803","0.0-4.0-4.0-1.9","spark_pilot_norest","8170","1","10","Female","","","","","","","null","<div style=""font-size:60px;"">+</div>","null","fixation","","","","","","","","","19","","",""
"revaluation","247","1195827","0.0-4.0-4.0-0.10","spark_pilot_norest","8170","1","10","Female","","false","","","","","[838.7999999988824]","./assets/img/ocean/animals/octopus.jpg","[""ArrowLeft""]","revaluation","ocean","26","{""ArrowUp,ArrowLeft"":26,""ArrowUp,ArrowRight"":10,""ArrowDown,ArrowLeft"":5,""ArrowDown,ArrowRight"":17}","true","ArrowUp,ArrowLeft","","original","1","20","","",""
"html-keyboard-response","248","1196330","0.0-4.0-4.0-1.10","spark_pilot_norest","8170","1","10","Female","","","","","","","null","<div style=""font-size:60px;"">+</div>","null","fixation","","","","","","","","","21","","",""
"revaluation","249","1200354","0.0-4.0-4.0-0.11","spark_pilot_norest","8170","1","10","Female","","false","","","","","[681.1999999992549]","./assets/img/ocean/animals/octopus.jpg","[""ArrowLeft""]","revaluation","ocean","26","{""ArrowUp,ArrowLeft"":26,""ArrowUp,ArrowRight"":10,""ArrowDown,ArrowLeft"":5,""ArrowDown,ArrowRight"":17}","true","ArrowUp,ArrowLeft","","original","1","22","","",""
"html-keyboard-response","250","1200858","0.0-4.0-4.0-1.11","spark_pilot_norest","8170","1","10","Female","","","","","","","null","<div style=""font-size:60px;"">+</div>","null","fixation","","","","","","","","","23","","",""
"revaluation","251","1204875","0.0-4.0-4.0-0.12","spark_pilot_norest","8170","1","10","Female","","false","","","","","[595.4000000003725]","./assets/img/ocean/animals/seahorse.jpg","[""ArrowRight""]","revaluation","ocean","17","{""ArrowUp,ArrowLeft"":26,""ArrowUp,ArrowRight"":10,""ArrowDown,ArrowLeft"":5,""ArrowDown,ArrowRight"":17}","true","ArrowDown,ArrowRight","","original","1","24","","",""
"html-keyboard-response","252","1205379","0.0-4.0-4.0-1.12","spark_pilot_norest","8170","1","10","Female","","","","","","","null","<div style=""font-size:60px;"">+</div>","null","fixation","","","","","","","","","25","","",""
"revaluation","253","1209403","0.0-4.0-4.0-0.13","spark_pilot_norest","8170","1","10","Female","","false","","","","","[751.0999999996275]","./assets/img/ocean/animals/octopus.jpg","[""ArrowLeft""]","revaluation","ocean","26","{""ArrowUp,ArrowLeft"":26,""ArrowUp,ArrowRight"":10,""ArrowDown,ArrowLeft"":5,""ArrowDown,ArrowRight"":17}","true","ArrowUp,ArrowLeft","","original","1","26","","",""
"html-keyboard-response","254","1209906","0.0-4.0-4.0-1.13","spark_pilot_norest","8170","1","10","Female","","","","","","","null","<div style=""font-size:60px;"">+</div>","null","fixation","","","","","","","","","27","","",""
"revaluation","255","1213931","0.0-4.0-4.0-0.14","spark_pilot_norest","8170","1","10","Female","","false","","","","","[1328.300000000745]","./assets/img/ocean/animals/seahorse.jpg","[""ArrowRight""]","revaluation","ocean","17","{""ArrowUp,ArrowLeft"":26,""ArrowUp,ArrowRight"":10,""ArrowDown,ArrowLeft"":5,""ArrowDown,ArrowRight"":17}","true","ArrowDown,ArrowRight","","original","1","28","","",""
"html-keyboard-response","256","1214434","0.0-4.0-4.0-1.14","spark_pilot_norest","8170","1","10","Female","","","","","","","null","<div style=""font-size:60px;"">+</div>","null","fixation","","","","","","","","","29","","",""
"revaluation","257","1218458","0.0-4.0-4.0-0.15","spark_pilot_norest","8170","1","10","Female","","false","","","","","[1382.5]","./assets/img/ocean/animals/seahorse.jpg","[""ArrowRight""]","revaluation","ocean","17","{""ArrowUp,ArrowLeft"":26,""ArrowUp,ArrowRight"":10,""ArrowDown,ArrowLeft"":5,""ArrowDown,ArrowRight"":17}","true","ArrowDown,ArrowRight","","original","1","30","","",""
"html-keyboard-response","258","1218962","0.0-4.0-4.0-1.15","spark_pilot_norest","8170","1","10","Female","","","","","","","null","<div style=""font-size:60px;"">+</div>","null","fixation","","","","","","","","","31","","",""
"revaluation","259","1222986","0.0-4.0-4.0-0.16","spark_pilot_norest","8170","1","10","Female","","false","","","","","[1143.9000000003725]","./assets/img/ocean/animals/octopus.jpg","[""ArrowLeft""]","revaluation","ocean","26","{""ArrowUp,ArrowLeft"":26,""ArrowUp,ArrowRight"":10,""ArrowDown,ArrowLeft"":5,""ArrowDown,ArrowRight"":17}","true","ArrowUp,ArrowLeft","","original","1","32","","",""
"html-keyboard-response","260","1223490","0.0-4.0-4.0-1.16","spark_pilot_norest","8170","1","10","Female","","","","","","","null","<div style=""font-size:60px;"">+</div>","null","fixation","","","","","","","","","33","","",""
"revaluation","261","1227522","0.0-4.0-4.0-0.17","spark_pilot_norest","8170","1","10","Female","","false","","","","","[884]","./assets/img/ocean/animals/seahorse.jpg","[""ArrowRight""]","revaluation","ocean","17","{""ArrowUp,ArrowLeft"":26,""ArrowUp,ArrowRight"":10,""ArrowDown,ArrowLeft"":5,""ArrowDown,ArrowRight"":17}","true","ArrowDown,ArrowRight","","original","1","34","","",""
"html-keyboard-response","262","1228026","0.0-4.0-4.0-1.17","spark_pilot_norest","8170","1","10","Female","","","","","","","null","<div style=""font-size:60px;"">+</div>","null","fixation","","","","","","","","","35","","",""
"learning-instructions","263","1236194","0.0-4.0-5.0-0.0","spark_pilot_norest","8170","1","10","Female","","","","","","","null","<p> You have almost finished this part of the game! </p>
            <p> We are going to ask you to make a few more choices. </p>","","instructions","","","","","","","","","","","",""
"learning-instructions","264","1252171","0.0-4.0-5.0-0.1","spark_pilot_norest","8170","1","10","Female","","","","","","","null","<p> First, you need to decide whether to go up or down. When you see each picture, use the arrow keys to make your choice. </p>
            <p><b>You will not see which animal you found, but try to get to the one that will give you the most treasure.</b></p>","","instructions","","","","","","","","","","","",""
"html-keyboard-response","265","1253178","0.0-4.0-6.0-0.0","spark_pilot_norest","8170","1","10","Female","","","","","","","null","<div style=""font-size:100px;color:red;"">Starting in...</div>","null","","","","","","","","","","","","",""
"html-keyboard-response","266","1254187","0.0-4.0-6.0-1.0","spark_pilot_norest","8170","1","10","Female","","","","","","","null","<div style=""font-size:200px;color:red;"">3</div>","null","","","","","","","","","","","","",""
"html-keyboard-response","267","1255194","0.0-4.0-6.0-2.0","spark_pilot_norest","8170","1","10","Female","","","","","","","null","<div style=""font-size:200px;color:red;"">2</div>","null","","","","","","","","","","","","",""
"html-keyboard-response","268","1256202","0.0-4.0-6.0-3.0","spark_pilot_norest","8170","1","10","Female","","","","","","","null","<div style=""font-size:200px;color:red;"">1</div>","null","","","","","","","","","","","","",""
"revaluation","269","1257033","0.0-4.0-7.0-0.0","spark_pilot_norest","8170","1","10","Female","","false","","","","","[824.0999999996275]","./assets/img/ocean/test/0.jpg","[""ArrowUp""]","first stage test","ocean","0","{""ArrowUp,ArrowLeft"":26,""ArrowUp,ArrowRight"":10,""ArrowDown,ArrowLeft"":5,""ArrowDown,ArrowRight"":17}","true","ArrowUp","false","original","1","","","",""
"html-keyboard-response","270","1257538","0.0-4.0-7.0-1.0","spark_pilot_norest","8170","1","10","Female","","","","","","","null","<div style=""font-size:60px;"">+</div>","null","fixation","","","","","","","","","","","",""
"revaluation","271","1258614","0.0-4.0-7.0-0.1","spark_pilot_norest","8170","1","10","Female","","false","","","","","[1062.9000000003725]","./assets/img/ocean/test/2.jpg","[""ArrowDown""]","first stage test","ocean","0","{""ArrowUp,ArrowLeft"":26,""ArrowUp,ArrowRight"":10,""ArrowDown,ArrowLeft"":5,""ArrowDown,ArrowRight"":17}","false","ArrowDown","false","original","1","","","",""
"html-keyboard-response","272","1259122","0.0-4.0-7.0-1.1","spark_pilot_norest","8170","1","10","Female","","","","","","","null","<div style=""font-size:60px;"">+</div>","null","fixation","","","","","","","","","","","",""
"revaluation","273","1259728","0.0-4.0-7.0-0.2","spark_pilot_norest","8170","1","10","Female","","false","","","","","[601.8000000007451]","./assets/img/ocean/test/3.jpg","[""ArrowUp""]","first stage test","ocean","0","{""ArrowUp,ArrowLeft"":26,""ArrowUp,ArrowRight"":10,""ArrowDown,ArrowLeft"":5,""ArrowDown,ArrowRight"":17}","true","ArrowUp","false","original","1","","","",""
"html-keyboard-response","274","1260234","0.0-4.0-7.0-1.2","spark_pilot_norest","8170","1","10","Female","","","","","","","null","<div style=""font-size:60px;"">+</div>","null","fixation","","","","","","","","","","","",""
"revaluation","275","1260699","0.0-4.0-7.0-0.3","spark_pilot_norest","8170","1","10","Female","","false","","","","","[460]","./assets/img/ocean/test/1.jpg","[""ArrowDown""]","first stage test","ocean","0","{""ArrowUp,ArrowLeft"":26,""ArrowUp,ArrowRight"":10,""ArrowDown,ArrowLeft"":5,""ArrowDown,ArrowRight"":17}","false","ArrowDown","false","original","1","","","",""
"html-keyboard-response","276","1261202","0.0-4.0-7.0-1.3","spark_pilot_norest","8170","1","10","Female","","","","","","","null","<div style=""font-size:60px;"">+</div>","null","fixation","","","","","","","","","","","",""
"learning-instructions","277","1274554","0.0-4.0-8.0-0.0","spark_pilot_norest","8170","1","10","Female","","","","","","","null","<p> Now you will see the animals again and can search their chests for treasure. </p>
            <p> This time, you will not see how much treasure you earned, but you will earn more bonus money for making better choices. </p>","","instructions","","","","","","","","","","","",""
"html-keyboard-response","278","1275562","0.0-4.0-9.0-0.0","spark_pilot_norest","8170","1","10","Female","","","","","","","null","<div style=""font-size:100px;color:red;"">Starting in...</div>","null","","","","","","","","","","","","",""
"html-keyboard-response","279","1276570","0.0-4.0-9.0-1.0","spark_pilot_norest","8170","1","10","Female","","","","","","","null","<div style=""font-size:200px;color:red;"">3</div>","null","","","","","","","","","","","","",""
"html-keyboard-response","280","1277578","0.0-4.0-9.0-2.0","spark_pilot_norest","8170","1","10","Female","","","","","","","null","<div style=""font-size:200px;color:red;"">2</div>","null","","","","","","","","","","","","",""
"html-keyboard-response","281","1278586","0.0-4.0-9.0-3.0","spark_pilot_norest","8170","1","10","Female","","","","","","","null","<div style=""font-size:200px;color:red;"">1</div>","null","","","","","","","","","","","","",""
"revaluation","282","1279628","0.0-4.0-10.0-0.0","spark_pilot_norest","8170","1","10","Female","","false","","","","","[1031]","./assets/img/ocean/animals/octopus.jpg","[""ArrowLeft""]","second stage test","ocean","0","{""ArrowUp,ArrowLeft"":26,""ArrowUp,ArrowRight"":10,""ArrowDown,ArrowLeft"":5,""ArrowDown,ArrowRight"":17}","true","ArrowUp,ArrowLeft","","original","1","","","",""
"html-keyboard-response","283","1280138","0.0-4.0-10.0-1.0","spark_pilot_norest","8170","1","10","Female","","","","","","","null","<div style=""font-size:60px;"">+</div>","null","fixation","","","","","","","","","","","",""
"revaluation","284","1280866","0.0-4.0-10.0-0.1","spark_pilot_norest","8170","1","10","Female","","false","","","","","[712.7000000011176]","./assets/img/ocean/animals/octopus.jpg","[""ArrowLeft""]","second stage test","ocean","0","{""ArrowUp,ArrowLeft"":26,""ArrowUp,ArrowRight"":10,""ArrowDown,ArrowLeft"":5,""ArrowDown,ArrowRight"":17}","true","ArrowUp,ArrowLeft","","original","1","","","",""
"html-keyboard-response","285","1281371","0.0-4.0-10.0-1.1","spark_pilot_norest","8170","1","10","Female","","","","","","","null","<div style=""font-size:60px;"">+</div>","null","fixation","","","","","","","","","","","",""
"revaluation","286","1281781","0.0-4.0-10.0-0.2","spark_pilot_norest","8170","1","10","Female","","false","","","","","[401]","./assets/img/ocean/animals/octopus.jpg","[""ArrowLeft""]","second stage test","ocean","0","{""ArrowUp,ArrowLeft"":26,""ArrowUp,ArrowRight"":10,""ArrowDown,ArrowLeft"":5,""ArrowDown,ArrowRight"":17}","true","ArrowUp,ArrowLeft","","original","1","","","",""
"html-keyboard-response","287","1282290","0.0-4.0-10.0-1.2","spark_pilot_norest","8170","1","10","Female","","","","","","","null","<div style=""font-size:60px;"">+</div>","null","fixation","","","","","","","","","","","",""
"revaluation","288","1282724","0.0-4.0-10.0-0.3","spark_pilot_norest","8170","1","10","Female","","false","","","","","[418.19999999925494]","./assets/img/ocean/animals/octopus.jpg","[""ArrowLeft""]","second stage test","ocean","0","{""ArrowUp,ArrowLeft"":26,""ArrowUp,ArrowRight"":10,""ArrowDown,ArrowLeft"":5,""ArrowDown,ArrowRight"":17}","true","ArrowUp,ArrowLeft","","original","1","","","",""
"html-keyboard-response","289","1283227","0.0-4.0-10.0-1.3","spark_pilot_norest","8170","1","10","Female","","","","","","","null","<div style=""font-size:60px;"">+</div>","null","fixation","","","","","","","","","","","",""
"revaluation","290","1283732","0.0-4.0-10.0-0.4","spark_pilot_norest","8170","1","10","Female","","false","","","","","[490]","./assets/img/ocean/animals/seahorse.jpg","[""ArrowRight""]","second stage test","ocean","0","{""ArrowUp,ArrowLeft"":26,""ArrowUp,ArrowRight"":10,""ArrowDown,ArrowLeft"":5,""ArrowDown,ArrowRight"":17}","true","ArrowDown,ArrowRight","","original","1","","","",""
"html-keyboard-response","291","1284234","0.0-4.0-10.0-1.4","spark_pilot_norest","8170","1","10","Female","","","","","","","null","<div style=""font-size:60px;"">+</div>","null","fixation","","","","","","","","","","","",""
"revaluation","292","1284667","0.0-4.0-10.0-0.5","spark_pilot_norest","8170","1","10","Female","","false","","","","","[425.90000000037253]","./assets/img/ocean/animals/seahorse.jpg","[""ArrowRight""]","second stage test","ocean","0","{""ArrowUp,ArrowLeft"":26,""ArrowUp,ArrowRight"":10,""ArrowDown,ArrowLeft"":5,""ArrowDown,ArrowRight"":17}","true","ArrowDown,ArrowRight","","original","1","","","",""
"html-keyboard-response","293","1285170","0.0-4.0-10.0-1.5","spark_pilot_norest","8170","1","10","Female","","","","","","","null","<div style=""font-size:60px;"">+</div>","null","fixation","","","","","","","","","","","",""
"revaluation","294","1285616","0.0-4.0-10.0-0.6","spark_pilot_norest","8170","1","10","Female","","false","","","","","[438.7000000011176]","./assets/img/ocean/animals/seahorse.jpg","[""ArrowRight""]","second stage test","ocean","0","{""ArrowUp,ArrowLeft"":26,""ArrowUp,ArrowRight"":10,""ArrowDown,ArrowLeft"":5,""ArrowDown,ArrowRight"":17}","true","ArrowDown,ArrowRight","","original","1","","","",""
"html-keyboard-response","295","1286122","0.0-4.0-10.0-1.6","spark_pilot_norest","8170","1","10","Female","","","","","","","null","<div style=""font-size:60px;"">+</div>","null","fixation","","","","","","","","","","","",""
"revaluation","296","1286524","0.0-4.0-10.0-0.7","spark_pilot_norest","8170","1","10","Female","","false","","","","","[395.2999999988824]","./assets/img/ocean/animals/seahorse.jpg","[""ArrowRight""]","second stage test","ocean","0","{""ArrowUp,ArrowLeft"":26,""ArrowUp,ArrowRight"":10,""ArrowDown,ArrowLeft"":5,""ArrowDown,ArrowRight"":17}","true","ArrowDown,ArrowRight","","original","1","","","",""
"html-keyboard-response","297","1287034","0.0-4.0-10.0-1.7","spark_pilot_norest","8170","1","10","Female","","","","","","","null","<div style=""font-size:60px;"">+</div>","null","fixation","","","","","","","","","","","",""
"learning-instructions","298","1293777","0.0-4.0-0.1-0.2","spark_pilot_norest","8170","1","10","Female","","","","","","","3906.5","<p> This time you are searching for treasure in the <b>canyon</b>.</p>","","instructions","","","","","","","","","","","",""
"learning-instructions","299","1322866","0.0-4.0-0.1-0.3","spark_pilot_norest","8170","1","10","Female","","","","","","","11831.300000000745","<p><b>New</b> animals with <b>new</b> treasure chests live here. You need to explore to discover where the animal with the best treasure chest is.</p>
                    <p> Like before, once you figure out which animal has the chest with the most treasure, you should try to get to that animal and select that chest! </p>","","instructions","","","","","","","","","","","",""
"learning-instructions","300","1342819","0.0-4.0-1.1-0.1","spark_pilot_norest","8170","1","10","Female","","","","","","","5226","<p> Remember, when you see a picture of the place, use the up and down keys to <b>find an animal</b>.</p>
            <p> When you encounter an animal, you should use the left and right keys to <b>select a treasure chest</b>.</p>
            <p> Don't forget to look out for the robber! </p>","","instructions","","","","","","","","","","","",""
"revaluation","301","1348843","0.0-4.0-2.1-0.50","spark_pilot_norest","8170","1","10","Female","","false","","","","","[892.9000000003725,698.4000000003725]","./assets/img/canyon/memory/39.jpg","[""ArrowDown"",""ArrowLeft""]","value training","canyon","8","{""ArrowUp,ArrowLeft"":23,""ArrowUp,ArrowRight"":10,""ArrowDown,ArrowLeft"":8,""ArrowDown,ArrowRight"":30}","false","ArrowDown,ArrowLeft","false","revaluation","2","0","","",""
"html-keyboard-response","302","1349346","0.0-4.0-2.1-1.50","spark_pilot_norest","8170","1","10","Female","","","","","","","null","<div style=""font-size:60px;"">+</div>","null","fixation","","","","","","","","","1","","",""
