"trial_type","trial_index","time_elapsed","internal_node_id","task_version","subject_id","assigned_condition","age","gender","success","timeout","failed_images","failed_audio","failed_video","browser_interaction","rt","stimulus","response","task_part","environment","score","rewardMap","correct","fullState","isCatch","condition","order","trial_num","key_press","ground_truth","bonus"
"pavlovia","0","1234","0.0-0.0","spark_pilot_norest","8320","5","12","Male","","","","","","","","","","","","","","","","","","","","","",""
"preload","1","46639","0.0-1.0","spark_pilot_norest","8320","5","12","Male","true","false","[]","[]","[]","[{""event"":""fullscreenenter"",""trial"":2,""time"":52349}]","","","","","","","","","","","","","","","",""
"fullscreen","2","53229","0.0-2.0","spark_pilot_norest","8320","5","12","Male","true","","","","","","","","","","","","","","","","","","","","",""
"audio-button-response","3","58264","0.0-3.0-0.0-0.0","spark_pilot_norest","8320","5","12","Male","","","","","","","4320","./assets/audio/audiotest/turtle.mp3","2","audio_test","","","","","","","","","","","",""
"learning-instructions","4","67569","0.0-3.0-1.0-0.0","spark_pilot_norest","8320","5","12","Male","","","","","","","2203.2000000001863","<p> Welcome! Please remember to stay in fullscreen mode and don't click away from the experiment. </p>","","instructions","","","","","","","","","","","",""
"learning-instructions","5","77055","0.0-3.0-1.0-0.1","spark_pilot_norest","8320","5","12","Male","","","","","","","950.8999999999069","<p> Today you will be playing a game to earn treasure. </p>
            <p> At the end of the experiment, you will earn a bonus based on how much treasure you find. </p>
            <img src='./assets/img/instructions/treasure.jpg' class='instructions-image'>","","instructions","","","","","","","","","","","",""
"learning-instructions","6","86174","0.0-3.0-1.0-0.2","spark_pilot_norest","8320","5","12","Male","","","","","","","720.7999999998137","<p> Animals have hidden treasure in treasure chests. </p>
            <p> You need to first find an animal and then choose which of their treasure chests to search. </p>
            <img src='./assets/img/space/animals/cat.jpg' class='instructions-image'>","","instructions","","","","","","","","","","","",""
"learning-instructions","7","100156","0.0-3.0-1.0-0.3","spark_pilot_norest","8320","5","12","Male","","","","","","","653","<p> In each round, you will search for treasure in a different place. In the real game, there will be two rounds. </p>
            <p> You will begin with a separate, practice round where you will search for treasure in outer space. </p>
            <img src='./assets/img/space/0.jpg' class='instructions-image'>","","instructions","","","","","","","","","","","",""
"learning-instructions","8","112331","0.0-3.0-1.0-0.4","spark_pilot_norest","8320","5","12","Male","","","","","","","625.5","<p> On every turn, you will see a picture of the place that you are in, but the specific image may be different each time. </p>
            <p> For example, both of these images mean you are in outer space. </p>
            <img src='./assets/img/instructions/outerspace.jpg' class='instructions-image'>","","instructions","","","","","","","","","","","",""
"learning-instructions","9","121335","0.0-3.0-1.0-0.5","spark_pilot_norest","8320","5","12","Male","","","","","","","1074.7000000001863","<p> You need to decide which direction to travel in. </p>
            <p> You can choose between going <b>up or down</b> by using the arrow keys. </p>
            <img src='./assets/img/instructions/updown.jpg' class='instructions-image'>","","instructions","","","","","","","","","","","",""
"learning-instructions","10","132457","0.0-3.0-1.0-0.6","spark_pilot_norest","8320","5","12","Male","","","","","","","2190.8000000002794","<p> You will have <b>2 seconds</b> to make your choice. </p>
            <p> If you do not make a choice within 2 seconds, you will not find an animal or earn treasure. </p>
            <img src='./assets/img/instructions/2seconds.jpg' class='instructions-image'>","","instructions","","","","","","","","","","","",""
"learning-instructions","11","141059","0.0-3.0-1.0-0.7","spark_pilot_norest","8320","5","12","Male","","","","","","","1453.2000000001863","<p> Let’s try practicing that now! </p>
            <p> When you see a picture of the place you are in, press the <b>up</b> key to travel up. </p>
            <img src='./assets/img/instructions/pressUp.jpg' class='instructions-image'>","","instructions","","","","","","","","","","","",""
"revaluation","12","145154","0.0-3.0-2.0-0.0","spark_pilot_norest","8320","5","12","Male","","false","","","","","[960.5]","./assets/img/space/0.jpg","[""ArrowUp""]","first stage practice","space","0","null","null","ArrowUp","false","","","","","",""
"html-keyboard-response","13","145664","0.0-3.0-2.0-1.0","spark_pilot_norest","8320","5","12","Male","","","","","","","null","<div style=""font-size:60px;"">+</div>","null","fixation","","","","","","","","","","","",""
"revaluation","14","149703","0.0-3.0-2.0-0.1","spark_pilot_norest","8320","5","12","Male","","false","","","","","[958.7999999998137]","./assets/img/space/1.jpg","[""ArrowUp""]","first stage practice","space","0","null","null","ArrowUp","false","","","","","",""
"html-keyboard-response","15","150214","0.0-3.0-2.0-1.1","spark_pilot_norest","8320","5","12","Male","","","","","","","null","<div style=""font-size:60px;"">+</div>","null","fixation","","","","","","","","","","","",""
"revaluation","16","154257","0.0-3.0-2.0-0.2","spark_pilot_norest","8320","5","12","Male","","false","","","","","[585.6999999997206]","./assets/img/space/2.jpg","[""ArrowUp""]","first stage practice","space","0","null","null","ArrowUp","false","","","","","",""
"html-keyboard-response","17","154769","0.0-3.0-2.0-1.2","spark_pilot_norest","8320","5","12","Male","","","","","","","null","<div style=""font-size:60px;"">+</div>","null","fixation","","","","","","","","","","","",""
"learning-instructions","18","160015","0.0-3.0-3.0-0.0","spark_pilot_norest","8320","5","12","Male","","","","","","","459.39999999990687","<p> Great job! Now try pressing the <b>down</b> key to travel down. </p>
            <img src='./assets/img/instructions/pressDown.jpg' class='instructions-image'>","","instructions","","","","","","","","","","","",""
"revaluation","19","164043","0.0-3.0-4.0-0.0","spark_pilot_norest","8320","5","12","Male","","false","","","","","[432.5]","./assets/img/space/3.jpg","[""ArrowDown""]","first stage practice","space","0","null","null","ArrowDown","false","","","","","",""
"html-keyboard-response","20","164548","0.0-3.0-4.0-1.0","spark_pilot_norest","8320","5","12","Male","","","","","","","null","<div style=""font-size:60px;"">+</div>","null","fixation","","","","","","","","","","","",""
"revaluation","21","168575","0.0-3.0-4.0-0.1","spark_pilot_norest","8320","5","12","Male","","false","","","","","[594.5]","./assets/img/space/4.jpg","[""ArrowDown""]","first stage practice","space","0","null","null","ArrowDown","false","","","","","",""
"html-keyboard-response","22","169092","0.0-3.0-4.0-1.1","spark_pilot_norest","8320","5","12","Male","","","","","","","null","<div style=""font-size:60px;"">+</div>","null","fixation","","","","","","","","","","","",""
"revaluation","23","173124","0.0-3.0-4.0-0.2","spark_pilot_norest","8320","5","12","Male","","false","","","","","[474.60000000009313]","./assets/img/space/5.jpg","[""ArrowDown""]","first stage practice","space","0","null","null","ArrowDown","false","","","","","",""
"html-keyboard-response","24","173628","0.0-3.0-4.0-1.2","spark_pilot_norest","8320","5","12","Male","","","","","","","null","<div style=""font-size:60px;"">+</div>","null","fixation","","","","","","","","","","","",""
"learning-instructions","25","186563","0.0-3.0-5.0-0.0","spark_pilot_norest","8320","5","12","Male","","","","","","","2982.1999999997206","<p> The animals don’t move, so the animal in the upper part of a place will stay in the upper part of a place, and the animal in the lower part of a place will stay in the lower part of a place. </p>","","instructions","","","","","","","","","","","",""
"learning-instructions","26","196537","0.0-3.0-5.0-0.1","spark_pilot_norest","8320","5","12","Male","","","","","","","756.3000000002794","<p> Each animal has two treasure chests for you to choose from. </p>
            <p> The amount of treasure in each chest can range from <b> 0 to 40 pieces.</b></p>","","instructions","","","","","","","","","","","",""
"learning-instructions","27","208381","0.0-3.0-5.0-0.2","spark_pilot_norest","8320","5","12","Male","","","","","","","549.6999999997206","<p> You should decide which chest to search for treasure by using the <b>left</b> and <b>right</b> arrow keys. </p>
            <p><b> Pay attention to which animal is on the screen, as the animals have different treasure chests. </b></p>
            <img src='./assets/img/instructions/leftright.jpg' class='instructions-image'>","","instructions","","","","","","","","","","","",""
"learning-instructions","28","215303","0.0-3.0-5.0-0.3","spark_pilot_norest","8320","5","12","Male","","","","","","","481.60000000009313","<p> Let’s try practicing that now. </p>
            <p> When you see an animal, choose which chest to search for treasure. </p>
            <img src='./assets/img/instructions/chooseChest.jpg' class='instructions-image'>","","instructions","","","","","","","","","","","",""
"revaluation","29","219324","0.0-3.0-6.0-0.0","spark_pilot_norest","8320","5","12","Male","","false","","","","","[878]","./assets/img/space/animals/rabbit.jpg","[""ArrowRight""]","second stage practice","space","23","{""ArrowUp,ArrowLeft"":3,""ArrowUp,ArrowRight"":36,""ArrowDown,ArrowLeft"":15,""ArrowDown,ArrowRight"":23}","true","ArrowDown,ArrowRight","","","","","","",""
"html-keyboard-response","30","219826","0.0-3.0-6.0-1.0","spark_pilot_norest","8320","5","12","Male","","","","","","","null","<div style=""font-size:60px;"">+</div>","null","fixation","","","","","","","","","","","",""
"revaluation","31","223843","0.0-3.0-6.0-0.1","spark_pilot_norest","8320","5","12","Male","","false","","","","","[438.5]","./assets/img/space/animals/cat.jpg","[""ArrowLeft""]","second stage practice","space","3","{""ArrowUp,ArrowLeft"":3,""ArrowUp,ArrowRight"":36,""ArrowDown,ArrowLeft"":15,""ArrowDown,ArrowRight"":23}","false","ArrowUp,ArrowLeft","","","","","","",""
"html-keyboard-response","32","224346","0.0-3.0-6.0-1.1","spark_pilot_norest","8320","5","12","Male","","","","","","","null","<div style=""font-size:60px;"">+</div>","null","fixation","","","","","","","","","","","",""
"revaluation","33","228364","0.0-3.0-6.0-0.2","spark_pilot_norest","8320","5","12","Male","","false","","","","","[334.59999999962747]","./assets/img/space/animals/cat.jpg","[""ArrowRight""]","second stage practice","space","36","{""ArrowUp,ArrowLeft"":3,""ArrowUp,ArrowRight"":36,""ArrowDown,ArrowLeft"":15,""ArrowDown,ArrowRight"":23}","true","ArrowUp,ArrowRight","","","","","","",""
"html-keyboard-response","34","228867","0.0-3.0-6.0-1.2","spark_pilot_norest","8320","5","12","Male","","","","","","","null","<div style=""font-size:60px;"">+</div>","null","fixation","","","","","","","","","","","",""
"revaluation","35","232884","0.0-3.0-6.0-0.3","spark_pilot_norest","8320","5","12","Male","","false","","","","","[343.5]","./assets/img/space/animals/rabbit.jpg","[""ArrowRight""]","second stage practice","space","23","{""ArrowUp,ArrowLeft"":3,""ArrowUp,ArrowRight"":36,""ArrowDown,ArrowLeft"":15,""ArrowDown,ArrowRight"":23}","true","ArrowDown,ArrowRight","","","","","","",""
"html-keyboard-response","36","233387","0.0-3.0-6.0-1.3","spark_pilot_norest","8320","5","12","Male","","","","","","","null","<div style=""font-size:60px;"">+</div>","null","fixation","","","","","","","","","","","",""
"learning-instructions","37","251918","0.0-3.0-7.0-0.0","spark_pilot_norest","8320","5","12","Male","","","","","","","1584.7999999998137","<p> Great job. Now let’s try putting it together. </p>
            <p> On each turn, you will first see a picture to remind you of the place you are in, and you need to choose whether to go up or down. </p>
            <p> Then you will see an animal and choose which of its chests to search for treasure. </p>","","instructions","","","","","","","","","","","",""
"learning-instructions","38","262855","0.0-3.0-7.0-0.1","spark_pilot_norest","8320","5","12","Male","","","","","","","2592.399999999907","<p> When you choose whether to go up or down, try to go to the animal with the chest with the most treasure. </p>
            <p> Try practicing that now! </p>","","instructions","","","","","","","","","","","",""
"revaluation","39","268887","0.0-3.0-8.0-0.0","spark_pilot_norest","8320","5","12","Male","","false","","","","","[473.79999999981374,459.79999999981374]","./assets/img/space/6.jpg","[""ArrowDown"",""ArrowLeft""]","full practice","space","15","{""ArrowUp,ArrowLeft"":3,""ArrowUp,ArrowRight"":36,""ArrowDown,ArrowLeft"":15,""ArrowDown,ArrowRight"":23}","false","ArrowDown,ArrowLeft","false","","","","","",""
"html-keyboard-response","40","269391","0.0-3.0-8.0-1.0","spark_pilot_norest","8320","5","12","Male","","","","","","","null","<div style=""font-size:60px;"">+</div>","null","fixation","","","","","","","","","","","",""
"revaluation","41","275424","0.0-3.0-8.0-0.1","spark_pilot_norest","8320","5","12","Male","","false","","","","","[739.1999999997206,379]","./assets/img/space/7.jpg","[""ArrowDown"",""ArrowRight""]","full practice","space","23","{""ArrowUp,ArrowLeft"":3,""ArrowUp,ArrowRight"":36,""ArrowDown,ArrowLeft"":15,""ArrowDown,ArrowRight"":23}","false","ArrowDown,ArrowRight","false","","","","","",""
"html-keyboard-response","42","275935","0.0-3.0-8.0-1.1","spark_pilot_norest","8320","5","12","Male","","","","","","","null","<div style=""font-size:60px;"">+</div>","null","fixation","","","","","","","","","","","",""
"revaluation","43","281975","0.0-3.0-8.0-0.2","spark_pilot_norest","8320","5","12","Male","","false","","","","","[382.10000000009313,503.10000000009313]","./assets/img/space/8.jpg","[""ArrowUp"",""ArrowRight""]","full practice","space","36","{""ArrowUp,ArrowLeft"":3,""ArrowUp,ArrowRight"":36,""ArrowDown,ArrowLeft"":15,""ArrowDown,ArrowRight"":23}","true","ArrowUp,ArrowRight","false","","","","","",""
"html-keyboard-response","44","282478","0.0-3.0-8.0-1.2","spark_pilot_norest","8320","5","12","Male","","","","","","","null","<div style=""font-size:60px;"">+</div>","null","fixation","","","","","","","","","","","",""
"revaluation","45","288503","0.0-3.0-8.0-0.3","spark_pilot_norest","8320","5","12","Male","","false","","","","","[528.5,416.20000000018626]","./assets/img/space/9.jpg","[""ArrowUp"",""ArrowRight""]","full practice","space","36","{""ArrowUp,ArrowLeft"":3,""ArrowUp,ArrowRight"":36,""ArrowDown,ArrowLeft"":15,""ArrowDown,ArrowRight"":23}","true","ArrowUp,ArrowRight","false","","","","","",""
"html-keyboard-response","46","289006","0.0-3.0-8.0-1.3","spark_pilot_norest","8320","5","12","Male","","","","","","","null","<div style=""font-size:60px;"">+</div>","null","fixation","","","","","","","","","","","",""
"revaluation","47","295039","0.0-3.0-8.0-0.4","spark_pilot_norest","8320","5","12","Male","","false","","","","","[602.2999999998137,411.39999999990687]","./assets/img/space/10.jpg","[""ArrowUp"",""ArrowRight""]","full practice","space","36","{""ArrowUp,ArrowLeft"":3,""ArrowUp,ArrowRight"":36,""ArrowDown,ArrowLeft"":15,""ArrowDown,ArrowRight"":23}","true","ArrowUp,ArrowRight","false","","","","","",""
"html-keyboard-response","48","295542","0.0-3.0-8.0-1.4","spark_pilot_norest","8320","5","12","Male","","","","","","","null","<div style=""font-size:60px;"">+</div>","null","fixation","","","","","","","","","","","",""
"learning-instructions","49","307927","0.0-3.0-9.0-0.0","spark_pilot_norest","8320","5","12","Male","","","","","","","1843.6999999997206","<p> One last thing: sometimes, you will see a robber. The robber can be anywhere in the picture. </p>
            <p> If you do not stop them, you will lose treasure. </p>
            <img src='./assets/img/instructions/robber.jpg' class='instructions-image'>","","instructions","","","","","","","","","","","",""
"learning-instructions","50","316039","0.0-3.0-9.0-0.1","spark_pilot_norest","8320","5","12","Male","","","","","","","875.7000000001863","<p> If you see the robber, you should <b>press the space bar</b> rather than using the arrow keys. </p>
            <p> Try practicing that now! </p>","","instructions","","","","","","","","","","","",""
"revaluation","51","320056","0.0-3.0-10.0-0.0","spark_pilot_norest","8320","5","12","Male","","false","","","","","[724.5999999996275]","./assets/img/space/catch/0.jpg","[""spaceBar""]","catch practice","space","0","{""ArrowUp,ArrowLeft"":3,""ArrowUp,ArrowRight"":36,""ArrowDown,ArrowLeft"":15,""ArrowDown,ArrowRight"":23}","true","spaceBar","true","","","","","",""
"html-keyboard-response","52","320559","0.0-3.0-10.0-1.0","spark_pilot_norest","8320","5","12","Male","","","","","","","null","<div style=""font-size:60px;"">+</div>","null","fixation","","","","","","","","","","","",""
"revaluation","53","324576","0.0-3.0-10.0-0.1","spark_pilot_norest","8320","5","12","Male","","false","","","","","[542.2000000001863]","./assets/img/space/catch/1.jpg","[""spaceBar""]","catch practice","space","0","{""ArrowUp,ArrowLeft"":3,""ArrowUp,ArrowRight"":36,""ArrowDown,ArrowLeft"":15,""ArrowDown,ArrowRight"":23}","true","spaceBar","true","","","","","",""
"html-keyboard-response","54","325080","0.0-3.0-10.0-1.1","spark_pilot_norest","8320","5","12","Male","","","","","","","null","<div style=""font-size:60px;"">+</div>","null","fixation","","","","","","","","","","","",""
"revaluation","55","329105","0.0-3.0-10.0-0.2","spark_pilot_norest","8320","5","12","Male","","false","","","","","[481.10000000009313]","./assets/img/space/catch/2.jpg","[""spaceBar""]","catch practice","space","0","{""ArrowUp,ArrowLeft"":3,""ArrowUp,ArrowRight"":36,""ArrowDown,ArrowLeft"":15,""ArrowDown,ArrowRight"":23}","true","spaceBar","true","","","","","",""
"html-keyboard-response","56","329608","0.0-3.0-10.0-1.2","spark_pilot_norest","8320","5","12","Male","","","","","","","null","<div style=""font-size:60px;"">+</div>","null","fixation","","","","","","","","","","","",""
"learning-instructions","57","336475","0.0-3.0-11.0-0.0-0.0","spark_pilot_norest","8320","5","12","Male","","","","","","","1482.3999999999069","<p> Now, you will practice a shortened version of the game to get a sense of how it all fits together. </p>","","instructions","","","","","","","","","","","",""
"learning-instructions","58","340808","0.0-3.0-11.0-0.0-0.1","spark_pilot_norest","8320","5","12","Male","","","","","","","1095.6000000000931","<p>This time you are searching for treasure in outer space.</p>","","instructions","","","","","","","","","","","",""
"learning-instructions","59","357297","0.0-3.0-11.0-1.0-0.0","spark_pilot_norest","8320","5","12","Male","","","","","","","1584.8000000002794","<p> Remember, when you see a picture of the place, use the up and down keys to <b>find an animal</b>.</p>
            <p> When you encounter an animal, you should use the left and right keys to <b>select a treasure chest</b>.</p>
            <p> Don't forget to look out for the robber! </p>","","instructions","","","","","","","","","","","",""
"revaluation","60","363329","0.0-3.0-11.0-2.0-0.0","spark_pilot_norest","8320","5","12","Male","","false","","","","","[1165.5,402.60000000009313]","./assets/img/space/11.jpg","[""ArrowUp"",""ArrowRight""]","practice block","space","36","{""ArrowUp,ArrowLeft"":3,""ArrowUp,ArrowRight"":36,""ArrowDown,ArrowLeft"":15,""ArrowDown,ArrowRight"":23}","true","ArrowUp,ArrowRight","false","","","","","",""
"html-keyboard-response","61","363832","0.0-3.0-11.0-2.0-1.0","spark_pilot_norest","8320","5","12","Male","","","","","","","null","<div style=""font-size:60px;"">+</div>","null","fixation","","","","","","","","","","","",""
"revaluation","62","369864","0.0-3.0-11.0-2.0-0.1","spark_pilot_norest","8320","5","12","Male","","false","","","","","[859.2000000001863,576.3999999999069]","./assets/img/space/12.jpg","[""ArrowUp"",""ArrowRight""]","practice block","space","36","{""ArrowUp,ArrowLeft"":3,""ArrowUp,ArrowRight"":36,""ArrowDown,ArrowLeft"":15,""ArrowDown,ArrowRight"":23}","true","ArrowUp,ArrowRight","false","","","","","",""
"html-keyboard-response","63","370368","0.0-3.0-11.0-2.0-1.1","spark_pilot_norest","8320","5","12","Male","","","","","","","null","<div style=""font-size:60px;"">+</div>","null","fixation","","","","","","","","","","","",""
"revaluation","64","376394","0.0-3.0-11.0-2.0-0.2","spark_pilot_norest","8320","5","12","Male","","false","","","","","[812.6999999997206,880.8999999999069]","./assets/img/space/13.jpg","[""ArrowUp"",""ArrowRight""]","practice block","space","36","{""ArrowUp,ArrowLeft"":3,""ArrowUp,ArrowRight"":36,""ArrowDown,ArrowLeft"":15,""ArrowDown,ArrowRight"":23}","true","ArrowUp,ArrowRight","false","","","","","",""
"html-keyboard-response","65","376897","0.0-3.0-11.0-2.0-1.2","spark_pilot_norest","8320","5","12","Male","","","","","","","null","<div style=""font-size:60px;"">+</div>","null","fixation","","","","","","","","","","","",""
"revaluation","66","382922","0.0-3.0-11.0-2.0-0.3","spark_pilot_norest","8320","5","12","Male","","false","","","","","[560.7999999998137,571.2000000001863]","./assets/img/space/14.jpg","[""ArrowUp"",""ArrowRight""]","practice block","space","36","{""ArrowUp,ArrowLeft"":3,""ArrowUp,ArrowRight"":36,""ArrowDown,ArrowLeft"":15,""ArrowDown,ArrowRight"":23}","true","ArrowUp,ArrowRight","false","","","","","",""
"html-keyboard-response","67","383425","0.0-3.0-11.0-2.0-1.3","spark_pilot_norest","8320","5","12","Male","","","","","","","null","<div style=""font-size:60px;"">+</div>","null","fixation","","","","","","","","","","","",""
"revaluation","68","389450","0.0-3.0-11.0-2.0-0.4","spark_pilot_norest","8320","5","12","Male","","false","","","","","[1005.9000000003725,440.1999999997206]","./assets/img/space/11.jpg","[""ArrowUp"",""ArrowRight""]","practice block","space","36","{""ArrowUp,ArrowLeft"":3,""ArrowUp,ArrowRight"":36,""ArrowDown,ArrowLeft"":15,""ArrowDown,ArrowRight"":23}","true","ArrowUp,ArrowRight","false","","","","","",""
"html-keyboard-response","69","389954","0.0-3.0-11.0-2.0-1.4","spark_pilot_norest","8320","5","12","Male","","","","","","","null","<div style=""font-size:60px;"">+</div>","null","fixation","","","","","","","","","","","",""
"revaluation","70","395979","0.0-3.0-11.0-2.0-0.5","spark_pilot_norest","8320","5","12","Male","","false","","","","","[1070,485.70000000018626]","./assets/img/space/12.jpg","[""ArrowUp"",""ArrowRight""]","practice block","space","36","{""ArrowUp,ArrowLeft"":3,""ArrowUp,ArrowRight"":36,""ArrowDown,ArrowLeft"":15,""ArrowDown,ArrowRight"":23}","true","ArrowUp,ArrowRight","false","","","","","",""
"html-keyboard-response","71","396482","0.0-3.0-11.0-2.0-1.5","spark_pilot_norest","8320","5","12","Male","","","","","","","null","<div style=""font-size:60px;"">+</div>","null","fixation","","","","","","","","","","","",""
"revaluation","72","402515","0.0-3.0-11.0-2.0-0.6","spark_pilot_norest","8320","5","12","Male","","false","","","","","[769,661]","./assets/img/space/13.jpg","[""ArrowUp"",""ArrowRight""]","practice block","space","36","{""ArrowUp,ArrowLeft"":3,""ArrowUp,ArrowRight"":36,""ArrowDown,ArrowLeft"":15,""ArrowDown,ArrowRight"":23}","true","ArrowUp,ArrowRight","false","","","","","",""
"html-keyboard-response","73","403017","0.0-3.0-11.0-2.0-1.6","spark_pilot_norest","8320","5","12","Male","","","","","","","null","<div style=""font-size:60px;"">+</div>","null","fixation","","","","","","","","","","","",""
"revaluation","74","409050","0.0-3.0-11.0-2.0-0.7","spark_pilot_norest","8320","5","12","Male","","false","","","","","[764.1000000000931,634.5]","./assets/img/space/14.jpg","[""ArrowUp"",""ArrowRight""]","practice block","space","36","{""ArrowUp,ArrowLeft"":3,""ArrowUp,ArrowRight"":36,""ArrowDown,ArrowLeft"":15,""ArrowDown,ArrowRight"":23}","true","ArrowUp,ArrowRight","false","","","","","",""
"html-keyboard-response","75","409553","0.0-3.0-11.0-2.0-1.7","spark_pilot_norest","8320","5","12","Male","","","","","","","null","<div style=""font-size:60px;"">+</div>","null","fixation","","","","","","","","","","","",""
"revaluation","76","413570","0.0-3.0-11.0-2.0-0.8","spark_pilot_norest","8320","5","12","Male","","false","","","","","[808.5]","./assets/img/space/catch/3.jpg","[""spaceBar""]","practice block","space","0","{""ArrowUp,ArrowLeft"":3,""ArrowUp,ArrowRight"":36,""ArrowDown,ArrowLeft"":15,""ArrowDown,ArrowRight"":23}","true","spaceBar","true","","","","","",""
"html-keyboard-response","77","414073","0.0-3.0-11.0-2.0-1.8","spark_pilot_norest","8320","5","12","Male","","","","","","","null","<div style=""font-size:60px;"">+</div>","null","fixation","","","","","","","","","","","",""
"learning-instructions","78","428424","0.0-3.0-11.0-3.0-0.0","spark_pilot_norest","8320","5","12","Male","","","","","","","1155.5","<p> Now, you will travel with a friend who will choose whether you go up or down first. </p>
            <p> On these turns, you will just see the animal that they found. You will still get to choose which chest to search for treasure.</p>","","instructions","","","","","","","","","","","",""
"revaluation","79","432443","0.0-3.0-11.0-4.0-0.0","spark_pilot_norest","8320","5","12","Male","","false","","","","","[1260.3999999999069]","./assets/img/space/animals/rabbit.jpg","[""ArrowRight""]","practice block","space","23","{""ArrowUp,ArrowLeft"":3,""ArrowUp,ArrowRight"":36,""ArrowDown,ArrowLeft"":15,""ArrowDown,ArrowRight"":23}","true","ArrowDown,ArrowRight","","","","","","",""
"html-keyboard-response","80","432945","0.0-3.0-11.0-4.0-1.0","spark_pilot_norest","8320","5","12","Male","","","","","","","null","<div style=""font-size:60px;"">+</div>","null","fixation","","","","","","","","","","","",""
"revaluation","81","436963","0.0-3.0-11.0-4.0-0.1","spark_pilot_norest","8320","5","12","Male","","false","","","","","[452.5]","./assets/img/space/animals/cat.jpg","[""ArrowRight""]","practice block","space","36","{""ArrowUp,ArrowLeft"":3,""ArrowUp,ArrowRight"":36,""ArrowDown,ArrowLeft"":15,""ArrowDown,ArrowRight"":23}","true","ArrowUp,ArrowRight","","","","","","",""
"html-keyboard-response","82","437467","0.0-3.0-11.0-4.0-1.1","spark_pilot_norest","8320","5","12","Male","","","","","","","null","<div style=""font-size:60px;"">+</div>","null","fixation","","","","","","","","","","","",""
"revaluation","83","441492","0.0-3.0-11.0-4.0-0.2","spark_pilot_norest","8320","5","12","Male","","false","","","","","[339.5]","./assets/img/space/animals/cat.jpg","[""ArrowLeft""]","practice block","space","3","{""ArrowUp,ArrowLeft"":3,""ArrowUp,ArrowRight"":36,""ArrowDown,ArrowLeft"":15,""ArrowDown,ArrowRight"":23}","false","ArrowUp,ArrowLeft","","","","","","",""
"html-keyboard-response","84","441995","0.0-3.0-11.0-4.0-1.2","spark_pilot_norest","8320","5","12","Male","","","","","","","null","<div style=""font-size:60px;"">+</div>","null","fixation","","","","","","","","","","","",""
"revaluation","85","446012","0.0-3.0-11.0-4.0-0.3","spark_pilot_norest","8320","5","12","Male","","false","","","","","[584.8999999999069]","./assets/img/space/animals/rabbit.jpg","[""ArrowLeft""]","practice block","space","15","{""ArrowUp,ArrowLeft"":3,""ArrowUp,ArrowRight"":36,""ArrowDown,ArrowLeft"":15,""ArrowDown,ArrowRight"":23}","false","ArrowDown,ArrowLeft","","","","","","",""
"html-keyboard-response","86","446515","0.0-3.0-11.0-4.0-1.3","spark_pilot_norest","8320","5","12","Male","","","","","","","null","<div style=""font-size:60px;"">+</div>","null","fixation","","","","","","","","","","","",""
"learning-instructions","87","454699","0.0-3.0-11.0-5.0-0.0","spark_pilot_norest","8320","5","12","Male","","","","","","","null","<p> You have almost finished this part of the game! </p>
            <p> We are going to ask you to make a few more choices. </p>","","instructions","","","","","","","","","","","",""
"learning-instructions","88","470851","0.0-3.0-11.0-5.0-0.1","spark_pilot_norest","8320","5","12","Male","","","","","","","null","<p> First, you need to decide whether to go up or down. When you see each picture, use the arrow keys to make your choice. </p>
            <p><b>You will not see which animal you found, but try to get to the one that will give you the most treasure.</b></p>","","instructions","","","","","","","","","","","",""
"html-keyboard-response","89","471859","0.0-3.0-11.0-6.0-0.0","spark_pilot_norest","8320","5","12","Male","","","","","","","null","<div style=""font-size:100px;color:red;"">Starting in...</div>","null","","","","","","","","","","","","",""
"html-keyboard-response","90","472867","0.0-3.0-11.0-6.0-1.0","spark_pilot_norest","8320","5","12","Male","","","","","","","null","<div style=""font-size:200px;color:red;"">3</div>","null","","","","","","","","","","","","",""
"html-keyboard-response","91","473875","0.0-3.0-11.0-6.0-2.0","spark_pilot_norest","8320","5","12","Male","","","","","","","null","<div style=""font-size:200px;color:red;"">2</div>","null","","","","","","","","","","","","",""
"html-keyboard-response","92","474884","0.0-3.0-11.0-6.0-3.0","spark_pilot_norest","8320","5","12","Male","","","","","","","null","<div style=""font-size:200px;color:red;"">1</div>","null","","","","","","","","","","","","",""
"revaluation","93","475870","0.0-3.0-11.0-7.0","spark_pilot_norest","8320","5","12","Male","","false","","","","","[973]","./assets/img/space/15.jpg","[""ArrowUp""]","practice block","space","0","{""ArrowUp,ArrowLeft"":3,""ArrowUp,ArrowRight"":36,""ArrowDown,ArrowLeft"":15,""ArrowDown,ArrowRight"":23}","true","ArrowUp","false","","","","","",""
"html-keyboard-response","94","476379","0.0-3.0-11.0-8.0","spark_pilot_norest","8320","5","12","Male","","","","","","","null","<div style=""font-size:60px;"">+</div>","null","fixation","","","","","","","","","","","",""
"learning-instructions","95","489851","0.0-3.0-11.0-9.0-0.0","spark_pilot_norest","8320","5","12","Male","","","","","","","null","<p> Now you will see the animals again and can search their chests for treasure. </p>
            <p> This time, you will not see how much treasure you earned, but you will earn more bonus money for making better choices. </p>","","instructions","","","","","","","","","","","",""
"html-keyboard-response","96","490859","0.0-3.0-11.0-10.0-0.0","spark_pilot_norest","8320","5","12","Male","","","","","","","null","<div style=""font-size:100px;color:red;"">Starting in...</div>","null","","","","","","","","","","","","",""
"html-keyboard-response","97","491868","0.0-3.0-11.0-10.0-1.0","spark_pilot_norest","8320","5","12","Male","","","","","","","null","<div style=""font-size:200px;color:red;"">3</div>","null","","","","","","","","","","","","",""
"html-keyboard-response","98","492875","0.0-3.0-11.0-10.0-2.0","spark_pilot_norest","8320","5","12","Male","","","","","","","null","<div style=""font-size:200px;color:red;"">2</div>","null","","","","","","","","","","","","",""
"html-keyboard-response","99","493883","0.0-3.0-11.0-10.0-3.0","spark_pilot_norest","8320","5","12","Male","","","","","","","null","<div style=""font-size:200px;color:red;"">1</div>","null","","","","","","","","","","","","",""
"revaluation","100","494504","0.0-3.0-11.0-11.0-0.0","spark_pilot_norest","8320","5","12","Male","","false","","","","","[608.6000000000931]","./assets/img/space/animals/cat.jpg","[""ArrowRight""]","practice block","space","0","{""ArrowUp,ArrowLeft"":3,""ArrowUp,ArrowRight"":36,""ArrowDown,ArrowLeft"":15,""ArrowDown,ArrowRight"":23}","true","ArrowUp,ArrowRight","","","","","","",""
"html-keyboard-response","101","495012","0.0-3.0-11.0-11.0-1.0","spark_pilot_norest","8320","5","12","Male","","","","","","","null","<div style=""font-size:60px;"">+</div>","null","fixation","","","","","","","","","","","",""
"revaluation","102","495914","0.0-3.0-11.0-11.0-0.1","spark_pilot_norest","8320","5","12","Male","","false","","","","","[896.9000000003725]","./assets/img/space/animals/rabbit.jpg","[""ArrowLeft""]","practice block","space","0","{""ArrowUp,ArrowLeft"":3,""ArrowUp,ArrowRight"":36,""ArrowDown,ArrowLeft"":15,""ArrowDown,ArrowRight"":23}","false","ArrowDown,ArrowLeft","","","","","","",""
"html-keyboard-response","103","496418","0.0-3.0-11.0-11.0-1.1","spark_pilot_norest","8320","5","12","Male","","","","","","","null","<div style=""font-size:60px;"">+</div>","null","fixation","","","","","","","","","","","",""
"learning-instructions","104","503409","0.0-3.0-12.0-0.0","spark_pilot_norest","8320","5","12","Male","","","","","","","2362","<p> Before you start, we're going to ask you a few questions about how the game works. </p>","","instructions","","","","","","","","","","","",""
"comp-q","105","516477","0.0-3.0-13.0-0.0-0.0","spark_pilot_norest","8320","5","12","Male","","","","","","","7391.799999999814","<p> <b> True or False? </b> </p>
            <p> There can be 50 pieces of treasure in a given animal's chest. </p>","0","comp_question","","","","false","","","","","","","",""
"comp-q","106","526251","0.0-3.0-13.0-0.0-1.0","spark_pilot_norest","8320","5","12","Male","","","","","","","3196.1999999997206","<p> <b>Incorrect.</b> The amount of treasure in each chest can range from 0 to 40 pieces. </p>","0","comp_answer","","","","","","","","","","","",""
"comp-q","107","532893","0.0-3.0-13.0-0.1-0.1","spark_pilot_norest","8320","5","12","Male","","","","","","","1068.0999999996275","<p> <b> True or False? </b> </p>
            <p> There can be 50 pieces of treasure in a given animal's chest. </p>","1","comp_question","","","","true","","","","","","","",""
"comp-q","108","540876","0.0-3.0-13.0-0.1-1.1","spark_pilot_norest","8320","5","12","Male","","","","","","","1262.3000000002794","<p> <b> That's right! </b> The amount of treasure in each chest can range from 0 to 40 pieces. </p>","0","comp_answer","","","","","","","","","","","",""
"comp-q","109","549095","0.0-3.0-13.0-0.2-0.2","spark_pilot_norest","8320","5","12","Male","","","","","","","1040","<p> <b> True or False? </b> </p><p> In this game, all animals have the same amount of treasure in their left and right chests. </p>","1","comp_question","","","","true","","","","","","","",""
"comp-q","110","555904","0.0-3.0-13.0-0.2-1.2","spark_pilot_norest","8320","5","12","Male","","","","","","","1506.5","<p> <b> That's right! </b> Animals have different amounts of treasure in their treasure chests. </p>","0","comp_answer","","","","","","","","","","","",""
"comp-q","111","563187","0.0-3.0-13.0-0.3-0.3","spark_pilot_norest","8320","5","12","Male","","","","","","","1381.1999999997206","<p> <b> True or False? </b> </p><p> The same animal will always be there if you go up in the same place. </p>","0","comp_question","","","","true","","","","","","","",""
"comp-q","112","570936","0.0-3.0-13.0-0.3-1.3","spark_pilot_norest","8320","5","12","Male","","","","","","","1241","<p> <b> That's right! </b> One animal lives in the upper part and one lives in the lower part of every place. </p>","0","comp_answer","","","","","","","","","","","",""
"comp-q","113","577246","0.0-3.0-13.0-0.4-0.4","spark_pilot_norest","8320","5","12","Male","","","","","","","721.2999999998137","<p> <b> True or False? </b> </p><p> If you see a different picture, it means you are in a new place. </p>","1","comp_question","","","","true","","","","","","","",""
"comp-q","114","589565","0.0-3.0-13.0-0.4-1.4","spark_pilot_norest","8320","5","12","Male","","","","","","","990.6000000000931","<p> <b> That's right! </b> Lots of different images may show the same place. For example,  you may see three different images that all remind you that you are in outer space. </p>","0","comp_answer","","","","","","","","","","","",""
"learning-instructions","115","601436","0.0-3.0-14.0-0.0","spark_pilot_norest","8320","5","12","Male","","","","","","","1941.8999999999069","<p> Good job. Remember to do your best because the amount of treasure you earn will be converted into bonus money. </p>
            <p> It’s time to start the real game! </p>","","instructions","","","","","","","","","","","",""
"learning-instructions","116","605808","0.0-4.0-0.0-0.0","spark_pilot_norest","8320","5","12","Male","","","","","","","1554.5999999996275","<p> This time you are searching for treasure in the <b>canyon</b>.</p>","","instructions","","","","","","","","","","","",""
"learning-instructions","117","624525","0.0-4.0-0.0-0.1","spark_pilot_norest","8320","5","12","Male","","","","","","","1270.6000000000931","<p><b>New</b> animals with <b>new</b> treasure chests live here. You need to explore to discover where the animal with the best treasure chest is.</p>
                    <p> Like before, once you figure out which animal has the chest with the most treasure, you should try to get to that animal and select that chest! </p>","","instructions","","","","","","","","","","","",""
"learning-instructions","118","643725","0.0-4.0-1.0-0.0","spark_pilot_norest","8320","5","12","Male","","","","","","","4471.5","<p> Remember, when you see a picture of the place, use the up and down keys to <b>find an animal</b>.</p>
            <p> When you encounter an animal, you should use the left and right keys to <b>select a treasure chest</b>.</p>
            <p> Don't forget to look out for the robber! </p>","","instructions","","","","","","","","","","","",""
"revaluation","119","649752","0.0-4.0-2.0-0.0","spark_pilot_norest","8320","5","12","Male","","false","","","","","[1297.6999999997206,838]","./assets/img/canyon/memory/23.jpg","[""ArrowUp"",""ArrowRight""]","value training","canyon","10","{""ArrowUp,ArrowLeft"":26,""ArrowUp,ArrowRight"":10,""ArrowDown,ArrowLeft"":5,""ArrowDown,ArrowRight"":17}","false","ArrowUp,ArrowRight","false","original","1","0","","",""
"html-keyboard-response","120","650271","0.0-4.0-2.0-1.0","spark_pilot_norest","8320","5","12","Male","","","","","","","null","<div style=""font-size:60px;"">+</div>","null","fixation","","","","","","","","","1","","",""
"revaluation","121","656304","0.0-4.0-2.0-0.1","spark_pilot_norest","8320","5","12","Male","","false","","","","","[609.5,352.70000000018626]","./assets/img/canyon/memory/29.jpg","[""ArrowUp"",""ArrowLeft""]","value training","canyon","26","{""ArrowUp,ArrowLeft"":26,""ArrowUp,ArrowRight"":10,""ArrowDown,ArrowLeft"":5,""ArrowDown,ArrowRight"":17}","true","ArrowUp,ArrowLeft","false","original","1","2","","",""
"html-keyboard-response","122","656807","0.0-4.0-2.0-1.1","spark_pilot_norest","8320","5","12","Male","","","","","","","null","<div style=""font-size:60px;"">+</div>","null","fixation","","","","","","","","","3","","",""
"revaluation","123","662840","0.0-4.0-2.0-0.2","spark_pilot_norest","8320","5","12","Male","","false","","","","","[401.1999999997206,703.5]","./assets/img/canyon/memory/8.jpg","[""ArrowDown"",""ArrowRight""]","value training","canyon","17","{""ArrowUp,ArrowLeft"":26,""ArrowUp,ArrowRight"":10,""ArrowDown,ArrowLeft"":5,""ArrowDown,ArrowRight"":17}","false","ArrowDown,ArrowRight","false","original","1","4","","",""
"html-keyboard-response","124","663343","0.0-4.0-2.0-1.2","spark_pilot_norest","8320","5","12","Male","","","","","","","null","<div style=""font-size:60px;"">+</div>","null","fixation","","","","","","","","","5","","",""
"revaluation","125","669376","0.0-4.0-2.0-0.3","spark_pilot_norest","8320","5","12","Male","","false","","","","","[691.1999999997206,484.79999999981374]","./assets/img/canyon/memory/33.jpg","[""ArrowDown"",""ArrowLeft""]","value training","canyon","5","{""ArrowUp,ArrowLeft"":26,""ArrowUp,ArrowRight"":10,""ArrowDown,ArrowLeft"":5,""ArrowDown,ArrowRight"":17}","false","ArrowDown,ArrowLeft","false","original","1","6","","",""
"html-keyboard-response","126","669879","0.0-4.0-2.0-1.3","spark_pilot_norest","8320","5","12","Male","","","","","","","null","<div style=""font-size:60px;"">+</div>","null","fixation","","","","","","","","","7","","",""
"revaluation","127","675904","0.0-4.0-2.0-0.4","spark_pilot_norest","8320","5","12","Male","","false","","","","","[1033.7999999998137,375]","./assets/img/canyon/memory/23.jpg","[""ArrowUp"",""ArrowLeft""]","value training","canyon","26","{""ArrowUp,ArrowLeft"":26,""ArrowUp,ArrowRight"":10,""ArrowDown,ArrowLeft"":5,""ArrowDown,ArrowRight"":17}","true","ArrowUp,ArrowLeft","false","original","1","8","","",""
"html-keyboard-response","128","676408","0.0-4.0-2.0-1.4","spark_pilot_norest","8320","5","12","Male","","","","","","","null","<div style=""font-size:60px;"">+</div>","null","fixation","","","","","","","","","9","","",""
"revaluation","129","680432","0.0-4.0-2.0-0.5","spark_pilot_norest","8320","5","12","Male","","false","","","","","[557.3000000002794]","./assets/img/canyon/catch/6.jpg","[""ArrowUp""]","value training","canyon","-10","{""ArrowUp,ArrowLeft"":26,""ArrowUp,ArrowRight"":10,""ArrowDown,ArrowLeft"":5,""ArrowDown,ArrowRight"":17}","false","ArrowUp","true","original","1","10","","",""
"html-keyboard-response","130","680935","0.0-4.0-2.0-1.5","spark_pilot_norest","8320","5","12","Male","","","","","","","null","<div style=""font-size:60px;"">+</div>","null","fixation","","","","","","","","","11","","",""
"revaluation","131","686961","0.0-4.0-2.0-0.6","spark_pilot_norest","8320","5","12","Male","","false","","","","","[619.5,318.20000000018626]","./assets/img/canyon/memory/25.jpg","[""ArrowUp"",""ArrowLeft""]","value training","canyon","26","{""ArrowUp,ArrowLeft"":26,""ArrowUp,ArrowRight"":10,""ArrowDown,ArrowLeft"":5,""ArrowDown,ArrowRight"":17}","true","ArrowUp,ArrowLeft","false","original","1","12","","",""
"html-keyboard-response","132","687465","0.0-4.0-2.0-1.6","spark_pilot_norest","8320","5","12","Male","","","","","","","null","<div style=""font-size:60px;"">+</div>","null","fixation","","","","","","","","","13","","",""
"revaluation","133","693498","0.0-4.0-2.0-0.7","spark_pilot_norest","8320","5","12","Male","","false","","","","","[1151,528.1000000000931]","./assets/img/canyon/memory/35.jpg","[""ArrowUp"",""ArrowLeft""]","value training","canyon","26","{""ArrowUp,ArrowLeft"":26,""ArrowUp,ArrowRight"":10,""ArrowDown,ArrowLeft"":5,""ArrowDown,ArrowRight"":17}","true","ArrowUp,ArrowLeft","false","original","1","14","","",""
"html-keyboard-response","134","694001","0.0-4.0-2.0-1.7","spark_pilot_norest","8320","5","12","Male","","","","","","","null","<div style=""font-size:60px;"">+</div>","null","fixation","","","","","","","","","15","","",""
"revaluation","135","698026","0.0-4.0-2.0-0.8","spark_pilot_norest","8320","5","12","Male","","false","","","","","[791.6000000000931]","./assets/img/canyon/catch/5.jpg","[""spaceBar""]","value training","canyon","0","{""ArrowUp,ArrowLeft"":26,""ArrowUp,ArrowRight"":10,""ArrowDown,ArrowLeft"":5,""ArrowDown,ArrowRight"":17}","true","spaceBar","true","original","1","16","","",""
"html-keyboard-response","136","698529","0.0-4.0-2.0-1.8","spark_pilot_norest","8320","5","12","Male","","","","","","","null","<div style=""font-size:60px;"">+</div>","null","fixation","","","","","","","","","17","","",""
"revaluation","137","704562","0.0-4.0-2.0-0.9","spark_pilot_norest","8320","5","12","Male","","false","","","","","[668.1999999997206,421]","./assets/img/canyon/memory/31.jpg","[""ArrowUp"",""ArrowLeft""]","value training","canyon","26","{""ArrowUp,ArrowLeft"":26,""ArrowUp,ArrowRight"":10,""ArrowDown,ArrowLeft"":5,""ArrowDown,ArrowRight"":17}","true","ArrowUp,ArrowLeft","false","original","1","18","","",""
"html-keyboard-response","138","705065","0.0-4.0-2.0-1.9","spark_pilot_norest","8320","5","12","Male","","","","","","","null","<div style=""font-size:60px;"">+</div>","null","fixation","","","","","","","","","19","","",""
"revaluation","139","711098","0.0-4.0-2.0-0.10","spark_pilot_norest","8320","5","12","Male","","false","","","","","[577.7999999998137,511.60000000009313]","./assets/img/canyon/memory/11.jpg","[""ArrowUp"",""ArrowLeft""]","value training","canyon","26","{""ArrowUp,ArrowLeft"":26,""ArrowUp,ArrowRight"":10,""ArrowDown,ArrowLeft"":5,""ArrowDown,ArrowRight"":17}","true","ArrowUp,ArrowLeft","false","original","1","20","","",""
"html-keyboard-response","140","711600","0.0-4.0-2.0-1.10","spark_pilot_norest","8320","5","12","Male","","","","","","","null","<div style=""font-size:60px;"">+</div>","null","fixation","","","","","","","","","21","","",""
"revaluation","141","715625","0.0-4.0-2.0-0.11","spark_pilot_norest","8320","5","12","Male","","false","","","","","[695.5]","./assets/img/canyon/catch/4.jpg","[""spaceBar""]","value training","canyon","0","{""ArrowUp,ArrowLeft"":26,""ArrowUp,ArrowRight"":10,""ArrowDown,ArrowLeft"":5,""ArrowDown,ArrowRight"":17}","true","spaceBar","true","original","1","22","","",""
"html-keyboard-response","142","716129","0.0-4.0-2.0-1.11","spark_pilot_norest","8320","5","12","Male","","","","","","","null","<div style=""font-size:60px;"">+</div>","null","fixation","","","","","","","","","23","","",""
"revaluation","143","722162","0.0-4.0-2.0-0.12","spark_pilot_norest","8320","5","12","Male","","false","","","","","[634.0999999996275,364.3000000002794]","./assets/img/canyon/memory/4.jpg","[""ArrowUp"",""ArrowLeft""]","value training","canyon","26","{""ArrowUp,ArrowLeft"":26,""ArrowUp,ArrowRight"":10,""ArrowDown,ArrowLeft"":5,""ArrowDown,ArrowRight"":17}","true","ArrowUp,ArrowLeft","false","original","1","24","","",""
"html-keyboard-response","144","722665","0.0-4.0-2.0-1.12","spark_pilot_norest","8320","5","12","Male","","","","","","","null","<div style=""font-size:60px;"">+</div>","null","fixation","","","","","","","","","25","","",""
"revaluation","145","728690","0.0-4.0-2.0-0.13","spark_pilot_norest","8320","5","12","Male","","false","","","","","[742.6000000000931,372]","./assets/img/canyon/memory/25.jpg","[""ArrowUp"",""ArrowLeft""]","value training","canyon","26","{""ArrowUp,ArrowLeft"":26,""ArrowUp,ArrowRight"":10,""ArrowDown,ArrowLeft"":5,""ArrowDown,ArrowRight"":17}","true","ArrowUp,ArrowLeft","false","original","1","26","","",""
"html-keyboard-response","146","729193","0.0-4.0-2.0-1.13","spark_pilot_norest","8320","5","12","Male","","","","","","","null","<div style=""font-size:60px;"">+</div>","null","fixation","","","","","","","","","27","","",""
"revaluation","147","735226","0.0-4.0-2.0-0.14","spark_pilot_norest","8320","5","12","Male","","false","","","","","[742.6999999997206,461.89999999990687]","./assets/img/canyon/memory/7.jpg","[""ArrowUp"",""ArrowLeft""]","value training","canyon","26","{""ArrowUp,ArrowLeft"":26,""ArrowUp,ArrowRight"":10,""ArrowDown,ArrowLeft"":5,""ArrowDown,ArrowRight"":17}","true","ArrowUp,ArrowLeft","false","original","1","28","","",""
"html-keyboard-response","148","735729","0.0-4.0-2.0-1.14","spark_pilot_norest","8320","5","12","Male","","","","","","","null","<div style=""font-size:60px;"">+</div>","null","fixation","","","","","","","","","29","","",""
"revaluation","149","741754","0.0-4.0-2.0-0.15","spark_pilot_norest","8320","5","12","Male","","false","","","","","[1028.3000000002794,466.5]","./assets/img/canyon/memory/26.jpg","[""ArrowUp"",""ArrowLeft""]","value training","canyon","26","{""ArrowUp,ArrowLeft"":26,""ArrowUp,ArrowRight"":10,""ArrowDown,ArrowLeft"":5,""ArrowDown,ArrowRight"":17}","true","ArrowUp,ArrowLeft","false","original","1","30","","",""
"html-keyboard-response","150","742256","0.0-4.0-2.0-1.15","spark_pilot_norest","8320","5","12","Male","","","","","","","null","<div style=""font-size:60px;"">+</div>","null","fixation","","","","","","","","","31","","",""
"revaluation","151","748283","0.0-4.0-2.0-0.16","spark_pilot_norest","8320","5","12","Male","","false","","","","","[974.9000000003725,472.5]","./assets/img/canyon/memory/29.jpg","[""ArrowUp"",""ArrowLeft""]","value training","canyon","26","{""ArrowUp,ArrowLeft"":26,""ArrowUp,ArrowRight"":10,""ArrowDown,ArrowLeft"":5,""ArrowDown,ArrowRight"":17}","true","ArrowUp,ArrowLeft","false","original","1","32","","",""
"html-keyboard-response","152","748787","0.0-4.0-2.0-1.16","spark_pilot_norest","8320","5","12","Male","","","","","","","null","<div style=""font-size:60px;"">+</div>","null","fixation","","","","","","","","","33","","",""
"revaluation","153","754819","0.0-4.0-2.0-0.17","spark_pilot_norest","8320","5","12","Male","","false","","","","","[661,637.7999999998137]","./assets/img/canyon/memory/3.jpg","[""ArrowUp"",""ArrowLeft""]","value training","canyon","26","{""ArrowUp,ArrowLeft"":26,""ArrowUp,ArrowRight"":10,""ArrowDown,ArrowLeft"":5,""ArrowDown,ArrowRight"":17}","true","ArrowUp,ArrowLeft","false","original","1","34","","",""
"html-keyboard-response","154","755323","0.0-4.0-2.0-1.17","spark_pilot_norest","8320","5","12","Male","","","","","","","null","<div style=""font-size:60px;"">+</div>","null","fixation","","","","","","","","","35","","",""
"revaluation","155","761348","0.0-4.0-2.0-0.18","spark_pilot_norest","8320","5","12","Male","","false","","","","","[818,333.1999999997206]","./assets/img/canyon/memory/31.jpg","[""ArrowUp"",""ArrowLeft""]","value training","canyon","26","{""ArrowUp,ArrowLeft"":26,""ArrowUp,ArrowRight"":10,""ArrowDown,ArrowLeft"":5,""ArrowDown,ArrowRight"":17}","true","ArrowUp,ArrowLeft","false","original","1","36","","",""
"html-keyboard-response","156","761851","0.0-4.0-2.0-1.18","spark_pilot_norest","8320","5","12","Male","","","","","","","null","<div style=""font-size:60px;"">+</div>","null","fixation","","","","","","","","","37","","",""
"revaluation","157","767884","0.0-4.0-2.0-0.19","spark_pilot_norest","8320","5","12","Male","","false","","","","","[673.5,363.10000000009313]","./assets/img/canyon/memory/3.jpg","[""ArrowUp"",""ArrowLeft""]","value training","canyon","26","{""ArrowUp,ArrowLeft"":26,""ArrowUp,ArrowRight"":10,""ArrowDown,ArrowLeft"":5,""ArrowDown,ArrowRight"":17}","true","ArrowUp,ArrowLeft","false","original","1","38","","",""
"html-keyboard-response","158","768395","0.0-4.0-2.0-1.19","spark_pilot_norest","8320","5","12","Male","","","","","","","null","<div style=""font-size:60px;"">+</div>","null","fixation","","","","","","","","","39","","",""
"revaluation","159","772420","0.0-4.0-2.0-0.20","spark_pilot_norest","8320","5","12","Male","","false","","","","","[837.4000000003725]","./assets/img/canyon/catch/2.jpg","[""spaceBar""]","value training","canyon","0","{""ArrowUp,ArrowLeft"":26,""ArrowUp,ArrowRight"":10,""ArrowDown,ArrowLeft"":5,""ArrowDown,ArrowRight"":17}","true","spaceBar","true","original","1","40","","",""
"html-keyboard-response","160","772922","0.0-4.0-2.0-1.20","spark_pilot_norest","8320","5","12","Male","","","","","","","null","<div style=""font-size:60px;"">+</div>","null","fixation","","","","","","","","","41","","",""
"revaluation","161","778947","0.0-4.0-2.0-0.21","spark_pilot_norest","8320","5","12","Male","","false","","","","","[837.6000000000931,468.79999999981374]","./assets/img/canyon/memory/0.jpg","[""ArrowUp"",""ArrowLeft""]","value training","canyon","26","{""ArrowUp,ArrowLeft"":26,""ArrowUp,ArrowRight"":10,""ArrowDown,ArrowLeft"":5,""ArrowDown,ArrowRight"":17}","true","ArrowUp,ArrowLeft","false","original","1","42","","",""
"html-keyboard-response","162","779451","0.0-4.0-2.0-1.21","spark_pilot_norest","8320","5","12","Male","","","","","","","null","<div style=""font-size:60px;"">+</div>","null","fixation","","","","","","","","","43","","",""
"revaluation","163","785476","0.0-4.0-2.0-0.22","spark_pilot_norest","8320","5","12","Male","","false","","","","","[535.8999999999069,599.2999999998137]","./assets/img/canyon/memory/4.jpg","[""ArrowUp"",""ArrowLeft""]","value training","canyon","26","{""ArrowUp,ArrowLeft"":26,""ArrowUp,ArrowRight"":10,""ArrowDown,ArrowLeft"":5,""ArrowDown,ArrowRight"":17}","true","ArrowUp,ArrowLeft","false","original","1","44","","",""
"html-keyboard-response","164","785979","0.0-4.0-2.0-1.22","spark_pilot_norest","8320","5","12","Male","","","","","","","null","<div style=""font-size:60px;"">+</div>","null","fixation","","","","","","","","","45","","",""
"revaluation","165","789996","0.0-4.0-2.0-0.23","spark_pilot_norest","8320","5","12","Male","","false","","","","","[817.0999999996275]","./assets/img/canyon/catch/1.jpg","[""spaceBar""]","value training","canyon","0","{""ArrowUp,ArrowLeft"":26,""ArrowUp,ArrowRight"":10,""ArrowDown,ArrowLeft"":5,""ArrowDown,ArrowRight"":17}","true","spaceBar","true","original","1","46","","",""
"html-keyboard-response","166","790507","0.0-4.0-2.0-1.23","spark_pilot_norest","8320","5","12","Male","","","","","","","null","<div style=""font-size:60px;"">+</div>","null","fixation","","","","","","","","","47","","",""
"revaluation","167","796540","0.0-4.0-2.0-0.24","spark_pilot_norest","8320","5","12","Male","","false","","","","","[1064.2000000001863,475.70000000018626]","./assets/img/canyon/memory/27.jpg","[""ArrowUp"",""ArrowLeft""]","value training","canyon","26","{""ArrowUp,ArrowLeft"":26,""ArrowUp,ArrowRight"":10,""ArrowDown,ArrowLeft"":5,""ArrowDown,ArrowRight"":17}","true","ArrowUp,ArrowLeft","false","original","1","48","","",""
"html-keyboard-response","168","797043","0.0-4.0-2.0-1.24","spark_pilot_norest","8320","5","12","Male","","","","","","","null","<div style=""font-size:60px;"">+</div>","null","fixation","","","","","","","","","49","","",""
"revaluation","169","803075","0.0-4.0-2.0-0.25","spark_pilot_norest","8320","5","12","Male","","false","","","","","[1186.7000000001863,402.29999999981374]","./assets/img/canyon/memory/20.jpg","[""ArrowUp"",""ArrowLeft""]","value training","canyon","26","{""ArrowUp,ArrowLeft"":26,""ArrowUp,ArrowRight"":10,""ArrowDown,ArrowLeft"":5,""ArrowDown,ArrowRight"":17}","true","ArrowUp,ArrowLeft","false","original","1","50","","",""
"html-keyboard-response","170","803581","0.0-4.0-2.0-1.25","spark_pilot_norest","8320","5","12","Male","","","","","","","null","<div style=""font-size:60px;"">+</div>","null","fixation","","","","","","","","","51","","",""
"revaluation","171","809613","0.0-4.0-2.0-0.26","spark_pilot_norest","8320","5","12","Male","","false","","","","","[1003.2000000001863,534.1999999997206]","./assets/img/canyon/memory/20.jpg","[""ArrowUp"",""ArrowLeft""]","value training","canyon","26","{""ArrowUp,ArrowLeft"":26,""ArrowUp,ArrowRight"":10,""ArrowDown,ArrowLeft"":5,""ArrowDown,ArrowRight"":17}","true","ArrowUp,ArrowLeft","false","original","1","52","","",""
"html-keyboard-response","172","810116","0.0-4.0-2.0-1.26","spark_pilot_norest","8320","5","12","Male","","","","","","","null","<div style=""font-size:60px;"">+</div>","null","fixation","","","","","","","","","53","","",""
"revaluation","173","816149","0.0-4.0-2.0-0.27","spark_pilot_norest","8320","5","12","Male","","false","","","","","[1050.8999999999069,310.10000000009313]","./assets/img/canyon/memory/14.jpg","[""ArrowUp"",""ArrowLeft""]","value training","canyon","26","{""ArrowUp,ArrowLeft"":26,""ArrowUp,ArrowRight"":10,""ArrowDown,ArrowLeft"":5,""ArrowDown,ArrowRight"":17}","true","ArrowUp,ArrowLeft","false","original","1","54","","",""
"html-keyboard-response","174","816652","0.0-4.0-2.0-1.27","spark_pilot_norest","8320","5","12","Male","","","","","","","null","<div style=""font-size:60px;"">+</div>","null","fixation","","","","","","","","","55","","",""
"revaluation","175","822685","0.0-4.0-2.0-0.28","spark_pilot_norest","8320","5","12","Male","","false","","","","","[744.5,665.7999999998137]","./assets/img/canyon/memory/37.jpg","[""ArrowUp"",""ArrowLeft""]","value training","canyon","26","{""ArrowUp,ArrowLeft"":26,""ArrowUp,ArrowRight"":10,""ArrowDown,ArrowLeft"":5,""ArrowDown,ArrowRight"":17}","true","ArrowUp,ArrowLeft","false","original","1","56","","",""
"html-keyboard-response","176","823188","0.0-4.0-2.0-1.28","spark_pilot_norest","8320","5","12","Male","","","","","","","null","<div style=""font-size:60px;"">+</div>","null","fixation","","","","","","","","","57","","",""
"revaluation","177","829221","0.0-4.0-2.0-0.29","spark_pilot_norest","8320","5","12","Male","","false","","","","","[1310.7999999998137,578.8999999999069]","./assets/img/canyon/memory/1.jpg","[""ArrowUp"",""ArrowLeft""]","value training","canyon","26","{""ArrowUp,ArrowLeft"":26,""ArrowUp,ArrowRight"":10,""ArrowDown,ArrowLeft"":5,""ArrowDown,ArrowRight"":17}","true","ArrowUp,ArrowLeft","false","original","1","58","","",""
"html-keyboard-response","178","829725","0.0-4.0-2.0-1.29","spark_pilot_norest","8320","5","12","Male","","","","","","","null","<div style=""font-size:60px;"">+</div>","null","fixation","","","","","","","","","59","","",""
"revaluation","179","835764","0.0-4.0-2.0-0.30","spark_pilot_norest","8320","5","12","Male","","false","","","","","[623.2999999998137,337.5]","./assets/img/canyon/memory/26.jpg","[""ArrowUp"",""ArrowLeft""]","value training","canyon","26","{""ArrowUp,ArrowLeft"":26,""ArrowUp,ArrowRight"":10,""ArrowDown,ArrowLeft"":5,""ArrowDown,ArrowRight"":17}","true","ArrowUp,ArrowLeft","false","original","1","60","","",""
"html-keyboard-response","180","836268","0.0-4.0-2.0-1.30","spark_pilot_norest","8320","5","12","Male","","","","","","","null","<div style=""font-size:60px;"">+</div>","null","fixation","","","","","","","","","61","","",""
"revaluation","181","842293","0.0-4.0-2.0-0.31","spark_pilot_norest","8320","5","12","Male","","false","","","","","[907.3000000002794,465.20000000018626]","./assets/img/canyon/memory/34.jpg","[""ArrowUp"",""ArrowLeft""]","value training","canyon","26","{""ArrowUp,ArrowLeft"":26,""ArrowUp,ArrowRight"":10,""ArrowDown,ArrowLeft"":5,""ArrowDown,ArrowRight"":17}","true","ArrowUp,ArrowLeft","false","original","1","62","","",""
"html-keyboard-response","182","842796","0.0-4.0-2.0-1.31","spark_pilot_norest","8320","5","12","Male","","","","","","","null","<div style=""font-size:60px;"">+</div>","null","fixation","","","","","","","","","63","","",""
"revaluation","183","848821","0.0-4.0-2.0-0.32","spark_pilot_norest","8320","5","12","Male","","false","","","","","[733.8999999999069,652.7000000001863]","./assets/img/canyon/memory/37.jpg","[""ArrowUp"",""ArrowLeft""]","value training","canyon","26","{""ArrowUp,ArrowLeft"":26,""ArrowUp,ArrowRight"":10,""ArrowDown,ArrowLeft"":5,""ArrowDown,ArrowRight"":17}","true","ArrowUp,ArrowLeft","false","original","1","64","","",""
"html-keyboard-response","184","849324","0.0-4.0-2.0-1.32","spark_pilot_norest","8320","5","12","Male","","","","","","","null","<div style=""font-size:60px;"">+</div>","null","fixation","","","","","","","","","65","","",""
"revaluation","185","855357","0.0-4.0-2.0-0.33","spark_pilot_norest","8320","5","12","Male","","false","","","","","[852.8999999999069,341.20000000018626]","./assets/img/canyon/memory/34.jpg","[""ArrowUp"",""ArrowLeft""]","value training","canyon","26","{""ArrowUp,ArrowLeft"":26,""ArrowUp,ArrowRight"":10,""ArrowDown,ArrowLeft"":5,""ArrowDown,ArrowRight"":17}","true","ArrowUp,ArrowLeft","false","original","1","66","","",""
"html-keyboard-response","186","855861","0.0-4.0-2.0-1.33","spark_pilot_norest","8320","5","12","Male","","","","","","","null","<div style=""font-size:60px;"">+</div>","null","fixation","","","","","","","","","67","","",""
"revaluation","187","859885","0.0-4.0-2.0-0.34","spark_pilot_norest","8320","5","12","Male","","false","","","","","[874.2999999998137]","./assets/img/canyon/catch/0.jpg","[""spaceBar""]","value training","canyon","0","{""ArrowUp,ArrowLeft"":26,""ArrowUp,ArrowRight"":10,""ArrowDown,ArrowLeft"":5,""ArrowDown,ArrowRight"":17}","true","spaceBar","true","original","1","68","","",""
"html-keyboard-response","188","860388","0.0-4.0-2.0-1.34","spark_pilot_norest","8320","5","12","Male","","","","","","","null","<div style=""font-size:60px;"">+</div>","null","fixation","","","","","","","","","69","","",""
"revaluation","189","866422","0.0-4.0-2.0-0.35","spark_pilot_norest","8320","5","12","Male","","false","","","","","[644,567.2999999998137]","./assets/img/canyon/memory/0.jpg","[""ArrowUp"",""ArrowLeft""]","value training","canyon","26","{""ArrowUp,ArrowLeft"":26,""ArrowUp,ArrowRight"":10,""ArrowDown,ArrowLeft"":5,""ArrowDown,ArrowRight"":17}","true","ArrowUp,ArrowLeft","false","original","1","70","","",""
"html-keyboard-response","190","866925","0.0-4.0-2.0-1.35","spark_pilot_norest","8320","5","12","Male","","","","","","","null","<div style=""font-size:60px;"">+</div>","null","fixation","","","","","","","","","71","","",""
"revaluation","191","872950","0.0-4.0-2.0-0.36","spark_pilot_norest","8320","5","12","Male","","false","","","","","[763.8000000002794,557.7000000001863]","./assets/img/canyon/memory/27.jpg","[""ArrowUp"",""ArrowLeft""]","value training","canyon","26","{""ArrowUp,ArrowLeft"":26,""ArrowUp,ArrowRight"":10,""ArrowDown,ArrowLeft"":5,""ArrowDown,ArrowRight"":17}","true","ArrowUp,ArrowLeft","false","original","1","72","","",""
"html-keyboard-response","192","873453","0.0-4.0-2.0-1.36","spark_pilot_norest","8320","5","12","Male","","","","","","","null","<div style=""font-size:60px;"">+</div>","null","fixation","","","","","","","","","73","","",""
"revaluation","193","879478","0.0-4.0-2.0-0.37","spark_pilot_norest","8320","5","12","Male","","false","","","","","[893.4000000003725,639.7000000001863]","./assets/img/canyon/memory/39.jpg","[""ArrowUp"",""ArrowLeft""]","value training","canyon","26","{""ArrowUp,ArrowLeft"":26,""ArrowUp,ArrowRight"":10,""ArrowDown,ArrowLeft"":5,""ArrowDown,ArrowRight"":17}","true","ArrowUp,ArrowLeft","false","original","1","74","","",""
"html-keyboard-response","194","879981","0.0-4.0-2.0-1.37","spark_pilot_norest","8320","5","12","Male","","","","","","","null","<div style=""font-size:60px;"">+</div>","null","fixation","","","","","","","","","75","","",""
"revaluation","195","883998","0.0-4.0-2.0-0.38","spark_pilot_norest","8320","5","12","Male","","false","","","","","[769.0999999996275]","./assets/img/canyon/catch/3.jpg","[""spaceBar""]","value training","canyon","0","{""ArrowUp,ArrowLeft"":26,""ArrowUp,ArrowRight"":10,""ArrowDown,ArrowLeft"":5,""ArrowDown,ArrowRight"":17}","true","spaceBar","true","original","1","76","","",""
"html-keyboard-response","196","884502","0.0-4.0-2.0-1.38","spark_pilot_norest","8320","5","12","Male","","","","","","","null","<div style=""font-size:60px;"">+</div>","null","fixation","","","","","","","","","77","","",""
"revaluation","197","890534","0.0-4.0-2.0-0.39","spark_pilot_norest","8320","5","12","Male","","false","","","","","[1009.0999999996275,576.8000000002794]","./assets/img/canyon/memory/17.jpg","[""ArrowUp"",""ArrowLeft""]","value training","canyon","26","{""ArrowUp,ArrowLeft"":26,""ArrowUp,ArrowRight"":10,""ArrowDown,ArrowLeft"":5,""ArrowDown,ArrowRight"":17}","true","ArrowUp,ArrowLeft","false","original","1","78","","",""
"html-keyboard-response","198","891038","0.0-4.0-2.0-1.39","spark_pilot_norest","8320","5","12","Male","","","","","","","null","<div style=""font-size:60px;"">+</div>","null","fixation","","","","","","","","","79","","",""
"revaluation","199","897070","0.0-4.0-2.0-0.40","spark_pilot_norest","8320","5","12","Male","","false","","","","","[651.6000000000931,661.1000000000931]","./assets/img/canyon/memory/39.jpg","[""ArrowUp"",""ArrowLeft""]","value training","canyon","26","{""ArrowUp,ArrowLeft"":26,""ArrowUp,ArrowRight"":10,""ArrowDown,ArrowLeft"":5,""ArrowDown,ArrowRight"":17}","true","ArrowUp,ArrowLeft","false","original","1","80","","",""
"html-keyboard-response","200","897573","0.0-4.0-2.0-1.40","spark_pilot_norest","8320","5","12","Male","","","","","","","null","<div style=""font-size:60px;"">+</div>","null","fixation","","","","","","","","","81","","",""
"revaluation","201","903606","0.0-4.0-2.0-0.41","spark_pilot_norest","8320","5","12","Male","","false","","","","","[964.3999999999069,676]","./assets/img/canyon/memory/33.jpg","[""ArrowUp"",""ArrowLeft""]","value training","canyon","26","{""ArrowUp,ArrowLeft"":26,""ArrowUp,ArrowRight"":10,""ArrowDown,ArrowLeft"":5,""ArrowDown,ArrowRight"":17}","true","ArrowUp,ArrowLeft","false","original","1","82","","",""
"html-keyboard-response","202","904109","0.0-4.0-2.0-1.41","spark_pilot_norest","8320","5","12","Male","","","","","","","null","<div style=""font-size:60px;"">+</div>","null","fixation","","","","","","","","","83","","",""
"revaluation","203","910142","0.0-4.0-2.0-0.42","spark_pilot_norest","8320","5","12","Male","","false","","","","","[987.3999999999069,366]","./assets/img/canyon/memory/35.jpg","[""ArrowUp"",""ArrowLeft""]","value training","canyon","26","{""ArrowUp,ArrowLeft"":26,""ArrowUp,ArrowRight"":10,""ArrowDown,ArrowLeft"":5,""ArrowDown,ArrowRight"":17}","true","ArrowUp,ArrowLeft","false","original","1","84","","",""
"html-keyboard-response","204","910645","0.0-4.0-2.0-1.42","spark_pilot_norest","8320","5","12","Male","","","","","","","null","<div style=""font-size:60px;"">+</div>","null","fixation","","","","","","","","","85","","",""
"revaluation","205","916678","0.0-4.0-2.0-0.43","spark_pilot_norest","8320","5","12","Male","","false","","","","","[911.2000000001863,697.2999999998137]","./assets/img/canyon/memory/17.jpg","[""ArrowUp"",""ArrowLeft""]","value training","canyon","26","{""ArrowUp,ArrowLeft"":26,""ArrowUp,ArrowRight"":10,""ArrowDown,ArrowLeft"":5,""ArrowDown,ArrowRight"":17}","true","ArrowUp,ArrowLeft","false","original","1","86","","",""
"html-keyboard-response","206","917182","0.0-4.0-2.0-1.43","spark_pilot_norest","8320","5","12","Male","","","","","","","null","<div style=""font-size:60px;"">+</div>","null","fixation","","","","","","","","","87","","",""
"revaluation","207","923214","0.0-4.0-2.0-0.44","spark_pilot_norest","8320","5","12","Male","","false","","","","","[1155.8999999999069,471.3000000002794]","./assets/img/canyon/memory/8.jpg","[""ArrowUp"",""ArrowLeft""]","value training","canyon","26","{""ArrowUp,ArrowLeft"":26,""ArrowUp,ArrowRight"":10,""ArrowDown,ArrowLeft"":5,""ArrowDown,ArrowRight"":17}","true","ArrowUp,ArrowLeft","false","original","1","88","","",""
"html-keyboard-response","208","923718","0.0-4.0-2.0-1.44","spark_pilot_norest","8320","5","12","Male","","","","","","","null","<div style=""font-size:60px;"">+</div>","null","fixation","","","","","","","","","89","","",""
"revaluation","209","929752","0.0-4.0-2.0-0.45","spark_pilot_norest","8320","5","12","Male","","false","","","","","[661.3000000002794,599.3999999999069]","./assets/img/canyon/memory/1.jpg","[""ArrowUp"",""ArrowLeft""]","value training","canyon","26","{""ArrowUp,ArrowLeft"":26,""ArrowUp,ArrowRight"":10,""ArrowDown,ArrowLeft"":5,""ArrowDown,ArrowRight"":17}","true","ArrowUp,ArrowLeft","false","original","1","90","","",""
"html-keyboard-response","210","930255","0.0-4.0-2.0-1.45","spark_pilot_norest","8320","5","12","Male","","","","","","","null","<div style=""font-size:60px;"">+</div>","null","fixation","","","","","","","","","91","","",""
"revaluation","211","934280","0.0-4.0-2.0-0.46","spark_pilot_norest","8320","5","12","Male","","false","","","","","[603]","./assets/img/canyon/catch/7.jpg","[""spaceBar""]","value training","canyon","0","{""ArrowUp,ArrowLeft"":26,""ArrowUp,ArrowRight"":10,""ArrowDown,ArrowLeft"":5,""ArrowDown,ArrowRight"":17}","true","spaceBar","true","original","1","92","","",""
"html-keyboard-response","212","934783","0.0-4.0-2.0-1.46","spark_pilot_norest","8320","5","12","Male","","","","","","","null","<div style=""font-size:60px;"">+</div>","null","fixation","","","","","","","","","93","","",""
"revaluation","213","940816","0.0-4.0-2.0-0.47","spark_pilot_norest","8320","5","12","Male","","false","","","","","[756,633.1000000000931]","./assets/img/canyon/memory/14.jpg","[""ArrowUp"",""ArrowLeft""]","value training","canyon","26","{""ArrowUp,ArrowLeft"":26,""ArrowUp,ArrowRight"":10,""ArrowDown,ArrowLeft"":5,""ArrowDown,ArrowRight"":17}","true","ArrowUp,ArrowLeft","false","original","1","94","","",""
"html-keyboard-response","214","941319","0.0-4.0-2.0-1.47","spark_pilot_norest","8320","5","12","Male","","","","","","","null","<div style=""font-size:60px;"">+</div>","null","fixation","","","","","","","","","95","","",""
"revaluation","215","947344","0.0-4.0-2.0-0.48","spark_pilot_norest","8320","5","12","Male","","false","","","","","[672.1000000000931,645.1000000000931]","./assets/img/canyon/memory/7.jpg","[""ArrowUp"",""ArrowLeft""]","value training","canyon","26","{""ArrowUp,ArrowLeft"":26,""ArrowUp,ArrowRight"":10,""ArrowDown,ArrowLeft"":5,""ArrowDown,ArrowRight"":17}","true","ArrowUp,ArrowLeft","false","original","1","96","","",""
"html-keyboard-response","216","947847","0.0-4.0-2.0-1.48","spark_pilot_norest","8320","5","12","Male","","","","","","","null","<div style=""font-size:60px;"">+</div>","null","fixation","","","","","","","","","97","","",""
"revaluation","217","953880","0.0-4.0-2.0-0.49","spark_pilot_norest","8320","5","12","Male","","false","","","","","[854.5,467.60000000009313]","./assets/img/canyon/memory/11.jpg","[""ArrowUp"",""ArrowLeft""]","value training","canyon","26","{""ArrowUp,ArrowLeft"":26,""ArrowUp,ArrowRight"":10,""ArrowDown,ArrowLeft"":5,""ArrowDown,ArrowRight"":17}","true","ArrowUp,ArrowLeft","false","original","1","98","","",""
"html-keyboard-response","218","954383","0.0-4.0-2.0-1.49","spark_pilot_norest","8320","5","12","Male","","","","","","","null","<div style=""font-size:60px;"">+</div>","null","fixation","","","","","","","","","99","","",""
"learning-instructions","219","969450","0.0-4.0-3.0-0.0","spark_pilot_norest","8320","5","12","Male","","","","","","","1903.6000000000931","<p> Now, you will travel with a friend who will choose whether you go up or down first. </p>
            <p> On these turns, you will just see the animal that they found. You will still get to choose which chest to search for treasure.</p>","","instructions","","","","","","","","","","","",""
"revaluation","220","973472","0.0-4.0-4.0-0.0","spark_pilot_norest","8320","5","12","Male","","false","","","","","[1315.1999999997206]","./assets/img/canyon/animals/lion.jpg","[""ArrowRight""]","revaluation","canyon","17","{""ArrowUp,ArrowLeft"":26,""ArrowUp,ArrowRight"":10,""ArrowDown,ArrowLeft"":5,""ArrowDown,ArrowRight"":17}","true","ArrowDown,ArrowRight","","original","1","0","","",""
"html-keyboard-response","221","973994","0.0-4.0-4.0-1.0","spark_pilot_norest","8320","5","12","Male","","","","","","","null","<div style=""font-size:60px;"">+</div>","null","fixation","","","","","","","","","1","","",""
"revaluation","222","978016","0.0-4.0-4.0-0.1","spark_pilot_norest","8320","5","12","Male","","false","","","","","[1016.8999999999069]","./assets/img/canyon/animals/giraffe.jpg","[""ArrowLeft""]","revaluation","canyon","26","{""ArrowUp,ArrowLeft"":26,""ArrowUp,ArrowRight"":10,""ArrowDown,ArrowLeft"":5,""ArrowDown,ArrowRight"":17}","true","ArrowUp,ArrowLeft","","original","1","2","","",""
"html-keyboard-response","223","978519","0.0-4.0-4.0-1.1","spark_pilot_norest","8320","5","12","Male","","","","","","","null","<div style=""font-size:60px;"">+</div>","null","fixation","","","","","","","","","3","","",""
"revaluation","224","982544","0.0-4.0-4.0-0.2","spark_pilot_norest","8320","5","12","Male","","false","","","","","[611.2999999998137]","./assets/img/canyon/animals/lion.jpg","[""ArrowRight""]","revaluation","canyon","17","{""ArrowUp,ArrowLeft"":26,""ArrowUp,ArrowRight"":10,""ArrowDown,ArrowLeft"":5,""ArrowDown,ArrowRight"":17}","true","ArrowDown,ArrowRight","","original","1","4","","",""
"html-keyboard-response","225","983047","0.0-4.0-4.0-1.2","spark_pilot_norest","8320","5","12","Male","","","","","","","null","<div style=""font-size:60px;"">+</div>","null","fixation","","","","","","","","","5","","",""
"revaluation","226","987072","0.0-4.0-4.0-0.3","spark_pilot_norest","8320","5","12","Male","","false","","","","","[640.1000000000931]","./assets/img/canyon/animals/giraffe.jpg","[""ArrowLeft""]","revaluation","canyon","26","{""ArrowUp,ArrowLeft"":26,""ArrowUp,ArrowRight"":10,""ArrowDown,ArrowLeft"":5,""ArrowDown,ArrowRight"":17}","true","ArrowUp,ArrowLeft","","original","1","6","","",""
"html-keyboard-response","227","987584","0.0-4.0-4.0-1.3","spark_pilot_norest","8320","5","12","Male","","","","","","","null","<div style=""font-size:60px;"">+</div>","null","fixation","","","","","","","","","7","","",""
"revaluation","228","991601","0.0-4.0-4.0-0.4","spark_pilot_norest","8320","5","12","Male","","false","","","","","[795.8999999999069]","./assets/img/canyon/animals/giraffe.jpg","[""ArrowLeft""]","revaluation","canyon","26","{""ArrowUp,ArrowLeft"":26,""ArrowUp,ArrowRight"":10,""ArrowDown,ArrowLeft"":5,""ArrowDown,ArrowRight"":17}","true","ArrowUp,ArrowLeft","","original","1","8","","",""
"html-keyboard-response","229","992104","0.0-4.0-4.0-1.4","spark_pilot_norest","8320","5","12","Male","","","","","","","null","<div style=""font-size:60px;"">+</div>","null","fixation","","","","","","","","","9","","",""
"revaluation","230","996121","0.0-4.0-4.0-0.5","spark_pilot_norest","8320","5","12","Male","","false","","","","","[597.1999999997206]","./assets/img/canyon/animals/lion.jpg","[""ArrowRight""]","revaluation","canyon","17","{""ArrowUp,ArrowLeft"":26,""ArrowUp,ArrowRight"":10,""ArrowDown,ArrowLeft"":5,""ArrowDown,ArrowRight"":17}","true","ArrowDown,ArrowRight","","original","1","10","","",""
"html-keyboard-response","231","996624","0.0-4.0-4.0-1.5","spark_pilot_norest","8320","5","12","Male","","","","","","","null","<div style=""font-size:60px;"">+</div>","null","fixation","","","","","","","","","11","","",""
"revaluation","232","1000641","0.0-4.0-4.0-0.6","spark_pilot_norest","8320","5","12","Male","","false","","","","","[845.1999999997206]","./assets/img/canyon/animals/lion.jpg","[""ArrowRight""]","revaluation","canyon","17","{""ArrowUp,ArrowLeft"":26,""ArrowUp,ArrowRight"":10,""ArrowDown,ArrowLeft"":5,""ArrowDown,ArrowRight"":17}","true","ArrowDown,ArrowRight","","original","1","12","","",""
"html-keyboard-response","233","1001144","0.0-4.0-4.0-1.6","spark_pilot_norest","8320","5","12","Male","","","","","","","null","<div style=""font-size:60px;"">+</div>","null","fixation","","","","","","","","","13","","",""
"revaluation","234","1005162","0.0-4.0-4.0-0.7","spark_pilot_norest","8320","5","12","Male","","false","","","","","[683.3000000002794]","./assets/img/canyon/animals/lion.jpg","[""ArrowRight""]","revaluation","canyon","17","{""ArrowUp,ArrowLeft"":26,""ArrowUp,ArrowRight"":10,""ArrowDown,ArrowLeft"":5,""ArrowDown,ArrowRight"":17}","true","ArrowDown,ArrowRight","","original","1","14","","",""
"html-keyboard-response","235","1005665","0.0-4.0-4.0-1.7","spark_pilot_norest","8320","5","12","Male","","","","","","","null","<div style=""font-size:60px;"">+</div>","null","fixation","","","","","","","","","15","","",""
"revaluation","236","1009690","0.0-4.0-4.0-0.8","spark_pilot_norest","8320","5","12","Male","","false","","","","","[745.1000000000931]","./assets/img/canyon/animals/giraffe.jpg","[""ArrowLeft""]","revaluation","canyon","26","{""ArrowUp,ArrowLeft"":26,""ArrowUp,ArrowRight"":10,""ArrowDown,ArrowLeft"":5,""ArrowDown,ArrowRight"":17}","true","ArrowUp,ArrowLeft","","original","1","16","","",""
"html-keyboard-response","237","1010193","0.0-4.0-4.0-1.8","spark_pilot_norest","8320","5","12","Male","","","","","","","null","<div style=""font-size:60px;"">+</div>","null","fixation","","","","","","","","","17","","",""
"revaluation","238","1014209","0.0-4.0-4.0-0.9","spark_pilot_norest","8320","5","12","Male","","false","","","","","[847.1999999997206]","./assets/img/canyon/animals/giraffe.jpg","[""ArrowLeft""]","revaluation","canyon","26","{""ArrowUp,ArrowLeft"":26,""ArrowUp,ArrowRight"":10,""ArrowDown,ArrowLeft"":5,""ArrowDown,ArrowRight"":17}","true","ArrowUp,ArrowLeft","","original","1","18","","",""
"html-keyboard-response","239","1014713","0.0-4.0-4.0-1.9","spark_pilot_norest","8320","5","12","Male","","","","","","","null","<div style=""font-size:60px;"">+</div>","null","fixation","","","","","","","","","19","","",""
"revaluation","240","1018730","0.0-4.0-4.0-0.10","spark_pilot_norest","8320","5","12","Male","","false","","","","","[689.3000000002794]","./assets/img/canyon/animals/lion.jpg","[""ArrowRight""]","revaluation","canyon","17","{""ArrowUp,ArrowLeft"":26,""ArrowUp,ArrowRight"":10,""ArrowDown,ArrowLeft"":5,""ArrowDown,ArrowRight"":17}","true","ArrowDown,ArrowRight","","original","1","20","","",""
"html-keyboard-response","241","1019232","0.0-4.0-4.0-1.10","spark_pilot_norest","8320","5","12","Male","","","","","","","null","<div style=""font-size:60px;"">+</div>","null","fixation","","","","","","","","","21","","",""
"revaluation","242","1023249","0.0-4.0-4.0-0.11","spark_pilot_norest","8320","5","12","Male","","false","","","","","[650]","./assets/img/canyon/animals/lion.jpg","[""ArrowLeft""]","revaluation","canyon","5","{""ArrowUp,ArrowLeft"":26,""ArrowUp,ArrowRight"":10,""ArrowDown,ArrowLeft"":5,""ArrowDown,ArrowRight"":17}","false","ArrowDown,ArrowLeft","","original","1","22","","",""
"html-keyboard-response","243","1023753","0.0-4.0-4.0-1.11","spark_pilot_norest","8320","5","12","Male","","","","","","","null","<div style=""font-size:60px;"">+</div>","null","fixation","","","","","","","","","23","","",""
"revaluation","244","1027769","0.0-4.0-4.0-0.12","spark_pilot_norest","8320","5","12","Male","","false","","","","","[1065]","./assets/img/canyon/animals/giraffe.jpg","[""ArrowLeft""]","revaluation","canyon","26","{""ArrowUp,ArrowLeft"":26,""ArrowUp,ArrowRight"":10,""ArrowDown,ArrowLeft"":5,""ArrowDown,ArrowRight"":17}","true","ArrowUp,ArrowLeft","","original","1","24","","",""
"html-keyboard-response","245","1028272","0.0-4.0-4.0-1.12","spark_pilot_norest","8320","5","12","Male","","","","","","","null","<div style=""font-size:60px;"">+</div>","null","fixation","","","","","","","","","25","","",""
"revaluation","246","1032289","0.0-4.0-4.0-0.13","spark_pilot_norest","8320","5","12","Male","","false","","","","","[870]","./assets/img/canyon/animals/giraffe.jpg","[""ArrowLeft""]","revaluation","canyon","26","{""ArrowUp,ArrowLeft"":26,""ArrowUp,ArrowRight"":10,""ArrowDown,ArrowLeft"":5,""ArrowDown,ArrowRight"":17}","true","ArrowUp,ArrowLeft","","original","1","26","","",""
"html-keyboard-response","247","1032792","0.0-4.0-4.0-1.13","spark_pilot_norest","8320","5","12","Male","","","","","","","null","<div style=""font-size:60px;"">+</div>","null","fixation","","","","","","","","","27","","",""
"revaluation","248","1036809","0.0-4.0-4.0-0.14","spark_pilot_norest","8320","5","12","Male","","false","","","","","[846.6999999997206]","./assets/img/canyon/animals/lion.jpg","[""ArrowRight""]","revaluation","canyon","17","{""ArrowUp,ArrowLeft"":26,""ArrowUp,ArrowRight"":10,""ArrowDown,ArrowLeft"":5,""ArrowDown,ArrowRight"":17}","true","ArrowDown,ArrowRight","","original","1","28","","",""
"html-keyboard-response","249","1037313","0.0-4.0-4.0-1.14","spark_pilot_norest","8320","5","12","Male","","","","","","","null","<div style=""font-size:60px;"">+</div>","null","fixation","","","","","","","","","29","","",""
"revaluation","250","1041329","0.0-4.0-4.0-0.15","spark_pilot_norest","8320","5","12","Male","","false","","","","","[623]","./assets/img/canyon/animals/giraffe.jpg","[""ArrowLeft""]","revaluation","canyon","26","{""ArrowUp,ArrowLeft"":26,""ArrowUp,ArrowRight"":10,""ArrowDown,ArrowLeft"":5,""ArrowDown,ArrowRight"":17}","true","ArrowUp,ArrowLeft","","original","1","30","","",""
"html-keyboard-response","251","1041833","0.0-4.0-4.0-1.15","spark_pilot_norest","8320","5","12","Male","","","","","","","null","<div style=""font-size:60px;"">+</div>","null","fixation","","","","","","","","","31","","",""
"revaluation","252","1045849","0.0-4.0-4.0-0.16","spark_pilot_norest","8320","5","12","Male","","false","","","","","[750.5]","./assets/img/canyon/animals/giraffe.jpg","[""ArrowLeft""]","revaluation","canyon","26","{""ArrowUp,ArrowLeft"":26,""ArrowUp,ArrowRight"":10,""ArrowDown,ArrowLeft"":5,""ArrowDown,ArrowRight"":17}","true","ArrowUp,ArrowLeft","","original","1","32","","",""
"html-keyboard-response","253","1046353","0.0-4.0-4.0-1.16","spark_pilot_norest","8320","5","12","Male","","","","","","","null","<div style=""font-size:60px;"">+</div>","null","fixation","","","","","","","","","33","","",""
"revaluation","254","1050371","0.0-4.0-4.0-0.17","spark_pilot_norest","8320","5","12","Male","","false","","","","","[657.3999999999069]","./assets/img/canyon/animals/lion.jpg","[""ArrowRight""]","revaluation","canyon","17","{""ArrowUp,ArrowLeft"":26,""ArrowUp,ArrowRight"":10,""ArrowDown,ArrowLeft"":5,""ArrowDown,ArrowRight"":17}","true","ArrowDown,ArrowRight","","original","1","34","","",""
"html-keyboard-response","255","1050873","0.0-4.0-4.0-1.17","spark_pilot_norest","8320","5","12","Male","","","","","","","null","<div style=""font-size:60px;"">+</div>","null","fixation","","","","","","","","","35","","",""
"learning-instructions","256","1059186","0.0-4.0-5.0-0.0","spark_pilot_norest","8320","5","12","Male","","","","","","","null","<p> You have almost finished this part of the game! </p>
            <p> We are going to ask you to make a few more choices. </p>","","instructions","","","","","","","","","","","",""
"learning-instructions","257","1075154","0.0-4.0-5.0-0.1","spark_pilot_norest","8320","5","12","Male","","","","","","","null","<p> First, you need to decide whether to go up or down. When you see each picture, use the arrow keys to make your choice. </p>
            <p><b>You will not see which animal you found, but try to get to the one that will give you the most treasure.</b></p>","","instructions","","","","","","","","","","","",""
"html-keyboard-response","258","1076162","0.0-4.0-6.0-0.0","spark_pilot_norest","8320","5","12","Male","","","","","","","null","<div style=""font-size:100px;color:red;"">Starting in...</div>","null","","","","","","","","","","","","",""
"html-keyboard-response","259","1077170","0.0-4.0-6.0-1.0","spark_pilot_norest","8320","5","12","Male","","","","","","","null","<div style=""font-size:200px;color:red;"">3</div>","null","","","","","","","","","","","","",""
"html-keyboard-response","260","1078178","0.0-4.0-6.0-2.0","spark_pilot_norest","8320","5","12","Male","","","","","","","null","<div style=""font-size:200px;color:red;"">2</div>","null","","","","","","","","","","","","",""
"html-keyboard-response","261","1079185","0.0-4.0-6.0-3.0","spark_pilot_norest","8320","5","12","Male","","","","","","","null","<div style=""font-size:200px;color:red;"">1</div>","null","","","","","","","","","","","","",""
"revaluation","262","1080106","0.0-4.0-7.0-0.0","spark_pilot_norest","8320","5","12","Male","","false","","","","","[913.5]","./assets/img/canyon/test/0.jpg","[""ArrowUp""]","first stage test","canyon","0","{""ArrowUp,ArrowLeft"":26,""ArrowUp,ArrowRight"":10,""ArrowDown,ArrowLeft"":5,""ArrowDown,ArrowRight"":17}","true","ArrowUp","false","original","1","","","",""
"html-keyboard-response","263","1080610","0.0-4.0-7.0-1.0","spark_pilot_norest","8320","5","12","Male","","","","","","","null","<div style=""font-size:60px;"">+</div>","null","fixation","","","","","","","","","","","",""
"revaluation","264","1081810","0.0-4.0-7.0-0.1","spark_pilot_norest","8320","5","12","Male","","false","","","","","[1191.2000000001863]","./assets/img/canyon/test/1.jpg","[""ArrowUp""]","first stage test","canyon","0","{""ArrowUp,ArrowLeft"":26,""ArrowUp,ArrowRight"":10,""ArrowDown,ArrowLeft"":5,""ArrowDown,ArrowRight"":17}","true","ArrowUp","false","original","1","","","",""
"html-keyboard-response","265","1082313","0.0-4.0-7.0-1.1","spark_pilot_norest","8320","5","12","Male","","","","","","","null","<div style=""font-size:60px;"">+</div>","null","fixation","","","","","","","","","","","",""
"revaluation","266","1082950","0.0-4.0-7.0-0.2","spark_pilot_norest","8320","5","12","Male","","false","","","","","[628.3999999999069]","./assets/img/canyon/test/2.jpg","[""ArrowDown""]","first stage test","canyon","0","{""ArrowUp,ArrowLeft"":26,""ArrowUp,ArrowRight"":10,""ArrowDown,ArrowLeft"":5,""ArrowDown,ArrowRight"":17}","false","ArrowDown","false","original","1","","","",""
"html-keyboard-response","267","1083457","0.0-4.0-7.0-1.2","spark_pilot_norest","8320","5","12","Male","","","","","","","null","<div style=""font-size:60px;"">+</div>","null","fixation","","","","","","","","","","","",""
"revaluation","268","1084234","0.0-4.0-7.0-0.3","spark_pilot_norest","8320","5","12","Male","","false","","","","","[770.7999999998137]","./assets/img/canyon/test/3.jpg","[""ArrowDown""]","first stage test","canyon","0","{""ArrowUp,ArrowLeft"":26,""ArrowUp,ArrowRight"":10,""ArrowDown,ArrowLeft"":5,""ArrowDown,ArrowRight"":17}","false","ArrowDown","false","original","1","","","",""
"html-keyboard-response","269","1084737","0.0-4.0-7.0-1.3","spark_pilot_norest","8320","5","12","Male","","","","","","","null","<div style=""font-size:60px;"">+</div>","null","fixation","","","","","","","","","","","",""
"learning-instructions","270","1098090","0.0-4.0-8.0-0.0","spark_pilot_norest","8320","5","12","Male","","","","","","","null","<p> Now you will see the animals again and can search their chests for treasure. </p>
            <p> This time, you will not see how much treasure you earned, but you will earn more bonus money for making better choices. </p>","","instructions","","","","","","","","","","","",""
"html-keyboard-response","271","1099098","0.0-4.0-9.0-0.0","spark_pilot_norest","8320","5","12","Male","","","","","","","null","<div style=""font-size:100px;color:red;"">Starting in...</div>","null","","","","","","","","","","","","",""
"html-keyboard-response","272","1100106","0.0-4.0-9.0-1.0","spark_pilot_norest","8320","5","12","Male","","","","","","","null","<div style=""font-size:200px;color:red;"">3</div>","null","","","","","","","","","","","","",""
"html-keyboard-response","273","1101114","0.0-4.0-9.0-2.0","spark_pilot_norest","8320","5","12","Male","","","","","","","null","<div style=""font-size:200px;color:red;"">2</div>","null","","","","","","","","","","","","",""
"html-keyboard-response","274","1102123","0.0-4.0-9.0-3.0","spark_pilot_norest","8320","5","12","Male","","","","","","","null","<div style=""font-size:200px;color:red;"">1</div>","null","","","","","","","","","","","","",""
"revaluation","275","1102903","0.0-4.0-10.0-0.0","spark_pilot_norest","8320","5","12","Male","","false","","","","","[770]","./assets/img/canyon/animals/giraffe.jpg","[""ArrowLeft""]","second stage test","canyon","0","{""ArrowUp,ArrowLeft"":26,""ArrowUp,ArrowRight"":10,""ArrowDown,ArrowLeft"":5,""ArrowDown,ArrowRight"":17}","true","ArrowUp,ArrowLeft","","original","1","","","",""
"html-keyboard-response","276","1103410","0.0-4.0-10.0-1.0","spark_pilot_norest","8320","5","12","Male","","","","","","","null","<div style=""font-size:60px;"">+</div>","null","fixation","","","","","","","","","","","",""
"revaluation","277","1104071","0.0-4.0-10.0-0.1","spark_pilot_norest","8320","5","12","Male","","false","","","","","[653.2000000001863]","./assets/img/canyon/animals/giraffe.jpg","[""ArrowLeft""]","second stage test","canyon","0","{""ArrowUp,ArrowLeft"":26,""ArrowUp,ArrowRight"":10,""ArrowDown,ArrowLeft"":5,""ArrowDown,ArrowRight"":17}","true","ArrowUp,ArrowLeft","","original","1","","","",""
"html-keyboard-response","278","1104578","0.0-4.0-10.0-1.1","spark_pilot_norest","8320","5","12","Male","","","","","","","null","<div style=""font-size:60px;"">+</div>","null","fixation","","","","","","","","","","","",""
"revaluation","279","1105107","0.0-4.0-10.0-0.2","spark_pilot_norest","8320","5","12","Male","","false","","","","","[521.7000000001863]","./assets/img/canyon/animals/giraffe.jpg","[""ArrowLeft""]","second stage test","canyon","0","{""ArrowUp,ArrowLeft"":26,""ArrowUp,ArrowRight"":10,""ArrowDown,ArrowLeft"":5,""ArrowDown,ArrowRight"":17}","true","ArrowUp,ArrowLeft","","original","1","","","",""
"html-keyboard-response","280","1105612","0.0-4.0-10.0-1.2","spark_pilot_norest","8320","5","12","Male","","","","","","","null","<div style=""font-size:60px;"">+</div>","null","fixation","","","","","","","","","","","",""
"revaluation","281","1106120","0.0-4.0-10.0-0.3","spark_pilot_norest","8320","5","12","Male","","false","","","","","[498]","./assets/img/canyon/animals/giraffe.jpg","[""ArrowLeft""]","second stage test","canyon","0","{""ArrowUp,ArrowLeft"":26,""ArrowUp,ArrowRight"":10,""ArrowDown,ArrowLeft"":5,""ArrowDown,ArrowRight"":17}","true","ArrowUp,ArrowLeft","","original","1","","","",""
"html-keyboard-response","282","1106626","0.0-4.0-10.0-1.3","spark_pilot_norest","8320","5","12","Male","","","","","","","null","<div style=""font-size:60px;"">+</div>","null","fixation","","","","","","","","","","","",""
"revaluation","283","1107215","0.0-4.0-10.0-0.4","spark_pilot_norest","8320","5","12","Male","","false","","","","","[583.5]","./assets/img/canyon/animals/lion.jpg","[""ArrowRight""]","second stage test","canyon","0","{""ArrowUp,ArrowLeft"":26,""ArrowUp,ArrowRight"":10,""ArrowDown,ArrowLeft"":5,""ArrowDown,ArrowRight"":17}","true","ArrowDown,ArrowRight","","original","1","","","",""
"html-keyboard-response","284","1107722","0.0-4.0-10.0-1.4","spark_pilot_norest","8320","5","12","Male","","","","","","","null","<div style=""font-size:60px;"">+</div>","null","fixation","","","","","","","","","","","",""
"revaluation","285","1108168","0.0-4.0-10.0-0.5","spark_pilot_norest","8320","5","12","Male","","false","","","","","[438.60000000009313]","./assets/img/canyon/animals/lion.jpg","[""ArrowRight""]","second stage test","canyon","0","{""ArrowUp,ArrowLeft"":26,""ArrowUp,ArrowRight"":10,""ArrowDown,ArrowLeft"":5,""ArrowDown,ArrowRight"":17}","true","ArrowDown,ArrowRight","","original","1","","","",""
"html-keyboard-response","286","1108674","0.0-4.0-10.0-1.5","spark_pilot_norest","8320","5","12","Male","","","","","","","null","<div style=""font-size:60px;"">+</div>","null","fixation","","","","","","","","","","","",""
"revaluation","287","1109116","0.0-4.0-10.0-0.6","spark_pilot_norest","8320","5","12","Male","","false","","","","","[433.29999999981374]","./assets/img/canyon/animals/lion.jpg","[""ArrowRight""]","second stage test","canyon","0","{""ArrowUp,ArrowLeft"":26,""ArrowUp,ArrowRight"":10,""ArrowDown,ArrowLeft"":5,""ArrowDown,ArrowRight"":17}","true","ArrowDown,ArrowRight","","original","1","","","",""
"html-keyboard-response","288","1109618","0.0-4.0-10.0-1.6","spark_pilot_norest","8320","5","12","Male","","","","","","","null","<div style=""font-size:60px;"">+</div>","null","fixation","","","","","","","","","","","",""
"revaluation","289","1110073","0.0-4.0-10.0-0.7","spark_pilot_norest","8320","5","12","Male","","false","","","","","[446.6999999997206]","./assets/img/canyon/animals/lion.jpg","[""ArrowRight""]","second stage test","canyon","0","{""ArrowUp,ArrowLeft"":26,""ArrowUp,ArrowRight"":10,""ArrowDown,ArrowLeft"":5,""ArrowDown,ArrowRight"":17}","true","ArrowDown,ArrowRight","","original","1","","","",""
"html-keyboard-response","290","1110580","0.0-4.0-10.0-1.7","spark_pilot_norest","8320","5","12","Male","","","","","","","null","<div style=""font-size:60px;"">+</div>","null","fixation","","","","","","","","","","","",""
"learning-instructions","291","1114839","0.0-4.0-0.1-0.2","spark_pilot_norest","8320","5","12","Male","","","","","","","1495.3000000002794","<p> This time you are searching for treasure in the <b>ocean</b>.</p>","","instructions","","","","","","","","","","","",""
"learning-instructions","292","1135633","0.0-4.0-0.1-0.3","spark_pilot_norest","8320","5","12","Male","","","","","","","3542.5999999996275","<p><b>New</b> animals with <b>new</b> treasure chests live here. You need to explore to discover where the animal with the best treasure chest is.</p>
                    <p> Like before, once you figure out which animal has the chest with the most treasure, you should try to get to that animal and select that chest! </p>","","instructions","","","","","","","","","","","",""
"learning-instructions","293","1151652","0.0-4.0-1.1-0.1","spark_pilot_norest","8320","5","12","Male","","","","","","","1280.7000000001863","<p> Remember, when you see a picture of the place, use the up and down keys to <b>find an animal</b>.</p>
            <p> When you encounter an animal, you should use the left and right keys to <b>select a treasure chest</b>.</p>
            <p> Don't forget to look out for the robber! </p>","","instructions","","","","","","","","","","","",""
"revaluation","294","1157676","0.0-4.0-2.1-0.50","spark_pilot_norest","8320","5","12","Male","","false","","","","","[1247.4000000003725,724.5]","./assets/img/ocean/memory/7.jpg","[""ArrowDown"",""ArrowLeft""]","value training","ocean","8","{""ArrowUp,ArrowLeft"":23,""ArrowUp,ArrowRight"":10,""ArrowDown,ArrowLeft"":8,""ArrowDown,ArrowRight"":30}","false","ArrowDown,ArrowLeft","false","revaluation","2","0","","",""
"html-keyboard-response","295","1158179","0.0-4.0-2.1-1.50","spark_pilot_norest","8320","5","12","Male","","","","","","","null","<div style=""font-size:60px;"">+</div>","null","fixation","","","","","","","","","1","","",""
"revaluation","296","1164212","0.0-4.0-2.1-0.51","spark_pilot_norest","8320","5","12","Male","","false","","","","","[1128.8000000002794,372.29999999981374]","./assets/img/ocean/memory/26.jpg","[""ArrowDown"",""ArrowRight""]","value training","ocean","30","{""ArrowUp,ArrowLeft"":23,""ArrowUp,ArrowRight"":10,""ArrowDown,ArrowLeft"":8,""ArrowDown,ArrowRight"":30}","true","ArrowDown,ArrowRight","false","revaluation","2","2","","",""
"html-keyboard-response","297","1164716","0.0-4.0-2.1-1.51","spark_pilot_norest","8320","5","12","Male","","","","","","","null","<div style=""font-size:60px;"">+</div>","null","fixation","","","","","","","","","3","","",""
"revaluation","298","1170742","0.0-4.0-2.1-0.52","spark_pilot_norest","8320","5","12","Male","","false","","","","","[451.90000000037253,492.70000000018626]","./assets/img/ocean/memory/4.jpg","[""ArrowUp"",""ArrowLeft""]","value training","ocean","23","{""ArrowUp,ArrowLeft"":23,""ArrowUp,ArrowRight"":10,""ArrowDown,ArrowLeft"":8,""ArrowDown,ArrowRight"":30}","false","ArrowUp,ArrowLeft","false","revaluation","2","4","","",""
"html-keyboard-response","299","1171246","0.0-4.0-2.1-1.52","spark_pilot_norest","8320","5","12","Male","","","","","","","null","<div style=""font-size:60px;"">+</div>","null","fixation","","","","","","","","","5","","",""
"revaluation","300","1175270","0.0-4.0-2.1-0.53","spark_pilot_norest","8320","5","12","Male","","false","","","","","[589.2999999998137]","./assets/img/ocean/catch/2.jpg","[""ArrowUp""]","value training","ocean","-10","{""ArrowUp,ArrowLeft"":23,""ArrowUp,ArrowRight"":10,""ArrowDown,ArrowLeft"":8,""ArrowDown,ArrowRight"":30}","false","ArrowUp","true","revaluation","2","6","","",""
"html-keyboard-response","301","1175773","0.0-4.0-2.1-1.53","spark_pilot_norest","8320","5","12","Male","","","","","","","null","<div style=""font-size:60px;"">+</div>","null","fixation","","","","","","","","","7","","",""
"revaluation","302","1181798","0.0-4.0-2.1-0.54","spark_pilot_norest","8320","5","12","Male","","false","","","","","[866.1000000000931,443.60000000009313]","./assets/img/ocean/memory/11.jpg","[""ArrowUp"",""ArrowRight""]","value training","ocean","10","{""ArrowUp,ArrowLeft"":23,""ArrowUp,ArrowRight"":10,""ArrowDown,ArrowLeft"":8,""ArrowDown,ArrowRight"":30}","false","ArrowUp,ArrowRight","false","revaluation","2","8","","",""
"html-keyboard-response","303","1182301","0.0-4.0-2.1-1.54","spark_pilot_norest","8320","5","12","Male","","","","","","","null","<div style=""font-size:60px;"">+</div>","null","fixation","","","","","","","","","9","","",""
"revaluation","304","1188342","0.0-4.0-2.1-0.55","spark_pilot_norest","8320","5","12","Male","","false","","","","","[708,720.2000000001863]","./assets/img/ocean/memory/8.jpg","[""ArrowUp"",""ArrowLeft""]","value training","ocean","23","{""ArrowUp,ArrowLeft"":23,""ArrowUp,ArrowRight"":10,""ArrowDown,ArrowLeft"":8,""ArrowDown,ArrowRight"":30}","false","ArrowUp,ArrowLeft","false","revaluation","2","10","","",""
"html-keyboard-response","305","1188845","0.0-4.0-2.1-1.55","spark_pilot_norest","8320","5","12","Male","","","","","","","null","<div style=""font-size:60px;"">+</div>","null","fixation","","","","","","","","","11","","",""
"revaluation","306","1194878","0.0-4.0-2.1-0.56","spark_pilot_norest","8320","5","12","Male","","false","","","","","[608.8999999999069,445.20000000018626]","./assets/img/ocean/memory/39.jpg","[""ArrowDown"",""ArrowRight""]","value training","ocean","30","{""ArrowUp,ArrowLeft"":23,""ArrowUp,ArrowRight"":10,""ArrowDown,ArrowLeft"":8,""ArrowDown,ArrowRight"":30}","true","ArrowDown,ArrowRight","false","revaluation","2","12","","",""
"html-keyboard-response","307","1195381","0.0-4.0-2.1-1.56","spark_pilot_norest","8320","5","12","Male","","","","","","","null","<div style=""font-size:60px;"">+</div>","null","fixation","","","","","","","","","13","","",""
"revaluation","308","1201406","0.0-4.0-2.1-0.57","spark_pilot_norest","8320","5","12","Male","","false","","","","","[607.5,355]","./assets/img/ocean/memory/1.jpg","[""ArrowDown"",""ArrowRight""]","value training","ocean","30","{""ArrowUp,ArrowLeft"":23,""ArrowUp,ArrowRight"":10,""ArrowDown,ArrowLeft"":8,""ArrowDown,ArrowRight"":30}","true","ArrowDown,ArrowRight","false","revaluation","2","14","","",""
"html-keyboard-response","309","1201910","0.0-4.0-2.1-1.57","spark_pilot_norest","8320","5","12","Male","","","","","","","null","<div style=""font-size:60px;"">+</div>","null","fixation","","","","","","","","","15","","",""
"revaluation","310","1207942","0.0-4.0-2.1-0.58","spark_pilot_norest","8320","5","12","Male","","false","","","","","[468.89999999990687,1140.1999999997206]","./assets/img/ocean/memory/33.jpg","[""ArrowDown"",""ArrowRight""]","value training","ocean","30","{""ArrowUp,ArrowLeft"":23,""ArrowUp,ArrowRight"":10,""ArrowDown,ArrowLeft"":8,""ArrowDown,ArrowRight"":30}","true","ArrowDown,ArrowRight","false","revaluation","2","16","","",""
"html-keyboard-response","311","1208445","0.0-4.0-2.1-1.58","spark_pilot_norest","8320","5","12","Male","","","","","","","null","<div style=""font-size:60px;"">+</div>","null","fixation","","","","","","","","","17","","",""
"revaluation","312","1214470","0.0-4.0-2.1-0.59","spark_pilot_norest","8320","5","12","Male","","false","","","","","[856,554.1000000000931]","./assets/img/ocean/memory/0.jpg","[""ArrowDown"",""ArrowRight""]","value training","ocean","30","{""ArrowUp,ArrowLeft"":23,""ArrowUp,ArrowRight"":10,""ArrowDown,ArrowLeft"":8,""ArrowDown,ArrowRight"":30}","true","ArrowDown,ArrowRight","false","revaluation","2","18","","",""
"html-keyboard-response","313","1214973","0.0-4.0-2.1-1.59","spark_pilot_norest","8320","5","12","Male","","","","","","","null","<div style=""font-size:60px;"">+</div>","null","fixation","","","","","","","","","19","","",""
"revaluation","314","1218990","0.0-4.0-2.1-0.60","spark_pilot_norest","8320","5","12","Male","","false","","","","","[796.2999999998137]","./assets/img/ocean/catch/5.jpg","[""spaceBar""]","value training","ocean","0","{""ArrowUp,ArrowLeft"":23,""ArrowUp,ArrowRight"":10,""ArrowDown,ArrowLeft"":8,""ArrowDown,ArrowRight"":30}","true","spaceBar","true","revaluation","2","20","","",""
