"trial_type","trial_index","time_elapsed","internal_node_id","task_version","subject_id","assigned_condition","age","gender","success","timeout","failed_images","failed_audio","failed_video","browser_interaction","rt","stimulus","response","task_part","environment","score","rewardMap","correct","fullState","isCatch","condition","order","trial_num","key_press","ground_truth","bonus"
"pavlovia","0","1280","0.0-0.0","spark_pilot_norest","14485","7","16","Female","","","","","","","","","","","","","","","","","","","","","",""
"preload","1","49827","0.0-1.0","spark_pilot_norest","14485","7","16","Female","true","false","[]","[]","[]","[{""event"":""fullscreenenter"",""trial"":2,""time"":56696}]","","","","","","","","","","","","","","","",""
"fullscreen","2","57664","0.0-2.0","spark_pilot_norest","14485","7","16","Female","true","","","","","","","","","","","","","","","","","","","","",""
"audio-button-response","3","62770","0.0-3.0-0.0-0.0","spark_pilot_norest","14485","7","16","Female","","","","","","","4309","./assets/audio/audiotest/turtle.mp3","2","audio_test","","","","","","","","","","","",""
"learning-instructions","4","74253","0.0-3.0-1.0-0.0","spark_pilot_norest","14485","7","16","Female","","","","","","","4518.199999999721","<p> Welcome! Please remember to stay in fullscreen mode and don't click away from the experiment. </p>","","instructions","","","","","","","","","","","",""
"learning-instructions","5","84882","0.0-3.0-1.0-0.1","spark_pilot_norest","14485","7","16","Female","","","","","","","2233.3000000002794","<p> Today you will be playing a game to earn treasure. </p>
            <p> At the end of the experiment, you will earn a bonus based on how much treasure you find. </p>
            <img src='./assets/img/instructions/treasure.jpg' class='instructions-image'>","","instructions","","","","","","","","","","","",""
"learning-instructions","6","94417","0.0-3.0-1.0-0.2","spark_pilot_norest","14485","7","16","Female","","","","","","","1282","<p> Animals have hidden treasure in treasure chests. </p>
            <p> You need to first find an animal and then choose which of their treasure chests to search. </p>
            <img src='./assets/img/space/animals/cat.jpg' class='instructions-image'>","","instructions","","","","","","","","","","","",""
"learning-instructions","7","109110","0.0-3.0-1.0-0.3","spark_pilot_norest","14485","7","16","Female","","","","","","","1543.6000000000931","<p> In each round, you will search for treasure in a different place. In the real game, there will be two rounds. </p>
            <p> You will begin with a separate, practice round where you will search for treasure in outer space. </p>
            <img src='./assets/img/space/0.jpg' class='instructions-image'>","","instructions","","","","","","","","","","","",""
"learning-instructions","8","130548","0.0-3.0-1.0-0.4","spark_pilot_norest","14485","7","16","Female","","","","","","","10043.5","<p> On every turn, you will see a picture of the place that you are in, but the specific image may be different each time. </p>
            <p> For example, both of these images mean you are in outer space. </p>
            <img src='./assets/img/instructions/outerspace.jpg' class='instructions-image'>","","instructions","","","","","","","","","","","",""
"learning-instructions","9","140043","0.0-3.0-1.0-0.5","spark_pilot_norest","14485","7","16","Female","","","","","","","1671.3000000002794","<p> You need to decide which direction to travel in. </p>
            <p> You can choose between going <b>up or down</b> by using the arrow keys. </p>
            <img src='./assets/img/instructions/updown.jpg' class='instructions-image'>","","instructions","","","","","","","","","","","",""
"learning-instructions","10","160561","0.0-3.0-1.0-0.6","spark_pilot_norest","14485","7","16","Female","","","","","","","11714.100000000093","<p> You will have <b>2 seconds</b> to make your choice. </p>
            <p> If you do not make a choice within 2 seconds, you will not find an animal or earn treasure. </p>
            <img src='./assets/img/instructions/2seconds.jpg' class='instructions-image'>","","instructions","","","","","","","","","","","",""
"learning-instructions","11","180661","0.0-3.0-1.0-0.7","spark_pilot_norest","14485","7","16","Female","","","","","","","13072.200000000186","<p> Let’s try practicing that now! </p>
            <p> When you see a picture of the place you are in, press the <b>up</b> key to travel up. </p>
            <img src='./assets/img/instructions/pressUp.jpg' class='instructions-image'>","","instructions","","","","","","","","","","","",""
"revaluation","12","184693","0.0-3.0-2.0-0.0","spark_pilot_norest","14485","7","16","Female","","false","","","","","[1209.8000000002794]","./assets/img/space/0.jpg","[""ArrowUp""]","first stage practice","space","0","null","null","ArrowUp","false","","","","","",""
"html-keyboard-response","13","185201","0.0-3.0-2.0-1.0","spark_pilot_norest","14485","7","16","Female","","","","","","","null","<div style=""font-size:60px;"">+</div>","null","fixation","","","","","","","","","","","",""
"revaluation","14","189213","0.0-3.0-2.0-0.1","spark_pilot_norest","14485","7","16","Female","","true","","","","","[]","./assets/img/space/1.jpg","[]","first stage practice","space","-5","null","null","","false","","","","","",""
"html-keyboard-response","15","189719","0.0-3.0-2.0-1.1","spark_pilot_norest","14485","7","16","Female","","","","","","","null","<div style=""font-size:60px;"">+</div>","null","fixation","","","","","","","","","","","",""
"revaluation","16","193732","0.0-3.0-2.0-0.2","spark_pilot_norest","14485","7","16","Female","","false","","","","","[1207.5999999996275]","./assets/img/space/2.jpg","[""ArrowUp""]","first stage practice","space","0","null","null","ArrowUp","false","","","","","",""
"html-keyboard-response","17","194233","0.0-3.0-2.0-1.2","spark_pilot_norest","14485","7","16","Female","","","","","","","null","<div style=""font-size:60px;"">+</div>","null","fixation","","","","","","","","","","","",""
"learning-instructions","18","201194","0.0-3.0-3.0-0.0","spark_pilot_norest","14485","7","16","Female","","","","","","","2267","<p> Great job! Now try pressing the <b>down</b> key to travel down. </p>
            <img src='./assets/img/instructions/pressDown.jpg' class='instructions-image'>","","instructions","","","","","","","","","","","",""
"revaluation","19","205200","0.0-3.0-4.0-0.0","spark_pilot_norest","14485","7","16","Female","","false","","","","","[654.2999999998137]","./assets/img/space/3.jpg","[""ArrowDown""]","first stage practice","space","0","null","null","ArrowDown","false","","","","","",""
"html-keyboard-response","20","205702","0.0-3.0-4.0-1.0","spark_pilot_norest","14485","7","16","Female","","","","","","","null","<div style=""font-size:60px;"">+</div>","null","fixation","","","","","","","","","","","",""
"revaluation","21","209727","0.0-3.0-4.0-0.1","spark_pilot_norest","14485","7","16","Female","","false","","","","","[1081.5]","./assets/img/space/4.jpg","[""ArrowDown""]","first stage practice","space","0","null","null","ArrowDown","false","","","","","",""
"html-keyboard-response","22","210243","0.0-3.0-4.0-1.1","spark_pilot_norest","14485","7","16","Female","","","","","","","null","<div style=""font-size:60px;"">+</div>","null","fixation","","","","","","","","","","","",""
"revaluation","23","214261","0.0-3.0-4.0-0.2","spark_pilot_norest","14485","7","16","Female","","false","","","","","[416.6999999997206]","./assets/img/space/5.jpg","[""ArrowDown""]","first stage practice","space","0","null","null","ArrowDown","false","","","","","",""
"html-keyboard-response","24","214776","0.0-3.0-4.0-1.2","spark_pilot_norest","14485","7","16","Female","","","","","","","null","<div style=""font-size:60px;"">+</div>","null","fixation","","","","","","","","","","","",""
"learning-instructions","25","226465","0.0-3.0-5.0-0.0","spark_pilot_norest","14485","7","16","Female","","","","","","","1852.8000000002794","<p> The animals don’t move, so the animal in the upper part of a place will stay in the upper part of a place, and the animal in the lower part of a place will stay in the lower part of a place. </p>","","instructions","","","","","","","","","","","",""
"learning-instructions","26","236594","0.0-3.0-5.0-0.1","spark_pilot_norest","14485","7","16","Female","","","","","","","1006","<p> Each animal has two treasure chests for you to choose from. </p>
            <p> The amount of treasure in each chest can range from <b> 0 to 40 pieces.</b></p>","","instructions","","","","","","","","","","","",""
"learning-instructions","27","255072","0.0-3.0-5.0-0.2","spark_pilot_norest","14485","7","16","Female","","","","","","","7302.5999999996275","<p> You should decide which chest to search for treasure by using the <b>left</b> and <b>right</b> arrow keys. </p>
            <p><b> Pay attention to which animal is on the screen, as the animals have different treasure chests. </b></p>
            <img src='./assets/img/instructions/leftright.jpg' class='instructions-image'>","","instructions","","","","","","","","","","","",""
"learning-instructions","28","263364","0.0-3.0-5.0-0.3","spark_pilot_norest","14485","7","16","Female","","","","","","","1931","<p> Let’s try practicing that now. </p>
            <p> When you see an animal, choose which chest to search for treasure. </p>
            <img src='./assets/img/instructions/chooseChest.jpg' class='instructions-image'>","","instructions","","","","","","","","","","","",""
"revaluation","29","267384","0.0-3.0-6.0-0.0","spark_pilot_norest","14485","7","16","Female","","false","","","","","[906.7000000001863]","./assets/img/space/animals/rabbit.jpg","[""ArrowRight""]","second stage practice","space","23","{""ArrowUp,ArrowLeft"":3,""ArrowUp,ArrowRight"":36,""ArrowDown,ArrowLeft"":15,""ArrowDown,ArrowRight"":23}","true","ArrowDown,ArrowRight","","","","","","",""
"html-keyboard-response","30","267890","0.0-3.0-6.0-1.0","spark_pilot_norest","14485","7","16","Female","","","","","","","null","<div style=""font-size:60px;"">+</div>","null","fixation","","","","","","","","","","","",""
"revaluation","31","271908","0.0-3.0-6.0-0.1","spark_pilot_norest","14485","7","16","Female","","false","","","","","[941.5999999996275]","./assets/img/space/animals/cat.jpg","[""ArrowLeft""]","second stage practice","space","3","{""ArrowUp,ArrowLeft"":3,""ArrowUp,ArrowRight"":36,""ArrowDown,ArrowLeft"":15,""ArrowDown,ArrowRight"":23}","false","ArrowUp,ArrowLeft","","","","","","",""
"html-keyboard-response","32","272421","0.0-3.0-6.0-1.1","spark_pilot_norest","14485","7","16","Female","","","","","","","null","<div style=""font-size:60px;"">+</div>","null","fixation","","","","","","","","","","","",""
"revaluation","33","276434","0.0-3.0-6.0-0.2","spark_pilot_norest","14485","7","16","Female","","false","","","","","[955.7000000001863]","./assets/img/space/animals/rabbit.jpg","[""ArrowLeft""]","second stage practice","space","15","{""ArrowUp,ArrowLeft"":3,""ArrowUp,ArrowRight"":36,""ArrowDown,ArrowLeft"":15,""ArrowDown,ArrowRight"":23}","false","ArrowDown,ArrowLeft","","","","","","",""
"html-keyboard-response","34","276947","0.0-3.0-6.0-1.2","spark_pilot_norest","14485","7","16","Female","","","","","","","null","<div style=""font-size:60px;"">+</div>","null","fixation","","","","","","","","","","","",""
"revaluation","35","280974","0.0-3.0-6.0-0.3","spark_pilot_norest","14485","7","16","Female","","false","","","","","[363.70000000018626]","./assets/img/space/animals/cat.jpg","[""ArrowRight""]","second stage practice","space","36","{""ArrowUp,ArrowLeft"":3,""ArrowUp,ArrowRight"":36,""ArrowDown,ArrowLeft"":15,""ArrowDown,ArrowRight"":23}","true","ArrowUp,ArrowRight","","","","","","",""
"html-keyboard-response","36","281529","0.0-3.0-6.0-1.3","spark_pilot_norest","14485","7","16","Female","","","","","","","null","<div style=""font-size:60px;"">+</div>","null","fixation","","","","","","","","","","","",""
"learning-instructions","37","299953","0.0-3.0-7.0-0.0","spark_pilot_norest","14485","7","16","Female","","","","","","","1247.5","<p> Great job. Now let’s try putting it together. </p>
            <p> On each turn, you will first see a picture to remind you of the place you are in, and you need to choose whether to go up or down. </p>
            <p> Then you will see an animal and choose which of its chests to search for treasure. </p>","","instructions","","","","","","","","","","","",""
"learning-instructions","38","309437","0.0-3.0-7.0-0.1","spark_pilot_norest","14485","7","16","Female","","","","","","","1198","<p> When you choose whether to go up or down, try to go to the animal with the chest with the most treasure. </p>
            <p> Try practicing that now! </p>","","instructions","","","","","","","","","","","",""
"revaluation","39","315490","0.0-3.0-8.0-0.0","spark_pilot_norest","14485","7","16","Female","","false","","","","","[288.3000000002794,719.6999999997206]","./assets/img/space/6.jpg","[""ArrowUp"",""ArrowRight""]","full practice","space","36","{""ArrowUp,ArrowLeft"":3,""ArrowUp,ArrowRight"":36,""ArrowDown,ArrowLeft"":15,""ArrowDown,ArrowRight"":23}","true","ArrowUp,ArrowRight","false","","","","","",""
"html-keyboard-response","40","316002","0.0-3.0-8.0-1.0","spark_pilot_norest","14485","7","16","Female","","","","","","","null","<div style=""font-size:60px;"">+</div>","null","fixation","","","","","","","","","","","",""
"revaluation","41","322026","0.0-3.0-8.0-0.1","spark_pilot_norest","14485","7","16","Female","","false","","","","","[1219.6000000000931,530.8999999999069]","./assets/img/space/7.jpg","[""ArrowUp"",""ArrowRight""]","full practice","space","36","{""ArrowUp,ArrowLeft"":3,""ArrowUp,ArrowRight"":36,""ArrowDown,ArrowLeft"":15,""ArrowDown,ArrowRight"":23}","true","ArrowUp,ArrowRight","false","","","","","",""
"html-keyboard-response","42","322539","0.0-3.0-8.0-1.1","spark_pilot_norest","14485","7","16","Female","","","","","","","null","<div style=""font-size:60px;"">+</div>","null","fixation","","","","","","","","","","","",""
"revaluation","43","328564","0.0-3.0-8.0-0.2","spark_pilot_norest","14485","7","16","Female","","false","","","","","[569.5,487.89999999990687]","./assets/img/space/8.jpg","[""ArrowUp"",""ArrowRight""]","full practice","space","36","{""ArrowUp,ArrowLeft"":3,""ArrowUp,ArrowRight"":36,""ArrowDown,ArrowLeft"":15,""ArrowDown,ArrowRight"":23}","true","ArrowUp,ArrowRight","false","","","","","",""
"html-keyboard-response","44","329077","0.0-3.0-8.0-1.2","spark_pilot_norest","14485","7","16","Female","","","","","","","null","<div style=""font-size:60px;"">+</div>","null","fixation","","","","","","","","","","","",""
"revaluation","45","335106","0.0-3.0-8.0-0.3","spark_pilot_norest","14485","7","16","Female","","false","","","","","[317.40000000037253,478.60000000009313]","./assets/img/space/9.jpg","[""ArrowUp"",""ArrowRight""]","full practice","space","36","{""ArrowUp,ArrowLeft"":3,""ArrowUp,ArrowRight"":36,""ArrowDown,ArrowLeft"":15,""ArrowDown,ArrowRight"":23}","true","ArrowUp,ArrowRight","false","","","","","",""
"html-keyboard-response","46","335620","0.0-3.0-8.0-1.3","spark_pilot_norest","14485","7","16","Female","","","","","","","null","<div style=""font-size:60px;"">+</div>","null","fixation","","","","","","","","","","","",""
"revaluation","47","341629","0.0-3.0-8.0-0.4","spark_pilot_norest","14485","7","16","Female","","false","","","","","[283.29999999981374,630.3999999999069]","./assets/img/space/10.jpg","[""ArrowUp"",""ArrowRight""]","full practice","space","36","{""ArrowUp,ArrowLeft"":3,""ArrowUp,ArrowRight"":36,""ArrowDown,ArrowLeft"":15,""ArrowDown,ArrowRight"":23}","true","ArrowUp,ArrowRight","false","","","","","",""
"html-keyboard-response","48","342130","0.0-3.0-8.0-1.4","spark_pilot_norest","14485","7","16","Female","","","","","","","null","<div style=""font-size:60px;"">+</div>","null","fixation","","","","","","","","","","","",""
"learning-instructions","49","353459","0.0-3.0-9.0-0.0","spark_pilot_norest","14485","7","16","Female","","","","","","","1024","<p> One last thing: sometimes, you will see a robber. The robber can be anywhere in the picture. </p>
            <p> If you do not stop them, you will lose treasure. </p>
            <img src='./assets/img/instructions/robber.jpg' class='instructions-image'>","","instructions","","","","","","","","","","","",""
"learning-instructions","50","361911","0.0-3.0-9.0-0.1","spark_pilot_norest","14485","7","16","Female","","","","","","","1285.1000000000931","<p> If you see the robber, you should <b>press the space bar</b> rather than using the arrow keys. </p>
            <p> Try practicing that now! </p>","","instructions","","","","","","","","","","","",""
"revaluation","51","365930","0.0-3.0-10.0-0.0","spark_pilot_norest","14485","7","16","Female","","false","","","","","[738]","./assets/img/space/catch/0.jpg","[""spaceBar""]","catch practice","space","0","{""ArrowUp,ArrowLeft"":3,""ArrowUp,ArrowRight"":36,""ArrowDown,ArrowLeft"":15,""ArrowDown,ArrowRight"":23}","true","spaceBar","true","","","","","",""
"html-keyboard-response","52","366444","0.0-3.0-10.0-1.0","spark_pilot_norest","14485","7","16","Female","","","","","","","null","<div style=""font-size:60px;"">+</div>","null","fixation","","","","","","","","","","","",""
"revaluation","53","370463","0.0-3.0-10.0-0.1","spark_pilot_norest","14485","7","16","Female","","false","","","","","[470.20000000018626]","./assets/img/space/catch/1.jpg","[""spaceBar""]","catch practice","space","0","{""ArrowUp,ArrowLeft"":3,""ArrowUp,ArrowRight"":36,""ArrowDown,ArrowLeft"":15,""ArrowDown,ArrowRight"":23}","true","spaceBar","true","","","","","",""
"html-keyboard-response","54","370973","0.0-3.0-10.0-1.1","spark_pilot_norest","14485","7","16","Female","","","","","","","null","<div style=""font-size:60px;"">+</div>","null","fixation","","","","","","","","","","","",""
"revaluation","55","374992","0.0-3.0-10.0-0.2","spark_pilot_norest","14485","7","16","Female","","false","","","","","[467.6999999997206]","./assets/img/space/catch/2.jpg","[""spaceBar""]","catch practice","space","0","{""ArrowUp,ArrowLeft"":3,""ArrowUp,ArrowRight"":36,""ArrowDown,ArrowLeft"":15,""ArrowDown,ArrowRight"":23}","true","spaceBar","true","","","","","",""
"html-keyboard-response","56","375506","0.0-3.0-10.0-1.2","spark_pilot_norest","14485","7","16","Female","","","","","","","null","<div style=""font-size:60px;"">+</div>","null","fixation","","","","","","","","","","","",""
"learning-instructions","57","382080","0.0-3.0-11.0-0.0-0.0","spark_pilot_norest","14485","7","16","Female","","","","","","","1325.7999999998137","<p> Now, you will practice a shortened version of the game to get a sense of how it all fits together. </p>","","instructions","","","","","","","","","","","",""
"learning-instructions","58","386136","0.0-3.0-11.0-0.0-0.1","spark_pilot_norest","14485","7","16","Female","","","","","","","869.6000000000931","<p>This time you are searching for treasure in outer space.</p>","","instructions","","","","","","","","","","","",""
"learning-instructions","59","401670","0.0-3.0-11.0-1.0-0.0","spark_pilot_norest","14485","7","16","Female","","","","","","","766","<p> Remember, when you see a picture of the place, use the up and down keys to <b>find an animal</b>.</p>
            <p> When you encounter an animal, you should use the left and right keys to <b>select a treasure chest</b>.</p>
            <p> Don't forget to look out for the robber! </p>","","instructions","","","","","","","","","","","",""
"revaluation","60","407692","0.0-3.0-11.0-2.0-0.0","spark_pilot_norest","14485","7","16","Female","","false","","","","","[1175,745.8999999999069]","./assets/img/space/11.jpg","[""ArrowUp"",""ArrowRight""]","practice block","space","36","{""ArrowUp,ArrowLeft"":3,""ArrowUp,ArrowRight"":36,""ArrowDown,ArrowLeft"":15,""ArrowDown,ArrowRight"":23}","true","ArrowUp,ArrowRight","false","","","","","",""
"html-keyboard-response","61","408205","0.0-3.0-11.0-2.0-1.0","spark_pilot_norest","14485","7","16","Female","","","","","","","null","<div style=""font-size:60px;"">+</div>","null","fixation","","","","","","","","","","","",""
"revaluation","62","414233","0.0-3.0-11.0-2.0-0.1","spark_pilot_norest","14485","7","16","Female","","false","","","","","[1224.2999999998137,838.2000000001863]","./assets/img/space/12.jpg","[""ArrowDown"",""ArrowRight""]","practice block","space","23","{""ArrowUp,ArrowLeft"":3,""ArrowUp,ArrowRight"":36,""ArrowDown,ArrowLeft"":15,""ArrowDown,ArrowRight"":23}","false","ArrowDown,ArrowRight","false","","","","","",""
"html-keyboard-response","63","414747","0.0-3.0-11.0-2.0-1.1","spark_pilot_norest","14485","7","16","Female","","","","","","","null","<div style=""font-size:60px;"">+</div>","null","fixation","","","","","","","","","","","",""
"revaluation","64","420784","0.0-3.0-11.0-2.0-0.2","spark_pilot_norest","14485","7","16","Female","","false","","","","","[1323.6000000000931,709.8000000002794]","./assets/img/space/13.jpg","[""ArrowDown"",""ArrowRight""]","practice block","space","23","{""ArrowUp,ArrowLeft"":3,""ArrowUp,ArrowRight"":36,""ArrowDown,ArrowLeft"":15,""ArrowDown,ArrowRight"":23}","false","ArrowDown,ArrowRight","false","","","","","",""
"html-keyboard-response","65","421299","0.0-3.0-11.0-2.0-1.2","spark_pilot_norest","14485","7","16","Female","","","","","","","null","<div style=""font-size:60px;"">+</div>","null","fixation","","","","","","","","","","","",""
"revaluation","66","427328","0.0-3.0-11.0-2.0-0.3","spark_pilot_norest","14485","7","16","Female","","false","","","","","[459.70000000018626,559.6000000000931]","./assets/img/space/14.jpg","[""ArrowUp"",""ArrowRight""]","practice block","space","36","{""ArrowUp,ArrowLeft"":3,""ArrowUp,ArrowRight"":36,""ArrowDown,ArrowLeft"":15,""ArrowDown,ArrowRight"":23}","true","ArrowUp,ArrowRight","false","","","","","",""
"html-keyboard-response","67","427839","0.0-3.0-11.0-2.0-1.3","spark_pilot_norest","14485","7","16","Female","","","","","","","null","<div style=""font-size:60px;"">+</div>","null","fixation","","","","","","","","","","","",""
"revaluation","68","433851","0.0-3.0-11.0-2.0-0.4","spark_pilot_norest","14485","7","16","Female","","false","","","","","[1655.4000000003725,541.7999999998137]","./assets/img/space/11.jpg","[""ArrowUp"",""ArrowRight""]","practice block","space","36","{""ArrowUp,ArrowLeft"":3,""ArrowUp,ArrowRight"":36,""ArrowDown,ArrowLeft"":15,""ArrowDown,ArrowRight"":23}","true","ArrowUp,ArrowRight","false","","","","","",""
"html-keyboard-response","69","434353","0.0-3.0-11.0-2.0-1.4","spark_pilot_norest","14485","7","16","Female","","","","","","","null","<div style=""font-size:60px;"">+</div>","null","fixation","","","","","","","","","","","",""
"revaluation","70","440358","0.0-3.0-11.0-2.0-0.5","spark_pilot_norest","14485","7","16","Female","","false","","","","","[918.3000000002794,366.60000000009313]","./assets/img/space/12.jpg","[""ArrowUp"",""ArrowRight""]","practice block","space","36","{""ArrowUp,ArrowLeft"":3,""ArrowUp,ArrowRight"":36,""ArrowDown,ArrowLeft"":15,""ArrowDown,ArrowRight"":23}","true","ArrowUp,ArrowRight","false","","","","","",""
"html-keyboard-response","71","440860","0.0-3.0-11.0-2.0-1.5","spark_pilot_norest","14485","7","16","Female","","","","","","","null","<div style=""font-size:60px;"">+</div>","null","fixation","","","","","","","","","","","",""
"revaluation","72","446865","0.0-3.0-11.0-2.0-0.6","spark_pilot_norest","14485","7","16","Female","","false","","","","","[907.2000000001863,491.79999999981374]","./assets/img/space/13.jpg","[""ArrowUp"",""ArrowRight""]","practice block","space","36","{""ArrowUp,ArrowLeft"":3,""ArrowUp,ArrowRight"":36,""ArrowDown,ArrowLeft"":15,""ArrowDown,ArrowRight"":23}","true","ArrowUp,ArrowRight","false","","","","","",""
"html-keyboard-response","73","447368","0.0-3.0-11.0-2.0-1.6","spark_pilot_norest","14485","7","16","Female","","","","","","","null","<div style=""font-size:60px;"">+</div>","null","fixation","","","","","","","","","","","",""
"revaluation","74","453376","0.0-3.0-11.0-2.0-0.7","spark_pilot_norest","14485","7","16","Female","","false","","","","","[745.3000000002794,496.5]","./assets/img/space/14.jpg","[""ArrowDown"",""ArrowRight""]","practice block","space","23","{""ArrowUp,ArrowLeft"":3,""ArrowUp,ArrowRight"":36,""ArrowDown,ArrowLeft"":15,""ArrowDown,ArrowRight"":23}","false","ArrowDown,ArrowRight","false","","","","","",""
"html-keyboard-response","75","453877","0.0-3.0-11.0-2.0-1.7","spark_pilot_norest","14485","7","16","Female","","","","","","","null","<div style=""font-size:60px;"">+</div>","null","fixation","","","","","","","","","","","",""
"revaluation","76","457886","0.0-3.0-11.0-2.0-0.8","spark_pilot_norest","14485","7","16","Female","","false","","","","","[669]","./assets/img/space/catch/3.jpg","[""spaceBar""]","practice block","space","0","{""ArrowUp,ArrowLeft"":3,""ArrowUp,ArrowRight"":36,""ArrowDown,ArrowLeft"":15,""ArrowDown,ArrowRight"":23}","true","spaceBar","true","","","","","",""
"html-keyboard-response","77","458387","0.0-3.0-11.0-2.0-1.8","spark_pilot_norest","14485","7","16","Female","","","","","","","null","<div style=""font-size:60px;"">+</div>","null","fixation","","","","","","","","","","","",""
"learning-instructions","78","473669","0.0-3.0-11.0-3.0-0.0","spark_pilot_norest","14485","7","16","Female","","","","","","","1654","<p> Now, you will travel with a friend who will choose whether you go up or down first. </p>
            <p> On these turns, you will just see the animal that they found. You will still get to choose which chest to search for treasure.</p>","","instructions","","","","","","","","","","","",""
"revaluation","79","477674","0.0-3.0-11.0-4.0-0.0","spark_pilot_norest","14485","7","16","Female","","false","","","","","[948.3999999999069]","./assets/img/space/animals/cat.jpg","[""ArrowRight""]","practice block","space","36","{""ArrowUp,ArrowLeft"":3,""ArrowUp,ArrowRight"":36,""ArrowDown,ArrowLeft"":15,""ArrowDown,ArrowRight"":23}","true","ArrowUp,ArrowRight","","","","","","",""
"html-keyboard-response","80","478186","0.0-3.0-11.0-4.0-1.0","spark_pilot_norest","14485","7","16","Female","","","","","","","null","<div style=""font-size:60px;"">+</div>","null","fixation","","","","","","","","","","","",""
"revaluation","81","482209","0.0-3.0-11.0-4.0-0.1","spark_pilot_norest","14485","7","16","Female","","false","","","","","[739.1000000000931]","./assets/img/space/animals/rabbit.jpg","[""ArrowRight""]","practice block","space","23","{""ArrowUp,ArrowLeft"":3,""ArrowUp,ArrowRight"":36,""ArrowDown,ArrowLeft"":15,""ArrowDown,ArrowRight"":23}","true","ArrowDown,ArrowRight","","","","","","",""
"html-keyboard-response","82","482725","0.0-3.0-11.0-4.0-1.1","spark_pilot_norest","14485","7","16","Female","","","","","","","null","<div style=""font-size:60px;"">+</div>","null","fixation","","","","","","","","","","","",""
"revaluation","83","486753","0.0-3.0-11.0-4.0-0.2","spark_pilot_norest","14485","7","16","Female","","false","","","","","[756.7999999998137]","./assets/img/space/animals/cat.jpg","[""ArrowRight""]","practice block","space","36","{""ArrowUp,ArrowLeft"":3,""ArrowUp,ArrowRight"":36,""ArrowDown,ArrowLeft"":15,""ArrowDown,ArrowRight"":23}","true","ArrowUp,ArrowRight","","","","","","",""
"html-keyboard-response","84","487265","0.0-3.0-11.0-4.0-1.2","spark_pilot_norest","14485","7","16","Female","","","","","","","null","<div style=""font-size:60px;"">+</div>","null","fixation","","","","","","","","","","","",""
"revaluation","85","491287","0.0-3.0-11.0-4.0-0.3","spark_pilot_norest","14485","7","16","Female","","false","","","","","[538.5]","./assets/img/space/animals/rabbit.jpg","[""ArrowRight""]","practice block","space","23","{""ArrowUp,ArrowLeft"":3,""ArrowUp,ArrowRight"":36,""ArrowDown,ArrowLeft"":15,""ArrowDown,ArrowRight"":23}","true","ArrowDown,ArrowRight","","","","","","",""
"html-keyboard-response","86","491799","0.0-3.0-11.0-4.0-1.3","spark_pilot_norest","14485","7","16","Female","","","","","","","null","<div style=""font-size:60px;"">+</div>","null","fixation","","","","","","","","","","","",""
"learning-instructions","87","499938","0.0-3.0-11.0-5.0-0.0","spark_pilot_norest","14485","7","16","Female","","","","","","","null","<p> You have almost finished this part of the game! </p>
            <p> We are going to ask you to make a few more choices. </p>","","instructions","","","","","","","","","","","",""
"learning-instructions","88","515948","0.0-3.0-11.0-5.0-0.1","spark_pilot_norest","14485","7","16","Female","","","","","","","null","<p> First, you need to decide whether to go up or down. When you see each picture, use the arrow keys to make your choice. </p>
            <p><b>You will not see which animal you found, but try to get to the one that will give you the most treasure.</b></p>","","instructions","","","","","","","","","","","",""
"html-keyboard-response","89","516957","0.0-3.0-11.0-6.0-0.0","spark_pilot_norest","14485","7","16","Female","","","","","","","null","<div style=""font-size:100px;color:red;"">Starting in...</div>","null","","","","","","","","","","","","",""
"html-keyboard-response","90","517969","0.0-3.0-11.0-6.0-1.0","spark_pilot_norest","14485","7","16","Female","","","","","","","null","<div style=""font-size:200px;color:red;"">3</div>","null","","","","","","","","","","","","",""
"html-keyboard-response","91","518982","0.0-3.0-11.0-6.0-2.0","spark_pilot_norest","14485","7","16","Female","","","","","","","null","<div style=""font-size:200px;color:red;"">2</div>","null","","","","","","","","","","","","",""
"html-keyboard-response","92","519994","0.0-3.0-11.0-6.0-3.0","spark_pilot_norest","14485","7","16","Female","","","","","","","null","<div style=""font-size:200px;color:red;"">1</div>","null","","","","","","","","","","","","",""
"revaluation","93","520411","0.0-3.0-11.0-7.0","spark_pilot_norest","14485","7","16","Female","","false","","","","","[415.09999999962747]","./assets/img/space/15.jpg","[""ArrowUp""]","practice block","space","0","{""ArrowUp,ArrowLeft"":3,""ArrowUp,ArrowRight"":36,""ArrowDown,ArrowLeft"":15,""ArrowDown,ArrowRight"":23}","true","ArrowUp","false","","","","","",""
"html-keyboard-response","94","520912","0.0-3.0-11.0-8.0","spark_pilot_norest","14485","7","16","Female","","","","","","","null","<div style=""font-size:60px;"">+</div>","null","fixation","","","","","","","","","","","",""
"learning-instructions","95","534293","0.0-3.0-11.0-9.0-0.0","spark_pilot_norest","14485","7","16","Female","","","","","","","null","<p> Now you will see the animals again and can search their chests for treasure. </p>
            <p> This time, you will not see how much treasure you earned, but you will earn more bonus money for making better choices. </p>","","instructions","","","","","","","","","","","",""
"html-keyboard-response","96","535304","0.0-3.0-11.0-10.0-0.0","spark_pilot_norest","14485","7","16","Female","","","","","","","null","<div style=""font-size:100px;color:red;"">Starting in...</div>","null","","","","","","","","","","","","",""
"html-keyboard-response","97","536316","0.0-3.0-11.0-10.0-1.0","spark_pilot_norest","14485","7","16","Female","","","","","","","null","<div style=""font-size:200px;color:red;"">3</div>","null","","","","","","","","","","","","",""
"html-keyboard-response","98","537328","0.0-3.0-11.0-10.0-2.0","spark_pilot_norest","14485","7","16","Female","","","","","","","null","<div style=""font-size:200px;color:red;"">2</div>","null","","","","","","","","","","","","",""
"html-keyboard-response","99","538341","0.0-3.0-11.0-10.0-3.0","spark_pilot_norest","14485","7","16","Female","","","","","","","null","<div style=""font-size:200px;color:red;"">1</div>","null","","","","","","","","","","","","",""
"revaluation","100","538856","0.0-3.0-11.0-11.0-0.0","spark_pilot_norest","14485","7","16","Female","","false","","","","","[512.4000000003725]","./assets/img/space/animals/cat.jpg","[""ArrowRight""]","practice block","space","0","{""ArrowUp,ArrowLeft"":3,""ArrowUp,ArrowRight"":36,""ArrowDown,ArrowLeft"":15,""ArrowDown,ArrowRight"":23}","true","ArrowUp,ArrowRight","","","","","","",""
"html-keyboard-response","101","539365","0.0-3.0-11.0-11.0-1.0","spark_pilot_norest","14485","7","16","Female","","","","","","","null","<div style=""font-size:60px;"">+</div>","null","fixation","","","","","","","","","","","",""
"revaluation","102","540102","0.0-3.0-11.0-11.0-0.1","spark_pilot_norest","14485","7","16","Female","","false","","","","","[734.8000000002794]","./assets/img/space/animals/rabbit.jpg","[""ArrowRight""]","practice block","space","0","{""ArrowUp,ArrowLeft"":3,""ArrowUp,ArrowRight"":36,""ArrowDown,ArrowLeft"":15,""ArrowDown,ArrowRight"":23}","true","ArrowDown,ArrowRight","","","","","","",""
"html-keyboard-response","103","540611","0.0-3.0-11.0-11.0-1.1","spark_pilot_norest","14485","7","16","Female","","","","","","","null","<div style=""font-size:60px;"">+</div>","null","fixation","","","","","","","","","","","",""
"learning-instructions","104","547097","0.0-3.0-12.0-0.0","spark_pilot_norest","14485","7","16","Female","","","","","","","1898.2000000001863","<p> Before you start, we're going to ask you a few questions about how the game works. </p>","","instructions","","","","","","","","","","","",""
"comp-q","105","554461","0.0-3.0-13.0-0.0-0.0","spark_pilot_norest","14485","7","16","Female","","","","","","","1761.8000000002794","<p> <b> True or False? </b> </p>
            <p> There can be 50 pieces of treasure in a given animal's chest. </p>","1","comp_question","","","","true","","","","","","","",""
"comp-q","106","562927","0.0-3.0-13.0-0.0-1.0","spark_pilot_norest","14485","7","16","Female","","","","","","","1802.6000000000931","<p> <b> That's right! </b> The amount of treasure in each chest can range from 0 to 40 pieces. </p>","0","comp_answer","","","","","","","","","","","",""
"comp-q","107","571376","0.0-3.0-13.0-0.1-0.1","spark_pilot_norest","14485","7","16","Female","","","","","","","1322.7999999998137","<p> <b> True or False? </b> </p><p> In this game, all animals have the same amount of treasure in their left and right chests. </p>","1","comp_question","","","","true","","","","","","","",""
"comp-q","108","579239","0.0-3.0-13.0-0.1-1.1","spark_pilot_norest","14485","7","16","Female","","","","","","","2627","<p> <b> That's right! </b> Animals have different amounts of treasure in their treasure chests. </p>","0","comp_answer","","","","","","","","","","","",""
"comp-q","109","586004","0.0-3.0-13.0-0.2-0.2","spark_pilot_norest","14485","7","16","Female","","","","","","","911.1999999997206","<p> <b> True or False? </b> </p><p> The same animal will always be there if you go up in the same place. </p>","0","comp_question","","","","true","","","","","","","",""
"comp-q","110","594420","0.0-3.0-13.0-0.2-1.2","spark_pilot_norest","14485","7","16","Female","","","","","","","1966.7000000001863","<p> <b> That's right! </b> One animal lives in the upper part and one lives in the lower part of every place. </p>","0","comp_answer","","","","","","","","","","","",""
"comp-q","111","601010","0.0-3.0-13.0-0.3-0.3","spark_pilot_norest","14485","7","16","Female","","","","","","","1069.8999999999069","<p> <b> True or False? </b> </p><p> If you see a different picture, it means you are in a new place. </p>","0","comp_question","","","","false","","","","","","","",""
"comp-q","112","613637","0.0-3.0-13.0-0.3-1.3","spark_pilot_norest","14485","7","16","Female","","","","","","","1526.7999999998137","<p> <b>Incorrect.</b> Lots of different images may show the same place. For example,  you may see three different images that all remind you that you are in outer space. </p>","0","comp_answer","","","","","","","","","","","",""
"comp-q","113","620167","0.0-3.0-13.0-0.4-0.4","spark_pilot_norest","14485","7","16","Female","","","","","","","1027.1000000000931","<p> <b> True or False? </b> </p><p> If you see a different picture, it means you are in a new place. </p>","1","comp_question","","","","true","","","","","","","",""
"comp-q","114","634632","0.0-3.0-13.0-0.4-1.4","spark_pilot_norest","14485","7","16","Female","","","","","","","3225.0999999996275","<p> <b> That's right! </b> Lots of different images may show the same place. For example,  you may see three different images that all remind you that you are in outer space. </p>","0","comp_answer","","","","","","","","","","","",""
"learning-instructions","115","646372","0.0-3.0-14.0-0.0","spark_pilot_norest","14485","7","16","Female","","","","","","","1877.1000000000931","<p> Good job. Remember to do your best because the amount of treasure you earn will be converted into bonus money. </p>
            <p> It’s time to start the real game! </p>","","instructions","","","","","","","","","","","",""
"learning-instructions","116","651513","0.0-4.0-0.0-0.0","spark_pilot_norest","14485","7","16","Female","","","","","","","2378","<p> This time you are searching for treasure in the <b>canyon</b>.</p>","","instructions","","","","","","","","","","","",""
"learning-instructions","117","672232","0.0-4.0-0.0-0.1","spark_pilot_norest","14485","7","16","Female","","","","","","","3417.1999999997206","<p><b>New</b> animals with <b>new</b> treasure chests live here. You need to explore to discover where the animal with the best treasure chest is.</p>
                    <p> Like before, once you figure out which animal has the chest with the most treasure, you should try to get to that animal and select that chest! </p>","","instructions","","","","","","","","","","","",""
"learning-instructions","118","688106","0.0-4.0-1.0-0.0","spark_pilot_norest","14485","7","16","Female","","","","","","","1146.6000000000931","<p> Remember, when you see a picture of the place, use the up and down keys to <b>find an animal</b>.</p>
            <p> When you encounter an animal, you should use the left and right keys to <b>select a treasure chest</b>.</p>
            <p> Don't forget to look out for the robber! </p>","","instructions","","","","","","","","","","","",""
"revaluation","119","694141","0.0-4.0-2.0-0.0","spark_pilot_norest","14485","7","16","Female","","false","","","","","[867.6000000000931,861.6999999997206]","./assets/img/canyon/memory/36.jpg","[""ArrowUp"",""ArrowLeft""]","value training","canyon","23","{""ArrowUp,ArrowLeft"":23,""ArrowUp,ArrowRight"":10,""ArrowDown,ArrowLeft"":8,""ArrowDown,ArrowRight"":30}","false","ArrowUp,ArrowLeft","false","original","1","0","","",""
"html-keyboard-response","120","694655","0.0-4.0-2.0-1.0","spark_pilot_norest","14485","7","16","Female","","","","","","","null","<div style=""font-size:60px;"">+</div>","null","fixation","","","","","","","","","1","","",""
"revaluation","121","700682","0.0-4.0-2.0-0.1","spark_pilot_norest","14485","7","16","Female","","false","","","","","[318.1999999997206,465.70000000018626]","./assets/img/canyon/memory/0.jpg","[""ArrowUp"",""ArrowRight""]","value training","canyon","10","{""ArrowUp,ArrowLeft"":23,""ArrowUp,ArrowRight"":10,""ArrowDown,ArrowLeft"":8,""ArrowDown,ArrowRight"":30}","false","ArrowUp,ArrowRight","false","original","1","2","","",""
"html-keyboard-response","122","701196","0.0-4.0-2.0-1.1","spark_pilot_norest","14485","7","16","Female","","","","","","","null","<div style=""font-size:60px;"">+</div>","null","fixation","","","","","","","","","3","","",""
"revaluation","123","707216","0.0-4.0-2.0-0.2","spark_pilot_norest","14485","7","16","Female","","false","","","","","[540.3000000002794,790.7999999998137]","./assets/img/canyon/memory/10.jpg","[""ArrowDown"",""ArrowLeft""]","value training","canyon","8","{""ArrowUp,ArrowLeft"":23,""ArrowUp,ArrowRight"":10,""ArrowDown,ArrowLeft"":8,""ArrowDown,ArrowRight"":30}","false","ArrowDown,ArrowLeft","false","original","1","4","","",""
"html-keyboard-response","124","707729","0.0-4.0-2.0-1.2","spark_pilot_norest","14485","7","16","Female","","","","","","","null","<div style=""font-size:60px;"">+</div>","null","fixation","","","","","","","","","5","","",""
"revaluation","125","711748","0.0-4.0-2.0-0.3","spark_pilot_norest","14485","7","16","Female","","false","","","","","[381.10000000009313]","./assets/img/canyon/catch/1.jpg","[""ArrowDown""]","value training","canyon","-10","{""ArrowUp,ArrowLeft"":23,""ArrowUp,ArrowRight"":10,""ArrowDown,ArrowLeft"":8,""ArrowDown,ArrowRight"":30}","false","ArrowDown","true","original","1","6","","",""
"html-keyboard-response","126","712259","0.0-4.0-2.0-1.3","spark_pilot_norest","14485","7","16","Female","","","","","","","null","<div style=""font-size:60px;"">+</div>","null","fixation","","","","","","","","","7","","",""
"revaluation","127","718282","0.0-4.0-2.0-0.4","spark_pilot_norest","14485","7","16","Female","","false","","","","","[742.5999999996275,455.6999999997206]","./assets/img/canyon/memory/1.jpg","[""ArrowDown"",""ArrowRight""]","value training","canyon","30","{""ArrowUp,ArrowLeft"":23,""ArrowUp,ArrowRight"":10,""ArrowDown,ArrowLeft"":8,""ArrowDown,ArrowRight"":30}","true","ArrowDown,ArrowRight","false","original","1","8","","",""
"html-keyboard-response","128","718784","0.0-4.0-2.0-1.4","spark_pilot_norest","14485","7","16","Female","","","","","","","null","<div style=""font-size:60px;"">+</div>","null","fixation","","","","","","","","","9","","",""
"revaluation","129","724790","0.0-4.0-2.0-0.5","spark_pilot_norest","14485","7","16","Female","","false","","","","","[467.6999999997206,477.10000000009313]","./assets/img/canyon/memory/0.jpg","[""ArrowDown"",""ArrowRight""]","value training","canyon","30","{""ArrowUp,ArrowLeft"":23,""ArrowUp,ArrowRight"":10,""ArrowDown,ArrowLeft"":8,""ArrowDown,ArrowRight"":30}","true","ArrowDown,ArrowRight","false","original","1","10","","",""
"html-keyboard-response","130","725291","0.0-4.0-2.0-1.5","spark_pilot_norest","14485","7","16","Female","","","","","","","null","<div style=""font-size:60px;"">+</div>","null","fixation","","","","","","","","","11","","",""
"revaluation","131","731307","0.0-4.0-2.0-0.6","spark_pilot_norest","14485","7","16","Female","","false","","","","","[760.3999999999069,387.89999999990687]","./assets/img/canyon/memory/26.jpg","[""ArrowDown"",""ArrowRight""]","value training","canyon","30","{""ArrowUp,ArrowLeft"":23,""ArrowUp,ArrowRight"":10,""ArrowDown,ArrowLeft"":8,""ArrowDown,ArrowRight"":30}","true","ArrowDown,ArrowRight","false","original","1","12","","",""
"html-keyboard-response","132","731808","0.0-4.0-2.0-1.6","spark_pilot_norest","14485","7","16","Female","","","","","","","null","<div style=""font-size:60px;"">+</div>","null","fixation","","","","","","","","","13","","",""
"revaluation","133","737813","0.0-4.0-2.0-0.7","spark_pilot_norest","14485","7","16","Female","","false","","","","","[600.3999999999069,400.1999999997206]","./assets/img/canyon/memory/38.jpg","[""ArrowDown"",""ArrowRight""]","value training","canyon","30","{""ArrowUp,ArrowLeft"":23,""ArrowUp,ArrowRight"":10,""ArrowDown,ArrowLeft"":8,""ArrowDown,ArrowRight"":30}","true","ArrowDown,ArrowRight","false","original","1","14","","",""
"html-keyboard-response","134","738315","0.0-4.0-2.0-1.7","spark_pilot_norest","14485","7","16","Female","","","","","","","null","<div style=""font-size:60px;"">+</div>","null","fixation","","","","","","","","","15","","",""
"revaluation","135","742318","0.0-4.0-2.0-0.8","spark_pilot_norest","14485","7","16","Female","","false","","","","","[631.3999999999069]","./assets/img/canyon/catch/5.jpg","[""spaceBar""]","value training","canyon","0","{""ArrowUp,ArrowLeft"":23,""ArrowUp,ArrowRight"":10,""ArrowDown,ArrowLeft"":8,""ArrowDown,ArrowRight"":30}","true","spaceBar","true","original","1","16","","",""
"html-keyboard-response","136","742819","0.0-4.0-2.0-1.8","spark_pilot_norest","14485","7","16","Female","","","","","","","null","<div style=""font-size:60px;"">+</div>","null","fixation","","","","","","","","","17","","",""
"revaluation","137","748823","0.0-4.0-2.0-0.9","spark_pilot_norest","14485","7","16","Female","","false","","","","","[873.1000000000931,466.79999999981374]","./assets/img/canyon/memory/34.jpg","[""ArrowDown"",""ArrowRight""]","value training","canyon","30","{""ArrowUp,ArrowLeft"":23,""ArrowUp,ArrowRight"":10,""ArrowDown,ArrowLeft"":8,""ArrowDown,ArrowRight"":30}","true","ArrowDown,ArrowRight","false","original","1","18","","",""
"html-keyboard-response","138","749325","0.0-4.0-2.0-1.9","spark_pilot_norest","14485","7","16","Female","","","","","","","null","<div style=""font-size:60px;"">+</div>","null","fixation","","","","","","","","","19","","",""
"revaluation","139","755337","0.0-4.0-2.0-0.10","spark_pilot_norest","14485","7","16","Female","","false","","","","","[563.5,371.89999999990687]","./assets/img/canyon/memory/38.jpg","[""ArrowDown"",""ArrowRight""]","value training","canyon","30","{""ArrowUp,ArrowLeft"":23,""ArrowUp,ArrowRight"":10,""ArrowDown,ArrowLeft"":8,""ArrowDown,ArrowRight"":30}","true","ArrowDown,ArrowRight","false","original","1","20","","",""
"html-keyboard-response","140","755840","0.0-4.0-2.0-1.10","spark_pilot_norest","14485","7","16","Female","","","","","","","null","<div style=""font-size:60px;"">+</div>","null","fixation","","","","","","","","","21","","",""
"revaluation","141","761843","0.0-4.0-2.0-0.11","spark_pilot_norest","14485","7","16","Female","","false","","","","","[752.2000000001863,342.8000000002794]","./assets/img/canyon/memory/10.jpg","[""ArrowDown"",""ArrowRight""]","value training","canyon","30","{""ArrowUp,ArrowLeft"":23,""ArrowUp,ArrowRight"":10,""ArrowDown,ArrowLeft"":8,""ArrowDown,ArrowRight"":30}","true","ArrowDown,ArrowRight","false","original","1","22","","",""
"html-keyboard-response","142","762345","0.0-4.0-2.0-1.11","spark_pilot_norest","14485","7","16","Female","","","","","","","null","<div style=""font-size:60px;"">+</div>","null","fixation","","","","","","","","","23","","",""
"revaluation","143","768348","0.0-4.0-2.0-0.12","spark_pilot_norest","14485","7","16","Female","","false","","","","","[692.5,342.10000000009313]","./assets/img/canyon/memory/1.jpg","[""ArrowDown"",""ArrowRight""]","value training","canyon","30","{""ArrowUp,ArrowLeft"":23,""ArrowUp,ArrowRight"":10,""ArrowDown,ArrowLeft"":8,""ArrowDown,ArrowRight"":30}","true","ArrowDown,ArrowRight","false","original","1","24","","",""
"html-keyboard-response","144","768850","0.0-4.0-2.0-1.12","spark_pilot_norest","14485","7","16","Female","","","","","","","null","<div style=""font-size:60px;"">+</div>","null","fixation","","","","","","","","","25","","",""
"revaluation","145","774853","0.0-4.0-2.0-0.13","spark_pilot_norest","14485","7","16","Female","","false","","","","","[981.5,292.79999999981374]","./assets/img/canyon/memory/9.jpg","[""ArrowDown"",""ArrowRight""]","value training","canyon","30","{""ArrowUp,ArrowLeft"":23,""ArrowUp,ArrowRight"":10,""ArrowDown,ArrowLeft"":8,""ArrowDown,ArrowRight"":30}","true","ArrowDown,ArrowRight","false","original","1","26","","",""
"html-keyboard-response","146","775356","0.0-4.0-2.0-1.13","spark_pilot_norest","14485","7","16","Female","","","","","","","null","<div style=""font-size:60px;"">+</div>","null","fixation","","","","","","","","","27","","",""
"revaluation","147","781360","0.0-4.0-2.0-0.14","spark_pilot_norest","14485","7","16","Female","","false","","","","","[1041.6000000000931,431.1999999997206]","./assets/img/canyon/memory/22.jpg","[""ArrowDown"",""ArrowRight""]","value training","canyon","30","{""ArrowUp,ArrowLeft"":23,""ArrowUp,ArrowRight"":10,""ArrowDown,ArrowLeft"":8,""ArrowDown,ArrowRight"":30}","true","ArrowDown,ArrowRight","false","original","1","28","","",""
"html-keyboard-response","148","781863","0.0-4.0-2.0-1.14","spark_pilot_norest","14485","7","16","Female","","","","","","","null","<div style=""font-size:60px;"">+</div>","null","fixation","","","","","","","","","29","","",""
"revaluation","149","787868","0.0-4.0-2.0-0.15","spark_pilot_norest","14485","7","16","Female","","false","","","","","[954,279]","./assets/img/canyon/memory/7.jpg","[""ArrowDown"",""ArrowRight""]","value training","canyon","30","{""ArrowUp,ArrowLeft"":23,""ArrowUp,ArrowRight"":10,""ArrowDown,ArrowLeft"":8,""ArrowDown,ArrowRight"":30}","true","ArrowDown,ArrowRight","false","original","1","30","","",""
"html-keyboard-response","150","788369","0.0-4.0-2.0-1.15","spark_pilot_norest","14485","7","16","Female","","","","","","","null","<div style=""font-size:60px;"">+</div>","null","fixation","","","","","","","","","31","","",""
"revaluation","151","794374","0.0-4.0-2.0-0.16","spark_pilot_norest","14485","7","16","Female","","false","","","","","[938,337.89999999990687]","./assets/img/canyon/memory/33.jpg","[""ArrowDown"",""ArrowRight""]","value training","canyon","30","{""ArrowUp,ArrowLeft"":23,""ArrowUp,ArrowRight"":10,""ArrowDown,ArrowLeft"":8,""ArrowDown,ArrowRight"":30}","true","ArrowDown,ArrowRight","false","original","1","32","","",""
"html-keyboard-response","152","794876","0.0-4.0-2.0-1.16","spark_pilot_norest","14485","7","16","Female","","","","","","","null","<div style=""font-size:60px;"">+</div>","null","fixation","","","","","","","","","33","","",""
"revaluation","153","800882","0.0-4.0-2.0-0.17","spark_pilot_norest","14485","7","16","Female","","false","","","","","[1016.1000000000931,393.79999999981374]","./assets/img/canyon/memory/32.jpg","[""ArrowDown"",""ArrowRight""]","value training","canyon","30","{""ArrowUp,ArrowLeft"":23,""ArrowUp,ArrowRight"":10,""ArrowDown,ArrowLeft"":8,""ArrowDown,ArrowRight"":30}","true","ArrowDown,ArrowRight","false","original","1","34","","",""
"html-keyboard-response","154","801383","0.0-4.0-2.0-1.17","spark_pilot_norest","14485","7","16","Female","","","","","","","null","<div style=""font-size:60px;"">+</div>","null","fixation","","","","","","","","","35","","",""
"revaluation","155","807395","0.0-4.0-2.0-0.18","spark_pilot_norest","14485","7","16","Female","","false","","","","","[779.1000000000931,376.60000000009313]","./assets/img/canyon/memory/23.jpg","[""ArrowDown"",""ArrowRight""]","value training","canyon","30","{""ArrowUp,ArrowLeft"":23,""ArrowUp,ArrowRight"":10,""ArrowDown,ArrowLeft"":8,""ArrowDown,ArrowRight"":30}","true","ArrowDown,ArrowRight","false","original","1","36","","",""
"html-keyboard-response","156","807896","0.0-4.0-2.0-1.18","spark_pilot_norest","14485","7","16","Female","","","","","","","null","<div style=""font-size:60px;"">+</div>","null","fixation","","","","","","","","","37","","",""
"revaluation","157","811900","0.0-4.0-2.0-0.19","spark_pilot_norest","14485","7","16","Female","","false","","","","","[973.5]","./assets/img/canyon/catch/2.jpg","[""spaceBar""]","value training","canyon","0","{""ArrowUp,ArrowLeft"":23,""ArrowUp,ArrowRight"":10,""ArrowDown,ArrowLeft"":8,""ArrowDown,ArrowRight"":30}","true","spaceBar","true","original","1","38","","",""
"html-keyboard-response","158","812403","0.0-4.0-2.0-1.19","spark_pilot_norest","14485","7","16","Female","","","","","","","null","<div style=""font-size:60px;"">+</div>","null","fixation","","","","","","","","","39","","",""
"revaluation","159","818408","0.0-4.0-2.0-0.20","spark_pilot_norest","14485","7","16","Female","","false","","","","","[984.5,245.39999999990687]","./assets/img/canyon/memory/18.jpg","[""ArrowDown"",""ArrowRight""]","value training","canyon","30","{""ArrowUp,ArrowLeft"":23,""ArrowUp,ArrowRight"":10,""ArrowDown,ArrowLeft"":8,""ArrowDown,ArrowRight"":30}","true","ArrowDown,ArrowRight","false","original","1","40","","",""
"html-keyboard-response","160","818922","0.0-4.0-2.0-1.20","spark_pilot_norest","14485","7","16","Female","","","","","","","null","<div style=""font-size:60px;"">+</div>","null","fixation","","","","","","","","","41","","",""
"revaluation","161","822926","0.0-4.0-2.0-0.21","spark_pilot_norest","14485","7","16","Female","","false","","","","","[623.3999999999069]","./assets/img/canyon/catch/4.jpg","[""spaceBar""]","value training","canyon","0","{""ArrowUp,ArrowLeft"":23,""ArrowUp,ArrowRight"":10,""ArrowDown,ArrowLeft"":8,""ArrowDown,ArrowRight"":30}","true","spaceBar","true","original","1","42","","",""
"html-keyboard-response","162","823428","0.0-4.0-2.0-1.21","spark_pilot_norest","14485","7","16","Female","","","","","","","null","<div style=""font-size:60px;"">+</div>","null","fixation","","","","","","","","","43","","",""
"revaluation","163","829433","0.0-4.0-2.0-0.22","spark_pilot_norest","14485","7","16","Female","","false","","","","","[910.1000000000931,321.60000000009313]","./assets/img/canyon/memory/22.jpg","[""ArrowDown"",""ArrowRight""]","value training","canyon","30","{""ArrowUp,ArrowLeft"":23,""ArrowUp,ArrowRight"":10,""ArrowDown,ArrowLeft"":8,""ArrowDown,ArrowRight"":30}","true","ArrowDown,ArrowRight","false","original","1","44","","",""
"html-keyboard-response","164","829934","0.0-4.0-2.0-1.22","spark_pilot_norest","14485","7","16","Female","","","","","","","null","<div style=""font-size:60px;"">+</div>","null","fixation","","","","","","","","","45","","",""
"revaluation","165","835940","0.0-4.0-2.0-0.23","spark_pilot_norest","14485","7","16","Female","","false","","","","","[1071.5,409.70000000018626]","./assets/img/canyon/memory/28.jpg","[""ArrowDown"",""ArrowRight""]","value training","canyon","30","{""ArrowUp,ArrowLeft"":23,""ArrowUp,ArrowRight"":10,""ArrowDown,ArrowLeft"":8,""ArrowDown,ArrowRight"":30}","true","ArrowDown,ArrowRight","false","original","1","46","","",""
"html-keyboard-response","166","836441","0.0-4.0-2.0-1.23","spark_pilot_norest","14485","7","16","Female","","","","","","","null","<div style=""font-size:60px;"">+</div>","null","fixation","","","","","","","","","47","","",""
"revaluation","167","842445","0.0-4.0-2.0-0.24","spark_pilot_norest","14485","7","16","Female","","false","","","","","[999.8999999999069,361.3000000002794]","./assets/img/canyon/memory/18.jpg","[""ArrowDown"",""ArrowRight""]","value training","canyon","30","{""ArrowUp,ArrowLeft"":23,""ArrowUp,ArrowRight"":10,""ArrowDown,ArrowLeft"":8,""ArrowDown,ArrowRight"":30}","true","ArrowDown,ArrowRight","false","original","1","48","","",""
"html-keyboard-response","168","842946","0.0-4.0-2.0-1.24","spark_pilot_norest","14485","7","16","Female","","","","","","","null","<div style=""font-size:60px;"">+</div>","null","fixation","","","","","","","","","49","","",""
"revaluation","169","848951","0.0-4.0-2.0-0.25","spark_pilot_norest","14485","7","16","Female","","false","","","","","[972.4000000003725,295.79999999981374]","./assets/img/canyon/memory/9.jpg","[""ArrowDown"",""ArrowRight""]","value training","canyon","30","{""ArrowUp,ArrowLeft"":23,""ArrowUp,ArrowRight"":10,""ArrowDown,ArrowLeft"":8,""ArrowDown,ArrowRight"":30}","true","ArrowDown,ArrowRight","false","original","1","50","","",""
"html-keyboard-response","170","849453","0.0-4.0-2.0-1.25","spark_pilot_norest","14485","7","16","Female","","","","","","","null","<div style=""font-size:60px;"">+</div>","null","fixation","","","","","","","","","51","","",""
"revaluation","171","853456","0.0-4.0-2.0-0.26","spark_pilot_norest","14485","7","16","Female","","false","","","","","[756.5999999996275]","./assets/img/canyon/catch/3.jpg","[""spaceBar""]","value training","canyon","0","{""ArrowUp,ArrowLeft"":23,""ArrowUp,ArrowRight"":10,""ArrowDown,ArrowLeft"":8,""ArrowDown,ArrowRight"":30}","true","spaceBar","true","original","1","52","","",""
"html-keyboard-response","172","853957","0.0-4.0-2.0-1.26","spark_pilot_norest","14485","7","16","Female","","","","","","","null","<div style=""font-size:60px;"">+</div>","null","fixation","","","","","","","","","53","","",""
"revaluation","173","857960","0.0-4.0-2.0-0.27","spark_pilot_norest","14485","7","16","Female","","false","","","","","[648.8999999999069]","./assets/img/canyon/catch/6.jpg","[""spaceBar""]","value training","canyon","0","{""ArrowUp,ArrowLeft"":23,""ArrowUp,ArrowRight"":10,""ArrowDown,ArrowLeft"":8,""ArrowDown,ArrowRight"":30}","true","spaceBar","true","original","1","54","","",""
"html-keyboard-response","174","858461","0.0-4.0-2.0-1.27","spark_pilot_norest","14485","7","16","Female","","","","","","","null","<div style=""font-size:60px;"">+</div>","null","fixation","","","","","","","","","55","","",""
"revaluation","175","864465","0.0-4.0-2.0-0.28","spark_pilot_norest","14485","7","16","Female","","false","","","","","[813,315.79999999981374]","./assets/img/canyon/memory/31.jpg","[""ArrowDown"",""ArrowRight""]","value training","canyon","30","{""ArrowUp,ArrowLeft"":23,""ArrowUp,ArrowRight"":10,""ArrowDown,ArrowLeft"":8,""ArrowDown,ArrowRight"":30}","true","ArrowDown,ArrowRight","false","original","1","56","","",""
"html-keyboard-response","176","864967","0.0-4.0-2.0-1.28","spark_pilot_norest","14485","7","16","Female","","","","","","","null","<div style=""font-size:60px;"">+</div>","null","fixation","","","","","","","","","57","","",""
"revaluation","177","870972","0.0-4.0-2.0-0.29","spark_pilot_norest","14485","7","16","Female","","false","","","","","[1233,388.70000000018626]","./assets/img/canyon/memory/8.jpg","[""ArrowDown"",""ArrowRight""]","value training","canyon","30","{""ArrowUp,ArrowLeft"":23,""ArrowUp,ArrowRight"":10,""ArrowDown,ArrowLeft"":8,""ArrowDown,ArrowRight"":30}","true","ArrowDown,ArrowRight","false","original","1","58","","",""
"html-keyboard-response","178","871474","0.0-4.0-2.0-1.29","spark_pilot_norest","14485","7","16","Female","","","","","","","null","<div style=""font-size:60px;"">+</div>","null","fixation","","","","","","","","","59","","",""
"revaluation","179","877477","0.0-4.0-2.0-0.30","spark_pilot_norest","14485","7","16","Female","","false","","","","","[1107.7000000001863,587.2999999998137]","./assets/img/canyon/memory/32.jpg","[""ArrowDown"",""ArrowRight""]","value training","canyon","30","{""ArrowUp,ArrowLeft"":23,""ArrowUp,ArrowRight"":10,""ArrowDown,ArrowLeft"":8,""ArrowDown,ArrowRight"":30}","true","ArrowDown,ArrowRight","false","original","1","60","","",""
"html-keyboard-response","180","877978","0.0-4.0-2.0-1.30","spark_pilot_norest","14485","7","16","Female","","","","","","","null","<div style=""font-size:60px;"">+</div>","null","fixation","","","","","","","","","61","","",""
"revaluation","181","883983","0.0-4.0-2.0-0.31","spark_pilot_norest","14485","7","16","Female","","false","","","","","[713.2000000001863,277.29999999981374]","./assets/img/canyon/memory/36.jpg","[""ArrowDown"",""ArrowRight""]","value training","canyon","30","{""ArrowUp,ArrowLeft"":23,""ArrowUp,ArrowRight"":10,""ArrowDown,ArrowLeft"":8,""ArrowDown,ArrowRight"":30}","true","ArrowDown,ArrowRight","false","original","1","62","","",""
"html-keyboard-response","182","884485","0.0-4.0-2.0-1.31","spark_pilot_norest","14485","7","16","Female","","","","","","","null","<div style=""font-size:60px;"">+</div>","null","fixation","","","","","","","","","63","","",""
"revaluation","183","890489","0.0-4.0-2.0-0.32","spark_pilot_norest","14485","7","16","Female","","false","","","","","[696.7000000001863,300]","./assets/img/canyon/memory/31.jpg","[""ArrowDown"",""ArrowRight""]","value training","canyon","30","{""ArrowUp,ArrowLeft"":23,""ArrowUp,ArrowRight"":10,""ArrowDown,ArrowLeft"":8,""ArrowDown,ArrowRight"":30}","true","ArrowDown,ArrowRight","false","original","1","64","","",""
"html-keyboard-response","184","890990","0.0-4.0-2.0-1.32","spark_pilot_norest","14485","7","16","Female","","","","","","","null","<div style=""font-size:60px;"">+</div>","null","fixation","","","","","","","","","65","","",""
"revaluation","185","896996","0.0-4.0-2.0-0.33","spark_pilot_norest","14485","7","16","Female","","false","","","","","[781.1999999997206,374.70000000018626]","./assets/img/canyon/memory/7.jpg","[""ArrowDown"",""ArrowRight""]","value training","canyon","30","{""ArrowUp,ArrowLeft"":23,""ArrowUp,ArrowRight"":10,""ArrowDown,ArrowLeft"":8,""ArrowDown,ArrowRight"":30}","true","ArrowDown,ArrowRight","false","original","1","66","","",""
"html-keyboard-response","186","897498","0.0-4.0-2.0-1.33","spark_pilot_norest","14485","7","16","Female","","","","","","","null","<div style=""font-size:60px;"">+</div>","null","fixation","","","","","","","","","67","","",""
"revaluation","187","901502","0.0-4.0-2.0-0.34","spark_pilot_norest","14485","7","16","Female","","false","","","","","[540.8999999999069]","./assets/img/canyon/catch/7.jpg","[""spaceBar""]","value training","canyon","0","{""ArrowUp,ArrowLeft"":23,""ArrowUp,ArrowRight"":10,""ArrowDown,ArrowLeft"":8,""ArrowDown,ArrowRight"":30}","true","spaceBar","true","original","1","68","","",""
"html-keyboard-response","188","902004","0.0-4.0-2.0-1.34","spark_pilot_norest","14485","7","16","Female","","","","","","","null","<div style=""font-size:60px;"">+</div>","null","fixation","","","","","","","","","69","","",""
"revaluation","189","908010","0.0-4.0-2.0-0.35","spark_pilot_norest","14485","7","16","Female","","false","","","","","[495.39999999990687,314.1999999997206]","./assets/img/canyon/memory/28.jpg","[""ArrowDown"",""ArrowRight""]","value training","canyon","30","{""ArrowUp,ArrowLeft"":23,""ArrowUp,ArrowRight"":10,""ArrowDown,ArrowLeft"":8,""ArrowDown,ArrowRight"":30}","true","ArrowDown,ArrowRight","false","original","1","70","","",""
"html-keyboard-response","190","908512","0.0-4.0-2.0-1.35","spark_pilot_norest","14485","7","16","Female","","","","","","","null","<div style=""font-size:60px;"">+</div>","null","fixation","","","","","","","","","71","","",""
"revaluation","191","914515","0.0-4.0-2.0-0.36","spark_pilot_norest","14485","7","16","Female","","false","","","","","[981.9000000003725,321.29999999981374]","./assets/img/canyon/memory/15.jpg","[""ArrowDown"",""ArrowRight""]","value training","canyon","30","{""ArrowUp,ArrowLeft"":23,""ArrowUp,ArrowRight"":10,""ArrowDown,ArrowLeft"":8,""ArrowDown,ArrowRight"":30}","true","ArrowDown,ArrowRight","false","original","1","72","","",""
"html-keyboard-response","192","915017","0.0-4.0-2.0-1.36","spark_pilot_norest","14485","7","16","Female","","","","","","","null","<div style=""font-size:60px;"">+</div>","null","fixation","","","","","","","","","73","","",""
"revaluation","193","919021","0.0-4.0-2.0-0.37","spark_pilot_norest","14485","7","16","Female","","false","","","","","[672.6000000000931]","./assets/img/canyon/catch/0.jpg","[""spaceBar""]","value training","canyon","0","{""ArrowUp,ArrowLeft"":23,""ArrowUp,ArrowRight"":10,""ArrowDown,ArrowLeft"":8,""ArrowDown,ArrowRight"":30}","true","spaceBar","true","original","1","74","","",""
"html-keyboard-response","194","919523","0.0-4.0-2.0-1.37","spark_pilot_norest","14485","7","16","Female","","","","","","","null","<div style=""font-size:60px;"">+</div>","null","fixation","","","","","","","","","75","","",""
"revaluation","195","925528","0.0-4.0-2.0-0.38","spark_pilot_norest","14485","7","16","Female","","false","","","","","[379.89999999990687,270.6999999997206]","./assets/img/canyon/memory/15.jpg","[""ArrowDown"",""ArrowRight""]","value training","canyon","30","{""ArrowUp,ArrowLeft"":23,""ArrowUp,ArrowRight"":10,""ArrowDown,ArrowLeft"":8,""ArrowDown,ArrowRight"":30}","true","ArrowDown,ArrowRight","false","original","1","76","","",""
"html-keyboard-response","196","926029","0.0-4.0-2.0-1.38","spark_pilot_norest","14485","7","16","Female","","","","","","","null","<div style=""font-size:60px;"">+</div>","null","fixation","","","","","","","","","77","","",""
"revaluation","197","932037","0.0-4.0-2.0-0.39","spark_pilot_norest","14485","7","16","Female","","false","","","","","[919.7999999998137,277.89999999990687]","./assets/img/canyon/memory/19.jpg","[""ArrowDown"",""ArrowRight""]","value training","canyon","30","{""ArrowUp,ArrowLeft"":23,""ArrowUp,ArrowRight"":10,""ArrowDown,ArrowLeft"":8,""ArrowDown,ArrowRight"":30}","true","ArrowDown,ArrowRight","false","original","1","78","","",""
"html-keyboard-response","198","932539","0.0-4.0-2.0-1.39","spark_pilot_norest","14485","7","16","Female","","","","","","","null","<div style=""font-size:60px;"">+</div>","null","fixation","","","","","","","","","79","","",""
"revaluation","199","938543","0.0-4.0-2.0-0.40","spark_pilot_norest","14485","7","16","Female","","false","","","","","[524.2999999998137,292.6999999997206]","./assets/img/canyon/memory/13.jpg","[""ArrowDown"",""ArrowRight""]","value training","canyon","30","{""ArrowUp,ArrowLeft"":23,""ArrowUp,ArrowRight"":10,""ArrowDown,ArrowLeft"":8,""ArrowDown,ArrowRight"":30}","true","ArrowDown,ArrowRight","false","original","1","80","","",""
"html-keyboard-response","200","939045","0.0-4.0-2.0-1.40","spark_pilot_norest","14485","7","16","Female","","","","","","","null","<div style=""font-size:60px;"">+</div>","null","fixation","","","","","","","","","81","","",""
"revaluation","201","945051","0.0-4.0-2.0-0.41","spark_pilot_norest","14485","7","16","Female","","false","","","","","[486.10000000009313,284.60000000009313]","./assets/img/canyon/memory/19.jpg","[""ArrowDown"",""ArrowRight""]","value training","canyon","30","{""ArrowUp,ArrowLeft"":23,""ArrowUp,ArrowRight"":10,""ArrowDown,ArrowLeft"":8,""ArrowDown,ArrowRight"":30}","true","ArrowDown,ArrowRight","false","original","1","82","","",""
"html-keyboard-response","202","945552","0.0-4.0-2.0-1.41","spark_pilot_norest","14485","7","16","Female","","","","","","","null","<div style=""font-size:60px;"">+</div>","null","fixation","","","","","","","","","83","","",""
"revaluation","203","951557","0.0-4.0-2.0-0.42","spark_pilot_norest","14485","7","16","Female","","false","","","","","[1106.5,303.1999999997206]","./assets/img/canyon/memory/35.jpg","[""ArrowDown"",""ArrowRight""]","value training","canyon","30","{""ArrowUp,ArrowLeft"":23,""ArrowUp,ArrowRight"":10,""ArrowDown,ArrowLeft"":8,""ArrowDown,ArrowRight"":30}","true","ArrowDown,ArrowRight","false","original","1","84","","",""
"html-keyboard-response","204","952058","0.0-4.0-2.0-1.42","spark_pilot_norest","14485","7","16","Female","","","","","","","null","<div style=""font-size:60px;"">+</div>","null","fixation","","","","","","","","","85","","",""
"revaluation","205","958063","0.0-4.0-2.0-0.43","spark_pilot_norest","14485","7","16","Female","","false","","","","","[580.5,244.20000000018626]","./assets/img/canyon/memory/13.jpg","[""ArrowDown"",""ArrowRight""]","value training","canyon","30","{""ArrowUp,ArrowLeft"":23,""ArrowUp,ArrowRight"":10,""ArrowDown,ArrowLeft"":8,""ArrowDown,ArrowRight"":30}","true","ArrowDown,ArrowRight","false","original","1","86","","",""
"html-keyboard-response","206","958564","0.0-4.0-2.0-1.43","spark_pilot_norest","14485","7","16","Female","","","","","","","null","<div style=""font-size:60px;"">+</div>","null","fixation","","","","","","","","","87","","",""
"revaluation","207","964570","0.0-4.0-2.0-0.44","spark_pilot_norest","14485","7","16","Female","","false","","","","","[803.2999999998137,306.09999999962747]","./assets/img/canyon/memory/34.jpg","[""ArrowDown"",""ArrowRight""]","value training","canyon","30","{""ArrowUp,ArrowLeft"":23,""ArrowUp,ArrowRight"":10,""ArrowDown,ArrowLeft"":8,""ArrowDown,ArrowRight"":30}","true","ArrowDown,ArrowRight","false","original","1","88","","",""
"html-keyboard-response","208","965071","0.0-4.0-2.0-1.44","spark_pilot_norest","14485","7","16","Female","","","","","","","null","<div style=""font-size:60px;"">+</div>","null","fixation","","","","","","","","","89","","",""
"revaluation","209","971075","0.0-4.0-2.0-0.45","spark_pilot_norest","14485","7","16","Female","","false","","","","","[830.7000000001863,291.3000000002794]","./assets/img/canyon/memory/23.jpg","[""ArrowDown"",""ArrowRight""]","value training","canyon","30","{""ArrowUp,ArrowLeft"":23,""ArrowUp,ArrowRight"":10,""ArrowDown,ArrowLeft"":8,""ArrowDown,ArrowRight"":30}","true","ArrowDown,ArrowRight","false","original","1","90","","",""
"html-keyboard-response","210","971576","0.0-4.0-2.0-1.45","spark_pilot_norest","14485","7","16","Female","","","","","","","null","<div style=""font-size:60px;"">+</div>","null","fixation","","","","","","","","","91","","",""
"revaluation","211","977579","0.0-4.0-2.0-0.46","spark_pilot_norest","14485","7","16","Female","","false","","","","","[640.3000000002794,323.10000000009313]","./assets/img/canyon/memory/8.jpg","[""ArrowDown"",""ArrowRight""]","value training","canyon","30","{""ArrowUp,ArrowLeft"":23,""ArrowUp,ArrowRight"":10,""ArrowDown,ArrowLeft"":8,""ArrowDown,ArrowRight"":30}","true","ArrowDown,ArrowRight","false","original","1","92","","",""
"html-keyboard-response","212","978080","0.0-4.0-2.0-1.46","spark_pilot_norest","14485","7","16","Female","","","","","","","null","<div style=""font-size:60px;"">+</div>","null","fixation","","","","","","","","","93","","",""
"revaluation","213","984088","0.0-4.0-2.0-0.47","spark_pilot_norest","14485","7","16","Female","","false","","","","","[629.8999999999069,264.79999999981374]","./assets/img/canyon/memory/33.jpg","[""ArrowDown"",""ArrowRight""]","value training","canyon","30","{""ArrowUp,ArrowLeft"":23,""ArrowUp,ArrowRight"":10,""ArrowDown,ArrowLeft"":8,""ArrowDown,ArrowRight"":30}","true","ArrowDown,ArrowRight","false","original","1","94","","",""
"html-keyboard-response","214","984590","0.0-4.0-2.0-1.47","spark_pilot_norest","14485","7","16","Female","","","","","","","null","<div style=""font-size:60px;"">+</div>","null","fixation","","","","","","","","","95","","",""
"revaluation","215","990595","0.0-4.0-2.0-0.48","spark_pilot_norest","14485","7","16","Female","","false","","","","","[509.8000000002794,256.20000000018626]","./assets/img/canyon/memory/26.jpg","[""ArrowDown"",""ArrowRight""]","value training","canyon","30","{""ArrowUp,ArrowLeft"":23,""ArrowUp,ArrowRight"":10,""ArrowDown,ArrowLeft"":8,""ArrowDown,ArrowRight"":30}","true","ArrowDown,ArrowRight","false","original","1","96","","",""
"html-keyboard-response","216","991097","0.0-4.0-2.0-1.48","spark_pilot_norest","14485","7","16","Female","","","","","","","null","<div style=""font-size:60px;"">+</div>","null","fixation","","","","","","","","","97","","",""
"revaluation","217","997103","0.0-4.0-2.0-0.49","spark_pilot_norest","14485","7","16","Female","","false","","","","","[587.3999999999069,300]","./assets/img/canyon/memory/35.jpg","[""ArrowDown"",""ArrowRight""]","value training","canyon","30","{""ArrowUp,ArrowLeft"":23,""ArrowUp,ArrowRight"":10,""ArrowDown,ArrowLeft"":8,""ArrowDown,ArrowRight"":30}","true","ArrowDown,ArrowRight","false","original","1","98","","",""
"html-keyboard-response","218","997604","0.0-4.0-2.0-1.49","spark_pilot_norest","14485","7","16","Female","","","","","","","null","<div style=""font-size:60px;"">+</div>","null","fixation","","","","","","","","","99","","",""
"learning-instructions","219","1015376","0.0-4.0-3.0-0.0","spark_pilot_norest","14485","7","16","Female","","","","","","","4411.100000000093","<p> Now, you will travel with a friend who will choose whether you go up or down first. </p>
            <p> On these turns, you will just see the animal that they found. You will still get to choose which chest to search for treasure.</p>","","instructions","","","","","","","","","","","",""
"revaluation","220","1019391","0.0-4.0-4.0-0.0","spark_pilot_norest","14485","7","16","Female","","false","","","","","[865.5]","./assets/img/canyon/animals/giraffe.jpg","[""ArrowLeft""]","revaluation","canyon","23","{""ArrowUp,ArrowLeft"":23,""ArrowUp,ArrowRight"":10,""ArrowDown,ArrowLeft"":8,""ArrowDown,ArrowRight"":30}","true","ArrowUp,ArrowLeft","","original","1","0","","",""
"html-keyboard-response","221","1019905","0.0-4.0-4.0-1.0","spark_pilot_norest","14485","7","16","Female","","","","","","","null","<div style=""font-size:60px;"">+</div>","null","fixation","","","","","","","","","1","","",""
"revaluation","222","1023918","0.0-4.0-4.0-0.1","spark_pilot_norest","14485","7","16","Female","","false","","","","","[558.6999999997206]","./assets/img/canyon/animals/lion.jpg","[""ArrowRight""]","revaluation","canyon","30","{""ArrowUp,ArrowLeft"":23,""ArrowUp,ArrowRight"":10,""ArrowDown,ArrowLeft"":8,""ArrowDown,ArrowRight"":30}","true","ArrowDown,ArrowRight","","original","1","2","","",""
"html-keyboard-response","223","1024419","0.0-4.0-4.0-1.1","spark_pilot_norest","14485","7","16","Female","","","","","","","null","<div style=""font-size:60px;"">+</div>","null","fixation","","","","","","","","","3","","",""
"revaluation","224","1028430","0.0-4.0-4.0-0.2","spark_pilot_norest","14485","7","16","Female","","false","","","","","[263.20000000018626]","./assets/img/canyon/animals/giraffe.jpg","[""ArrowLeft""]","revaluation","canyon","23","{""ArrowUp,ArrowLeft"":23,""ArrowUp,ArrowRight"":10,""ArrowDown,ArrowLeft"":8,""ArrowDown,ArrowRight"":30}","true","ArrowUp,ArrowLeft","","original","1","4","","",""
"html-keyboard-response","225","1028940","0.0-4.0-4.0-1.2","spark_pilot_norest","14485","7","16","Female","","","","","","","null","<div style=""font-size:60px;"">+</div>","null","fixation","","","","","","","","","5","","",""
"revaluation","226","1032959","0.0-4.0-4.0-0.3","spark_pilot_norest","14485","7","16","Female","","false","","","","","[276.70000000018626]","./assets/img/canyon/animals/giraffe.jpg","[""ArrowRight""]","revaluation","canyon","10","{""ArrowUp,ArrowLeft"":23,""ArrowUp,ArrowRight"":10,""ArrowDown,ArrowLeft"":8,""ArrowDown,ArrowRight"":30}","false","ArrowUp,ArrowRight","","original","1","6","","",""
"html-keyboard-response","227","1033471","0.0-4.0-4.0-1.3","spark_pilot_norest","14485","7","16","Female","","","","","","","null","<div style=""font-size:60px;"">+</div>","null","fixation","","","","","","","","","7","","",""
"revaluation","228","1037483","0.0-4.0-4.0-0.4","spark_pilot_norest","14485","7","16","Female","","false","","","","","[506.5]","./assets/img/canyon/animals/giraffe.jpg","[""ArrowLeft""]","revaluation","canyon","23","{""ArrowUp,ArrowLeft"":23,""ArrowUp,ArrowRight"":10,""ArrowDown,ArrowLeft"":8,""ArrowDown,ArrowRight"":30}","true","ArrowUp,ArrowLeft","","original","1","8","","",""
"html-keyboard-response","229","1037998","0.0-4.0-4.0-1.4","spark_pilot_norest","14485","7","16","Female","","","","","","","null","<div style=""font-size:60px;"">+</div>","null","fixation","","","","","","","","","9","","",""
"revaluation","230","1042004","0.0-4.0-4.0-0.5","spark_pilot_norest","14485","7","16","Female","","false","","","","","[487.5]","./assets/img/canyon/animals/giraffe.jpg","[""ArrowLeft""]","revaluation","canyon","23","{""ArrowUp,ArrowLeft"":23,""ArrowUp,ArrowRight"":10,""ArrowDown,ArrowLeft"":8,""ArrowDown,ArrowRight"":30}","true","ArrowUp,ArrowLeft","","original","1","10","","",""
"html-keyboard-response","231","1042506","0.0-4.0-4.0-1.5","spark_pilot_norest","14485","7","16","Female","","","","","","","null","<div style=""font-size:60px;"">+</div>","null","fixation","","","","","","","","","11","","",""
"revaluation","232","1046510","0.0-4.0-4.0-0.6","spark_pilot_norest","14485","7","16","Female","","false","","","","","[512.2999999998137]","./assets/img/canyon/animals/giraffe.jpg","[""ArrowLeft""]","revaluation","canyon","23","{""ArrowUp,ArrowLeft"":23,""ArrowUp,ArrowRight"":10,""ArrowDown,ArrowLeft"":8,""ArrowDown,ArrowRight"":30}","true","ArrowUp,ArrowLeft","","original","1","12","","",""
"html-keyboard-response","233","1047012","0.0-4.0-4.0-1.6","spark_pilot_norest","14485","7","16","Female","","","","","","","null","<div style=""font-size:60px;"">+</div>","null","fixation","","","","","","","","","13","","",""
"revaluation","234","1051017","0.0-4.0-4.0-0.7","spark_pilot_norest","14485","7","16","Female","","false","","","","","[893.0999999996275]","./assets/img/canyon/animals/lion.jpg","[""ArrowRight""]","revaluation","canyon","30","{""ArrowUp,ArrowLeft"":23,""ArrowUp,ArrowRight"":10,""ArrowDown,ArrowLeft"":8,""ArrowDown,ArrowRight"":30}","true","ArrowDown,ArrowRight","","original","1","14","","",""
"html-keyboard-response","235","1051518","0.0-4.0-4.0-1.7","spark_pilot_norest","14485","7","16","Female","","","","","","","null","<div style=""font-size:60px;"">+</div>","null","fixation","","","","","","","","","15","","",""
"revaluation","236","1055521","0.0-4.0-4.0-0.8","spark_pilot_norest","14485","7","16","Female","","false","","","","","[721.2999999998137]","./assets/img/canyon/animals/lion.jpg","[""ArrowRight""]","revaluation","canyon","30","{""ArrowUp,ArrowLeft"":23,""ArrowUp,ArrowRight"":10,""ArrowDown,ArrowLeft"":8,""ArrowDown,ArrowRight"":30}","true","ArrowDown,ArrowRight","","original","1","16","","",""
"html-keyboard-response","237","1056023","0.0-4.0-4.0-1.8","spark_pilot_norest","14485","7","16","Female","","","","","","","null","<div style=""font-size:60px;"">+</div>","null","fixation","","","","","","","","","17","","",""
"revaluation","238","1060031","0.0-4.0-4.0-0.9","spark_pilot_norest","14485","7","16","Female","","false","","","","","[677.6000000000931]","./assets/img/canyon/animals/lion.jpg","[""ArrowRight""]","revaluation","canyon","30","{""ArrowUp,ArrowLeft"":23,""ArrowUp,ArrowRight"":10,""ArrowDown,ArrowLeft"":8,""ArrowDown,ArrowRight"":30}","true","ArrowDown,ArrowRight","","original","1","18","","",""
"html-keyboard-response","239","1060533","0.0-4.0-4.0-1.9","spark_pilot_norest","14485","7","16","Female","","","","","","","null","<div style=""font-size:60px;"">+</div>","null","fixation","","","","","","","","","19","","",""
"revaluation","240","1064537","0.0-4.0-4.0-0.10","spark_pilot_norest","14485","7","16","Female","","false","","","","","[431.5]","./assets/img/canyon/animals/lion.jpg","[""ArrowRight""]","revaluation","canyon","30","{""ArrowUp,ArrowLeft"":23,""ArrowUp,ArrowRight"":10,""ArrowDown,ArrowLeft"":8,""ArrowDown,ArrowRight"":30}","true","ArrowDown,ArrowRight","","original","1","20","","",""
"html-keyboard-response","241","1065039","0.0-4.0-4.0-1.10","spark_pilot_norest","14485","7","16","Female","","","","","","","null","<div style=""font-size:60px;"">+</div>","null","fixation","","","","","","","","","21","","",""
"revaluation","242","1069042","0.0-4.0-4.0-0.11","spark_pilot_norest","14485","7","16","Female","","false","","","","","[709.7000000001863]","./assets/img/canyon/animals/giraffe.jpg","[""ArrowLeft""]","revaluation","canyon","23","{""ArrowUp,ArrowLeft"":23,""ArrowUp,ArrowRight"":10,""ArrowDown,ArrowLeft"":8,""ArrowDown,ArrowRight"":30}","true","ArrowUp,ArrowLeft","","original","1","22","","",""
"html-keyboard-response","243","1069544","0.0-4.0-4.0-1.11","spark_pilot_norest","14485","7","16","Female","","","","","","","null","<div style=""font-size:60px;"">+</div>","null","fixation","","","","","","","","","23","","",""
"revaluation","244","1073547","0.0-4.0-4.0-0.12","spark_pilot_norest","14485","7","16","Female","","false","","","","","[597]","./assets/img/canyon/animals/lion.jpg","[""ArrowRight""]","revaluation","canyon","30","{""ArrowUp,ArrowLeft"":23,""ArrowUp,ArrowRight"":10,""ArrowDown,ArrowLeft"":8,""ArrowDown,ArrowRight"":30}","true","ArrowDown,ArrowRight","","original","1","24","","",""
"html-keyboard-response","245","1074048","0.0-4.0-4.0-1.12","spark_pilot_norest","14485","7","16","Female","","","","","","","null","<div style=""font-size:60px;"">+</div>","null","fixation","","","","","","","","","25","","",""
"revaluation","246","1078052","0.0-4.0-4.0-0.13","spark_pilot_norest","14485","7","16","Female","","false","","","","","[468.40000000037253]","./assets/img/canyon/animals/giraffe.jpg","[""ArrowLeft""]","revaluation","canyon","23","{""ArrowUp,ArrowLeft"":23,""ArrowUp,ArrowRight"":10,""ArrowDown,ArrowLeft"":8,""ArrowDown,ArrowRight"":30}","true","ArrowUp,ArrowLeft","","original","1","26","","",""
"html-keyboard-response","247","1078553","0.0-4.0-4.0-1.13","spark_pilot_norest","14485","7","16","Female","","","","","","","null","<div style=""font-size:60px;"">+</div>","null","fixation","","","","","","","","","27","","",""
"revaluation","248","1082556","0.0-4.0-4.0-0.14","spark_pilot_norest","14485","7","16","Female","","false","","","","","[487.1999999997206]","./assets/img/canyon/animals/lion.jpg","[""ArrowRight""]","revaluation","canyon","30","{""ArrowUp,ArrowLeft"":23,""ArrowUp,ArrowRight"":10,""ArrowDown,ArrowLeft"":8,""ArrowDown,ArrowRight"":30}","true","ArrowDown,ArrowRight","","original","1","28","","",""
"html-keyboard-response","249","1083058","0.0-4.0-4.0-1.14","spark_pilot_norest","14485","7","16","Female","","","","","","","null","<div style=""font-size:60px;"">+</div>","null","fixation","","","","","","","","","29","","",""
"revaluation","250","1087062","0.0-4.0-4.0-0.15","spark_pilot_norest","14485","7","16","Female","","false","","","","","[366.60000000009313]","./assets/img/canyon/animals/giraffe.jpg","[""ArrowLeft""]","revaluation","canyon","23","{""ArrowUp,ArrowLeft"":23,""ArrowUp,ArrowRight"":10,""ArrowDown,ArrowLeft"":8,""ArrowDown,ArrowRight"":30}","true","ArrowUp,ArrowLeft","","original","1","30","","",""
"html-keyboard-response","251","1087563","0.0-4.0-4.0-1.15","spark_pilot_norest","14485","7","16","Female","","","","","","","null","<div style=""font-size:60px;"">+</div>","null","fixation","","","","","","","","","31","","",""
"revaluation","252","1091566","0.0-4.0-4.0-0.16","spark_pilot_norest","14485","7","16","Female","","false","","","","","[440.39999999990687]","./assets/img/canyon/animals/lion.jpg","[""ArrowRight""]","revaluation","canyon","30","{""ArrowUp,ArrowLeft"":23,""ArrowUp,ArrowRight"":10,""ArrowDown,ArrowLeft"":8,""ArrowDown,ArrowRight"":30}","true","ArrowDown,ArrowRight","","original","1","32","","",""
"html-keyboard-response","253","1092068","0.0-4.0-4.0-1.16","spark_pilot_norest","14485","7","16","Female","","","","","","","null","<div style=""font-size:60px;"">+</div>","null","fixation","","","","","","","","","33","","",""
"revaluation","254","1096071","0.0-4.0-4.0-0.17","spark_pilot_norest","14485","7","16","Female","","false","","","","","[640.6999999997206]","./assets/img/canyon/animals/lion.jpg","[""ArrowLeft""]","revaluation","canyon","8","{""ArrowUp,ArrowLeft"":23,""ArrowUp,ArrowRight"":10,""ArrowDown,ArrowLeft"":8,""ArrowDown,ArrowRight"":30}","false","ArrowDown,ArrowLeft","","original","1","34","","",""
"html-keyboard-response","255","1096573","0.0-4.0-4.0-1.17","spark_pilot_norest","14485","7","16","Female","","","","","","","null","<div style=""font-size:60px;"">+</div>","null","fixation","","","","","","","","","35","","",""
"learning-instructions","256","1105106","0.0-4.0-5.0-0.0","spark_pilot_norest","14485","7","16","Female","","","","","","","null","<p> You have almost finished this part of the game! </p>
            <p> We are going to ask you to make a few more choices. </p>","","instructions","","","","","","","","","","","",""
"learning-instructions","257","1121085","0.0-4.0-5.0-0.1","spark_pilot_norest","14485","7","16","Female","","","","","","","null","<p> First, you need to decide whether to go up or down. When you see each picture, use the arrow keys to make your choice. </p>
            <p><b>You will not see which animal you found, but try to get to the one that will give you the most treasure.</b></p>","","instructions","","","","","","","","","","","",""
"html-keyboard-response","258","1122088","0.0-4.0-6.0-0.0","spark_pilot_norest","14485","7","16","Female","","","","","","","null","<div style=""font-size:100px;color:red;"">Starting in...</div>","null","","","","","","","","","","","","",""
"html-keyboard-response","259","1123104","0.0-4.0-6.0-1.0","spark_pilot_norest","14485","7","16","Female","","","","","","","null","<div style=""font-size:200px;color:red;"">3</div>","null","","","","","","","","","","","","",""
"html-keyboard-response","260","1124117","0.0-4.0-6.0-2.0","spark_pilot_norest","14485","7","16","Female","","","","","","","null","<div style=""font-size:200px;color:red;"">2</div>","null","","","","","","","","","","","","",""
"html-keyboard-response","261","1125124","0.0-4.0-6.0-3.0","spark_pilot_norest","14485","7","16","Female","","","","","","","null","<div style=""font-size:200px;color:red;"">1</div>","null","","","","","","","","","","","","",""
"revaluation","262","1125610","0.0-4.0-7.0-0.0","spark_pilot_norest","14485","7","16","Female","","false","","","","","[473.09999999962747]","./assets/img/canyon/test/1.jpg","[""ArrowDown""]","first stage test","canyon","0","{""ArrowUp,ArrowLeft"":23,""ArrowUp,ArrowRight"":10,""ArrowDown,ArrowLeft"":8,""ArrowDown,ArrowRight"":30}","true","ArrowDown","false","original","1","","","",""
"html-keyboard-response","263","1126119","0.0-4.0-7.0-1.0","spark_pilot_norest","14485","7","16","Female","","","","","","","null","<div style=""font-size:60px;"">+</div>","null","fixation","","","","","","","","","","","",""
"revaluation","264","1126775","0.0-4.0-7.0-0.1","spark_pilot_norest","14485","7","16","Female","","false","","","","","[654]","./assets/img/canyon/test/3.jpg","[""ArrowDown""]","first stage test","canyon","0","{""ArrowUp,ArrowLeft"":23,""ArrowUp,ArrowRight"":10,""ArrowDown,ArrowLeft"":8,""ArrowDown,ArrowRight"":30}","true","ArrowDown","false","original","1","","","",""
"html-keyboard-response","265","1127289","0.0-4.0-7.0-1.1","spark_pilot_norest","14485","7","16","Female","","","","","","","null","<div style=""font-size:60px;"">+</div>","null","fixation","","","","","","","","","","","",""
"revaluation","266","1127828","0.0-4.0-7.0-0.2","spark_pilot_norest","14485","7","16","Female","","false","","","","","[537.3000000002794]","./assets/img/canyon/test/0.jpg","[""ArrowDown""]","first stage test","canyon","0","{""ArrowUp,ArrowLeft"":23,""ArrowUp,ArrowRight"":10,""ArrowDown,ArrowLeft"":8,""ArrowDown,ArrowRight"":30}","true","ArrowDown","false","original","1","","","",""
"html-keyboard-response","267","1128329","0.0-4.0-7.0-1.2","spark_pilot_norest","14485","7","16","Female","","","","","","","null","<div style=""font-size:60px;"">+</div>","null","fixation","","","","","","","","","","","",""
"revaluation","268","1128889","0.0-4.0-7.0-0.3","spark_pilot_norest","14485","7","16","Female","","false","","","","","[558.5]","./assets/img/canyon/test/2.jpg","[""ArrowDown""]","first stage test","canyon","0","{""ArrowUp,ArrowLeft"":23,""ArrowUp,ArrowRight"":10,""ArrowDown,ArrowLeft"":8,""ArrowDown,ArrowRight"":30}","true","ArrowDown","false","original","1","","","",""
"html-keyboard-response","269","1129402","0.0-4.0-7.0-1.3","spark_pilot_norest","14485","7","16","Female","","","","","","","null","<div style=""font-size:60px;"">+</div>","null","fixation","","","","","","","","","","","",""
"learning-instructions","270","1142748","0.0-4.0-8.0-0.0","spark_pilot_norest","14485","7","16","Female","","","","","","","null","<p> Now you will see the animals again and can search their chests for treasure. </p>
            <p> This time, you will not see how much treasure you earned, but you will earn more bonus money for making better choices. </p>","","instructions","","","","","","","","","","","",""
"html-keyboard-response","271","1143759","0.0-4.0-9.0-0.0","spark_pilot_norest","14485","7","16","Female","","","","","","","null","<div style=""font-size:100px;color:red;"">Starting in...</div>","null","","","","","","","","","","","","",""
"html-keyboard-response","272","1144774","0.0-4.0-9.0-1.0","spark_pilot_norest","14485","7","16","Female","","","","","","","null","<div style=""font-size:200px;color:red;"">3</div>","null","","","","","","","","","","","","",""
"html-keyboard-response","273","1145784","0.0-4.0-9.0-2.0","spark_pilot_norest","14485","7","16","Female","","","","","","","null","<div style=""font-size:200px;color:red;"">2</div>","null","","","","","","","","","","","","",""
"html-keyboard-response","274","1146799","0.0-4.0-9.0-3.0","spark_pilot_norest","14485","7","16","Female","","","","","","","null","<div style=""font-size:200px;color:red;"">1</div>","null","","","","","","","","","","","","",""
"revaluation","275","1148046","0.0-4.0-10.0-0.0","spark_pilot_norest","14485","7","16","Female","","false","","","","","[1245.1000000000931]","./assets/img/canyon/animals/giraffe.jpg","[""ArrowLeft""]","second stage test","canyon","0","{""ArrowUp,ArrowLeft"":23,""ArrowUp,ArrowRight"":10,""ArrowDown,ArrowLeft"":8,""ArrowDown,ArrowRight"":30}","true","ArrowUp,ArrowLeft","","original","1","","","",""
"html-keyboard-response","276","1148547","0.0-4.0-10.0-1.0","spark_pilot_norest","14485","7","16","Female","","","","","","","null","<div style=""font-size:60px;"">+</div>","null","fixation","","","","","","","","","","","",""
"revaluation","277","1149283","0.0-4.0-10.0-0.1","spark_pilot_norest","14485","7","16","Female","","false","","","","","[733.9000000003725]","./assets/img/canyon/animals/giraffe.jpg","[""ArrowLeft""]","second stage test","canyon","0","{""ArrowUp,ArrowLeft"":23,""ArrowUp,ArrowRight"":10,""ArrowDown,ArrowLeft"":8,""ArrowDown,ArrowRight"":30}","true","ArrowUp,ArrowLeft","","original","1","","","",""
"html-keyboard-response","278","1149794","0.0-4.0-10.0-1.1","spark_pilot_norest","14485","7","16","Female","","","","","","","null","<div style=""font-size:60px;"">+</div>","null","fixation","","","","","","","","","","","",""
"revaluation","279","1150329","0.0-4.0-10.0-0.2","spark_pilot_norest","14485","7","16","Female","","false","","","","","[533.0999999996275]","./assets/img/canyon/animals/giraffe.jpg","[""ArrowLeft""]","second stage test","canyon","0","{""ArrowUp,ArrowLeft"":23,""ArrowUp,ArrowRight"":10,""ArrowDown,ArrowLeft"":8,""ArrowDown,ArrowRight"":30}","true","ArrowUp,ArrowLeft","","original","1","","","",""
"html-keyboard-response","280","1150837","0.0-4.0-10.0-1.2","spark_pilot_norest","14485","7","16","Female","","","","","","","null","<div style=""font-size:60px;"">+</div>","null","fixation","","","","","","","","","","","",""
"revaluation","281","1151299","0.0-4.0-10.0-0.3","spark_pilot_norest","14485","7","16","Female","","false","","","","","[460.10000000009313]","./assets/img/canyon/animals/giraffe.jpg","[""ArrowLeft""]","second stage test","canyon","0","{""ArrowUp,ArrowLeft"":23,""ArrowUp,ArrowRight"":10,""ArrowDown,ArrowLeft"":8,""ArrowDown,ArrowRight"":30}","true","ArrowUp,ArrowLeft","","original","1","","","",""
"html-keyboard-response","282","1151806","0.0-4.0-10.0-1.3","spark_pilot_norest","14485","7","16","Female","","","","","","","null","<div style=""font-size:60px;"">+</div>","null","fixation","","","","","","","","","","","",""
"revaluation","283","1152555","0.0-4.0-10.0-0.4","spark_pilot_norest","14485","7","16","Female","","false","","","","","[746.8999999999069]","./assets/img/canyon/animals/lion.jpg","[""ArrowRight""]","second stage test","canyon","0","{""ArrowUp,ArrowLeft"":23,""ArrowUp,ArrowRight"":10,""ArrowDown,ArrowLeft"":8,""ArrowDown,ArrowRight"":30}","true","ArrowDown,ArrowRight","","original","1","","","",""
"html-keyboard-response","284","1153068","0.0-4.0-10.0-1.4","spark_pilot_norest","14485","7","16","Female","","","","","","","null","<div style=""font-size:60px;"">+</div>","null","fixation","","","","","","","","","","","",""
"revaluation","285","1153514","0.0-4.0-10.0-0.5","spark_pilot_norest","14485","7","16","Female","","false","","","","","[444.89999999990687]","./assets/img/canyon/animals/lion.jpg","[""ArrowRight""]","second stage test","canyon","0","{""ArrowUp,ArrowLeft"":23,""ArrowUp,ArrowRight"":10,""ArrowDown,ArrowLeft"":8,""ArrowDown,ArrowRight"":30}","true","ArrowDown,ArrowRight","","original","1","","","",""
"html-keyboard-response","286","1154023","0.0-4.0-10.0-1.5","spark_pilot_norest","14485","7","16","Female","","","","","","","null","<div style=""font-size:60px;"">+</div>","null","fixation","","","","","","","","","","","",""
"revaluation","287","1154407","0.0-4.0-10.0-0.6","spark_pilot_norest","14485","7","16","Female","","false","","","","","[381.39999999990687]","./assets/img/canyon/animals/lion.jpg","[""ArrowRight""]","second stage test","canyon","0","{""ArrowUp,ArrowLeft"":23,""ArrowUp,ArrowRight"":10,""ArrowDown,ArrowLeft"":8,""ArrowDown,ArrowRight"":30}","true","ArrowDown,ArrowRight","","original","1","","","",""
"html-keyboard-response","288","1154907","0.0-4.0-10.0-1.6","spark_pilot_norest","14485","7","16","Female","","","","","","","null","<div style=""font-size:60px;"">+</div>","null","fixation","","","","","","","","","","","",""
"revaluation","289","1155320","0.0-4.0-10.0-0.7","spark_pilot_norest","14485","7","16","Female","","false","","","","","[410.60000000009313]","./assets/img/canyon/animals/lion.jpg","[""ArrowRight""]","second stage test","canyon","0","{""ArrowUp,ArrowLeft"":23,""ArrowUp,ArrowRight"":10,""ArrowDown,ArrowLeft"":8,""ArrowDown,ArrowRight"":30}","true","ArrowDown,ArrowRight","","original","1","","","",""
"html-keyboard-response","290","1155828","0.0-4.0-10.0-1.7","spark_pilot_norest","14485","7","16","Female","","","","","","","null","<div style=""font-size:60px;"">+</div>","null","fixation","","","","","","","","","","","",""
"learning-instructions","291","1162806","0.0-4.0-0.1-0.2","spark_pilot_norest","14485","7","16","Female","","","","","","","4249.600000000093","<p> This time you are searching for treasure in the <b>ocean</b>.</p>","","instructions","","","","","","","","","","","",""
"learning-instructions","292","1182676","0.0-4.0-0.1-0.3","spark_pilot_norest","14485","7","16","Female","","","","","","","2615.7000000001863","<p><b>New</b> animals with <b>new</b> treasure chests live here. You need to explore to discover where the animal with the best treasure chest is.</p>
                    <p> Like before, once you figure out which animal has the chest with the most treasure, you should try to get to that animal and select that chest! </p>","","instructions","","","","","","","","","","","",""
"learning-instructions","293","1200945","0.0-4.0-1.1-0.1","spark_pilot_norest","14485","7","16","Female","","","","","","","3540.4000000003725","<p> Remember, when you see a picture of the place, use the up and down keys to <b>find an animal</b>.</p>
            <p> When you encounter an animal, you should use the left and right keys to <b>select a treasure chest</b>.</p>
            <p> Don't forget to look out for the robber! </p>","","instructions","","","","","","","","","","","",""
"revaluation","294","1206989","0.0-4.0-2.1-0.50","spark_pilot_norest","14485","7","16","Female","","false","","","","","[1270.8000000002794,751.6000000000931]","./assets/img/ocean/memory/7.jpg","[""ArrowUp"",""ArrowLeft""]","value training","ocean","26","{""ArrowUp,ArrowLeft"":26,""ArrowUp,ArrowRight"":10,""ArrowDown,ArrowLeft"":5,""ArrowDown,ArrowRight"":17}","true","ArrowUp,ArrowLeft","false","revaluation","2","0","","",""
"html-keyboard-response","295","1207502","0.0-4.0-2.1-1.50","spark_pilot_norest","14485","7","16","Female","","","","","","","null","<div style=""font-size:60px;"">+</div>","null","fixation","","","","","","","","","1","","",""
"revaluation","296","1213528","0.0-4.0-2.1-0.51","spark_pilot_norest","14485","7","16","Female","","false","","","","","[547.6999999997206,266.79999999981374]","./assets/img/ocean/memory/10.jpg","[""ArrowUp"",""ArrowRight""]","value training","ocean","10","{""ArrowUp,ArrowLeft"":26,""ArrowUp,ArrowRight"":10,""ArrowDown,ArrowLeft"":5,""ArrowDown,ArrowRight"":17}","false","ArrowUp,ArrowRight","false","revaluation","2","2","","",""
"html-keyboard-response","297","1214039","0.0-4.0-2.1-1.51","spark_pilot_norest","14485","7","16","Female","","","","","","","null","<div style=""font-size:60px;"">+</div>","null","fixation","","","","","","","","","3","","",""
"revaluation","298","1220079","0.0-4.0-2.1-0.52","spark_pilot_norest","14485","7","16","Female","","false","","","","","[328.90000000037253,337.5]","./assets/img/ocean/memory/33.jpg","[""ArrowDown"",""ArrowLeft""]","value training","ocean","5","{""ArrowUp,ArrowLeft"":26,""ArrowUp,ArrowRight"":10,""ArrowDown,ArrowLeft"":5,""ArrowDown,ArrowRight"":17}","false","ArrowDown,ArrowLeft","false","revaluation","2","4","","",""
"html-keyboard-response","299","1220593","0.0-4.0-2.1-1.52","spark_pilot_norest","14485","7","16","Female","","","","","","","null","<div style=""font-size:60px;"">+</div>","null","fixation","","","","","","","","","5","","",""
"revaluation","300","1226618","0.0-4.0-2.1-0.53","spark_pilot_norest","14485","7","16","Female","","false","","","","","[551.2000000001863,213.5]","./assets/img/ocean/memory/26.jpg","[""ArrowDown"",""ArrowRight""]","value training","ocean","17","{""ArrowUp,ArrowLeft"":26,""ArrowUp,ArrowRight"":10,""ArrowDown,ArrowLeft"":5,""ArrowDown,ArrowRight"":17}","false","ArrowDown,ArrowRight","false","revaluation","2","6","","",""
"html-keyboard-response","301","1227131","0.0-4.0-2.1-1.53","spark_pilot_norest","14485","7","16","Female","","","","","","","null","<div style=""font-size:60px;"">+</div>","null","fixation","","","","","","","","","7","","",""
"revaluation","302","1233136","0.0-4.0-2.1-0.54","spark_pilot_norest","14485","7","16","Female","","false","","","","","[529,307.5]","./assets/img/ocean/memory/35.jpg","[""ArrowUp"",""ArrowLeft""]","value training","ocean","26","{""ArrowUp,ArrowLeft"":26,""ArrowUp,ArrowRight"":10,""ArrowDown,ArrowLeft"":5,""ArrowDown,ArrowRight"":17}","true","ArrowUp,ArrowLeft","false","revaluation","2","8","","",""
"html-keyboard-response","303","1233638","0.0-4.0-2.1-1.54","spark_pilot_norest","14485","7","16","Female","","","","","","","null","<div style=""font-size:60px;"">+</div>","null","fixation","","","","","","","","","9","","",""
"revaluation","304","1239642","0.0-4.0-2.1-0.55","spark_pilot_norest","14485","7","16","Female","","false","","","","","[278.5,175.5]","./assets/img/ocean/memory/19.jpg","[""ArrowUp"",""ArrowLeft""]","value training","ocean","26","{""ArrowUp,ArrowLeft"":26,""ArrowUp,ArrowRight"":10,""ArrowDown,ArrowLeft"":5,""ArrowDown,ArrowRight"":17}","true","ArrowUp,ArrowLeft","false","revaluation","2","10","","",""
"html-keyboard-response","305","1240145","0.0-4.0-2.1-1.55","spark_pilot_norest","14485","7","16","Female","","","","","","","null","<div style=""font-size:60px;"">+</div>","null","fixation","","","","","","","","","11","","",""
"revaluation","306","1246150","0.0-4.0-2.1-0.56","spark_pilot_norest","14485","7","16","Female","","false","","","","","[306.70000000018626,252.70000000018626]","./assets/img/ocean/memory/36.jpg","[""ArrowUp"",""ArrowLeft""]","value training","ocean","26","{""ArrowUp,ArrowLeft"":26,""ArrowUp,ArrowRight"":10,""ArrowDown,ArrowLeft"":5,""ArrowDown,ArrowRight"":17}","true","ArrowUp,ArrowLeft","false","revaluation","2","12","","",""
"html-keyboard-response","307","1246651","0.0-4.0-2.1-1.56","spark_pilot_norest","14485","7","16","Female","","","","","","","null","<div style=""font-size:60px;"">+</div>","null","fixation","","","","","","","","","13","","",""
"revaluation","308","1252656","0.0-4.0-2.1-0.57","spark_pilot_norest","14485","7","16","Female","","false","","","","","[340.60000000009313,307.60000000009313]","./assets/img/ocean/memory/31.jpg","[""ArrowUp"",""ArrowLeft""]","value training","ocean","26","{""ArrowUp,ArrowLeft"":26,""ArrowUp,ArrowRight"":10,""ArrowDown,ArrowLeft"":5,""ArrowDown,ArrowRight"":17}","true","ArrowUp,ArrowLeft","false","revaluation","2","14","","",""
"html-keyboard-response","309","1253159","0.0-4.0-2.1-1.57","spark_pilot_norest","14485","7","16","Female","","","","","","","null","<div style=""font-size:60px;"">+</div>","null","fixation","","","","","","","","","15","","",""
