"trial_type","trial_index","time_elapsed","internal_node_id","task_version","subject_id","assigned_condition","age","gender","success","timeout","failed_images","failed_audio","failed_video","browser_interaction","rt","stimulus","response","task_part","environment","score","rewardMap","correct","fullState","isCatch","condition","order","trial_num","key_press","ground_truth","bonus"
"pavlovia","0","1408","0.0-0.0","spark_pilot_norest","8554","3","8","Male","","","","","","","","","","","","","","","","","","","","","",""
"preload","1","40219","0.0-1.0","spark_pilot_norest","8554","3","8","Male","true","false","[]","[]","[]","[{""event"":""fullscreenenter"",""trial"":2,""time"":42653},{""event"":""blur"",""trial"":10,""time"":125769},{""event"":""focus"",""trial"":10,""time"":125772},{""event"":""fullscreenexit"",""trial"":10,""time"":125775},{""event"":""blur"",""trial"":610,""time"":1986920},{""event"":""focus"",""trial"":610,""time"":1986922}]","","","","","","","","","","","","","","","",""
"fullscreen","2","43633","0.0-2.0","spark_pilot_norest","8554","3","8","Male","true","","","","","","","","","","","","","","","","","","","","",""
"audio-button-response","3","46060","0.0-3.0-0.0-0.0","spark_pilot_norest","8554","3","8","Male","","","","","","","1685","./assets/audio/audiotest/turtle.mp3","2","audio_test","","","","","","","","","","","",""
"learning-instructions","4","57027","0.0-3.0-1.0-0.0","spark_pilot_norest","8554","3","8","Male","","","","","","","3954.2999999998137","<p> Welcome! Please remember to stay in fullscreen mode and don't click away from the experiment. </p>","","instructions","","","","","","","","","","","",""
"learning-instructions","5","69109","0.0-3.0-1.0-0.1","spark_pilot_norest","8554","3","8","Male","","","","","","","3641.7999999998137","<p> Today you will be playing a game to earn treasure. </p>
            <p> At the end of the experiment, you will earn a bonus based on how much treasure you find. </p>
            <img src='./assets/img/instructions/treasure.jpg' class='instructions-image'>","","instructions","","","","","","","","","","","",""
"learning-instructions","6","79608","0.0-3.0-1.0-0.2","spark_pilot_norest","8554","3","8","Male","","","","","","","2215.5999999998603","<p> Animals have hidden treasure in treasure chests. </p>
            <p> You need to first find an animal and then choose which of their treasure chests to search. </p>
            <img src='./assets/img/space/animals/cat.jpg' class='instructions-image'>","","instructions","","","","","","","","","","","",""
"learning-instructions","7","94234","0.0-3.0-1.0-0.3","spark_pilot_norest","8554","3","8","Male","","","","","","","1428","<p> In each round, you will search for treasure in a different place. In the real game, there will be two rounds. </p>
            <p> You will begin with a separate, practice round where you will search for treasure in outer space. </p>
            <img src='./assets/img/space/0.jpg' class='instructions-image'>","","instructions","","","","","","","","","","","",""
"learning-instructions","8","109827","0.0-3.0-1.0-0.4","spark_pilot_norest","8554","3","8","Male","","","","","","","4146.90000000014","<p> On every turn, you will see a picture of the place that you are in, but the specific image may be different each time. </p>
            <p> For example, both of these images mean you are in outer space. </p>
            <img src='./assets/img/instructions/outerspace.jpg' class='instructions-image'>","","instructions","","","","","","","","","","","",""
"learning-instructions","9","119800","0.0-3.0-1.0-0.5","spark_pilot_norest","8554","3","8","Male","","","","","","[{""event"":""fullscreenenter"",""trial"":2,""time"":42653},{""event"":""blur"",""trial"":10,""time"":125769},{""event"":""focus"",""trial"":10,""time"":125772},{""event"":""fullscreenexit"",""trial"":10,""time"":125775},{""event"":""blur"",""trial"":610,""time"":1986920},{""event"":""focus"",""trial"":610,""time"":1986922}]","2097.1999999999534","<p> You need to decide which direction to travel in. </p>
            <p> You can choose between going <b>up or down</b> by using the arrow keys. </p>
            <img src='./assets/img/instructions/updown.jpg' class='instructions-image'>","","instructions","","","","","","","","","","","",""
"learning-instructions","10","131491","0.0-3.0-1.0-0.6","spark_pilot_norest","8554","3","8","Male","","","","","","","2844.1999999999534","<p> You will have <b>2 seconds</b> to make your choice. </p>
            <p> If you do not make a choice within 2 seconds, you will not find an animal or earn treasure. </p>
            <img src='./assets/img/instructions/2seconds.jpg' class='instructions-image'>","","instructions","","","","","","","","","","","",""
"learning-instructions","11","140487","0.0-3.0-1.0-0.7","spark_pilot_norest","8554","3","8","Male","","","","","","","1932.4000000001397","<p> Let’s try practicing that now! </p>
            <p> When you see a picture of the place you are in, press the <b>up</b> key to travel up. </p>
            <img src='./assets/img/instructions/pressUp.jpg' class='instructions-image'>","","instructions","","","","","","","","","","","",""
"revaluation","12","144530","0.0-3.0-2.0-0.0","spark_pilot_norest","8554","3","8","Male","","true","","","","","[]","./assets/img/space/0.jpg","[]","first stage practice","space","-5","null","null","","false","","","","","",""
"html-keyboard-response","13","145042","0.0-3.0-2.0-1.0","spark_pilot_norest","8554","3","8","Male","","","","","","","null","<div style=""font-size:60px;"">+</div>","null","fixation","","","","","","","","","","","",""
"revaluation","14","149071","0.0-3.0-2.0-0.1","spark_pilot_norest","8554","3","8","Male","","false","","","","","[1717.3000000000466]","./assets/img/space/1.jpg","[""ArrowUp""]","first stage practice","space","0","null","null","ArrowUp","false","","","","","",""
"html-keyboard-response","15","149577","0.0-3.0-2.0-1.1","spark_pilot_norest","8554","3","8","Male","","","","","","","null","<div style=""font-size:60px;"">+</div>","null","fixation","","","","","","","","","","","",""
"revaluation","16","153603","0.0-3.0-2.0-0.2","spark_pilot_norest","8554","3","8","Male","","false","","","","","[1386.8999999999069]","./assets/img/space/2.jpg","[""ArrowUp""]","first stage practice","space","0","null","null","ArrowUp","false","","","","","",""
"html-keyboard-response","17","154105","0.0-3.0-2.0-1.2","spark_pilot_norest","8554","3","8","Male","","","","","","","null","<div style=""font-size:60px;"">+</div>","null","fixation","","","","","","","","","","","",""
"learning-instructions","18","162084","0.0-3.0-3.0-0.0","spark_pilot_norest","8554","3","8","Male","","","","","","","3251.399999999907","<p> Great job! Now try pressing the <b>down</b> key to travel down. </p>
            <img src='./assets/img/instructions/pressDown.jpg' class='instructions-image'>","","instructions","","","","","","","","","","","",""
"revaluation","19","166098","0.0-3.0-4.0-0.0","spark_pilot_norest","8554","3","8","Male","","false","","","","","[714]","./assets/img/space/3.jpg","[""ArrowDown""]","first stage practice","space","0","null","null","ArrowDown","false","","","","","",""
"html-keyboard-response","20","166602","0.0-3.0-4.0-1.0","spark_pilot_norest","8554","3","8","Male","","","","","","","null","<div style=""font-size:60px;"">+</div>","null","fixation","","","","","","","","","","","",""
"revaluation","21","170626","0.0-3.0-4.0-0.1","spark_pilot_norest","8554","3","8","Male","","true","","","","","[]","./assets/img/space/4.jpg","[]","first stage practice","space","-5","null","null","","false","","","","","",""
"html-keyboard-response","22","171129","0.0-3.0-4.0-1.1","spark_pilot_norest","8554","3","8","Male","","","","","","","null","<div style=""font-size:60px;"">+</div>","null","fixation","","","","","","","","","","","",""
"revaluation","23","175146","0.0-3.0-4.0-0.2","spark_pilot_norest","8554","3","8","Male","","false","","","","","[773.8000000000466]","./assets/img/space/5.jpg","[""ArrowDown""]","first stage practice","space","0","null","null","ArrowDown","false","","","","","",""
"html-keyboard-response","24","175657","0.0-3.0-4.0-1.2","spark_pilot_norest","8554","3","8","Male","","","","","","","null","<div style=""font-size:60px;"">+</div>","null","fixation","","","","","","","","","","","",""
"learning-instructions","25","188048","0.0-3.0-5.0-0.0","spark_pilot_norest","8554","3","8","Male","","","","","","","2496.6999999999534","<p> The animals don’t move, so the animal in the upper part of a place will stay in the upper part of a place, and the animal in the lower part of a place will stay in the lower part of a place. </p>","","instructions","","","","","","","","","","","",""
"learning-instructions","26","198078","0.0-3.0-5.0-0.1","spark_pilot_norest","8554","3","8","Male","","","","","","","855.6999999999534","<p> Each animal has two treasure chests for you to choose from. </p>
            <p> The amount of treasure in each chest can range from <b> 0 to 40 pieces.</b></p>","","instructions","","","","","","","","","","","",""
"learning-instructions","27","210751","0.0-3.0-5.0-0.2","spark_pilot_norest","8554","3","8","Male","","","","","","","1455.3999999999069","<p> You should decide which chest to search for treasure by using the <b>left</b> and <b>right</b> arrow keys. </p>
            <p><b> Pay attention to which animal is on the screen, as the animals have different treasure chests. </b></p>
            <img src='./assets/img/instructions/leftright.jpg' class='instructions-image'>","","instructions","","","","","","","","","","","",""
"learning-instructions","28","220767","0.0-3.0-5.0-0.3","spark_pilot_norest","8554","3","8","Male","","","","","","","3620.399999999907","<p> Let’s try practicing that now. </p>
            <p> When you see an animal, choose which chest to search for treasure. </p>
            <img src='./assets/img/instructions/chooseChest.jpg' class='instructions-image'>","","instructions","","","","","","","","","","","",""
"revaluation","29","224790","0.0-3.0-6.0-0.0","spark_pilot_norest","8554","3","8","Male","","false","","","","","[1142.8999999999069]","./assets/img/space/animals/rabbit.jpg","[""ArrowLeft""]","second stage practice","space","15","{""ArrowUp,ArrowLeft"":3,""ArrowUp,ArrowRight"":36,""ArrowDown,ArrowLeft"":15,""ArrowDown,ArrowRight"":23}","false","ArrowDown,ArrowLeft","","","","","","",""
"html-keyboard-response","30","225297","0.0-3.0-6.0-1.0","spark_pilot_norest","8554","3","8","Male","","","","","","","null","<div style=""font-size:60px;"">+</div>","null","fixation","","","","","","","","","","","",""
"revaluation","31","229319","0.0-3.0-6.0-0.1","spark_pilot_norest","8554","3","8","Male","","true","","","","","[]","./assets/img/space/animals/cat.jpg","[]","second stage practice","space","-5","{""ArrowUp,ArrowLeft"":3,""ArrowUp,ArrowRight"":36,""ArrowDown,ArrowLeft"":15,""ArrowDown,ArrowRight"":23}","false","ArrowUp","","","","","","",""
"html-keyboard-response","32","229825","0.0-3.0-6.0-1.1","spark_pilot_norest","8554","3","8","Male","","","","","","","null","<div style=""font-size:60px;"">+</div>","null","fixation","","","","","","","","","","","",""
"revaluation","33","233850","0.0-3.0-6.0-0.2","spark_pilot_norest","8554","3","8","Male","","false","","","","","[947.5]","./assets/img/space/animals/rabbit.jpg","[""ArrowLeft""]","second stage practice","space","15","{""ArrowUp,ArrowLeft"":3,""ArrowUp,ArrowRight"":36,""ArrowDown,ArrowLeft"":15,""ArrowDown,ArrowRight"":23}","false","ArrowDown,ArrowLeft","","","","","","",""
"html-keyboard-response","34","234353","0.0-3.0-6.0-1.2","spark_pilot_norest","8554","3","8","Male","","","","","","","null","<div style=""font-size:60px;"">+</div>","null","fixation","","","","","","","","","","","",""
"revaluation","35","238378","0.0-3.0-6.0-0.3","spark_pilot_norest","8554","3","8","Male","","false","","","","","[467.5999999998603]","./assets/img/space/animals/cat.jpg","[""ArrowRight""]","second stage practice","space","36","{""ArrowUp,ArrowLeft"":3,""ArrowUp,ArrowRight"":36,""ArrowDown,ArrowLeft"":15,""ArrowDown,ArrowRight"":23}","true","ArrowUp,ArrowRight","","","","","","",""
"html-keyboard-response","36","238881","0.0-3.0-6.0-1.3","spark_pilot_norest","8554","3","8","Male","","","","","","","null","<div style=""font-size:60px;"">+</div>","null","fixation","","","","","","","","","","","",""
"learning-instructions","37","256351","0.0-3.0-7.0-0.0","spark_pilot_norest","8554","3","8","Male","","","","","","","548.6000000000931","<p> Great job. Now let’s try putting it together. </p>
            <p> On each turn, you will first see a picture to remind you of the place you are in, and you need to choose whether to go up or down. </p>
            <p> Then you will see an animal and choose which of its chests to search for treasure. </p>","","instructions","","","","","","","","","","","",""
"learning-instructions","38","265161","0.0-3.0-7.0-0.1","spark_pilot_norest","8554","3","8","Male","","","","","","","505","<p> When you choose whether to go up or down, try to go to the animal with the chest with the most treasure. </p>
            <p> Try practicing that now! </p>","","instructions","","","","","","","","","","","",""
"revaluation","39","271186","0.0-3.0-8.0-0.0","spark_pilot_norest","8554","3","8","Male","","false","","","","","[921.5,739.5999999998603]","./assets/img/space/6.jpg","[""ArrowDown"",""ArrowRight""]","full practice","space","23","{""ArrowUp,ArrowLeft"":3,""ArrowUp,ArrowRight"":36,""ArrowDown,ArrowLeft"":15,""ArrowDown,ArrowRight"":23}","false","ArrowDown,ArrowRight","false","","","","","",""
"html-keyboard-response","40","271689","0.0-3.0-8.0-1.0","spark_pilot_norest","8554","3","8","Male","","","","","","","null","<div style=""font-size:60px;"">+</div>","null","fixation","","","","","","","","","","","",""
"revaluation","41","277714","0.0-3.0-8.0-0.1","spark_pilot_norest","8554","3","8","Male","","false","","","","","[1305.8000000000466,1522.1000000000931]","./assets/img/space/7.jpg","[""ArrowDown"",""ArrowLeft""]","full practice","space","15","{""ArrowUp,ArrowLeft"":3,""ArrowUp,ArrowRight"":36,""ArrowDown,ArrowLeft"":15,""ArrowDown,ArrowRight"":23}","false","ArrowDown,ArrowLeft","false","","","","","",""
"html-keyboard-response","42","278217","0.0-3.0-8.0-1.1","spark_pilot_norest","8554","3","8","Male","","","","","","","null","<div style=""font-size:60px;"">+</div>","null","fixation","","","","","","","","","","","",""
"revaluation","43","284249","0.0-3.0-8.0-0.2","spark_pilot_norest","8554","3","8","Male","","false","","","","","[800.6999999999534,699.3000000000466]","./assets/img/space/8.jpg","[""ArrowDown"",""ArrowLeft""]","full practice","space","15","{""ArrowUp,ArrowLeft"":3,""ArrowUp,ArrowRight"":36,""ArrowDown,ArrowLeft"":15,""ArrowDown,ArrowRight"":23}","false","ArrowDown,ArrowLeft","false","","","","","",""
"html-keyboard-response","44","284753","0.0-3.0-8.0-1.2","spark_pilot_norest","8554","3","8","Male","","","","","","","null","<div style=""font-size:60px;"">+</div>","null","fixation","","","","","","","","","","","",""
"revaluation","45","290786","0.0-3.0-8.0-0.3","spark_pilot_norest","8554","3","8","Male","","false","","","","","[1061.5999999998603,391.69999999995343]","./assets/img/space/9.jpg","[""ArrowDown"",""ArrowRight""]","full practice","space","23","{""ArrowUp,ArrowLeft"":3,""ArrowUp,ArrowRight"":36,""ArrowDown,ArrowLeft"":15,""ArrowDown,ArrowRight"":23}","false","ArrowDown,ArrowRight","false","","","","","",""
"html-keyboard-response","46","291289","0.0-3.0-8.0-1.3","spark_pilot_norest","8554","3","8","Male","","","","","","","null","<div style=""font-size:60px;"">+</div>","null","fixation","","","","","","","","","","","",""
"revaluation","47","297314","0.0-3.0-8.0-0.4","spark_pilot_norest","8554","3","8","Male","","false","","","","","[538.3999999999069,380.30000000004657]","./assets/img/space/10.jpg","[""ArrowDown"",""ArrowRight""]","full practice","space","23","{""ArrowUp,ArrowLeft"":3,""ArrowUp,ArrowRight"":36,""ArrowDown,ArrowLeft"":15,""ArrowDown,ArrowRight"":23}","false","ArrowDown,ArrowRight","false","","","","","",""
"html-keyboard-response","48","297825","0.0-3.0-8.0-1.4","spark_pilot_norest","8554","3","8","Male","","","","","","","null","<div style=""font-size:60px;"">+</div>","null","fixation","","","","","","","","","","","",""
"learning-instructions","49","308658","0.0-3.0-9.0-0.0","spark_pilot_norest","8554","3","8","Male","","","","","","","445.5999999998603","<p> One last thing: sometimes, you will see a robber. The robber can be anywhere in the picture. </p>
            <p> If you do not stop them, you will lose treasure. </p>
            <img src='./assets/img/instructions/robber.jpg' class='instructions-image'>","","instructions","","","","","","","","","","","",""
"learning-instructions","50","316343","0.0-3.0-9.0-0.1","spark_pilot_norest","8554","3","8","Male","","","","","","","494.20000000018626","<p> If you see the robber, you should <b>press the space bar</b> rather than using the arrow keys. </p>
            <p> Try practicing that now! </p>","","instructions","","","","","","","","","","","",""
"revaluation","51","320361","0.0-3.0-10.0-0.0","spark_pilot_norest","8554","3","8","Male","","true","","","","","[]","./assets/img/space/catch/0.jpg","[]","catch practice","space","-5","{""ArrowUp,ArrowLeft"":3,""ArrowUp,ArrowRight"":36,""ArrowDown,ArrowLeft"":15,""ArrowDown,ArrowRight"":23}","false","","true","","","","","",""
"html-keyboard-response","52","320865","0.0-3.0-10.0-1.0","spark_pilot_norest","8554","3","8","Male","","","","","","","null","<div style=""font-size:60px;"">+</div>","null","fixation","","","","","","","","","","","",""
"revaluation","53","324885","0.0-3.0-10.0-0.1","spark_pilot_norest","8554","3","8","Male","","false","","","","","[1095.6000000000931]","./assets/img/space/catch/1.jpg","[""ArrowDown""]","catch practice","space","-10","{""ArrowUp,ArrowLeft"":3,""ArrowUp,ArrowRight"":36,""ArrowDown,ArrowLeft"":15,""ArrowDown,ArrowRight"":23}","false","ArrowDown","true","","","","","",""
"html-keyboard-response","54","325393","0.0-3.0-10.0-1.1","spark_pilot_norest","8554","3","8","Male","","","","","","","null","<div style=""font-size:60px;"">+</div>","null","fixation","","","","","","","","","","","",""
"revaluation","55","329409","0.0-3.0-10.0-0.2","spark_pilot_norest","8554","3","8","Male","","false","","","","","[727.0999999998603]","./assets/img/space/catch/2.jpg","[""spaceBar""]","catch practice","space","0","{""ArrowUp,ArrowLeft"":3,""ArrowUp,ArrowRight"":36,""ArrowDown,ArrowLeft"":15,""ArrowDown,ArrowRight"":23}","true","spaceBar","true","","","","","",""
"html-keyboard-response","56","329913","0.0-3.0-10.0-1.2","spark_pilot_norest","8554","3","8","Male","","","","","","","null","<div style=""font-size:60px;"">+</div>","null","fixation","","","","","","","","","","","",""
"learning-instructions","57","336585","0.0-3.0-11.0-0.0-0.0","spark_pilot_norest","8554","3","8","Male","","","","","","","1386.2999999998137","<p> Now, you will practice a shortened version of the game to get a sense of how it all fits together. </p>","","instructions","","","","","","","","","","","",""
"learning-instructions","58","340896","0.0-3.0-11.0-0.0-0.1","spark_pilot_norest","8554","3","8","Male","","","","","","","1110.5","<p>This time you are searching for treasure in outer space.</p>","","instructions","","","","","","","","","","","",""
"learning-instructions","59","355995","0.0-3.0-11.0-1.0-0.0","spark_pilot_norest","8554","3","8","Male","","","","","","","304.10000000009313","<p> Remember, when you see a picture of the place, use the up and down keys to <b>find an animal</b>.</p>
            <p> When you encounter an animal, you should use the left and right keys to <b>select a treasure chest</b>.</p>
            <p> Don't forget to look out for the robber! </p>","","instructions","","","","","","","","","","","",""
"revaluation","60","362018","0.0-3.0-11.0-2.0-0.0","spark_pilot_norest","8554","3","8","Male","","false","","","","","[1181.9000000001397,300.80000000004657]","./assets/img/space/11.jpg","[""ArrowDown"",""ArrowRight""]","practice block","space","23","{""ArrowUp,ArrowLeft"":3,""ArrowUp,ArrowRight"":36,""ArrowDown,ArrowLeft"":15,""ArrowDown,ArrowRight"":23}","false","ArrowDown,ArrowRight","false","","","","","",""
"html-keyboard-response","61","362521","0.0-3.0-11.0-2.0-1.0","spark_pilot_norest","8554","3","8","Male","","","","","","","null","<div style=""font-size:60px;"">+</div>","null","fixation","","","","","","","","","","","",""
"revaluation","62","368554","0.0-3.0-11.0-2.0-0.1","spark_pilot_norest","8554","3","8","Male","","false","","","","","[652,506.89999999990687]","./assets/img/space/12.jpg","[""ArrowDown"",""ArrowRight""]","practice block","space","23","{""ArrowUp,ArrowLeft"":3,""ArrowUp,ArrowRight"":36,""ArrowDown,ArrowLeft"":15,""ArrowDown,ArrowRight"":23}","false","ArrowDown,ArrowRight","false","","","","","",""
"html-keyboard-response","63","369057","0.0-3.0-11.0-2.0-1.1","spark_pilot_norest","8554","3","8","Male","","","","","","","null","<div style=""font-size:60px;"">+</div>","null","fixation","","","","","","","","","","","",""
"revaluation","64","375090","0.0-3.0-11.0-2.0-0.2","spark_pilot_norest","8554","3","8","Male","","false","","","","","[312.30000000004657,340.5999999998603]","./assets/img/space/13.jpg","[""ArrowUp"",""ArrowLeft""]","practice block","space","3","{""ArrowUp,ArrowLeft"":3,""ArrowUp,ArrowRight"":36,""ArrowDown,ArrowLeft"":15,""ArrowDown,ArrowRight"":23}","false","ArrowUp,ArrowLeft","false","","","","","",""
"html-keyboard-response","65","375593","0.0-3.0-11.0-2.0-1.2","spark_pilot_norest","8554","3","8","Male","","","","","","","null","<div style=""font-size:60px;"">+</div>","null","fixation","","","","","","","","","","","",""
"revaluation","66","381618","0.0-3.0-11.0-2.0-0.3","spark_pilot_norest","8554","3","8","Male","","false","","","","","[319.30000000004657,333.39999999990687]","./assets/img/space/14.jpg","[""ArrowDown"",""ArrowLeft""]","practice block","space","15","{""ArrowUp,ArrowLeft"":3,""ArrowUp,ArrowRight"":36,""ArrowDown,ArrowLeft"":15,""ArrowDown,ArrowRight"":23}","false","ArrowDown,ArrowLeft","false","","","","","",""
"html-keyboard-response","67","382121","0.0-3.0-11.0-2.0-1.3","spark_pilot_norest","8554","3","8","Male","","","","","","","null","<div style=""font-size:60px;"">+</div>","null","fixation","","","","","","","","","","","",""
"revaluation","68","388156","0.0-3.0-11.0-2.0-0.4","spark_pilot_norest","8554","3","8","Male","","false","","","","","[298,365.60000000009313]","./assets/img/space/11.jpg","[""ArrowDown"",""ArrowRight""]","practice block","space","23","{""ArrowUp,ArrowLeft"":3,""ArrowUp,ArrowRight"":36,""ArrowDown,ArrowLeft"":15,""ArrowDown,ArrowRight"":23}","false","ArrowDown,ArrowRight","false","","","","","",""
"html-keyboard-response","69","388665","0.0-3.0-11.0-2.0-1.4","spark_pilot_norest","8554","3","8","Male","","","","","","","null","<div style=""font-size:60px;"">+</div>","null","fixation","","","","","","","","","","","",""
"revaluation","70","394706","0.0-3.0-11.0-2.0-0.5","spark_pilot_norest","8554","3","8","Male","","false","","","","","[462.69999999995343,602.5]","./assets/img/space/12.jpg","[""ArrowUp"",""ArrowRight""]","practice block","space","36","{""ArrowUp,ArrowLeft"":3,""ArrowUp,ArrowRight"":36,""ArrowDown,ArrowLeft"":15,""ArrowDown,ArrowRight"":23}","true","ArrowUp,ArrowRight","false","","","","","",""
"html-keyboard-response","71","395209","0.0-3.0-11.0-2.0-1.5","spark_pilot_norest","8554","3","8","Male","","","","","","","null","<div style=""font-size:60px;"">+</div>","null","fixation","","","","","","","","","","","",""
"revaluation","72","401250","0.0-3.0-11.0-2.0-0.6","spark_pilot_norest","8554","3","8","Male","","false","","","","","[871,294]","./assets/img/space/13.jpg","[""ArrowUp"",""ArrowRight""]","practice block","space","36","{""ArrowUp,ArrowLeft"":3,""ArrowUp,ArrowRight"":36,""ArrowDown,ArrowLeft"":15,""ArrowDown,ArrowRight"":23}","true","ArrowUp,ArrowRight","false","","","","","",""
"html-keyboard-response","73","401753","0.0-3.0-11.0-2.0-1.6","spark_pilot_norest","8554","3","8","Male","","","","","","","null","<div style=""font-size:60px;"">+</div>","null","fixation","","","","","","","","","","","",""
"revaluation","74","407794","0.0-3.0-11.0-2.0-0.7","spark_pilot_norest","8554","3","8","Male","","false","","","","","[357.29999999981374,340.79999999981374]","./assets/img/space/14.jpg","[""ArrowDown"",""ArrowRight""]","practice block","space","23","{""ArrowUp,ArrowLeft"":3,""ArrowUp,ArrowRight"":36,""ArrowDown,ArrowLeft"":15,""ArrowDown,ArrowRight"":23}","false","ArrowDown,ArrowRight","false","","","","","",""
"html-keyboard-response","75","408305","0.0-3.0-11.0-2.0-1.7","spark_pilot_norest","8554","3","8","Male","","","","","","","null","<div style=""font-size:60px;"">+</div>","null","fixation","","","","","","","","","","","",""
"revaluation","76","412330","0.0-3.0-11.0-2.0-0.8","spark_pilot_norest","8554","3","8","Male","","false","","","","","[1112.8999999999069]","./assets/img/space/catch/3.jpg","[""ArrowUp""]","practice block","space","-10","{""ArrowUp,ArrowLeft"":3,""ArrowUp,ArrowRight"":36,""ArrowDown,ArrowLeft"":15,""ArrowDown,ArrowRight"":23}","false","ArrowUp","true","","","","","",""
"html-keyboard-response","77","412833","0.0-3.0-11.0-2.0-1.8","spark_pilot_norest","8554","3","8","Male","","","","","","","null","<div style=""font-size:60px;"">+</div>","null","fixation","","","","","","","","","","","",""
"learning-instructions","78","427550","0.0-3.0-11.0-3.0-0.0","spark_pilot_norest","8554","3","8","Male","","","","","","","973.8000000000466","<p> Now, you will travel with a friend who will choose whether you go up or down first. </p>
            <p> On these turns, you will just see the animal that they found. You will still get to choose which chest to search for treasure.</p>","","instructions","","","","","","","","","","","",""
"revaluation","79","431570","0.0-3.0-11.0-4.0-0.0","spark_pilot_norest","8554","3","8","Male","","false","","","","","[1125.1000000000931]","./assets/img/space/animals/cat.jpg","[""ArrowRight""]","practice block","space","36","{""ArrowUp,ArrowLeft"":3,""ArrowUp,ArrowRight"":36,""ArrowDown,ArrowLeft"":15,""ArrowDown,ArrowRight"":23}","true","ArrowUp,ArrowRight","","","","","","",""
"html-keyboard-response","80","432073","0.0-3.0-11.0-4.0-1.0","spark_pilot_norest","8554","3","8","Male","","","","","","","null","<div style=""font-size:60px;"">+</div>","null","fixation","","","","","","","","","","","",""
"revaluation","81","436098","0.0-3.0-11.0-4.0-0.1","spark_pilot_norest","8554","3","8","Male","","false","","","","","[556.1999999999534]","./assets/img/space/animals/cat.jpg","[""ArrowRight""]","practice block","space","36","{""ArrowUp,ArrowLeft"":3,""ArrowUp,ArrowRight"":36,""ArrowDown,ArrowLeft"":15,""ArrowDown,ArrowRight"":23}","true","ArrowUp,ArrowRight","","","","","","",""
"html-keyboard-response","82","436601","0.0-3.0-11.0-4.0-1.1","spark_pilot_norest","8554","3","8","Male","","","","","","","null","<div style=""font-size:60px;"">+</div>","null","fixation","","","","","","","","","","","",""
"revaluation","83","440633","0.0-3.0-11.0-4.0-0.2","spark_pilot_norest","8554","3","8","Male","","false","","","","","[291.69999999995343]","./assets/img/space/animals/rabbit.jpg","[""ArrowRight""]","practice block","space","23","{""ArrowUp,ArrowLeft"":3,""ArrowUp,ArrowRight"":36,""ArrowDown,ArrowLeft"":15,""ArrowDown,ArrowRight"":23}","true","ArrowDown,ArrowRight","","","","","","",""
"html-keyboard-response","84","441137","0.0-3.0-11.0-4.0-1.2","spark_pilot_norest","8554","3","8","Male","","","","","","","null","<div style=""font-size:60px;"">+</div>","null","fixation","","","","","","","","","","","",""
"revaluation","85","445154","0.0-3.0-11.0-4.0-0.3","spark_pilot_norest","8554","3","8","Male","","false","","","","","[431.5]","./assets/img/space/animals/rabbit.jpg","[""ArrowLeft""]","practice block","space","15","{""ArrowUp,ArrowLeft"":3,""ArrowUp,ArrowRight"":36,""ArrowDown,ArrowLeft"":15,""ArrowDown,ArrowRight"":23}","false","ArrowDown,ArrowLeft","","","","","","",""
"html-keyboard-response","86","445657","0.0-3.0-11.0-4.0-1.3","spark_pilot_norest","8554","3","8","Male","","","","","","","null","<div style=""font-size:60px;"">+</div>","null","fixation","","","","","","","","","","","",""
"learning-instructions","87","453793","0.0-3.0-11.0-5.0-0.0","spark_pilot_norest","8554","3","8","Male","","","","","","","null","<p> You have almost finished this part of the game! </p>
            <p> We are going to ask you to make a few more choices. </p>","","instructions","","","","","","","","","","","",""
"learning-instructions","88","469841","0.0-3.0-11.0-5.0-0.1","spark_pilot_norest","8554","3","8","Male","","","","","","","null","<p> First, you need to decide whether to go up or down. When you see each picture, use the arrow keys to make your choice. </p>
            <p><b>You will not see which animal you found, but try to get to the one that will give you the most treasure.</b></p>","","instructions","","","","","","","","","","","",""
"html-keyboard-response","89","470849","0.0-3.0-11.0-6.0-0.0","spark_pilot_norest","8554","3","8","Male","","","","","","","null","<div style=""font-size:100px;color:red;"">Starting in...</div>","null","","","","","","","","","","","","",""
"html-keyboard-response","90","471857","0.0-3.0-11.0-6.0-1.0","spark_pilot_norest","8554","3","8","Male","","","","","","","null","<div style=""font-size:200px;color:red;"">3</div>","null","","","","","","","","","","","","",""
"html-keyboard-response","91","472865","0.0-3.0-11.0-6.0-2.0","spark_pilot_norest","8554","3","8","Male","","","","","","","null","<div style=""font-size:200px;color:red;"">2</div>","null","","","","","","","","","","","","",""
"html-keyboard-response","92","473873","0.0-3.0-11.0-6.0-3.0","spark_pilot_norest","8554","3","8","Male","","","","","","","null","<div style=""font-size:200px;color:red;"">1</div>","null","","","","","","","","","","","","",""
"revaluation","93","474670","0.0-3.0-11.0-7.0","spark_pilot_norest","8554","3","8","Male","","false","","","","","[790]","./assets/img/space/15.jpg","[""ArrowUp""]","practice block","space","0","{""ArrowUp,ArrowLeft"":3,""ArrowUp,ArrowRight"":36,""ArrowDown,ArrowLeft"":15,""ArrowDown,ArrowRight"":23}","true","ArrowUp","false","","","","","",""
"html-keyboard-response","94","475177","0.0-3.0-11.0-8.0","spark_pilot_norest","8554","3","8","Male","","","","","","","null","<div style=""font-size:60px;"">+</div>","null","fixation","","","","","","","","","","","",""
"learning-instructions","95","488591","0.0-3.0-11.0-9.0-0.0","spark_pilot_norest","8554","3","8","Male","","","","","","","null","<p> Now you will see the animals again and can search their chests for treasure. </p>
            <p> This time, you will not see how much treasure you earned, but you will earn more bonus money for making better choices. </p>","","instructions","","","","","","","","","","","",""
"html-keyboard-response","96","489601","0.0-3.0-11.0-10.0-0.0","spark_pilot_norest","8554","3","8","Male","","","","","","","null","<div style=""font-size:100px;color:red;"">Starting in...</div>","null","","","","","","","","","","","","",""
"html-keyboard-response","97","490609","0.0-3.0-11.0-10.0-1.0","spark_pilot_norest","8554","3","8","Male","","","","","","","null","<div style=""font-size:200px;color:red;"">3</div>","null","","","","","","","","","","","","",""
"html-keyboard-response","98","491617","0.0-3.0-11.0-10.0-2.0","spark_pilot_norest","8554","3","8","Male","","","","","","","null","<div style=""font-size:200px;color:red;"">2</div>","null","","","","","","","","","","","","",""
"html-keyboard-response","99","492625","0.0-3.0-11.0-10.0-3.0","spark_pilot_norest","8554","3","8","Male","","","","","","","null","<div style=""font-size:200px;color:red;"">1</div>","null","","","","","","","","","","","","",""
"revaluation","100","493029","0.0-3.0-11.0-11.0-0.0","spark_pilot_norest","8554","3","8","Male","","false","","","","","[389.40000000037253]","./assets/img/space/animals/cat.jpg","[""ArrowRight""]","practice block","space","0","{""ArrowUp,ArrowLeft"":3,""ArrowUp,ArrowRight"":36,""ArrowDown,ArrowLeft"":15,""ArrowDown,ArrowRight"":23}","true","ArrowUp,ArrowRight","","","","","","",""
"html-keyboard-response","101","493537","0.0-3.0-11.0-11.0-1.0","spark_pilot_norest","8554","3","8","Male","","","","","","","null","<div style=""font-size:60px;"">+</div>","null","fixation","","","","","","","","","","","",""
"revaluation","102","494051","0.0-3.0-11.0-11.0-0.1","spark_pilot_norest","8554","3","8","Male","","false","","","","","[501.79999999981374]","./assets/img/space/animals/rabbit.jpg","[""ArrowRight""]","practice block","space","0","{""ArrowUp,ArrowLeft"":3,""ArrowUp,ArrowRight"":36,""ArrowDown,ArrowLeft"":15,""ArrowDown,ArrowRight"":23}","true","ArrowDown,ArrowRight","","","","","","",""
"html-keyboard-response","103","494553","0.0-3.0-11.0-11.0-1.1","spark_pilot_norest","8554","3","8","Male","","","","","","","null","<div style=""font-size:60px;"">+</div>","null","fixation","","","","","","","","","","","",""
"learning-instructions","104","501866","0.0-3.0-12.0-0.0","spark_pilot_norest","8554","3","8","Male","","","","","","","2715.3000000002794","<p> Before you start, we're going to ask you a few questions about how the game works. </p>","","instructions","","","","","","","","","","","",""
"comp-q","105","508505","0.0-3.0-13.0-0.0-0.0","spark_pilot_norest","8554","3","8","Male","","","","","","","1019.1000000000931","<p> <b> True or False? </b> </p>
            <p> There can be 50 pieces of treasure in a given animal's chest. </p>","1","comp_question","","","","true","","","","","","","",""
"comp-q","106","515972","0.0-3.0-13.0-0.0-1.0","spark_pilot_norest","8554","3","8","Male","","","","","","","789.3000000002794","<p> <b> That's right! </b> The amount of treasure in each chest can range from 0 to 40 pieces. </p>","0","comp_answer","","","","","","","","","","","",""
"comp-q","107","524932","0.0-3.0-13.0-0.1-0.1","spark_pilot_norest","8554","3","8","Male","","","","","","","1812.7000000001863","<p> <b> True or False? </b> </p><p> In this game, all animals have the same amount of treasure in their left and right chests. </p>","1","comp_question","","","","true","","","","","","","",""
"comp-q","108","531961","0.0-3.0-13.0-0.1-1.1","spark_pilot_norest","8554","3","8","Male","","","","","","","1779.8000000002794","<p> <b> That's right! </b> Animals have different amounts of treasure in their treasure chests. </p>","0","comp_answer","","","","","","","","","","","",""
"comp-q","109","540387","0.0-3.0-13.0-0.2-0.2","spark_pilot_norest","8554","3","8","Male","","","","","","","2556.9000000003725","<p> <b> True or False? </b> </p><p> The same animal will always be there if you go up in the same place. </p>","0","comp_question","","","","true","","","","","","","",""
"comp-q","110","548568","0.0-3.0-13.0-0.2-1.2","spark_pilot_norest","8554","3","8","Male","","","","","","","1715.1000000000931","<p> <b> That's right! </b> One animal lives in the upper part and one lives in the lower part of every place. </p>","0","comp_answer","","","","","","","","","","","",""
"comp-q","111","555110","0.0-3.0-13.0-0.3-0.3","spark_pilot_norest","8554","3","8","Male","","","","","","","1002.8000000002794","<p> <b> True or False? </b> </p><p> If you see a different picture, it means you are in a new place. </p>","0","comp_question","","","","false","","","","","","","",""
"comp-q","112","567146","0.0-3.0-13.0-0.3-1.3","spark_pilot_norest","8554","3","8","Male","","","","","","","921.7999999998137","<p> <b>Incorrect.</b> Lots of different images may show the same place. For example,  you may see three different images that all remind you that you are in outer space. </p>","0","comp_answer","","","","","","","","","","","",""
"comp-q","113","574168","0.0-3.0-13.0-0.4-0.4","spark_pilot_norest","8554","3","8","Male","","","","","","","1512.5","<p> <b> True or False? </b> </p><p> If you see a different picture, it means you are in a new place. </p>","0","comp_question","","","","false","","","","","","","",""
"comp-q","114","586854","0.0-3.0-13.0-0.4-1.4","spark_pilot_norest","8554","3","8","Male","","","","","","","1621.6000000000931","<p> <b>Incorrect.</b> Lots of different images may show the same place. For example,  you may see three different images that all remind you that you are in outer space. </p>","0","comp_answer","","","","","","","","","","","",""
"comp-q","115","596201","0.0-3.0-13.0-0.5-0.5","spark_pilot_norest","8554","3","8","Male","","","","","","","3844.399999999907","<p> <b> True or False? </b> </p><p> If you see a different picture, it means you are in a new place. </p>","0","comp_question","","","","false","","","","","","","",""
"comp-q","116","608335","0.0-3.0-13.0-0.5-1.5","spark_pilot_norest","8554","3","8","Male","","","","","","","1077.3000000002794","<p> <b>Incorrect.</b> Lots of different images may show the same place. For example,  you may see three different images that all remind you that you are in outer space. </p>","0","comp_answer","","","","","","","","","","","",""
"comp-q","117","615302","0.0-3.0-13.0-0.6-0.6","spark_pilot_norest","8554","3","8","Male","","","","","","","1463.5","<p> <b> True or False? </b> </p><p> If you see a different picture, it means you are in a new place. </p>","1","comp_question","","","","true","","","","","","","",""
"comp-q","118","628355","0.0-3.0-13.0-0.6-1.6","spark_pilot_norest","8554","3","8","Male","","","","","","","1790.1999999997206","<p> <b> That's right! </b> Lots of different images may show the same place. For example,  you may see three different images that all remind you that you are in outer space. </p>","0","comp_answer","","","","","","","","","","","",""
"learning-instructions","119","639553","0.0-3.0-14.0-0.0","spark_pilot_norest","8554","3","8","Male","","","","","","","1319.7000000001863","<p> Good job. Remember to do your best because the amount of treasure you earn will be converted into bonus money. </p>
            <p> It’s time to start the real game! </p>","","instructions","","","","","","","","","","","",""
"learning-instructions","120","642961","0.0-4.0-0.0-0.0","spark_pilot_norest","8554","3","8","Male","","","","","","","684.3999999999069","<p> This time you are searching for treasure in the <b>ocean</b>.</p>","","instructions","","","","","","","","","","","",""
"learning-instructions","121","661120","0.0-4.0-0.0-0.1","spark_pilot_norest","8554","3","8","Male","","","","","","","827.3000000002794","<p><b>New</b> animals with <b>new</b> treasure chests live here. You need to explore to discover where the animal with the best treasure chest is.</p>
                    <p> Like before, once you figure out which animal has the chest with the most treasure, you should try to get to that animal and select that chest! </p>","","instructions","","","","","","","","","","","",""
"learning-instructions","122","677010","0.0-4.0-1.0-0.0","spark_pilot_norest","8554","3","8","Male","","","","","","","1155.5","<p> Remember, when you see a picture of the place, use the up and down keys to <b>find an animal</b>.</p>
            <p> When you encounter an animal, you should use the left and right keys to <b>select a treasure chest</b>.</p>
            <p> Don't forget to look out for the robber! </p>","","instructions","","","","","","","","","","","",""
"revaluation","123","681026","0.0-4.0-2.0-0.0","spark_pilot_norest","8554","3","8","Male","","false","","","","","[1218.7999999998137]","./assets/img/ocean/catch/5.jpg","[""ArrowUp""]","value training","ocean","-10","{""ArrowUp,ArrowLeft"":23,""ArrowUp,ArrowRight"":10,""ArrowDown,ArrowLeft"":8,""ArrowDown,ArrowRight"":30}","false","ArrowUp","true","original","1","0","","",""
"html-keyboard-response","124","681537","0.0-4.0-2.0-1.0","spark_pilot_norest","8554","3","8","Male","","","","","","","null","<div style=""font-size:60px;"">+</div>","null","fixation","","","","","","","","","1","","",""
"revaluation","125","687570","0.0-4.0-2.0-0.1","spark_pilot_norest","8554","3","8","Male","","false","","","","","[542.6000000000931,397.5]","./assets/img/ocean/memory/30.jpg","[""ArrowUp"",""ArrowRight""]","value training","ocean","10","{""ArrowUp,ArrowLeft"":23,""ArrowUp,ArrowRight"":10,""ArrowDown,ArrowLeft"":8,""ArrowDown,ArrowRight"":30}","false","ArrowUp,ArrowRight","false","original","1","2","","",""
"html-keyboard-response","126","688073","0.0-4.0-2.0-1.1","spark_pilot_norest","8554","3","8","Male","","","","","","","null","<div style=""font-size:60px;"">+</div>","null","fixation","","","","","","","","","3","","",""
"revaluation","127","694098","0.0-4.0-2.0-0.2","spark_pilot_norest","8554","3","8","Male","","false","","","","","[702.8000000002794,291.20000000018626]","./assets/img/ocean/memory/17.jpg","[""ArrowUp"",""ArrowRight""]","value training","ocean","10","{""ArrowUp,ArrowLeft"":23,""ArrowUp,ArrowRight"":10,""ArrowDown,ArrowLeft"":8,""ArrowDown,ArrowRight"":30}","false","ArrowUp,ArrowRight","false","original","1","4","","",""
"html-keyboard-response","128","694603","0.0-4.0-2.0-1.2","spark_pilot_norest","8554","3","8","Male","","","","","","","null","<div style=""font-size:60px;"">+</div>","null","fixation","","","","","","","","","5","","",""
"revaluation","129","700633","0.0-4.0-2.0-0.3","spark_pilot_norest","8554","3","8","Male","","false","","","","","[85.70000000018626,397.89999999990687]","./assets/img/ocean/memory/31.jpg","[""ArrowDown"",""ArrowRight""]","value training","ocean","30","{""ArrowUp,ArrowLeft"":23,""ArrowUp,ArrowRight"":10,""ArrowDown,ArrowLeft"":8,""ArrowDown,ArrowRight"":30}","true","ArrowDown,ArrowRight","false","original","1","6","","",""
"html-keyboard-response","130","701137","0.0-4.0-2.0-1.3","spark_pilot_norest","8554","3","8","Male","","","","","","","null","<div style=""font-size:60px;"">+</div>","null","fixation","","","","","","","","","7","","",""
"revaluation","131","707170","0.0-4.0-2.0-0.4","spark_pilot_norest","8554","3","8","Male","","false","","","","","[115.8000000002794,712.1000000000931]","./assets/img/ocean/memory/4.jpg","[""ArrowUp"",""ArrowRight""]","value training","ocean","10","{""ArrowUp,ArrowLeft"":23,""ArrowUp,ArrowRight"":10,""ArrowDown,ArrowLeft"":8,""ArrowDown,ArrowRight"":30}","false","ArrowUp,ArrowRight","false","original","1","8","","",""
"html-keyboard-response","132","707673","0.0-4.0-2.0-1.4","spark_pilot_norest","8554","3","8","Male","","","","","","","null","<div style=""font-size:60px;"">+</div>","null","fixation","","","","","","","","","9","","",""
"revaluation","133","713706","0.0-4.0-2.0-0.5","spark_pilot_norest","8554","3","8","Male","","false","","","","","[273.10000000009313,631.2000000001863]","./assets/img/ocean/memory/35.jpg","[""ArrowDown"",""ArrowRight""]","value training","ocean","30","{""ArrowUp,ArrowLeft"":23,""ArrowUp,ArrowRight"":10,""ArrowDown,ArrowLeft"":8,""ArrowDown,ArrowRight"":30}","true","ArrowDown,ArrowRight","false","original","1","10","","",""
"html-keyboard-response","134","714209","0.0-4.0-2.0-1.5","spark_pilot_norest","8554","3","8","Male","","","","","","","null","<div style=""font-size:60px;"">+</div>","null","fixation","","","","","","","","","11","","",""
"revaluation","135","718226","0.0-4.0-2.0-0.6","spark_pilot_norest","8554","3","8","Male","","false","","","","","[1441.2000000001863]","./assets/img/ocean/catch/7.jpg","[""spaceBar""]","value training","ocean","0","{""ArrowUp,ArrowLeft"":23,""ArrowUp,ArrowRight"":10,""ArrowDown,ArrowLeft"":8,""ArrowDown,ArrowRight"":30}","true","spaceBar","true","original","1","12","","",""
"html-keyboard-response","136","718729","0.0-4.0-2.0-1.6","spark_pilot_norest","8554","3","8","Male","","","","","","","null","<div style=""font-size:60px;"">+</div>","null","fixation","","","","","","","","","13","","",""
"revaluation","137","722754","0.0-4.0-2.0-0.7","spark_pilot_norest","8554","3","8","Male","","false","","","","","[997.0999999996275]","./assets/img/ocean/catch/3.jpg","[""spaceBar""]","value training","ocean","0","{""ArrowUp,ArrowLeft"":23,""ArrowUp,ArrowRight"":10,""ArrowDown,ArrowLeft"":8,""ArrowDown,ArrowRight"":30}","true","spaceBar","true","original","1","14","","",""
"html-keyboard-response","138","723265","0.0-4.0-2.0-1.7","spark_pilot_norest","8554","3","8","Male","","","","","","","null","<div style=""font-size:60px;"">+</div>","null","fixation","","","","","","","","","15","","",""
"revaluation","139","729298","0.0-4.0-2.0-0.8","spark_pilot_norest","8554","3","8","Male","","false","","","","","[920.5,517.6999999997206]","./assets/img/ocean/memory/19.jpg","[""ArrowDown"",""ArrowRight""]","value training","ocean","30","{""ArrowUp,ArrowLeft"":23,""ArrowUp,ArrowRight"":10,""ArrowDown,ArrowLeft"":8,""ArrowDown,ArrowRight"":30}","true","ArrowDown,ArrowRight","false","original","1","16","","",""
"html-keyboard-response","140","729801","0.0-4.0-2.0-1.8","spark_pilot_norest","8554","3","8","Male","","","","","","","null","<div style=""font-size:60px;"">+</div>","null","fixation","","","","","","","","","17","","",""
"revaluation","141","735834","0.0-4.0-2.0-0.9","spark_pilot_norest","8554","3","8","Male","","false","","","","","[742.7000000001863,1223.3999999999069]","./assets/img/ocean/memory/4.jpg","[""ArrowDown"",""ArrowLeft""]","value training","ocean","8","{""ArrowUp,ArrowLeft"":23,""ArrowUp,ArrowRight"":10,""ArrowDown,ArrowLeft"":8,""ArrowDown,ArrowRight"":30}","false","ArrowDown,ArrowLeft","false","original","1","18","","",""
"html-keyboard-response","142","736337","0.0-4.0-2.0-1.9","spark_pilot_norest","8554","3","8","Male","","","","","","","null","<div style=""font-size:60px;"">+</div>","null","fixation","","","","","","","","","19","","",""
"revaluation","143","740361","0.0-4.0-2.0-0.10","spark_pilot_norest","8554","3","8","Male","","false","","","","","[252]","./assets/img/ocean/catch/1.jpg","[""ArrowUp""]","value training","ocean","-10","{""ArrowUp,ArrowLeft"":23,""ArrowUp,ArrowRight"":10,""ArrowDown,ArrowLeft"":8,""ArrowDown,ArrowRight"":30}","false","ArrowUp","true","original","1","20","","",""
"html-keyboard-response","144","740865","0.0-4.0-2.0-1.10","spark_pilot_norest","8554","3","8","Male","","","","","","","null","<div style=""font-size:60px;"">+</div>","null","fixation","","","","","","","","","21","","",""
"revaluation","145","744890","0.0-4.0-2.0-0.11","spark_pilot_norest","8554","3","8","Male","","true","","","","","[]","./assets/img/ocean/memory/7.jpg","[]","value training","ocean","-5","{""ArrowUp,ArrowLeft"":23,""ArrowUp,ArrowRight"":10,""ArrowDown,ArrowLeft"":8,""ArrowDown,ArrowRight"":30}","false","","false","original","1","22","","",""
"html-keyboard-response","146","745401","0.0-4.0-2.0-1.11","spark_pilot_norest","8554","3","8","Male","","","","","","","null","<div style=""font-size:60px;"">+</div>","null","fixation","","","","","","","","","23","","",""
"revaluation","147","751442","0.0-4.0-2.0-0.12","spark_pilot_norest","8554","3","8","Male","","false","","","","","[349.70000000018626,602.1999999997206]","./assets/img/ocean/memory/19.jpg","[""ArrowUp"",""ArrowRight""]","value training","ocean","10","{""ArrowUp,ArrowLeft"":23,""ArrowUp,ArrowRight"":10,""ArrowDown,ArrowLeft"":8,""ArrowDown,ArrowRight"":30}","false","ArrowUp,ArrowRight","false","original","1","24","","",""
"html-keyboard-response","148","751945","0.0-4.0-2.0-1.12","spark_pilot_norest","8554","3","8","Male","","","","","","","null","<div style=""font-size:60px;"">+</div>","null","fixation","","","","","","","","","25","","",""
"revaluation","149","757978","0.0-4.0-2.0-0.13","spark_pilot_norest","8554","3","8","Male","","false","","","","","[1403.7000000001863,994]","./assets/img/ocean/memory/27.jpg","[""ArrowUp"",""ArrowRight""]","value training","ocean","10","{""ArrowUp,ArrowLeft"":23,""ArrowUp,ArrowRight"":10,""ArrowDown,ArrowLeft"":8,""ArrowDown,ArrowRight"":30}","false","ArrowUp,ArrowRight","false","original","1","26","","",""
"html-keyboard-response","150","758489","0.0-4.0-2.0-1.13","spark_pilot_norest","8554","3","8","Male","","","","","","","null","<div style=""font-size:60px;"">+</div>","null","fixation","","","","","","","","","27","","",""
"revaluation","151","764521","0.0-4.0-2.0-0.14","spark_pilot_norest","8554","3","8","Male","","false","","","","","[632.2000000001863,1102.5]","./assets/img/ocean/memory/31.jpg","[""ArrowUp"",""ArrowLeft""]","value training","ocean","23","{""ArrowUp,ArrowLeft"":23,""ArrowUp,ArrowRight"":10,""ArrowDown,ArrowLeft"":8,""ArrowDown,ArrowRight"":30}","false","ArrowUp,ArrowLeft","false","original","1","28","","",""
"html-keyboard-response","152","765025","0.0-4.0-2.0-1.14","spark_pilot_norest","8554","3","8","Male","","","","","","","null","<div style=""font-size:60px;"">+</div>","null","fixation","","","","","","","","","29","","",""
"revaluation","153","771057","0.0-4.0-2.0-0.15","spark_pilot_norest","8554","3","8","Male","","false","","","","","[654,662.7000000001863]","./assets/img/ocean/memory/41.jpg","[""ArrowUp"",""ArrowLeft""]","value training","ocean","23","{""ArrowUp,ArrowLeft"":23,""ArrowUp,ArrowRight"":10,""ArrowDown,ArrowLeft"":8,""ArrowDown,ArrowRight"":30}","false","ArrowUp,ArrowLeft","false","original","1","30","","",""
"html-keyboard-response","154","771561","0.0-4.0-2.0-1.15","spark_pilot_norest","8554","3","8","Male","","","","","","","null","<div style=""font-size:60px;"">+</div>","null","fixation","","","","","","","","","31","","",""
"revaluation","155","777595","0.0-4.0-2.0-0.16","spark_pilot_norest","8554","3","8","Male","","false","","","","","[588.2999999998137,445.39999999990687]","./assets/img/ocean/memory/1.jpg","[""ArrowUp"",""ArrowLeft""]","value training","ocean","23","{""ArrowUp,ArrowLeft"":23,""ArrowUp,ArrowRight"":10,""ArrowDown,ArrowLeft"":8,""ArrowDown,ArrowRight"":30}","false","ArrowUp,ArrowLeft","false","original","1","32","","",""
"html-keyboard-response","156","778105","0.0-4.0-2.0-1.16","spark_pilot_norest","8554","3","8","Male","","","","","","","null","<div style=""font-size:60px;"">+</div>","null","fixation","","","","","","","","","33","","",""
"revaluation","157","784138","0.0-4.0-2.0-0.17","spark_pilot_norest","8554","3","8","Male","","false","","","","","[336.60000000009313,294.10000000009313]","./assets/img/ocean/memory/1.jpg","[""ArrowUp"",""ArrowLeft""]","value training","ocean","23","{""ArrowUp,ArrowLeft"":23,""ArrowUp,ArrowRight"":10,""ArrowDown,ArrowLeft"":8,""ArrowDown,ArrowRight"":30}","false","ArrowUp,ArrowLeft","false","original","1","34","","",""
"html-keyboard-response","158","784641","0.0-4.0-2.0-1.17","spark_pilot_norest","8554","3","8","Male","","","","","","","null","<div style=""font-size:60px;"">+</div>","null","fixation","","","","","","","","","35","","",""
"revaluation","159","790666","0.0-4.0-2.0-0.18","spark_pilot_norest","8554","3","8","Male","","false","","","","","[867.6000000000931,411]","./assets/img/ocean/memory/3.jpg","[""ArrowUp"",""ArrowLeft""]","value training","ocean","23","{""ArrowUp,ArrowLeft"":23,""ArrowUp,ArrowRight"":10,""ArrowDown,ArrowLeft"":8,""ArrowDown,ArrowRight"":30}","false","ArrowUp,ArrowLeft","false","original","1","36","","",""
"html-keyboard-response","160","791169","0.0-4.0-2.0-1.18","spark_pilot_norest","8554","3","8","Male","","","","","","","null","<div style=""font-size:60px;"">+</div>","null","fixation","","","","","","","","","37","","",""
"revaluation","161","797210","0.0-4.0-2.0-0.19","spark_pilot_norest","8554","3","8","Male","","false","","","","","[311.3000000002794,888.7000000001863]","./assets/img/ocean/memory/0.jpg","[""ArrowUp"",""ArrowLeft""]","value training","ocean","23","{""ArrowUp,ArrowLeft"":23,""ArrowUp,ArrowRight"":10,""ArrowDown,ArrowLeft"":8,""ArrowDown,ArrowRight"":30}","false","ArrowUp,ArrowLeft","false","original","1","38","","",""
"html-keyboard-response","162","797714","0.0-4.0-2.0-1.19","spark_pilot_norest","8554","3","8","Male","","","","","","","null","<div style=""font-size:60px;"">+</div>","null","fixation","","","","","","","","","39","","",""
"revaluation","163","803754","0.0-4.0-2.0-0.20","spark_pilot_norest","8554","3","8","Male","","false","","","","","[968.2000000001863,257.5]","./assets/img/ocean/memory/40.jpg","[""ArrowUp"",""ArrowLeft""]","value training","ocean","23","{""ArrowUp,ArrowLeft"":23,""ArrowUp,ArrowRight"":10,""ArrowDown,ArrowLeft"":8,""ArrowDown,ArrowRight"":30}","false","ArrowUp,ArrowLeft","false","original","1","40","","",""
"html-keyboard-response","164","804265","0.0-4.0-2.0-1.20","spark_pilot_norest","8554","3","8","Male","","","","","","","null","<div style=""font-size:60px;"">+</div>","null","fixation","","","","","","","","","41","","",""
"revaluation","165","808290","0.0-4.0-2.0-0.21","spark_pilot_norest","8554","3","8","Male","","false","","","","","[525.3000000002794]","./assets/img/ocean/catch/4.jpg","[""ArrowDown""]","value training","ocean","-10","{""ArrowUp,ArrowLeft"":23,""ArrowUp,ArrowRight"":10,""ArrowDown,ArrowLeft"":8,""ArrowDown,ArrowRight"":30}","false","ArrowDown","true","original","1","42","","",""
"html-keyboard-response","166","808801","0.0-4.0-2.0-1.21","spark_pilot_norest","8554","3","8","Male","","","","","","","null","<div style=""font-size:60px;"">+</div>","null","fixation","","","","","","","","","43","","",""
"revaluation","167","814842","0.0-4.0-2.0-0.22","spark_pilot_norest","8554","3","8","Male","","false","","","","","[1058.8000000002794,524.1999999997206]","./assets/img/ocean/memory/21.jpg","[""ArrowDown"",""ArrowRight""]","value training","ocean","30","{""ArrowUp,ArrowLeft"":23,""ArrowUp,ArrowRight"":10,""ArrowDown,ArrowLeft"":8,""ArrowDown,ArrowRight"":30}","true","ArrowDown,ArrowRight","false","original","1","44","","",""
"html-keyboard-response","168","815345","0.0-4.0-2.0-1.22","spark_pilot_norest","8554","3","8","Male","","","","","","","null","<div style=""font-size:60px;"">+</div>","null","fixation","","","","","","","","","45","","",""
"revaluation","169","821378","0.0-4.0-2.0-0.23","spark_pilot_norest","8554","3","8","Male","","false","","","","","[636.2000000001863,618.2999999998137]","./assets/img/ocean/memory/8.jpg","[""ArrowDown"",""ArrowRight""]","value training","ocean","30","{""ArrowUp,ArrowLeft"":23,""ArrowUp,ArrowRight"":10,""ArrowDown,ArrowLeft"":8,""ArrowDown,ArrowRight"":30}","true","ArrowDown,ArrowRight","false","original","1","46","","",""
"html-keyboard-response","170","821881","0.0-4.0-2.0-1.23","spark_pilot_norest","8554","3","8","Male","","","","","","","null","<div style=""font-size:60px;"">+</div>","null","fixation","","","","","","","","","47","","",""
"revaluation","171","827914","0.0-4.0-2.0-0.24","spark_pilot_norest","8554","3","8","Male","","false","","","","","[1237.2000000001863,761.2999999998137]","./assets/img/ocean/memory/33.jpg","[""ArrowUp"",""ArrowRight""]","value training","ocean","10","{""ArrowUp,ArrowLeft"":23,""ArrowUp,ArrowRight"":10,""ArrowDown,ArrowLeft"":8,""ArrowDown,ArrowRight"":30}","false","ArrowUp,ArrowRight","false","original","1","48","","",""
"html-keyboard-response","172","828417","0.0-4.0-2.0-1.24","spark_pilot_norest","8554","3","8","Male","","","","","","","null","<div style=""font-size:60px;"">+</div>","null","fixation","","","","","","","","","49","","",""
"revaluation","173","834459","0.0-4.0-2.0-0.25","spark_pilot_norest","8554","3","8","Male","","false","","","","","[824.6000000000931,530.6000000000931]","./assets/img/ocean/memory/3.jpg","[""ArrowUp"",""ArrowLeft""]","value training","ocean","23","{""ArrowUp,ArrowLeft"":23,""ArrowUp,ArrowRight"":10,""ArrowDown,ArrowLeft"":8,""ArrowDown,ArrowRight"":30}","false","ArrowUp,ArrowLeft","false","original","1","50","","",""
"html-keyboard-response","174","834969","0.0-4.0-2.0-1.25","spark_pilot_norest","8554","3","8","Male","","","","","","","null","<div style=""font-size:60px;"">+</div>","null","fixation","","","","","","","","","51","","",""
"revaluation","175","841002","0.0-4.0-2.0-0.26","spark_pilot_norest","8554","3","8","Male","","false","","","","","[431.5,281.60000000009313]","./assets/img/ocean/memory/5.jpg","[""ArrowDown"",""ArrowRight""]","value training","ocean","30","{""ArrowUp,ArrowLeft"":23,""ArrowUp,ArrowRight"":10,""ArrowDown,ArrowLeft"":8,""ArrowDown,ArrowRight"":30}","true","ArrowDown,ArrowRight","false","original","1","52","","",""
"html-keyboard-response","176","841505","0.0-4.0-2.0-1.26","spark_pilot_norest","8554","3","8","Male","","","","","","","null","<div style=""font-size:60px;"">+</div>","null","fixation","","","","","","","","","53","","",""
"revaluation","177","847546","0.0-4.0-2.0-0.27","spark_pilot_norest","8554","3","8","Male","","false","","","","","[520.8000000002794,314.60000000009313]","./assets/img/ocean/memory/35.jpg","[""ArrowDown"",""ArrowRight""]","value training","ocean","30","{""ArrowUp,ArrowLeft"":23,""ArrowUp,ArrowRight"":10,""ArrowDown,ArrowLeft"":8,""ArrowDown,ArrowRight"":30}","true","ArrowDown,ArrowRight","false","original","1","54","","",""
"html-keyboard-response","178","848057","0.0-4.0-2.0-1.27","spark_pilot_norest","8554","3","8","Male","","","","","","","null","<div style=""font-size:60px;"">+</div>","null","fixation","","","","","","","","","55","","",""
"revaluation","179","854091","0.0-4.0-2.0-0.28","spark_pilot_norest","8554","3","8","Male","","false","","","","","[487.6999999997206,485.89999999990687]","./assets/img/ocean/memory/25.jpg","[""ArrowUp"",""ArrowRight""]","value training","ocean","10","{""ArrowUp,ArrowLeft"":23,""ArrowUp,ArrowRight"":10,""ArrowDown,ArrowLeft"":8,""ArrowDown,ArrowRight"":30}","false","ArrowUp,ArrowRight","false","original","1","56","","",""
"html-keyboard-response","180","854601","0.0-4.0-2.0-1.28","spark_pilot_norest","8554","3","8","Male","","","","","","","null","<div style=""font-size:60px;"">+</div>","null","fixation","","","","","","","","","57","","",""
"revaluation","181","860634","0.0-4.0-2.0-0.29","spark_pilot_norest","8554","3","8","Male","","false","","","","","[654.5999999996275,510.70000000018626]","./assets/img/ocean/memory/30.jpg","[""ArrowUp"",""ArrowLeft""]","value training","ocean","23","{""ArrowUp,ArrowLeft"":23,""ArrowUp,ArrowRight"":10,""ArrowDown,ArrowLeft"":8,""ArrowDown,ArrowRight"":30}","false","ArrowUp,ArrowLeft","false","original","1","58","","",""
"html-keyboard-response","182","861145","0.0-4.0-2.0-1.29","spark_pilot_norest","8554","3","8","Male","","","","","","","null","<div style=""font-size:60px;"">+</div>","null","fixation","","","","","","","","","59","","",""
"revaluation","183","867178","0.0-4.0-2.0-0.30","spark_pilot_norest","8554","3","8","Male","","false","","","","","[481.1999999997206,865.1000000000931]","./assets/img/ocean/memory/9.jpg","[""ArrowDown"",""ArrowLeft""]","value training","ocean","8","{""ArrowUp,ArrowLeft"":23,""ArrowUp,ArrowRight"":10,""ArrowDown,ArrowLeft"":8,""ArrowDown,ArrowRight"":30}","false","ArrowDown,ArrowLeft","false","original","1","60","","",""
"html-keyboard-response","184","867681","0.0-4.0-2.0-1.30","spark_pilot_norest","8554","3","8","Male","","","","","","","null","<div style=""font-size:60px;"">+</div>","null","fixation","","","","","","","","","61","","",""
"revaluation","185","873722","0.0-4.0-2.0-0.31","spark_pilot_norest","8554","3","8","Male","","false","","","","","[207.90000000037253,533.8999999999069]","./assets/img/ocean/memory/21.jpg","[""ArrowDown"",""ArrowRight""]","value training","ocean","30","{""ArrowUp,ArrowLeft"":23,""ArrowUp,ArrowRight"":10,""ArrowDown,ArrowLeft"":8,""ArrowDown,ArrowRight"":30}","true","ArrowDown,ArrowRight","false","original","1","62","","",""
"html-keyboard-response","186","874225","0.0-4.0-2.0-1.31","spark_pilot_norest","8554","3","8","Male","","","","","","","null","<div style=""font-size:60px;"">+</div>","null","fixation","","","","","","","","","63","","",""
"revaluation","187","880266","0.0-4.0-2.0-0.32","spark_pilot_norest","8554","3","8","Male","","false","","","","","[697.5,393.89999999990687]","./assets/img/ocean/memory/36.jpg","[""ArrowDown"",""ArrowLeft""]","value training","ocean","8","{""ArrowUp,ArrowLeft"":23,""ArrowUp,ArrowRight"":10,""ArrowDown,ArrowLeft"":8,""ArrowDown,ArrowRight"":30}","false","ArrowDown,ArrowLeft","false","original","1","64","","",""
"html-keyboard-response","188","880769","0.0-4.0-2.0-1.32","spark_pilot_norest","8554","3","8","Male","","","","","","","null","<div style=""font-size:60px;"">+</div>","null","fixation","","","","","","","","","65","","",""
"revaluation","189","886810","0.0-4.0-2.0-0.33","spark_pilot_norest","8554","3","8","Male","","false","","","","","[708.7000000001863,303.5]","./assets/img/ocean/memory/8.jpg","[""ArrowUp"",""ArrowLeft""]","value training","ocean","23","{""ArrowUp,ArrowLeft"":23,""ArrowUp,ArrowRight"":10,""ArrowDown,ArrowLeft"":8,""ArrowDown,ArrowRight"":30}","false","ArrowUp,ArrowLeft","false","original","1","66","","",""
"html-keyboard-response","190","887313","0.0-4.0-2.0-1.33","spark_pilot_norest","8554","3","8","Male","","","","","","","null","<div style=""font-size:60px;"">+</div>","null","fixation","","","","","","","","","67","","",""
"revaluation","191","893346","0.0-4.0-2.0-0.34","spark_pilot_norest","8554","3","8","Male","","false","","","","","[1037.2000000001863,307]","./assets/img/ocean/memory/27.jpg","[""ArrowDown"",""ArrowLeft""]","value training","ocean","8","{""ArrowUp,ArrowLeft"":23,""ArrowUp,ArrowRight"":10,""ArrowDown,ArrowLeft"":8,""ArrowDown,ArrowRight"":30}","false","ArrowDown,ArrowLeft","false","original","1","68","","",""
"html-keyboard-response","192","893857","0.0-4.0-2.0-1.34","spark_pilot_norest","8554","3","8","Male","","","","","","","null","<div style=""font-size:60px;"">+</div>","null","fixation","","","","","","","","","69","","",""
"revaluation","193","897881","0.0-4.0-2.0-0.35","spark_pilot_norest","8554","3","8","Male","","false","","","","","[901]","./assets/img/ocean/catch/2.jpg","[""ArrowUp""]","value training","ocean","-10","{""ArrowUp,ArrowLeft"":23,""ArrowUp,ArrowRight"":10,""ArrowDown,ArrowLeft"":8,""ArrowDown,ArrowRight"":30}","false","ArrowUp","true","original","1","70","","",""
"html-keyboard-response","194","898385","0.0-4.0-2.0-1.35","spark_pilot_norest","8554","3","8","Male","","","","","","","null","<div style=""font-size:60px;"">+</div>","null","fixation","","","","","","","","","71","","",""
"revaluation","195","904418","0.0-4.0-2.0-0.36","spark_pilot_norest","8554","3","8","Male","","false","","","","","[657.5,326.70000000018626]","./assets/img/ocean/memory/41.jpg","[""ArrowDown"",""ArrowLeft""]","value training","ocean","8","{""ArrowUp,ArrowLeft"":23,""ArrowUp,ArrowRight"":10,""ArrowDown,ArrowLeft"":8,""ArrowDown,ArrowRight"":30}","false","ArrowDown,ArrowLeft","false","original","1","72","","",""
"html-keyboard-response","196","904921","0.0-4.0-2.0-1.36","spark_pilot_norest","8554","3","8","Male","","","","","","","null","<div style=""font-size:60px;"">+</div>","null","fixation","","","","","","","","","73","","",""
"revaluation","197","910954","0.0-4.0-2.0-0.37","spark_pilot_norest","8554","3","8","Male","","false","","","","","[618.9000000003725,1038.7000000001863]","./assets/img/ocean/memory/7.jpg","[""ArrowDown"",""ArrowRight""]","value training","ocean","30","{""ArrowUp,ArrowLeft"":23,""ArrowUp,ArrowRight"":10,""ArrowDown,ArrowLeft"":8,""ArrowDown,ArrowRight"":30}","true","ArrowDown,ArrowRight","false","original","1","74","","",""
"html-keyboard-response","198","911465","0.0-4.0-2.0-1.37","spark_pilot_norest","8554","3","8","Male","","","","","","","null","<div style=""font-size:60px;"">+</div>","null","fixation","","","","","","","","","75","","",""
"revaluation","199","915490","0.0-4.0-2.0-0.38","spark_pilot_norest","8554","3","8","Male","","false","","","","","[414]","./assets/img/ocean/catch/6.jpg","[""ArrowDown""]","value training","ocean","-10","{""ArrowUp,ArrowLeft"":23,""ArrowUp,ArrowRight"":10,""ArrowDown,ArrowLeft"":8,""ArrowDown,ArrowRight"":30}","false","ArrowDown","true","original","1","76","","",""
"html-keyboard-response","200","915993","0.0-4.0-2.0-1.38","spark_pilot_norest","8554","3","8","Male","","","","","","","null","<div style=""font-size:60px;"">+</div>","null","fixation","","","","","","","","","77","","",""
"revaluation","201","922034","0.0-4.0-2.0-0.39","spark_pilot_norest","8554","3","8","Male","","true","","","","","[706.5]","./assets/img/ocean/memory/17.jpg","[""ArrowUp""]","value training","ocean","-5","{""ArrowUp,ArrowLeft"":23,""ArrowUp,ArrowRight"":10,""ArrowDown,ArrowLeft"":8,""ArrowDown,ArrowRight"":30}","false","ArrowUp","false","original","1","78","","",""
"html-keyboard-response","202","922545","0.0-4.0-2.0-1.39","spark_pilot_norest","8554","3","8","Male","","","","","","","null","<div style=""font-size:60px;"">+</div>","null","fixation","","","","","","","","","79","","",""
"revaluation","203","928570","0.0-4.0-2.0-0.40","spark_pilot_norest","8554","3","8","Male","","false","","","","","[837.7999999998137,224.5]","./assets/img/ocean/memory/9.jpg","[""ArrowDown"",""ArrowRight""]","value training","ocean","30","{""ArrowUp,ArrowLeft"":23,""ArrowUp,ArrowRight"":10,""ArrowDown,ArrowLeft"":8,""ArrowDown,ArrowRight"":30}","true","ArrowDown,ArrowRight","false","original","1","80","","",""
"html-keyboard-response","204","929073","0.0-4.0-2.0-1.40","spark_pilot_norest","8554","3","8","Male","","","","","","","null","<div style=""font-size:60px;"">+</div>","null","fixation","","","","","","","","","81","","",""
"revaluation","205","935106","0.0-4.0-2.0-0.41","spark_pilot_norest","8554","3","8","Male","","false","","","","","[1122.8000000002794,1025.5]","./assets/img/ocean/memory/25.jpg","[""ArrowUp"",""ArrowRight""]","value training","ocean","10","{""ArrowUp,ArrowLeft"":23,""ArrowUp,ArrowRight"":10,""ArrowDown,ArrowLeft"":8,""ArrowDown,ArrowRight"":30}","false","ArrowUp,ArrowRight","false","original","1","82","","",""
"html-keyboard-response","206","935609","0.0-4.0-2.0-1.41","spark_pilot_norest","8554","3","8","Male","","","","","","","null","<div style=""font-size:60px;"">+</div>","null","fixation","","","","","","","","","83","","",""
"revaluation","207","941658","0.0-4.0-2.0-0.42","spark_pilot_norest","8554","3","8","Male","","false","","","","","[859.3000000002794,287.29999999981374]","./assets/img/ocean/memory/12.jpg","[""ArrowUp"",""ArrowLeft""]","value training","ocean","23","{""ArrowUp,ArrowLeft"":23,""ArrowUp,ArrowRight"":10,""ArrowDown,ArrowLeft"":8,""ArrowDown,ArrowRight"":30}","false","ArrowUp,ArrowLeft","false","original","1","84","","",""
"html-keyboard-response","208","942161","0.0-4.0-2.0-1.42","spark_pilot_norest","8554","3","8","Male","","","","","","","null","<div style=""font-size:60px;"">+</div>","null","fixation","","","","","","","","","85","","",""
"revaluation","209","948195","0.0-4.0-2.0-0.43","spark_pilot_norest","8554","3","8","Male","","false","","","","","[721,610]","./assets/img/ocean/memory/0.jpg","[""ArrowUp"",""ArrowRight""]","value training","ocean","10","{""ArrowUp,ArrowLeft"":23,""ArrowUp,ArrowRight"":10,""ArrowDown,ArrowLeft"":8,""ArrowDown,ArrowRight"":30}","false","ArrowUp,ArrowRight","false","original","1","86","","",""
"html-keyboard-response","210","948705","0.0-4.0-2.0-1.43","spark_pilot_norest","8554","3","8","Male","","","","","","","null","<div style=""font-size:60px;"">+</div>","null","fixation","","","","","","","","","87","","",""
"revaluation","211","954738","0.0-4.0-2.0-0.44","spark_pilot_norest","8554","3","8","Male","","false","","","","","[885.1999999997206,708.8999999999069]","./assets/img/ocean/memory/12.jpg","[""ArrowUp"",""ArrowLeft""]","value training","ocean","23","{""ArrowUp,ArrowLeft"":23,""ArrowUp,ArrowRight"":10,""ArrowDown,ArrowLeft"":8,""ArrowDown,ArrowRight"":30}","false","ArrowUp,ArrowLeft","false","original","1","88","","",""
"html-keyboard-response","212","955249","0.0-4.0-2.0-1.44","spark_pilot_norest","8554","3","8","Male","","","","","","","null","<div style=""font-size:60px;"">+</div>","null","fixation","","","","","","","","","89","","",""
"revaluation","213","959273","0.0-4.0-2.0-0.45","spark_pilot_norest","8554","3","8","Male","","false","","","","","[372.20000000018626]","./assets/img/ocean/catch/0.jpg","[""ArrowDown""]","value training","ocean","-10","{""ArrowUp,ArrowLeft"":23,""ArrowUp,ArrowRight"":10,""ArrowDown,ArrowLeft"":8,""ArrowDown,ArrowRight"":30}","false","ArrowDown","true","original","1","90","","",""
"html-keyboard-response","214","959777","0.0-4.0-2.0-1.45","spark_pilot_norest","8554","3","8","Male","","","","","","","null","<div style=""font-size:60px;"">+</div>","null","fixation","","","","","","","","","91","","",""
"revaluation","215","965810","0.0-4.0-2.0-0.46","spark_pilot_norest","8554","3","8","Male","","false","","","","","[652.7000000001863,623.7999999998137]","./assets/img/ocean/memory/36.jpg","[""ArrowUp"",""ArrowLeft""]","value training","ocean","23","{""ArrowUp,ArrowLeft"":23,""ArrowUp,ArrowRight"":10,""ArrowDown,ArrowLeft"":8,""ArrowDown,ArrowRight"":30}","false","ArrowUp,ArrowLeft","false","original","1","92","","",""
"html-keyboard-response","216","966313","0.0-4.0-2.0-1.46","spark_pilot_norest","8554","3","8","Male","","","","","","","null","<div style=""font-size:60px;"">+</div>","null","fixation","","","","","","","","","93","","",""
"revaluation","217","972354","0.0-4.0-2.0-0.47","spark_pilot_norest","8554","3","8","Male","","false","","","","","[585.5999999996275,263.39999999990687]","./assets/img/ocean/memory/40.jpg","[""ArrowUp"",""ArrowLeft""]","value training","ocean","23","{""ArrowUp,ArrowLeft"":23,""ArrowUp,ArrowRight"":10,""ArrowDown,ArrowLeft"":8,""ArrowDown,ArrowRight"":30}","false","ArrowUp,ArrowLeft","false","original","1","94","","",""
"html-keyboard-response","218","972857","0.0-4.0-2.0-1.47","spark_pilot_norest","8554","3","8","Male","","","","","","","null","<div style=""font-size:60px;"">+</div>","null","fixation","","","","","","","","","95","","",""
"revaluation","219","978898","0.0-4.0-2.0-0.48","spark_pilot_norest","8554","3","8","Male","","false","","","","","[496.40000000037253,354.10000000009313]","./assets/img/ocean/memory/5.jpg","[""ArrowDown"",""ArrowRight""]","value training","ocean","30","{""ArrowUp,ArrowLeft"":23,""ArrowUp,ArrowRight"":10,""ArrowDown,ArrowLeft"":8,""ArrowDown,ArrowRight"":30}","true","ArrowDown,ArrowRight","false","original","1","96","","",""
"html-keyboard-response","220","979409","0.0-4.0-2.0-1.48","spark_pilot_norest","8554","3","8","Male","","","","","","","null","<div style=""font-size:60px;"">+</div>","null","fixation","","","","","","","","","97","","",""
"revaluation","221","985442","0.0-4.0-2.0-0.49","spark_pilot_norest","8554","3","8","Male","","false","","","","","[747.5,356.79999999981374]","./assets/img/ocean/memory/33.jpg","[""ArrowUp"",""ArrowRight""]","value training","ocean","10","{""ArrowUp,ArrowLeft"":23,""ArrowUp,ArrowRight"":10,""ArrowDown,ArrowLeft"":8,""ArrowDown,ArrowRight"":30}","false","ArrowUp,ArrowRight","false","original","1","98","","",""
"html-keyboard-response","222","985945","0.0-4.0-2.0-1.49","spark_pilot_norest","8554","3","8","Male","","","","","","","null","<div style=""font-size:60px;"">+</div>","null","fixation","","","","","","","","","99","","",""
"learning-instructions","223","1000451","0.0-4.0-3.0-0.0","spark_pilot_norest","8554","3","8","Male","","","","","","","889.1999999997206","<p> Now, you will travel with a friend who will choose whether you go up or down first. </p>
            <p> On these turns, you will just see the animal that they found. You will still get to choose which chest to search for treasure.</p>","","instructions","","","","","","","","","","","",""
"revaluation","224","1004474","0.0-4.0-4.0-0.0","spark_pilot_norest","8554","3","8","Male","","false","","","","","[885.1000000000931]","./assets/img/ocean/animals/octopus.jpg","[""ArrowLeft""]","revaluation","ocean","23","{""ArrowUp,ArrowLeft"":23,""ArrowUp,ArrowRight"":10,""ArrowDown,ArrowLeft"":8,""ArrowDown,ArrowRight"":30}","true","ArrowUp,ArrowLeft","","original","1","0","","",""
"html-keyboard-response","225","1004985","0.0-4.0-4.0-1.0","spark_pilot_norest","8554","3","8","Male","","","","","","","null","<div style=""font-size:60px;"">+</div>","null","fixation","","","","","","","","","1","","",""
"revaluation","226","1009010","0.0-4.0-4.0-0.1","spark_pilot_norest","8554","3","8","Male","","false","","","","","[330.3000000002794]","./assets/img/ocean/animals/seahorse.jpg","[""ArrowRight""]","revaluation","ocean","30","{""ArrowUp,ArrowLeft"":23,""ArrowUp,ArrowRight"":10,""ArrowDown,ArrowLeft"":8,""ArrowDown,ArrowRight"":30}","true","ArrowDown,ArrowRight","","original","1","2","","",""
"html-keyboard-response","227","1009513","0.0-4.0-4.0-1.1","spark_pilot_norest","8554","3","8","Male","","","","","","","null","<div style=""font-size:60px;"">+</div>","null","fixation","","","","","","","","","3","","",""
"revaluation","228","1013530","0.0-4.0-4.0-0.2","spark_pilot_norest","8554","3","8","Male","","false","","","","","[473.29999999981374]","./assets/img/ocean/animals/seahorse.jpg","[""ArrowRight""]","revaluation","ocean","30","{""ArrowUp,ArrowLeft"":23,""ArrowUp,ArrowRight"":10,""ArrowDown,ArrowLeft"":8,""ArrowDown,ArrowRight"":30}","true","ArrowDown,ArrowRight","","original","1","4","","",""
"html-keyboard-response","229","1014033","0.0-4.0-4.0-1.2","spark_pilot_norest","8554","3","8","Male","","","","","","","null","<div style=""font-size:60px;"">+</div>","null","fixation","","","","","","","","","5","","",""
"revaluation","230","1018050","0.0-4.0-4.0-0.3","spark_pilot_norest","8554","3","8","Male","","false","","","","","[328.10000000009313]","./assets/img/ocean/animals/seahorse.jpg","[""ArrowRight""]","revaluation","ocean","30","{""ArrowUp,ArrowLeft"":23,""ArrowUp,ArrowRight"":10,""ArrowDown,ArrowLeft"":8,""ArrowDown,ArrowRight"":30}","true","ArrowDown,ArrowRight","","original","1","6","","",""
"html-keyboard-response","231","1018561","0.0-4.0-4.0-1.3","spark_pilot_norest","8554","3","8","Male","","","","","","","null","<div style=""font-size:60px;"">+</div>","null","fixation","","","","","","","","","7","","",""
"revaluation","232","1022586","0.0-4.0-4.0-0.4","spark_pilot_norest","8554","3","8","Male","","false","","","","","[583.1999999997206]","./assets/img/ocean/animals/octopus.jpg","[""ArrowLeft""]","revaluation","ocean","23","{""ArrowUp,ArrowLeft"":23,""ArrowUp,ArrowRight"":10,""ArrowDown,ArrowLeft"":8,""ArrowDown,ArrowRight"":30}","true","ArrowUp,ArrowLeft","","original","1","8","","",""
"html-keyboard-response","233","1023089","0.0-4.0-4.0-1.4","spark_pilot_norest","8554","3","8","Male","","","","","","","null","<div style=""font-size:60px;"">+</div>","null","fixation","","","","","","","","","9","","",""
"revaluation","234","1027113","0.0-4.0-4.0-0.5","spark_pilot_norest","8554","3","8","Male","","false","","","","","[407.6999999997206]","./assets/img/ocean/animals/seahorse.jpg","[""ArrowRight""]","revaluation","ocean","30","{""ArrowUp,ArrowLeft"":23,""ArrowUp,ArrowRight"":10,""ArrowDown,ArrowLeft"":8,""ArrowDown,ArrowRight"":30}","true","ArrowDown,ArrowRight","","original","1","10","","",""
"html-keyboard-response","235","1027617","0.0-4.0-4.0-1.5","spark_pilot_norest","8554","3","8","Male","","","","","","","null","<div style=""font-size:60px;"">+</div>","null","fixation","","","","","","","","","11","","",""
"revaluation","236","1031642","0.0-4.0-4.0-0.6","spark_pilot_norest","8554","3","8","Male","","false","","","","","[816.3000000002794]","./assets/img/ocean/animals/octopus.jpg","[""ArrowLeft""]","revaluation","ocean","23","{""ArrowUp,ArrowLeft"":23,""ArrowUp,ArrowRight"":10,""ArrowDown,ArrowLeft"":8,""ArrowDown,ArrowRight"":30}","true","ArrowUp,ArrowLeft","","original","1","12","","",""
"html-keyboard-response","237","1032153","0.0-4.0-4.0-1.6","spark_pilot_norest","8554","3","8","Male","","","","","","","null","<div style=""font-size:60px;"">+</div>","null","fixation","","","","","","","","","13","","",""
"revaluation","238","1036186","0.0-4.0-4.0-0.7","spark_pilot_norest","8554","3","8","Male","","false","","","","","[772.2000000001863]","./assets/img/ocean/animals/seahorse.jpg","[""ArrowRight""]","revaluation","ocean","30","{""ArrowUp,ArrowLeft"":23,""ArrowUp,ArrowRight"":10,""ArrowDown,ArrowLeft"":8,""ArrowDown,ArrowRight"":30}","true","ArrowDown,ArrowRight","","original","1","14","","",""
"html-keyboard-response","239","1036697","0.0-4.0-4.0-1.7","spark_pilot_norest","8554","3","8","Male","","","","","","","null","<div style=""font-size:60px;"">+</div>","null","fixation","","","","","","","","","15","","",""
"revaluation","240","1040731","0.0-4.0-4.0-0.8","spark_pilot_norest","8554","3","8","Male","","false","","","","","[698.8999999999069]","./assets/img/ocean/animals/seahorse.jpg","[""ArrowRight""]","revaluation","ocean","30","{""ArrowUp,ArrowLeft"":23,""ArrowUp,ArrowRight"":10,""ArrowDown,ArrowLeft"":8,""ArrowDown,ArrowRight"":30}","true","ArrowDown,ArrowRight","","original","1","16","","",""
"html-keyboard-response","241","1041241","0.0-4.0-4.0-1.8","spark_pilot_norest","8554","3","8","Male","","","","","","","null","<div style=""font-size:60px;"">+</div>","null","fixation","","","","","","","","","17","","",""
"revaluation","242","1045282","0.0-4.0-4.0-0.9","spark_pilot_norest","8554","3","8","Male","","false","","","","","[898.6000000000931]","./assets/img/ocean/animals/seahorse.jpg","[""ArrowRight""]","revaluation","ocean","30","{""ArrowUp,ArrowLeft"":23,""ArrowUp,ArrowRight"":10,""ArrowDown,ArrowLeft"":8,""ArrowDown,ArrowRight"":30}","true","ArrowDown,ArrowRight","","original","1","18","","",""
"html-keyboard-response","243","1045785","0.0-4.0-4.0-1.9","spark_pilot_norest","8554","3","8","Male","","","","","","","null","<div style=""font-size:60px;"">+</div>","null","fixation","","","","","","","","","19","","",""
"revaluation","244","1049818","0.0-4.0-4.0-0.10","spark_pilot_norest","8554","3","8","Male","","false","","","","","[383.8000000002794]","./assets/img/ocean/animals/seahorse.jpg","[""ArrowRight""]","revaluation","ocean","30","{""ArrowUp,ArrowLeft"":23,""ArrowUp,ArrowRight"":10,""ArrowDown,ArrowLeft"":8,""ArrowDown,ArrowRight"":30}","true","ArrowDown,ArrowRight","","original","1","20","","",""
"html-keyboard-response","245","1050329","0.0-4.0-4.0-1.10","spark_pilot_norest","8554","3","8","Male","","","","","","","null","<div style=""font-size:60px;"">+</div>","null","fixation","","","","","","","","","21","","",""
"revaluation","246","1054378","0.0-4.0-4.0-0.11","spark_pilot_norest","8554","3","8","Male","","true","","","","","[]","./assets/img/ocean/animals/octopus.jpg","[]","revaluation","ocean","-5","{""ArrowUp,ArrowLeft"":23,""ArrowUp,ArrowRight"":10,""ArrowDown,ArrowLeft"":8,""ArrowDown,ArrowRight"":30}","false","ArrowUp","","original","1","22","","",""
"html-keyboard-response","247","1054889","0.0-4.0-4.0-1.11","spark_pilot_norest","8554","3","8","Male","","","","","","","null","<div style=""font-size:60px;"">+</div>","null","fixation","","","","","","","","","23","","",""
"revaluation","248","1058914","0.0-4.0-4.0-0.12","spark_pilot_norest","8554","3","8","Male","","false","","","","","[349.10000000009313]","./assets/img/ocean/animals/octopus.jpg","[""ArrowLeft""]","revaluation","ocean","23","{""ArrowUp,ArrowLeft"":23,""ArrowUp,ArrowRight"":10,""ArrowDown,ArrowLeft"":8,""ArrowDown,ArrowRight"":30}","true","ArrowUp,ArrowLeft","","original","1","24","","",""
"html-keyboard-response","249","1059417","0.0-4.0-4.0-1.12","spark_pilot_norest","8554","3","8","Male","","","","","","","null","<div style=""font-size:60px;"">+</div>","null","fixation","","","","","","","","","25","","",""
"revaluation","250","1063442","0.0-4.0-4.0-0.13","spark_pilot_norest","8554","3","8","Male","","false","","","","","[483.3000000002794]","./assets/img/ocean/animals/octopus.jpg","[""ArrowLeft""]","revaluation","ocean","23","{""ArrowUp,ArrowLeft"":23,""ArrowUp,ArrowRight"":10,""ArrowDown,ArrowLeft"":8,""ArrowDown,ArrowRight"":30}","true","ArrowUp,ArrowLeft","","original","1","26","","",""
"html-keyboard-response","251","1063945","0.0-4.0-4.0-1.13","spark_pilot_norest","8554","3","8","Male","","","","","","","null","<div style=""font-size:60px;"">+</div>","null","fixation","","","","","","","","","27","","",""
"revaluation","252","1067970","0.0-4.0-4.0-0.14","spark_pilot_norest","8554","3","8","Male","","false","","","","","[1943.7999999998137]","./assets/img/ocean/animals/octopus.jpg","[""ArrowLeft""]","revaluation","ocean","23","{""ArrowUp,ArrowLeft"":23,""ArrowUp,ArrowRight"":10,""ArrowDown,ArrowLeft"":8,""ArrowDown,ArrowRight"":30}","true","ArrowUp,ArrowLeft","","original","1","28","","",""
"html-keyboard-response","253","1068473","0.0-4.0-4.0-1.14","spark_pilot_norest","8554","3","8","Male","","","","","","","null","<div style=""font-size:60px;"">+</div>","null","fixation","","","","","","","","","29","","",""
"revaluation","254","1072499","0.0-4.0-4.0-0.15","spark_pilot_norest","8554","3","8","Male","","false","","","","","[417.79999999981374]","./assets/img/ocean/animals/seahorse.jpg","[""ArrowRight""]","revaluation","ocean","30","{""ArrowUp,ArrowLeft"":23,""ArrowUp,ArrowRight"":10,""ArrowDown,ArrowLeft"":8,""ArrowDown,ArrowRight"":30}","true","ArrowDown,ArrowRight","","original","1","30","","",""
"html-keyboard-response","255","1073009","0.0-4.0-4.0-1.15","spark_pilot_norest","8554","3","8","Male","","","","","","","null","<div style=""font-size:60px;"">+</div>","null","fixation","","","","","","","","","31","","",""
"revaluation","256","1077042","0.0-4.0-4.0-0.16","spark_pilot_norest","8554","3","8","Male","","false","","","","","[290.8000000002794]","./assets/img/ocean/animals/octopus.jpg","[""ArrowRight""]","revaluation","ocean","10","{""ArrowUp,ArrowLeft"":23,""ArrowUp,ArrowRight"":10,""ArrowDown,ArrowLeft"":8,""ArrowDown,ArrowRight"":30}","false","ArrowUp,ArrowRight","","original","1","32","","",""
"html-keyboard-response","257","1077546","0.0-4.0-4.0-1.16","spark_pilot_norest","8554","3","8","Male","","","","","","","null","<div style=""font-size:60px;"">+</div>","null","fixation","","","","","","","","","33","","",""
"revaluation","258","1081570","0.0-4.0-4.0-0.17","spark_pilot_norest","8554","3","8","Male","","false","","","","","[29]","./assets/img/ocean/animals/octopus.jpg","[""ArrowLeft""]","revaluation","ocean","23","{""ArrowUp,ArrowLeft"":23,""ArrowUp,ArrowRight"":10,""ArrowDown,ArrowLeft"":8,""ArrowDown,ArrowRight"":30}","true","ArrowUp,ArrowLeft","","original","1","34","","",""
"html-keyboard-response","259","1082073","0.0-4.0-4.0-1.17","spark_pilot_norest","8554","3","8","Male","","","","","","","null","<div style=""font-size:60px;"">+</div>","null","fixation","","","","","","","","","35","","",""
"learning-instructions","260","1090902","0.0-4.0-5.0-0.0","spark_pilot_norest","8554","3","8","Male","","","","","","","null","<p> You have almost finished this part of the game! </p>
            <p> We are going to ask you to make a few more choices. </p>","","instructions","","","","","","","","","","","",""
"learning-instructions","261","1106873","0.0-4.0-5.0-0.1","spark_pilot_norest","8554","3","8","Male","","","","","","","null","<p> First, you need to decide whether to go up or down. When you see each picture, use the arrow keys to make your choice. </p>
            <p><b>You will not see which animal you found, but try to get to the one that will give you the most treasure.</b></p>","","instructions","","","","","","","","","","","",""
"html-keyboard-response","262","1107881","0.0-4.0-6.0-0.0","spark_pilot_norest","8554","3","8","Male","","","","","","","null","<div style=""font-size:100px;color:red;"">Starting in...</div>","null","","","","","","","","","","","","",""
"html-keyboard-response","263","1108889","0.0-4.0-6.0-1.0","spark_pilot_norest","8554","3","8","Male","","","","","","","null","<div style=""font-size:200px;color:red;"">3</div>","null","","","","","","","","","","","","",""
"html-keyboard-response","264","1109897","0.0-4.0-6.0-2.0","spark_pilot_norest","8554","3","8","Male","","","","","","","null","<div style=""font-size:200px;color:red;"">2</div>","null","","","","","","","","","","","","",""
"html-keyboard-response","265","1110905","0.0-4.0-6.0-3.0","spark_pilot_norest","8554","3","8","Male","","","","","","","null","<div style=""font-size:200px;color:red;"">1</div>","null","","","","","","","","","","","","",""
"revaluation","266","1111647","0.0-4.0-7.0-0.0","spark_pilot_norest","8554","3","8","Male","","false","","","","","[730.1999999997206]","./assets/img/ocean/test/1.jpg","[""ArrowDown""]","first stage test","ocean","0","{""ArrowUp,ArrowLeft"":23,""ArrowUp,ArrowRight"":10,""ArrowDown,ArrowLeft"":8,""ArrowDown,ArrowRight"":30}","true","ArrowDown","false","original","1","","","",""
"html-keyboard-response","267","1112153","0.0-4.0-7.0-1.0","spark_pilot_norest","8554","3","8","Male","","","","","","","null","<div style=""font-size:60px;"">+</div>","null","fixation","","","","","","","","","","","",""
"revaluation","268","1112812","0.0-4.0-7.0-0.1","spark_pilot_norest","8554","3","8","Male","","false","","","","","[651.7000000001863]","./assets/img/ocean/test/2.jpg","[""ArrowUp""]","first stage test","ocean","0","{""ArrowUp,ArrowLeft"":23,""ArrowUp,ArrowRight"":10,""ArrowDown,ArrowLeft"":8,""ArrowDown,ArrowRight"":30}","false","ArrowUp","false","original","1","","","",""
"html-keyboard-response","269","1113321","0.0-4.0-7.0-1.1","spark_pilot_norest","8554","3","8","Male","","","","","","","null","<div style=""font-size:60px;"">+</div>","null","fixation","","","","","","","","","","","",""
"revaluation","270","1113746","0.0-4.0-7.0-0.2","spark_pilot_norest","8554","3","8","Male","","false","","","","","[418.10000000009313]","./assets/img/ocean/test/3.jpg","[""ArrowUp""]","first stage test","ocean","0","{""ArrowUp,ArrowLeft"":23,""ArrowUp,ArrowRight"":10,""ArrowDown,ArrowLeft"":8,""ArrowDown,ArrowRight"":30}","false","ArrowUp","false","original","1","","","",""
"html-keyboard-response","271","1114258","0.0-4.0-7.0-1.2","spark_pilot_norest","8554","3","8","Male","","","","","","","null","<div style=""font-size:60px;"">+</div>","null","fixation","","","","","","","","","","","",""
"revaluation","272","1114539","0.0-4.0-7.0-0.3","spark_pilot_norest","8554","3","8","Male","","false","","","","","[271.39999999990687]","./assets/img/ocean/test/0.jpg","[""ArrowUp""]","first stage test","ocean","0","{""ArrowUp,ArrowLeft"":23,""ArrowUp,ArrowRight"":10,""ArrowDown,ArrowLeft"":8,""ArrowDown,ArrowRight"":30}","false","ArrowUp","false","original","1","","","",""
"html-keyboard-response","273","1115049","0.0-4.0-7.0-1.3","spark_pilot_norest","8554","3","8","Male","","","","","","","null","<div style=""font-size:60px;"">+</div>","null","fixation","","","","","","","","","","","",""
"learning-instructions","274","1128401","0.0-4.0-8.0-0.0","spark_pilot_norest","8554","3","8","Male","","","","","","","null","<p> Now you will see the animals again and can search their chests for treasure. </p>
            <p> This time, you will not see how much treasure you earned, but you will earn more bonus money for making better choices. </p>","","instructions","","","","","","","","","","","",""
"html-keyboard-response","275","1129409","0.0-4.0-9.0-0.0","spark_pilot_norest","8554","3","8","Male","","","","","","","null","<div style=""font-size:100px;color:red;"">Starting in...</div>","null","","","","","","","","","","","","",""
"html-keyboard-response","276","1130417","0.0-4.0-9.0-1.0","spark_pilot_norest","8554","3","8","Male","","","","","","","null","<div style=""font-size:200px;color:red;"">3</div>","null","","","","","","","","","","","","",""
"html-keyboard-response","277","1131425","0.0-4.0-9.0-2.0","spark_pilot_norest","8554","3","8","Male","","","","","","","null","<div style=""font-size:200px;color:red;"">2</div>","null","","","","","","","","","","","","",""
"html-keyboard-response","278","1132433","0.0-4.0-9.0-3.0","spark_pilot_norest","8554","3","8","Male","","","","","","","null","<div style=""font-size:200px;color:red;"">1</div>","null","","","","","","","","","","","","",""
"revaluation","279","1133511","0.0-4.0-10.0-0.0","spark_pilot_norest","8554","3","8","Male","","false","","","","","[1057.5]","./assets/img/ocean/animals/octopus.jpg","[""ArrowRight""]","second stage test","ocean","0","{""ArrowUp,ArrowLeft"":23,""ArrowUp,ArrowRight"":10,""ArrowDown,ArrowLeft"":8,""ArrowDown,ArrowRight"":30}","false","ArrowUp,ArrowRight","","original","1","","","",""
"html-keyboard-response","280","1134017","0.0-4.0-10.0-1.0","spark_pilot_norest","8554","3","8","Male","","","","","","","null","<div style=""font-size:60px;"">+</div>","null","fixation","","","","","","","","","","","",""
"revaluation","281","1134326","0.0-4.0-10.0-0.1","spark_pilot_norest","8554","3","8","Male","","false","","","","","[292.1999999997206]","./assets/img/ocean/animals/octopus.jpg","[""ArrowRight""]","second stage test","ocean","0","{""ArrowUp,ArrowLeft"":23,""ArrowUp,ArrowRight"":10,""ArrowDown,ArrowLeft"":8,""ArrowDown,ArrowRight"":30}","false","ArrowUp,ArrowRight","","original","1","","","",""
"html-keyboard-response","282","1134833","0.0-4.0-10.0-1.1","spark_pilot_norest","8554","3","8","Male","","","","","","","null","<div style=""font-size:60px;"">+</div>","null","fixation","","","","","","","","","","","",""
"revaluation","283","1135193","0.0-4.0-10.0-0.2","spark_pilot_norest","8554","3","8","Male","","false","","","","","[348.8000000002794]","./assets/img/ocean/animals/octopus.jpg","[""ArrowLeft""]","second stage test","ocean","0","{""ArrowUp,ArrowLeft"":23,""ArrowUp,ArrowRight"":10,""ArrowDown,ArrowLeft"":8,""ArrowDown,ArrowRight"":30}","true","ArrowUp,ArrowLeft","","original","1","","","",""
"html-keyboard-response","284","1135697","0.0-4.0-10.0-1.2","spark_pilot_norest","8554","3","8","Male","","","","","","","null","<div style=""font-size:60px;"">+</div>","null","fixation","","","","","","","","","","","",""
"revaluation","285","1135951","0.0-4.0-10.0-0.3","spark_pilot_norest","8554","3","8","Male","","false","","","","","[244.5]","./assets/img/ocean/animals/octopus.jpg","[""ArrowLeft""]","second stage test","ocean","0","{""ArrowUp,ArrowLeft"":23,""ArrowUp,ArrowRight"":10,""ArrowDown,ArrowLeft"":8,""ArrowDown,ArrowRight"":30}","true","ArrowUp,ArrowLeft","","original","1","","","",""
"html-keyboard-response","286","1136457","0.0-4.0-10.0-1.3","spark_pilot_norest","8554","3","8","Male","","","","","","","null","<div style=""font-size:60px;"">+</div>","null","fixation","","","","","","","","","","","",""
"revaluation","287","1136781","0.0-4.0-10.0-0.4","spark_pilot_norest","8554","3","8","Male","","false","","","","","[316.20000000018626]","./assets/img/ocean/animals/seahorse.jpg","[""ArrowLeft""]","second stage test","ocean","0","{""ArrowUp,ArrowLeft"":23,""ArrowUp,ArrowRight"":10,""ArrowDown,ArrowLeft"":8,""ArrowDown,ArrowRight"":30}","false","ArrowDown,ArrowLeft","","original","1","","","",""
"html-keyboard-response","288","1137289","0.0-4.0-10.0-1.4","spark_pilot_norest","8554","3","8","Male","","","","","","","null","<div style=""font-size:60px;"">+</div>","null","fixation","","","","","","","","","","","",""
"revaluation","289","1137602","0.0-4.0-10.0-0.5","spark_pilot_norest","8554","3","8","Male","","false","","","","","[303.39999999990687]","./assets/img/ocean/animals/seahorse.jpg","[""ArrowRight""]","second stage test","ocean","0","{""ArrowUp,ArrowLeft"":23,""ArrowUp,ArrowRight"":10,""ArrowDown,ArrowLeft"":8,""ArrowDown,ArrowRight"":30}","true","ArrowDown,ArrowRight","","original","1","","","",""
"html-keyboard-response","290","1138105","0.0-4.0-10.0-1.5","spark_pilot_norest","8554","3","8","Male","","","","","","","null","<div style=""font-size:60px;"">+</div>","null","fixation","","","","","","","","","","","",""
"revaluation","291","1138432","0.0-4.0-10.0-0.6","spark_pilot_norest","8554","3","8","Male","","false","","","","","[318.5]","./assets/img/ocean/animals/seahorse.jpg","[""ArrowRight""]","second stage test","ocean","0","{""ArrowUp,ArrowLeft"":23,""ArrowUp,ArrowRight"":10,""ArrowDown,ArrowLeft"":8,""ArrowDown,ArrowRight"":30}","true","ArrowDown,ArrowRight","","original","1","","","",""
"html-keyboard-response","292","1138937","0.0-4.0-10.0-1.6","spark_pilot_norest","8554","3","8","Male","","","","","","","null","<div style=""font-size:60px;"">+</div>","null","fixation","","","","","","","","","","","",""
"revaluation","293","1139261","0.0-4.0-10.0-0.7","spark_pilot_norest","8554","3","8","Male","","false","","","","","[316.29999999981374]","./assets/img/ocean/animals/seahorse.jpg","[""ArrowRight""]","second stage test","ocean","0","{""ArrowUp,ArrowLeft"":23,""ArrowUp,ArrowRight"":10,""ArrowDown,ArrowLeft"":8,""ArrowDown,ArrowRight"":30}","true","ArrowDown,ArrowRight","","original","1","","","",""
"html-keyboard-response","294","1139769","0.0-4.0-10.0-1.7","spark_pilot_norest","8554","3","8","Male","","","","","","","null","<div style=""font-size:60px;"">+</div>","null","fixation","","","","","","","","","","","",""
"learning-instructions","295","1143911","0.0-4.0-0.1-0.2","spark_pilot_norest","8554","3","8","Male","","","","","","","1367.5","<p> This time you are searching for treasure in the <b>canyon</b>.</p>","","instructions","","","","","","","","","","","",""
"learning-instructions","296","1162008","0.0-4.0-0.1-0.3","spark_pilot_norest","8554","3","8","Male","","","","","","","839.8000000002794","<p><b>New</b> animals with <b>new</b> treasure chests live here. You need to explore to discover where the animal with the best treasure chest is.</p>
                    <p> Like before, once you figure out which animal has the chest with the most treasure, you should try to get to that animal and select that chest! </p>","","instructions","","","","","","","","","","","",""
"learning-instructions","297","1178245","0.0-4.0-1.1-0.1","spark_pilot_norest","8554","3","8","Male","","","","","","","1504.3999999999069","<p> Remember, when you see a picture of the place, use the up and down keys to <b>find an animal</b>.</p>
            <p> When you encounter an animal, you should use the left and right keys to <b>select a treasure chest</b>.</p>
            <p> Don't forget to look out for the robber! </p>","","instructions","","","","","","","","","","","",""
"revaluation","298","1184274","0.0-4.0-2.1-0.50","spark_pilot_norest","8554","3","8","Male","","false","","","","","[1250.2000000001863,473.10000000009313]","./assets/img/canyon/memory/12.jpg","[""ArrowUp"",""ArrowRight""]","value training","canyon","10","{""ArrowUp,ArrowLeft"":26,""ArrowUp,ArrowRight"":10,""ArrowDown,ArrowLeft"":5,""ArrowDown,ArrowRight"":17}","false","ArrowUp,ArrowRight","false","revaluation","2","0","","",""
"html-keyboard-response","299","1184785","0.0-4.0-2.1-1.50","spark_pilot_norest","8554","3","8","Male","","","","","","","null","<div style=""font-size:60px;"">+</div>","null","fixation","","","","","","","","","1","","",""
"revaluation","300","1190818","0.0-4.0-2.1-0.51","spark_pilot_norest","8554","3","8","Male","","false","","","","","[618.5999999996275,342]","./assets/img/canyon/memory/35.jpg","[""ArrowUp"",""ArrowLeft""]","value training","canyon","26","{""ArrowUp,ArrowLeft"":26,""ArrowUp,ArrowRight"":10,""ArrowDown,ArrowLeft"":5,""ArrowDown,ArrowRight"":17}","true","ArrowUp,ArrowLeft","false","revaluation","2","2","","",""
"html-keyboard-response","301","1191321","0.0-4.0-2.1-1.51","spark_pilot_norest","8554","3","8","Male","","","","","","","null","<div style=""font-size:60px;"">+</div>","null","fixation","","","","","","","","","3","","",""
"revaluation","302","1197353","0.0-4.0-2.1-0.52","spark_pilot_norest","8554","3","8","Male","","false","","","","","[68.3000000002794,388.60000000009313]","./assets/img/canyon/memory/33.jpg","[""ArrowDown"",""ArrowLeft""]","value training","canyon","5","{""ArrowUp,ArrowLeft"":26,""ArrowUp,ArrowRight"":10,""ArrowDown,ArrowLeft"":5,""ArrowDown,ArrowRight"":17}","false","ArrowDown,ArrowLeft","false","revaluation","2","4","","",""
"html-keyboard-response","303","1197857","0.0-4.0-2.1-1.52","spark_pilot_norest","8554","3","8","Male","","","","","","","null","<div style=""font-size:60px;"">+</div>","null","fixation","","","","","","","","","5","","",""
"revaluation","304","1201889","0.0-4.0-2.1-0.53","spark_pilot_norest","8554","3","8","Male","","false","","","","","[386]","./assets/img/canyon/catch/0.jpg","[""ArrowDown""]","value training","canyon","-10","{""ArrowUp,ArrowLeft"":26,""ArrowUp,ArrowRight"":10,""ArrowDown,ArrowLeft"":5,""ArrowDown,ArrowRight"":17}","false","ArrowDown","true","revaluation","2","6","","",""
"html-keyboard-response","305","1202393","0.0-4.0-2.1-1.53","spark_pilot_norest","8554","3","8","Male","","","","","","","null","<div style=""font-size:60px;"">+</div>","null","fixation","","","","","","","","","7","","",""
"revaluation","306","1206418","0.0-4.0-2.1-0.54","spark_pilot_norest","8554","3","8","Male","","false","","","","","[1120.7999999998137]","./assets/img/canyon/catch/3.jpg","[""spaceBar""]","value training","canyon","0","{""ArrowUp,ArrowLeft"":26,""ArrowUp,ArrowRight"":10,""ArrowDown,ArrowLeft"":5,""ArrowDown,ArrowRight"":17}","true","spaceBar","true","revaluation","2","8","","",""
"html-keyboard-response","307","1206921","0.0-4.0-2.1-1.54","spark_pilot_norest","8554","3","8","Male","","","","","","","null","<div style=""font-size:60px;"">+</div>","null","fixation","","","","","","","","","9","","",""
"revaluation","308","1212954","0.0-4.0-2.1-0.55","spark_pilot_norest","8554","3","8","Male","","false","","","","","[1335.5,537.7000000001863]","./assets/img/canyon/memory/0.jpg","[""ArrowDown"",""ArrowLeft""]","value training","canyon","5","{""ArrowUp,ArrowLeft"":26,""ArrowUp,ArrowRight"":10,""ArrowDown,ArrowLeft"":5,""ArrowDown,ArrowRight"":17}","false","ArrowDown,ArrowLeft","false","revaluation","2","10","","",""
"html-keyboard-response","309","1213457","0.0-4.0-2.1-1.55","spark_pilot_norest","8554","3","8","Male","","","","","","","null","<div style=""font-size:60px;"">+</div>","null","fixation","","","","","","","","","11","","",""
"revaluation","310","1219490","0.0-4.0-2.1-0.56","spark_pilot_norest","8554","3","8","Male","","false","","","","","[718.5,670]","./assets/img/canyon/memory/19.jpg","[""ArrowDown"",""ArrowRight""]","value training","canyon","17","{""ArrowUp,ArrowLeft"":26,""ArrowUp,ArrowRight"":10,""ArrowDown,ArrowLeft"":5,""ArrowDown,ArrowRight"":17}","false","ArrowDown,ArrowRight","false","revaluation","2","12","","",""
"html-keyboard-response","311","1220001","0.0-4.0-2.1-1.56","spark_pilot_norest","8554","3","8","Male","","","","","","","null","<div style=""font-size:60px;"">+</div>","null","fixation","","","","","","","","","13","","",""
"revaluation","312","1226034","0.0-4.0-2.1-0.57","spark_pilot_norest","8554","3","8","Male","","false","","","","","[302,470.79999999981374]","./assets/img/canyon/memory/4.jpg","[""ArrowUp"",""ArrowLeft""]","value training","canyon","26","{""ArrowUp,ArrowLeft"":26,""ArrowUp,ArrowRight"":10,""ArrowDown,ArrowLeft"":5,""ArrowDown,ArrowRight"":17}","true","ArrowUp,ArrowLeft","false","revaluation","2","14","","",""
"html-keyboard-response","313","1226546","0.0-4.0-2.1-1.57","spark_pilot_norest","8554","3","8","Male","","","","","","","null","<div style=""font-size:60px;"">+</div>","null","fixation","","","","","","","","","15","","",""
