"trial_type","trial_index","time_elapsed","internal_node_id","task_version","subject_id","assigned_condition","age","gender","success","timeout","failed_images","failed_audio","failed_video","browser_interaction","rt","stimulus","response","task_part","environment","score","rewardMap","correct","fullState","isCatch","condition","order","trial_num","key_press","ground_truth","bonus"
"pavlovia","0","1292","0.0-0.0","spark_pilot_norest","10686","3","17","Female","","","","","","","","","","","","","","","","","","","","","",""
"preload","1","35000","0.0-1.0","spark_pilot_norest","10686","3","17","Female","true","false","[]","[]","[]","[{""event"":""fullscreenenter"",""trial"":2,""time"":101523}]","","","","","","","","","","","","","","","",""
"fullscreen","2","102507","0.0-2.0","spark_pilot_norest","10686","3","17","Female","true","","","","","","","","","","","","","","","","","","","","",""
"audio-button-response","3","104236","0.0-3.0-0.0-0.0","spark_pilot_norest","10686","3","17","Female","","","","","","","1709","./assets/audio/audiotest/turtle.mp3","2","audio_test","","","","","","","","","","","",""
"learning-instructions","4","113955","0.0-3.0-1.0-0.0","spark_pilot_norest","10686","3","17","Female","","","","","","","2726.1999999284744","<p> Welcome! Please remember to stay in fullscreen mode and don't click away from the experiment. </p>","","instructions","","","","","","","","","","","",""
"learning-instructions","5","123658","0.0-3.0-1.0-0.1","spark_pilot_norest","10686","3","17","Female","","","","","","","1299.2999999523163","<p> Today you will be playing a game to earn treasure. </p>
            <p> At the end of the experiment, you will earn a bonus based on how much treasure you find. </p>
            <img src='./assets/img/instructions/treasure.jpg' class='instructions-image'>","","instructions","","","","","","","","","","","",""
"learning-instructions","6","132579","0.0-3.0-1.0-0.2","spark_pilot_norest","10686","3","17","Female","","","","","","","679.7000000476837","<p> Animals have hidden treasure in treasure chests. </p>
            <p> You need to first find an animal and then choose which of their treasure chests to search. </p>
            <img src='./assets/img/space/animals/cat.jpg' class='instructions-image'>","","instructions","","","","","","","","","","","",""
"learning-instructions","7","146181","0.0-3.0-1.0-0.3","spark_pilot_norest","10686","3","17","Female","","","","","","","461.10000002384186","<p> In each round, you will search for treasure in a different place. In the real game, there will be two rounds. </p>
            <p> You will begin with a separate, practice round where you will search for treasure in outer space. </p>
            <img src='./assets/img/space/0.jpg' class='instructions-image'>","","instructions","","","","","","","","","","","",""
"learning-instructions","8","165405","0.0-3.0-1.0-0.4","spark_pilot_norest","10686","3","17","Female","","","","","","","7825.200000047684","<p> On every turn, you will see a picture of the place that you are in, but the specific image may be different each time. </p>
            <p> For example, both of these images mean you are in outer space. </p>
            <img src='./assets/img/instructions/outerspace.jpg' class='instructions-image'>","","instructions","","","","","","","","","","","",""
"learning-instructions","9","174115","0.0-3.0-1.0-0.5","spark_pilot_norest","10686","3","17","Female","","","","","","","894.8999999761581","<p> You need to decide which direction to travel in. </p>
            <p> You can choose between going <b>up or down</b> by using the arrow keys. </p>
            <img src='./assets/img/instructions/updown.jpg' class='instructions-image'>","","instructions","","","","","","","","","","","",""
"learning-instructions","10","184072","0.0-3.0-1.0-0.6","spark_pilot_norest","10686","3","17","Female","","","","","","","1152.6999999284744","<p> You will have <b>2 seconds</b> to make your choice. </p>
            <p> If you do not make a choice within 2 seconds, you will not find an animal or earn treasure. </p>
            <img src='./assets/img/instructions/2seconds.jpg' class='instructions-image'>","","instructions","","","","","","","","","","","",""
"learning-instructions","11","191739","0.0-3.0-1.0-0.7","spark_pilot_norest","10686","3","17","Female","","","","","","","639.6999999284744","<p> Let’s try practicing that now! </p>
            <p> When you see a picture of the place you are in, press the <b>up</b> key to travel up. </p>
            <img src='./assets/img/instructions/pressUp.jpg' class='instructions-image'>","","instructions","","","","","","","","","","","",""
"revaluation","12","195766","0.0-3.0-2.0-0.0","spark_pilot_norest","10686","3","17","Female","","false","","","","","[841]","./assets/img/space/0.jpg","[""ArrowUp""]","first stage practice","space","0","null","null","ArrowUp","false","","","","","",""
"html-keyboard-response","13","196281","0.0-3.0-2.0-1.0","spark_pilot_norest","10686","3","17","Female","","","","","","","null","<div style=""font-size:60px;"">+</div>","null","fixation","","","","","","","","","","","",""
"revaluation","14","200305","0.0-3.0-2.0-0.1","spark_pilot_norest","10686","3","17","Female","","false","","","","","[1679.7999999523163]","./assets/img/space/1.jpg","[""ArrowUp""]","first stage practice","space","0","null","null","ArrowUp","false","","","","","",""
"html-keyboard-response","15","200819","0.0-3.0-2.0-1.1","spark_pilot_norest","10686","3","17","Female","","","","","","","null","<div style=""font-size:60px;"">+</div>","null","fixation","","","","","","","","","","","",""
"revaluation","16","204844","0.0-3.0-2.0-0.2","spark_pilot_norest","10686","3","17","Female","","false","","","","","[1487.6999999284744]","./assets/img/space/2.jpg","[""ArrowUp""]","first stage practice","space","0","null","null","ArrowUp","false","","","","","",""
"html-keyboard-response","17","205357","0.0-3.0-2.0-1.2","spark_pilot_norest","10686","3","17","Female","","","","","","","null","<div style=""font-size:60px;"">+</div>","null","fixation","","","","","","","","","","","",""
"learning-instructions","18","210841","0.0-3.0-3.0-0.0","spark_pilot_norest","10686","3","17","Female","","","","","","","789.8999999761581","<p> Great job! Now try pressing the <b>down</b> key to travel down. </p>
            <img src='./assets/img/instructions/pressDown.jpg' class='instructions-image'>","","instructions","","","","","","","","","","","",""
"revaluation","19","214848","0.0-3.0-4.0-0.0","spark_pilot_norest","10686","3","17","Female","","false","","","","","[222]","./assets/img/space/3.jpg","[""ArrowDown""]","first stage practice","space","0","null","null","ArrowDown","false","","","","","",""
"html-keyboard-response","20","215360","0.0-3.0-4.0-1.0","spark_pilot_norest","10686","3","17","Female","","","","","","","null","<div style=""font-size:60px;"">+</div>","null","fixation","","","","","","","","","","","",""
"revaluation","21","219382","0.0-3.0-4.0-0.1","spark_pilot_norest","10686","3","17","Female","","false","","","","","[288.1999999284744]","./assets/img/space/4.jpg","[""ArrowDown""]","first stage practice","space","0","null","null","ArrowDown","false","","","","","",""
"html-keyboard-response","22","219893","0.0-3.0-4.0-1.1","spark_pilot_norest","10686","3","17","Female","","","","","","","null","<div style=""font-size:60px;"">+</div>","null","fixation","","","","","","","","","","","",""
"revaluation","23","223914","0.0-3.0-4.0-0.2","spark_pilot_norest","10686","3","17","Female","","false","","","","","[683.5]","./assets/img/space/5.jpg","[""ArrowDown""]","first stage practice","space","0","null","null","ArrowDown","false","","","","","",""
"html-keyboard-response","24","224429","0.0-3.0-4.0-1.2","spark_pilot_norest","10686","3","17","Female","","","","","","","null","<div style=""font-size:60px;"">+</div>","null","fixation","","","","","","","","","","","",""
"learning-instructions","25","235103","0.0-3.0-5.0-0.0","spark_pilot_norest","10686","3","17","Female","","","","","","","823.6000000238419","<p> The animals don’t move, so the animal in the upper part of a place will stay in the upper part of a place, and the animal in the lower part of a place will stay in the lower part of a place. </p>","","instructions","","","","","","","","","","","",""
"learning-instructions","26","244792","0.0-3.0-5.0-0.1","spark_pilot_norest","10686","3","17","Female","","","","","","","572.8999999761581","<p> Each animal has two treasure chests for you to choose from. </p>
            <p> The amount of treasure in each chest can range from <b> 0 to 40 pieces.</b></p>","","instructions","","","","","","","","","","","",""
"learning-instructions","27","256652","0.0-3.0-5.0-0.2","spark_pilot_norest","10686","3","17","Female","","","","","","","682","<p> You should decide which chest to search for treasure by using the <b>left</b> and <b>right</b> arrow keys. </p>
            <p><b> Pay attention to which animal is on the screen, as the animals have different treasure chests. </b></p>
            <img src='./assets/img/instructions/leftright.jpg' class='instructions-image'>","","instructions","","","","","","","","","","","",""
"learning-instructions","28","263831","0.0-3.0-5.0-0.3","spark_pilot_norest","10686","3","17","Female","","","","","","","821","<p> Let’s try practicing that now. </p>
            <p> When you see an animal, choose which chest to search for treasure. </p>
            <img src='./assets/img/instructions/chooseChest.jpg' class='instructions-image'>","","instructions","","","","","","","","","","","",""
"revaluation","29","267844","0.0-3.0-6.0-0.0","spark_pilot_norest","10686","3","17","Female","","false","","","","","[529.3999999761581]","./assets/img/space/animals/cat.jpg","[""ArrowLeft""]","second stage practice","space","3","{""ArrowUp,ArrowLeft"":3,""ArrowUp,ArrowRight"":36,""ArrowDown,ArrowLeft"":15,""ArrowDown,ArrowRight"":23}","false","ArrowUp,ArrowLeft","","","","","","",""
"html-keyboard-response","30","268354","0.0-3.0-6.0-1.0","spark_pilot_norest","10686","3","17","Female","","","","","","","null","<div style=""font-size:60px;"">+</div>","null","fixation","","","","","","","","","","","",""
"revaluation","31","272382","0.0-3.0-6.0-0.1","spark_pilot_norest","10686","3","17","Female","","false","","","","","[455.60000002384186]","./assets/img/space/animals/rabbit.jpg","[""ArrowRight""]","second stage practice","space","23","{""ArrowUp,ArrowLeft"":3,""ArrowUp,ArrowRight"":36,""ArrowDown,ArrowLeft"":15,""ArrowDown,ArrowRight"":23}","true","ArrowDown,ArrowRight","","","","","","",""
"html-keyboard-response","32","272899","0.0-3.0-6.0-1.1","spark_pilot_norest","10686","3","17","Female","","","","","","","null","<div style=""font-size:60px;"">+</div>","null","fixation","","","","","","","","","","","",""
"revaluation","33","276929","0.0-3.0-6.0-0.2","spark_pilot_norest","10686","3","17","Female","","false","","","","","[454.5]","./assets/img/space/animals/cat.jpg","[""ArrowRight""]","second stage practice","space","36","{""ArrowUp,ArrowLeft"":3,""ArrowUp,ArrowRight"":36,""ArrowDown,ArrowLeft"":15,""ArrowDown,ArrowRight"":23}","true","ArrowUp,ArrowRight","","","","","","",""
"html-keyboard-response","34","277430","0.0-3.0-6.0-1.2","spark_pilot_norest","10686","3","17","Female","","","","","","","null","<div style=""font-size:60px;"">+</div>","null","fixation","","","","","","","","","","","",""
"revaluation","35","281451","0.0-3.0-6.0-0.3","spark_pilot_norest","10686","3","17","Female","","false","","","","","[348]","./assets/img/space/animals/rabbit.jpg","[""ArrowLeft""]","second stage practice","space","15","{""ArrowUp,ArrowLeft"":3,""ArrowUp,ArrowRight"":36,""ArrowDown,ArrowLeft"":15,""ArrowDown,ArrowRight"":23}","false","ArrowDown,ArrowLeft","","","","","","",""
"html-keyboard-response","36","281966","0.0-3.0-6.0-1.3","spark_pilot_norest","10686","3","17","Female","","","","","","","null","<div style=""font-size:60px;"">+</div>","null","fixation","","","","","","","","","","","",""
"learning-instructions","37","299439","0.0-3.0-7.0-0.0","spark_pilot_norest","10686","3","17","Female","","","","","","","669.4000000953674","<p> Great job. Now let’s try putting it together. </p>
            <p> On each turn, you will first see a picture to remind you of the place you are in, and you need to choose whether to go up or down. </p>
            <p> Then you will see an animal and choose which of its chests to search for treasure. </p>","","instructions","","","","","","","","","","","",""
"learning-instructions","38","308160","0.0-3.0-7.0-0.1","spark_pilot_norest","10686","3","17","Female","","","","","","","470.89999997615814","<p> When you choose whether to go up or down, try to go to the animal with the chest with the most treasure. </p>
            <p> Try practicing that now! </p>","","instructions","","","","","","","","","","","",""
"revaluation","39","314190","0.0-3.0-8.0-0.0","spark_pilot_norest","10686","3","17","Female","","false","","","","","[566.2999999523163,955.1999999284744]","./assets/img/space/6.jpg","[""ArrowUp"",""ArrowLeft""]","full practice","space","3","{""ArrowUp,ArrowLeft"":3,""ArrowUp,ArrowRight"":36,""ArrowDown,ArrowLeft"":15,""ArrowDown,ArrowRight"":23}","false","ArrowUp,ArrowLeft","false","","","","","",""
"html-keyboard-response","40","314701","0.0-3.0-8.0-1.0","spark_pilot_norest","10686","3","17","Female","","","","","","","null","<div style=""font-size:60px;"">+</div>","null","fixation","","","","","","","","","","","",""
"revaluation","41","320730","0.0-3.0-8.0-0.1","spark_pilot_norest","10686","3","17","Female","","false","","","","","[827.2000000476837,599.1000000238419]","./assets/img/space/7.jpg","[""ArrowDown"",""ArrowRight""]","full practice","space","23","{""ArrowUp,ArrowLeft"":3,""ArrowUp,ArrowRight"":36,""ArrowDown,ArrowLeft"":15,""ArrowDown,ArrowRight"":23}","false","ArrowDown,ArrowRight","false","","","","","",""
"html-keyboard-response","42","321245","0.0-3.0-8.0-1.1","spark_pilot_norest","10686","3","17","Female","","","","","","","null","<div style=""font-size:60px;"">+</div>","null","fixation","","","","","","","","","","","",""
"revaluation","43","327278","0.0-3.0-8.0-0.2","spark_pilot_norest","10686","3","17","Female","","false","","","","","[506.60000002384186,658.8999999761581]","./assets/img/space/8.jpg","[""ArrowDown"",""ArrowRight""]","full practice","space","23","{""ArrowUp,ArrowLeft"":3,""ArrowUp,ArrowRight"":36,""ArrowDown,ArrowLeft"":15,""ArrowDown,ArrowRight"":23}","false","ArrowDown,ArrowRight","false","","","","","",""
"html-keyboard-response","44","327793","0.0-3.0-8.0-1.2","spark_pilot_norest","10686","3","17","Female","","","","","","","null","<div style=""font-size:60px;"">+</div>","null","fixation","","","","","","","","","","","",""
"revaluation","45","333836","0.0-3.0-8.0-0.3","spark_pilot_norest","10686","3","17","Female","","false","","","","","[519.5,410.3000000715256]","./assets/img/space/9.jpg","[""ArrowUp"",""ArrowRight""]","full practice","space","36","{""ArrowUp,ArrowLeft"":3,""ArrowUp,ArrowRight"":36,""ArrowDown,ArrowLeft"":15,""ArrowDown,ArrowRight"":23}","true","ArrowUp,ArrowRight","false","","","","","",""
"html-keyboard-response","46","334340","0.0-3.0-8.0-1.3","spark_pilot_norest","10686","3","17","Female","","","","","","","null","<div style=""font-size:60px;"">+</div>","null","fixation","","","","","","","","","","","",""
"revaluation","47","340362","0.0-3.0-8.0-0.4","spark_pilot_norest","10686","3","17","Female","","false","","","","","[378.89999997615814,250.40000009536743]","./assets/img/space/10.jpg","[""ArrowUp"",""ArrowRight""]","full practice","space","36","{""ArrowUp,ArrowLeft"":3,""ArrowUp,ArrowRight"":36,""ArrowDown,ArrowLeft"":15,""ArrowDown,ArrowRight"":23}","true","ArrowUp,ArrowRight","false","","","","","",""
"html-keyboard-response","48","340863","0.0-3.0-8.0-1.4","spark_pilot_norest","10686","3","17","Female","","","","","","","null","<div style=""font-size:60px;"">+</div>","null","fixation","","","","","","","","","","","",""
"learning-instructions","49","351787","0.0-3.0-9.0-0.0","spark_pilot_norest","10686","3","17","Female","","","","","","","630.3000000715256","<p> One last thing: sometimes, you will see a robber. The robber can be anywhere in the picture. </p>
            <p> If you do not stop them, you will lose treasure. </p>
            <img src='./assets/img/instructions/robber.jpg' class='instructions-image'>","","instructions","","","","","","","","","","","",""
"learning-instructions","50","359919","0.0-3.0-9.0-0.1","spark_pilot_norest","10686","3","17","Female","","","","","","","972.8000000715256","<p> If you see the robber, you should <b>press the space bar</b> rather than using the arrow keys. </p>
            <p> Try practicing that now! </p>","","instructions","","","","","","","","","","","",""
"revaluation","51","363925","0.0-3.0-10.0-0.0","spark_pilot_norest","10686","3","17","Female","","false","","","","","[498.6999999284744]","./assets/img/space/catch/0.jpg","[""spaceBar""]","catch practice","space","0","{""ArrowUp,ArrowLeft"":3,""ArrowUp,ArrowRight"":36,""ArrowDown,ArrowLeft"":15,""ArrowDown,ArrowRight"":23}","true","spaceBar","true","","","","","",""
"html-keyboard-response","52","364438","0.0-3.0-10.0-1.0","spark_pilot_norest","10686","3","17","Female","","","","","","","null","<div style=""font-size:60px;"">+</div>","null","fixation","","","","","","","","","","","",""
"revaluation","53","368462","0.0-3.0-10.0-0.1","spark_pilot_norest","10686","3","17","Female","","false","","","","","[712.7000000476837]","./assets/img/space/catch/1.jpg","[""spaceBar""]","catch practice","space","0","{""ArrowUp,ArrowLeft"":3,""ArrowUp,ArrowRight"":36,""ArrowDown,ArrowLeft"":15,""ArrowDown,ArrowRight"":23}","true","spaceBar","true","","","","","",""
"html-keyboard-response","54","368976","0.0-3.0-10.0-1.1","spark_pilot_norest","10686","3","17","Female","","","","","","","null","<div style=""font-size:60px;"">+</div>","null","fixation","","","","","","","","","","","",""
"revaluation","55","372985","0.0-3.0-10.0-0.2","spark_pilot_norest","10686","3","17","Female","","false","","","","","[455.10000002384186]","./assets/img/space/catch/2.jpg","[""spaceBar""]","catch practice","space","0","{""ArrowUp,ArrowLeft"":3,""ArrowUp,ArrowRight"":36,""ArrowDown,ArrowLeft"":15,""ArrowDown,ArrowRight"":23}","true","spaceBar","true","","","","","",""
"html-keyboard-response","56","373498","0.0-3.0-10.0-1.2","spark_pilot_norest","10686","3","17","Female","","","","","","","null","<div style=""font-size:60px;"">+</div>","null","fixation","","","","","","","","","","","",""
"learning-instructions","57","379571","0.0-3.0-11.0-0.0-0.0","spark_pilot_norest","10686","3","17","Female","","","","","","","814.3999999761581","<p> Now, you will practice a shortened version of the game to get a sense of how it all fits together. </p>","","instructions","","","","","","","","","","","",""
"learning-instructions","58","384035","0.0-3.0-11.0-0.0-0.1","spark_pilot_norest","10686","3","17","Female","","","","","","","1278.5","<p>This time you are searching for treasure in outer space.</p>","","instructions","","","","","","","","","","","",""
"learning-instructions","59","399642","0.0-3.0-11.0-1.0-0.0","spark_pilot_norest","10686","3","17","Female","","","","","","","854.8999999761581","<p> Remember, when you see a picture of the place, use the up and down keys to <b>find an animal</b>.</p>
            <p> When you encounter an animal, you should use the left and right keys to <b>select a treasure chest</b>.</p>
            <p> Don't forget to look out for the robber! </p>","","instructions","","","","","","","","","","","",""
"revaluation","60","405680","0.0-3.0-11.0-2.0-0.0","spark_pilot_norest","10686","3","17","Female","","false","","","","","[1728.3999999761581,587.2999999523163]","./assets/img/space/11.jpg","[""ArrowUp"",""ArrowRight""]","practice block","space","36","{""ArrowUp,ArrowLeft"":3,""ArrowUp,ArrowRight"":36,""ArrowDown,ArrowLeft"":15,""ArrowDown,ArrowRight"":23}","true","ArrowUp,ArrowRight","false","","","","","",""
"html-keyboard-response","61","406194","0.0-3.0-11.0-2.0-1.0","spark_pilot_norest","10686","3","17","Female","","","","","","","null","<div style=""font-size:60px;"">+</div>","null","fixation","","","","","","","","","","","",""
"revaluation","62","412218","0.0-3.0-11.0-2.0-0.1","spark_pilot_norest","10686","3","17","Female","","false","","","","","[469.2999999523163,664.0999999046326]","./assets/img/space/12.jpg","[""ArrowUp"",""ArrowRight""]","practice block","space","36","{""ArrowUp,ArrowLeft"":3,""ArrowUp,ArrowRight"":36,""ArrowDown,ArrowLeft"":15,""ArrowDown,ArrowRight"":23}","true","ArrowUp,ArrowRight","false","","","","","",""
"html-keyboard-response","63","412732","0.0-3.0-11.0-2.0-1.1","spark_pilot_norest","10686","3","17","Female","","","","","","","null","<div style=""font-size:60px;"">+</div>","null","fixation","","","","","","","","","","","",""
"revaluation","64","418774","0.0-3.0-11.0-2.0-0.2","spark_pilot_norest","10686","3","17","Female","","false","","","","","[1115.6000000238419,409.8000000715256]","./assets/img/space/13.jpg","[""ArrowUp"",""ArrowRight""]","practice block","space","36","{""ArrowUp,ArrowLeft"":3,""ArrowUp,ArrowRight"":36,""ArrowDown,ArrowLeft"":15,""ArrowDown,ArrowRight"":23}","true","ArrowUp,ArrowRight","false","","","","","",""
"html-keyboard-response","65","419289","0.0-3.0-11.0-2.0-1.2","spark_pilot_norest","10686","3","17","Female","","","","","","","null","<div style=""font-size:60px;"">+</div>","null","fixation","","","","","","","","","","","",""
"revaluation","66","425329","0.0-3.0-11.0-2.0-0.3","spark_pilot_norest","10686","3","17","Female","","false","","","","","[1156.6000000238419,410]","./assets/img/space/14.jpg","[""ArrowDown"",""ArrowRight""]","practice block","space","23","{""ArrowUp,ArrowLeft"":3,""ArrowUp,ArrowRight"":36,""ArrowDown,ArrowLeft"":15,""ArrowDown,ArrowRight"":23}","false","ArrowDown,ArrowRight","false","","","","","",""
"html-keyboard-response","67","425843","0.0-3.0-11.0-2.0-1.3","spark_pilot_norest","10686","3","17","Female","","","","","","","null","<div style=""font-size:60px;"">+</div>","null","fixation","","","","","","","","","","","",""
"revaluation","68","431856","0.0-3.0-11.0-2.0-0.4","spark_pilot_norest","10686","3","17","Female","","false","","","","","[1295.5,753.7999999523163]","./assets/img/space/11.jpg","[""ArrowUp"",""ArrowRight""]","practice block","space","36","{""ArrowUp,ArrowLeft"":3,""ArrowUp,ArrowRight"":36,""ArrowDown,ArrowLeft"":15,""ArrowDown,ArrowRight"":23}","true","ArrowUp,ArrowRight","false","","","","","",""
"html-keyboard-response","69","432358","0.0-3.0-11.0-2.0-1.4","spark_pilot_norest","10686","3","17","Female","","","","","","","null","<div style=""font-size:60px;"">+</div>","null","fixation","","","","","","","","","","","",""
"revaluation","70","438363","0.0-3.0-11.0-2.0-0.5","spark_pilot_norest","10686","3","17","Female","","false","","","","","[1738,703.8999999761581]","./assets/img/space/12.jpg","[""ArrowUp"",""ArrowRight""]","practice block","space","36","{""ArrowUp,ArrowLeft"":3,""ArrowUp,ArrowRight"":36,""ArrowDown,ArrowLeft"":15,""ArrowDown,ArrowRight"":23}","true","ArrowUp,ArrowRight","false","","","","","",""
"html-keyboard-response","71","438865","0.0-3.0-11.0-2.0-1.5","spark_pilot_norest","10686","3","17","Female","","","","","","","null","<div style=""font-size:60px;"">+</div>","null","fixation","","","","","","","","","","","",""
"revaluation","72","444873","0.0-3.0-11.0-2.0-0.6","spark_pilot_norest","10686","3","17","Female","","false","","","","","[1028.8999999761581,327]","./assets/img/space/13.jpg","[""ArrowUp"",""ArrowRight""]","practice block","space","36","{""ArrowUp,ArrowLeft"":3,""ArrowUp,ArrowRight"":36,""ArrowDown,ArrowLeft"":15,""ArrowDown,ArrowRight"":23}","true","ArrowUp,ArrowRight","false","","","","","",""
"html-keyboard-response","73","445375","0.0-3.0-11.0-2.0-1.6","spark_pilot_norest","10686","3","17","Female","","","","","","","null","<div style=""font-size:60px;"">+</div>","null","fixation","","","","","","","","","","","",""
"revaluation","74","451382","0.0-3.0-11.0-2.0-0.7","spark_pilot_norest","10686","3","17","Female","","false","","","","","[1708.8999999761581,379.5]","./assets/img/space/14.jpg","[""ArrowUp"",""ArrowRight""]","practice block","space","36","{""ArrowUp,ArrowLeft"":3,""ArrowUp,ArrowRight"":36,""ArrowDown,ArrowLeft"":15,""ArrowDown,ArrowRight"":23}","true","ArrowUp,ArrowRight","false","","","","","",""
"html-keyboard-response","75","451885","0.0-3.0-11.0-2.0-1.7","spark_pilot_norest","10686","3","17","Female","","","","","","","null","<div style=""font-size:60px;"">+</div>","null","fixation","","","","","","","","","","","",""
"revaluation","76","455892","0.0-3.0-11.0-2.0-0.8","spark_pilot_norest","10686","3","17","Female","","false","","","","","[852.3000000715256]","./assets/img/space/catch/3.jpg","[""spaceBar""]","practice block","space","0","{""ArrowUp,ArrowLeft"":3,""ArrowUp,ArrowRight"":36,""ArrowDown,ArrowLeft"":15,""ArrowDown,ArrowRight"":23}","true","spaceBar","true","","","","","",""
"html-keyboard-response","77","456393","0.0-3.0-11.0-2.0-1.8","spark_pilot_norest","10686","3","17","Female","","","","","","","null","<div style=""font-size:60px;"">+</div>","null","fixation","","","","","","","","","","","",""
"learning-instructions","78","470067","0.0-3.0-11.0-3.0-0.0","spark_pilot_norest","10686","3","17","Female","","","","","","","762.6999999284744","<p> Now, you will travel with a friend who will choose whether you go up or down first. </p>
            <p> On these turns, you will just see the animal that they found. You will still get to choose which chest to search for treasure.</p>","","instructions","","","","","","","","","","","",""
"revaluation","79","474089","0.0-3.0-11.0-4.0-0.0","spark_pilot_norest","10686","3","17","Female","","false","","","","","[1149]","./assets/img/space/animals/cat.jpg","[""ArrowRight""]","practice block","space","36","{""ArrowUp,ArrowLeft"":3,""ArrowUp,ArrowRight"":36,""ArrowDown,ArrowLeft"":15,""ArrowDown,ArrowRight"":23}","true","ArrowUp,ArrowRight","","","","","","",""
"html-keyboard-response","80","474592","0.0-3.0-11.0-4.0-1.0","spark_pilot_norest","10686","3","17","Female","","","","","","","null","<div style=""font-size:60px;"">+</div>","null","fixation","","","","","","","","","","","",""
"revaluation","81","478602","0.0-3.0-11.0-4.0-0.1","spark_pilot_norest","10686","3","17","Female","","false","","","","","[1017.7000000476837]","./assets/img/space/animals/rabbit.jpg","[""ArrowRight""]","practice block","space","23","{""ArrowUp,ArrowLeft"":3,""ArrowUp,ArrowRight"":36,""ArrowDown,ArrowLeft"":15,""ArrowDown,ArrowRight"":23}","true","ArrowDown,ArrowRight","","","","","","",""
"html-keyboard-response","82","479119","0.0-3.0-11.0-4.0-1.1","spark_pilot_norest","10686","3","17","Female","","","","","","","null","<div style=""font-size:60px;"">+</div>","null","fixation","","","","","","","","","","","",""
"revaluation","83","483140","0.0-3.0-11.0-4.0-0.2","spark_pilot_norest","10686","3","17","Female","","false","","","","","[674.2999999523163]","./assets/img/space/animals/cat.jpg","[""ArrowRight""]","practice block","space","36","{""ArrowUp,ArrowLeft"":3,""ArrowUp,ArrowRight"":36,""ArrowDown,ArrowLeft"":15,""ArrowDown,ArrowRight"":23}","true","ArrowUp,ArrowRight","","","","","","",""
"html-keyboard-response","84","483655","0.0-3.0-11.0-4.0-1.2","spark_pilot_norest","10686","3","17","Female","","","","","","","null","<div style=""font-size:60px;"">+</div>","null","fixation","","","","","","","","","","","",""
"revaluation","85","487682","0.0-3.0-11.0-4.0-0.3","spark_pilot_norest","10686","3","17","Female","","false","","","","","[529]","./assets/img/space/animals/rabbit.jpg","[""ArrowRight""]","practice block","space","23","{""ArrowUp,ArrowLeft"":3,""ArrowUp,ArrowRight"":36,""ArrowDown,ArrowLeft"":15,""ArrowDown,ArrowRight"":23}","true","ArrowDown,ArrowRight","","","","","","",""
"html-keyboard-response","86","488196","0.0-3.0-11.0-4.0-1.3","spark_pilot_norest","10686","3","17","Female","","","","","","","null","<div style=""font-size:60px;"">+</div>","null","fixation","","","","","","","","","","","",""
"learning-instructions","87","496327","0.0-3.0-11.0-5.0-0.0","spark_pilot_norest","10686","3","17","Female","","","","","","","null","<p> You have almost finished this part of the game! </p>
            <p> We are going to ask you to make a few more choices. </p>","","instructions","","","","","","","","","","","",""
"learning-instructions","88","512332","0.0-3.0-11.0-5.0-0.1","spark_pilot_norest","10686","3","17","Female","","","","","","","null","<p> First, you need to decide whether to go up or down. When you see each picture, use the arrow keys to make your choice. </p>
            <p><b>You will not see which animal you found, but try to get to the one that will give you the most treasure.</b></p>","","instructions","","","","","","","","","","","",""
"html-keyboard-response","89","513336","0.0-3.0-11.0-6.0-0.0","spark_pilot_norest","10686","3","17","Female","","","","","","","null","<div style=""font-size:100px;color:red;"">Starting in...</div>","null","","","","","","","","","","","","",""
"html-keyboard-response","90","514347","0.0-3.0-11.0-6.0-1.0","spark_pilot_norest","10686","3","17","Female","","","","","","","null","<div style=""font-size:200px;color:red;"">3</div>","null","","","","","","","","","","","","",""
"html-keyboard-response","91","515362","0.0-3.0-11.0-6.0-2.0","spark_pilot_norest","10686","3","17","Female","","","","","","","null","<div style=""font-size:200px;color:red;"">2</div>","null","","","","","","","","","","","","",""
"html-keyboard-response","92","516376","0.0-3.0-11.0-6.0-3.0","spark_pilot_norest","10686","3","17","Female","","","","","","","null","<div style=""font-size:200px;color:red;"">1</div>","null","","","","","","","","","","","","",""
"revaluation","93","517110","0.0-3.0-11.0-7.0","spark_pilot_norest","10686","3","17","Female","","false","","","","","[728]","./assets/img/space/15.jpg","[""ArrowUp""]","practice block","space","0","{""ArrowUp,ArrowLeft"":3,""ArrowUp,ArrowRight"":36,""ArrowDown,ArrowLeft"":15,""ArrowDown,ArrowRight"":23}","true","ArrowUp","false","","","","","",""
"html-keyboard-response","94","517622","0.0-3.0-11.0-8.0","spark_pilot_norest","10686","3","17","Female","","","","","","","null","<div style=""font-size:60px;"">+</div>","null","fixation","","","","","","","","","","","",""
"learning-instructions","95","531001","0.0-3.0-11.0-9.0-0.0","spark_pilot_norest","10686","3","17","Female","","","","","","","null","<p> Now you will see the animals again and can search their chests for treasure. </p>
            <p> This time, you will not see how much treasure you earned, but you will earn more bonus money for making better choices. </p>","","instructions","","","","","","","","","","","",""
"html-keyboard-response","96","532016","0.0-3.0-11.0-10.0-0.0","spark_pilot_norest","10686","3","17","Female","","","","","","","null","<div style=""font-size:100px;color:red;"">Starting in...</div>","null","","","","","","","","","","","","",""
"html-keyboard-response","97","533031","0.0-3.0-11.0-10.0-1.0","spark_pilot_norest","10686","3","17","Female","","","","","","","null","<div style=""font-size:200px;color:red;"">3</div>","null","","","","","","","","","","","","",""
"html-keyboard-response","98","534042","0.0-3.0-11.0-10.0-2.0","spark_pilot_norest","10686","3","17","Female","","","","","","","null","<div style=""font-size:200px;color:red;"">2</div>","null","","","","","","","","","","","","",""
"html-keyboard-response","99","535056","0.0-3.0-11.0-10.0-3.0","spark_pilot_norest","10686","3","17","Female","","","","","","","null","<div style=""font-size:200px;color:red;"">1</div>","null","","","","","","","","","","","","",""
"revaluation","100","535814","0.0-3.0-11.0-11.0-0.0","spark_pilot_norest","10686","3","17","Female","","false","","","","","[753.5]","./assets/img/space/animals/cat.jpg","[""ArrowRight""]","practice block","space","0","{""ArrowUp,ArrowLeft"":3,""ArrowUp,ArrowRight"":36,""ArrowDown,ArrowLeft"":15,""ArrowDown,ArrowRight"":23}","true","ArrowUp,ArrowRight","","","","","","",""
"html-keyboard-response","101","536320","0.0-3.0-11.0-11.0-1.0","spark_pilot_norest","10686","3","17","Female","","","","","","","null","<div style=""font-size:60px;"">+</div>","null","fixation","","","","","","","","","","","",""
"revaluation","102","536859","0.0-3.0-11.0-11.0-0.1","spark_pilot_norest","10686","3","17","Female","","false","","","","","[534.2999999523163]","./assets/img/space/animals/rabbit.jpg","[""ArrowRight""]","practice block","space","0","{""ArrowUp,ArrowLeft"":3,""ArrowUp,ArrowRight"":36,""ArrowDown,ArrowLeft"":15,""ArrowDown,ArrowRight"":23}","true","ArrowDown,ArrowRight","","","","","","",""
"html-keyboard-response","103","537364","0.0-3.0-11.0-11.0-1.1","spark_pilot_norest","10686","3","17","Female","","","","","","","null","<div style=""font-size:60px;"">+</div>","null","fixation","","","","","","","","","","","",""
"learning-instructions","104","543390","0.0-3.0-12.0-0.0","spark_pilot_norest","10686","3","17","Female","","","","","","","1457","<p> Before you start, we're going to ask you a few questions about how the game works. </p>","","instructions","","","","","","","","","","","",""
"comp-q","105","553856","0.0-3.0-13.0-0.0-0.0","spark_pilot_norest","10686","3","17","Female","","","","","","","4889.200000047684","<p> <b> True or False? </b> </p>
            <p> There can be 50 pieces of treasure in a given animal's chest. </p>","1","comp_question","","","","true","","","","","","","",""
"comp-q","106","561483","0.0-3.0-13.0-0.0-1.0","spark_pilot_norest","10686","3","17","Female","","","","","","","969.3000000715256","<p> <b> That's right! </b> The amount of treasure in each chest can range from 0 to 40 pieces. </p>","0","comp_answer","","","","","","","","","","","",""
"comp-q","107","569650","0.0-3.0-13.0-0.1-0.1","spark_pilot_norest","10686","3","17","Female","","","","","","","1066.2000000476837","<p> <b> True or False? </b> </p><p> In this game, all animals have the same amount of treasure in their left and right chests. </p>","1","comp_question","","","","true","","","","","","","",""
"comp-q","108","575690","0.0-3.0-13.0-0.1-1.1","spark_pilot_norest","10686","3","17","Female","","","","","","","815.3999999761581","<p> <b> That's right! </b> Animals have different amounts of treasure in their treasure chests. </p>","0","comp_answer","","","","","","","","","","","",""
"comp-q","109","583913","0.0-3.0-13.0-0.2-0.2","spark_pilot_norest","10686","3","17","Female","","","","","","","2388.7999999523163","<p> <b> True or False? </b> </p><p> The same animal will always be there if you go up in the same place. </p>","0","comp_question","","","","true","","","","","","","",""
"comp-q","110","591064","0.0-3.0-13.0-0.2-1.2","spark_pilot_norest","10686","3","17","Female","","","","","","","711","<p> <b> That's right! </b> One animal lives in the upper part and one lives in the lower part of every place. </p>","0","comp_answer","","","","","","","","","","","",""
"comp-q","111","598806","0.0-3.0-13.0-0.3-0.3","spark_pilot_norest","10686","3","17","Female","","","","","","","2222.7000000476837","<p> <b> True or False? </b> </p><p> If you see a different picture, it means you are in a new place. </p>","0","comp_question","","","","false","","","","","","","",""
"comp-q","112","610698","0.0-3.0-13.0-0.3-1.3","spark_pilot_norest","10686","3","17","Female","","","","","","","814.2000000476837","<p> <b>Incorrect.</b> Lots of different images may show the same place. For example,  you may see three different images that all remind you that you are in outer space. </p>","0","comp_answer","","","","","","","","","","","",""
"comp-q","113","618463","0.0-3.0-13.0-0.4-0.4","spark_pilot_norest","10686","3","17","Female","","","","","","","2269.899999976158","<p> <b> True or False? </b> </p><p> If you see a different picture, it means you are in a new place. </p>","1","comp_question","","","","true","","","","","","","",""
"comp-q","114","630607","0.0-3.0-13.0-0.4-1.4","spark_pilot_norest","10686","3","17","Female","","","","","","","933.8999999761581","<p> <b> That's right! </b> Lots of different images may show the same place. For example,  you may see three different images that all remind you that you are in outer space. </p>","0","comp_answer","","","","","","","","","","","",""
"learning-instructions","115","641502","0.0-3.0-14.0-0.0","spark_pilot_norest","10686","3","17","Female","","","","","","","1058.2999999523163","<p> Good job. Remember to do your best because the amount of treasure you earn will be converted into bonus money. </p>
            <p> It’s time to start the real game! </p>","","instructions","","","","","","","","","","","",""
"learning-instructions","116","644989","0.0-4.0-0.0-0.0","spark_pilot_norest","10686","3","17","Female","","","","","","","785.1000000238419","<p> This time you are searching for treasure in the <b>ocean</b>.</p>","","instructions","","","","","","","","","","","",""
"learning-instructions","117","663051","0.0-4.0-0.0-0.1","spark_pilot_norest","10686","3","17","Female","","","","","","","788.5","<p><b>New</b> animals with <b>new</b> treasure chests live here. You need to explore to discover where the animal with the best treasure chest is.</p>
                    <p> Like before, once you figure out which animal has the chest with the most treasure, you should try to get to that animal and select that chest! </p>","","instructions","","","","","","","","","","","",""
"learning-instructions","118","678146","0.0-4.0-1.0-0.0","spark_pilot_norest","10686","3","17","Female","","","","","","","362.1999999284744","<p> Remember, when you see a picture of the place, use the up and down keys to <b>find an animal</b>.</p>
            <p> When you encounter an animal, you should use the left and right keys to <b>select a treasure chest</b>.</p>
            <p> Don't forget to look out for the robber! </p>","","instructions","","","","","","","","","","","",""
"revaluation","119","684175","0.0-4.0-2.0-0.0","spark_pilot_norest","10686","3","17","Female","","false","","","","","[786.2000000476837,440]","./assets/img/ocean/memory/32.jpg","[""ArrowUp"",""ArrowRight""]","value training","ocean","10","{""ArrowUp,ArrowLeft"":23,""ArrowUp,ArrowRight"":10,""ArrowDown,ArrowLeft"":8,""ArrowDown,ArrowRight"":30}","false","ArrowUp,ArrowRight","false","original","1","0","","",""
"html-keyboard-response","120","684691","0.0-4.0-2.0-1.0","spark_pilot_norest","10686","3","17","Female","","","","","","","null","<div style=""font-size:60px;"">+</div>","null","fixation","","","","","","","","","1","","",""
"revaluation","121","690724","0.0-4.0-2.0-0.1","spark_pilot_norest","10686","3","17","Female","","false","","","","","[736,334.7000000476837]","./assets/img/ocean/memory/12.jpg","[""ArrowUp"",""ArrowLeft""]","value training","ocean","23","{""ArrowUp,ArrowLeft"":23,""ArrowUp,ArrowRight"":10,""ArrowDown,ArrowLeft"":8,""ArrowDown,ArrowRight"":30}","false","ArrowUp,ArrowLeft","false","original","1","2","","",""
"html-keyboard-response","122","691238","0.0-4.0-2.0-1.1","spark_pilot_norest","10686","3","17","Female","","","","","","","null","<div style=""font-size:60px;"">+</div>","null","fixation","","","","","","","","","3","","",""
"revaluation","123","697268","0.0-4.0-2.0-0.2","spark_pilot_norest","10686","3","17","Female","","false","","","","","[229.60000002384186,398.10000002384186]","./assets/img/ocean/memory/24.jpg","[""ArrowDown"",""ArrowRight""]","value training","ocean","30","{""ArrowUp,ArrowLeft"":23,""ArrowUp,ArrowRight"":10,""ArrowDown,ArrowLeft"":8,""ArrowDown,ArrowRight"":30}","true","ArrowDown,ArrowRight","false","original","1","4","","",""
"html-keyboard-response","124","697770","0.0-4.0-2.0-1.2","spark_pilot_norest","10686","3","17","Female","","","","","","","null","<div style=""font-size:60px;"">+</div>","null","fixation","","","","","","","","","5","","",""
"revaluation","125","703794","0.0-4.0-2.0-0.3","spark_pilot_norest","10686","3","17","Female","","false","","","","","[1237.5,539.7999999523163]","./assets/img/ocean/memory/22.jpg","[""ArrowDown"",""ArrowLeft""]","value training","ocean","8","{""ArrowUp,ArrowLeft"":23,""ArrowUp,ArrowRight"":10,""ArrowDown,ArrowLeft"":8,""ArrowDown,ArrowRight"":30}","false","ArrowDown,ArrowLeft","false","original","1","6","","",""
"html-keyboard-response","126","704306","0.0-4.0-2.0-1.3","spark_pilot_norest","10686","3","17","Female","","","","","","","null","<div style=""font-size:60px;"">+</div>","null","fixation","","","","","","","","","7","","",""
"revaluation","127","708321","0.0-4.0-2.0-0.4","spark_pilot_norest","10686","3","17","Female","","false","","","","","[1065.2999999523163]","./assets/img/ocean/catch/3.jpg","[""spaceBar""]","value training","ocean","0","{""ArrowUp,ArrowLeft"":23,""ArrowUp,ArrowRight"":10,""ArrowDown,ArrowLeft"":8,""ArrowDown,ArrowRight"":30}","true","spaceBar","true","original","1","8","","",""
"html-keyboard-response","128","708824","0.0-4.0-2.0-1.4","spark_pilot_norest","10686","3","17","Female","","","","","","","null","<div style=""font-size:60px;"">+</div>","null","fixation","","","","","","","","","9","","",""
"revaluation","129","714833","0.0-4.0-2.0-0.5","spark_pilot_norest","10686","3","17","Female","","false","","","","","[503.10000002384186,408]","./assets/img/ocean/memory/26.jpg","[""ArrowDown"",""ArrowRight""]","value training","ocean","30","{""ArrowUp,ArrowLeft"":23,""ArrowUp,ArrowRight"":10,""ArrowDown,ArrowLeft"":8,""ArrowDown,ArrowRight"":30}","true","ArrowDown,ArrowRight","false","original","1","10","","",""
"html-keyboard-response","130","715335","0.0-4.0-2.0-1.5","spark_pilot_norest","10686","3","17","Female","","","","","","","null","<div style=""font-size:60px;"">+</div>","null","fixation","","","","","","","","","11","","",""
"revaluation","131","721344","0.0-4.0-2.0-0.6","spark_pilot_norest","10686","3","17","Female","","false","","","","","[764.2999999523163,445.89999997615814]","./assets/img/ocean/memory/23.jpg","[""ArrowDown"",""ArrowRight""]","value training","ocean","30","{""ArrowUp,ArrowLeft"":23,""ArrowUp,ArrowRight"":10,""ArrowDown,ArrowLeft"":8,""ArrowDown,ArrowRight"":30}","true","ArrowDown,ArrowRight","false","original","1","12","","",""
"html-keyboard-response","132","721845","0.0-4.0-2.0-1.6","spark_pilot_norest","10686","3","17","Female","","","","","","","null","<div style=""font-size:60px;"">+</div>","null","fixation","","","","","","","","","13","","",""
"revaluation","133","727851","0.0-4.0-2.0-0.7","spark_pilot_norest","10686","3","17","Female","","false","","","","","[749.6000000238419,387.2999999523163]","./assets/img/ocean/memory/34.jpg","[""ArrowDown"",""ArrowRight""]","value training","ocean","30","{""ArrowUp,ArrowLeft"":23,""ArrowUp,ArrowRight"":10,""ArrowDown,ArrowLeft"":8,""ArrowDown,ArrowRight"":30}","true","ArrowDown,ArrowRight","false","original","1","14","","",""
"html-keyboard-response","134","728352","0.0-4.0-2.0-1.7","spark_pilot_norest","10686","3","17","Female","","","","","","","null","<div style=""font-size:60px;"">+</div>","null","fixation","","","","","","","","","15","","",""
"revaluation","135","734359","0.0-4.0-2.0-0.8","spark_pilot_norest","10686","3","17","Female","","false","","","","","[990.6000000238419,696.6000000238419]","./assets/img/ocean/memory/11.jpg","[""ArrowDown"",""ArrowRight""]","value training","ocean","30","{""ArrowUp,ArrowLeft"":23,""ArrowUp,ArrowRight"":10,""ArrowDown,ArrowLeft"":8,""ArrowDown,ArrowRight"":30}","true","ArrowDown,ArrowRight","false","original","1","16","","",""
"html-keyboard-response","136","734861","0.0-4.0-2.0-1.8","spark_pilot_norest","10686","3","17","Female","","","","","","","null","<div style=""font-size:60px;"">+</div>","null","fixation","","","","","","","","","17","","",""
"revaluation","137","740869","0.0-4.0-2.0-0.9","spark_pilot_norest","10686","3","17","Female","","false","","","","","[505.90000009536743,428.7000000476837]","./assets/img/ocean/memory/5.jpg","[""ArrowDown"",""ArrowRight""]","value training","ocean","30","{""ArrowUp,ArrowLeft"":23,""ArrowUp,ArrowRight"":10,""ArrowDown,ArrowLeft"":8,""ArrowDown,ArrowRight"":30}","true","ArrowDown,ArrowRight","false","original","1","18","","",""
"html-keyboard-response","138","741371","0.0-4.0-2.0-1.9","spark_pilot_norest","10686","3","17","Female","","","","","","","null","<div style=""font-size:60px;"">+</div>","null","fixation","","","","","","","","","19","","",""
"revaluation","139","747378","0.0-4.0-2.0-0.10","spark_pilot_norest","10686","3","17","Female","","false","","","","","[1041.7000000476837,473.2000000476837]","./assets/img/ocean/memory/10.jpg","[""ArrowDown"",""ArrowRight""]","value training","ocean","30","{""ArrowUp,ArrowLeft"":23,""ArrowUp,ArrowRight"":10,""ArrowDown,ArrowLeft"":8,""ArrowDown,ArrowRight"":30}","true","ArrowDown,ArrowRight","false","original","1","20","","",""
"html-keyboard-response","140","747880","0.0-4.0-2.0-1.10","spark_pilot_norest","10686","3","17","Female","","","","","","","null","<div style=""font-size:60px;"">+</div>","null","fixation","","","","","","","","","21","","",""
"revaluation","141","751889","0.0-4.0-2.0-0.11","spark_pilot_norest","10686","3","17","Female","","false","","","","","[549.7999999523163]","./assets/img/ocean/catch/7.jpg","[""spaceBar""]","value training","ocean","0","{""ArrowUp,ArrowLeft"":23,""ArrowUp,ArrowRight"":10,""ArrowDown,ArrowLeft"":8,""ArrowDown,ArrowRight"":30}","true","spaceBar","true","original","1","22","","",""
"html-keyboard-response","142","752392","0.0-4.0-2.0-1.11","spark_pilot_norest","10686","3","17","Female","","","","","","","null","<div style=""font-size:60px;"">+</div>","null","fixation","","","","","","","","","23","","",""
"revaluation","143","758398","0.0-4.0-2.0-0.12","spark_pilot_norest","10686","3","17","Female","","false","","","","","[406.89999997615814,391]","./assets/img/ocean/memory/0.jpg","[""ArrowDown"",""ArrowRight""]","value training","ocean","30","{""ArrowUp,ArrowLeft"":23,""ArrowUp,ArrowRight"":10,""ArrowDown,ArrowLeft"":8,""ArrowDown,ArrowRight"":30}","true","ArrowDown,ArrowRight","false","original","1","24","","",""
"html-keyboard-response","144","758900","0.0-4.0-2.0-1.12","spark_pilot_norest","10686","3","17","Female","","","","","","","null","<div style=""font-size:60px;"">+</div>","null","fixation","","","","","","","","","25","","",""
"revaluation","145","764907","0.0-4.0-2.0-0.13","spark_pilot_norest","10686","3","17","Female","","false","","","","","[1029.9000000953674,344.2000000476837]","./assets/img/ocean/memory/37.jpg","[""ArrowDown"",""ArrowRight""]","value training","ocean","30","{""ArrowUp,ArrowLeft"":23,""ArrowUp,ArrowRight"":10,""ArrowDown,ArrowLeft"":8,""ArrowDown,ArrowRight"":30}","true","ArrowDown,ArrowRight","false","original","1","26","","",""
"html-keyboard-response","146","765409","0.0-4.0-2.0-1.13","spark_pilot_norest","10686","3","17","Female","","","","","","","null","<div style=""font-size:60px;"">+</div>","null","fixation","","","","","","","","","27","","",""
"revaluation","147","771416","0.0-4.0-2.0-0.14","spark_pilot_norest","10686","3","17","Female","","false","","","","","[904.3999999761581,235]","./assets/img/ocean/memory/34.jpg","[""ArrowDown"",""ArrowRight""]","value training","ocean","30","{""ArrowUp,ArrowLeft"":23,""ArrowUp,ArrowRight"":10,""ArrowDown,ArrowLeft"":8,""ArrowDown,ArrowRight"":30}","true","ArrowDown,ArrowRight","false","original","1","28","","",""
"html-keyboard-response","148","771919","0.0-4.0-2.0-1.14","spark_pilot_norest","10686","3","17","Female","","","","","","","null","<div style=""font-size:60px;"">+</div>","null","fixation","","","","","","","","","29","","",""
"revaluation","149","777926","0.0-4.0-2.0-0.15","spark_pilot_norest","10686","3","17","Female","","false","","","","","[1175.2000000476837,395.8000000715256]","./assets/img/ocean/memory/35.jpg","[""ArrowDown"",""ArrowRight""]","value training","ocean","30","{""ArrowUp,ArrowLeft"":23,""ArrowUp,ArrowRight"":10,""ArrowDown,ArrowLeft"":8,""ArrowDown,ArrowRight"":30}","true","ArrowDown,ArrowRight","false","original","1","30","","",""
"html-keyboard-response","150","778427","0.0-4.0-2.0-1.15","spark_pilot_norest","10686","3","17","Female","","","","","","","null","<div style=""font-size:60px;"">+</div>","null","fixation","","","","","","","","","31","","",""
"revaluation","151","782437","0.0-4.0-2.0-0.16","spark_pilot_norest","10686","3","17","Female","","true","","","","","[]","./assets/img/ocean/memory/24.jpg","[]","value training","ocean","-5","{""ArrowUp,ArrowLeft"":23,""ArrowUp,ArrowRight"":10,""ArrowDown,ArrowLeft"":8,""ArrowDown,ArrowRight"":30}","false","","false","original","1","32","","",""
"html-keyboard-response","152","782939","0.0-4.0-2.0-1.16","spark_pilot_norest","10686","3","17","Female","","","","","","","null","<div style=""font-size:60px;"">+</div>","null","fixation","","","","","","","","","33","","",""
"revaluation","153","788945","0.0-4.0-2.0-0.17","spark_pilot_norest","10686","3","17","Female","","false","","","","","[437.10000002384186,323.6999999284744]","./assets/img/ocean/memory/6.jpg","[""ArrowDown"",""ArrowRight""]","value training","ocean","30","{""ArrowUp,ArrowLeft"":23,""ArrowUp,ArrowRight"":10,""ArrowDown,ArrowLeft"":8,""ArrowDown,ArrowRight"":30}","true","ArrowDown,ArrowRight","false","original","1","34","","",""
"html-keyboard-response","154","789446","0.0-4.0-2.0-1.17","spark_pilot_norest","10686","3","17","Female","","","","","","","null","<div style=""font-size:60px;"">+</div>","null","fixation","","","","","","","","","35","","",""
"revaluation","155","793453","0.0-4.0-2.0-0.18","spark_pilot_norest","10686","3","17","Female","","false","","","","","[650.3000000715256]","./assets/img/ocean/catch/4.jpg","[""spaceBar""]","value training","ocean","0","{""ArrowUp,ArrowLeft"":23,""ArrowUp,ArrowRight"":10,""ArrowDown,ArrowLeft"":8,""ArrowDown,ArrowRight"":30}","true","spaceBar","true","original","1","36","","",""
"html-keyboard-response","156","793955","0.0-4.0-2.0-1.18","spark_pilot_norest","10686","3","17","Female","","","","","","","null","<div style=""font-size:60px;"">+</div>","null","fixation","","","","","","","","","37","","",""
"revaluation","157","799965","0.0-4.0-2.0-0.19","spark_pilot_norest","10686","3","17","Female","","false","","","","","[659.1000000238419,264.7000000476837]","./assets/img/ocean/memory/35.jpg","[""ArrowDown"",""ArrowRight""]","value training","ocean","30","{""ArrowUp,ArrowLeft"":23,""ArrowUp,ArrowRight"":10,""ArrowDown,ArrowLeft"":8,""ArrowDown,ArrowRight"":30}","true","ArrowDown,ArrowRight","false","original","1","38","","",""
"html-keyboard-response","158","800467","0.0-4.0-2.0-1.19","spark_pilot_norest","10686","3","17","Female","","","","","","","null","<div style=""font-size:60px;"">+</div>","null","fixation","","","","","","","","","39","","",""
"revaluation","159","806476","0.0-4.0-2.0-0.20","spark_pilot_norest","10686","3","17","Female","","false","","","","","[848.1000000238419,327.2999999523163]","./assets/img/ocean/memory/0.jpg","[""ArrowDown"",""ArrowRight""]","value training","ocean","30","{""ArrowUp,ArrowLeft"":23,""ArrowUp,ArrowRight"":10,""ArrowDown,ArrowLeft"":8,""ArrowDown,ArrowRight"":30}","true","ArrowDown,ArrowRight","false","original","1","40","","",""
"html-keyboard-response","160","806977","0.0-4.0-2.0-1.20","spark_pilot_norest","10686","3","17","Female","","","","","","","null","<div style=""font-size:60px;"">+</div>","null","fixation","","","","","","","","","41","","",""
"revaluation","161","812982","0.0-4.0-2.0-0.21","spark_pilot_norest","10686","3","17","Female","","false","","","","","[478.5,213.5]","./assets/img/ocean/memory/5.jpg","[""ArrowDown"",""ArrowRight""]","value training","ocean","30","{""ArrowUp,ArrowLeft"":23,""ArrowUp,ArrowRight"":10,""ArrowDown,ArrowLeft"":8,""ArrowDown,ArrowRight"":30}","true","ArrowDown,ArrowRight","false","original","1","42","","",""
"html-keyboard-response","162","813483","0.0-4.0-2.0-1.21","spark_pilot_norest","10686","3","17","Female","","","","","","","null","<div style=""font-size:60px;"">+</div>","null","fixation","","","","","","","","","43","","",""
"revaluation","163","819488","0.0-4.0-2.0-0.22","spark_pilot_norest","10686","3","17","Female","","false","","","","","[774.1999999284744,193.79999995231628]","./assets/img/ocean/memory/10.jpg","[""ArrowDown"",""ArrowRight""]","value training","ocean","30","{""ArrowUp,ArrowLeft"":23,""ArrowUp,ArrowRight"":10,""ArrowDown,ArrowLeft"":8,""ArrowDown,ArrowRight"":30}","true","ArrowDown,ArrowRight","false","original","1","44","","",""
"html-keyboard-response","164","819990","0.0-4.0-2.0-1.22","spark_pilot_norest","10686","3","17","Female","","","","","","","null","<div style=""font-size:60px;"">+</div>","null","fixation","","","","","","","","","45","","",""
"revaluation","165","823996","0.0-4.0-2.0-0.23","spark_pilot_norest","10686","3","17","Female","","false","","","","","[485]","./assets/img/ocean/catch/0.jpg","[""spaceBar""]","value training","ocean","0","{""ArrowUp,ArrowLeft"":23,""ArrowUp,ArrowRight"":10,""ArrowDown,ArrowLeft"":8,""ArrowDown,ArrowRight"":30}","true","spaceBar","true","original","1","46","","",""
"html-keyboard-response","166","824498","0.0-4.0-2.0-1.23","spark_pilot_norest","10686","3","17","Female","","","","","","","null","<div style=""font-size:60px;"">+</div>","null","fixation","","","","","","","","","47","","",""
"revaluation","167","828503","0.0-4.0-2.0-0.24","spark_pilot_norest","10686","3","17","Female","","false","","","","","[629.3000000715256]","./assets/img/ocean/catch/1.jpg","[""spaceBar""]","value training","ocean","0","{""ArrowUp,ArrowLeft"":23,""ArrowUp,ArrowRight"":10,""ArrowDown,ArrowLeft"":8,""ArrowDown,ArrowRight"":30}","true","spaceBar","true","original","1","48","","",""
"html-keyboard-response","168","829004","0.0-4.0-2.0-1.24","spark_pilot_norest","10686","3","17","Female","","","","","","","null","<div style=""font-size:60px;"">+</div>","null","fixation","","","","","","","","","49","","",""
"revaluation","169","835008","0.0-4.0-2.0-0.25","spark_pilot_norest","10686","3","17","Female","","false","","","","","[724.3999999761581,265.39999997615814]","./assets/img/ocean/memory/23.jpg","[""ArrowDown"",""ArrowRight""]","value training","ocean","30","{""ArrowUp,ArrowLeft"":23,""ArrowUp,ArrowRight"":10,""ArrowDown,ArrowLeft"":8,""ArrowDown,ArrowRight"":30}","true","ArrowDown,ArrowRight","false","original","1","50","","",""
"html-keyboard-response","170","835509","0.0-4.0-2.0-1.25","spark_pilot_norest","10686","3","17","Female","","","","","","","null","<div style=""font-size:60px;"">+</div>","null","fixation","","","","","","","","","51","","",""
"revaluation","171","841512","0.0-4.0-2.0-0.26","spark_pilot_norest","10686","3","17","Female","","false","","","","","[704.3000000715256,258.89999997615814]","./assets/img/ocean/memory/2.jpg","[""ArrowDown"",""ArrowRight""]","value training","ocean","30","{""ArrowUp,ArrowLeft"":23,""ArrowUp,ArrowRight"":10,""ArrowDown,ArrowLeft"":8,""ArrowDown,ArrowRight"":30}","true","ArrowDown,ArrowRight","false","original","1","52","","",""
"html-keyboard-response","172","842014","0.0-4.0-2.0-1.26","spark_pilot_norest","10686","3","17","Female","","","","","","","null","<div style=""font-size:60px;"">+</div>","null","fixation","","","","","","","","","53","","",""
"revaluation","173","848018","0.0-4.0-2.0-0.27","spark_pilot_norest","10686","3","17","Female","","false","","","","","[942.5999999046326,407.60000002384186]","./assets/img/ocean/memory/37.jpg","[""ArrowDown"",""ArrowRight""]","value training","ocean","30","{""ArrowUp,ArrowLeft"":23,""ArrowUp,ArrowRight"":10,""ArrowDown,ArrowLeft"":8,""ArrowDown,ArrowRight"":30}","true","ArrowDown,ArrowRight","false","original","1","54","","",""
"html-keyboard-response","174","848534","0.0-4.0-2.0-1.27","spark_pilot_norest","10686","3","17","Female","","","","","","","null","<div style=""font-size:60px;"">+</div>","null","fixation","","","","","","","","","55","","",""
"revaluation","175","854540","0.0-4.0-2.0-0.28","spark_pilot_norest","10686","3","17","Female","","false","","","","","[838.7999999523163,229]","./assets/img/ocean/memory/32.jpg","[""ArrowDown"",""ArrowRight""]","value training","ocean","30","{""ArrowUp,ArrowLeft"":23,""ArrowUp,ArrowRight"":10,""ArrowDown,ArrowLeft"":8,""ArrowDown,ArrowRight"":30}","true","ArrowDown,ArrowRight","false","original","1","56","","",""
"html-keyboard-response","176","855043","0.0-4.0-2.0-1.28","spark_pilot_norest","10686","3","17","Female","","","","","","","null","<div style=""font-size:60px;"">+</div>","null","fixation","","","","","","","","","57","","",""
"revaluation","177","861052","0.0-4.0-2.0-0.29","spark_pilot_norest","10686","3","17","Female","","false","","","","","[1024.3999999761581,220.5]","./assets/img/ocean/memory/22.jpg","[""ArrowDown"",""ArrowRight""]","value training","ocean","30","{""ArrowUp,ArrowLeft"":23,""ArrowUp,ArrowRight"":10,""ArrowDown,ArrowLeft"":8,""ArrowDown,ArrowRight"":30}","true","ArrowDown,ArrowRight","false","original","1","58","","",""
"html-keyboard-response","178","861555","0.0-4.0-2.0-1.29","spark_pilot_norest","10686","3","17","Female","","","","","","","null","<div style=""font-size:60px;"">+</div>","null","fixation","","","","","","","","","59","","",""
"revaluation","179","867564","0.0-4.0-2.0-0.30","spark_pilot_norest","10686","3","17","Female","","false","","","","","[555.3999999761581,210.10000002384186]","./assets/img/ocean/memory/12.jpg","[""ArrowDown"",""ArrowRight""]","value training","ocean","30","{""ArrowUp,ArrowLeft"":23,""ArrowUp,ArrowRight"":10,""ArrowDown,ArrowLeft"":8,""ArrowDown,ArrowRight"":30}","true","ArrowDown,ArrowRight","false","original","1","60","","",""
"html-keyboard-response","180","868066","0.0-4.0-2.0-1.30","spark_pilot_norest","10686","3","17","Female","","","","","","","null","<div style=""font-size:60px;"">+</div>","null","fixation","","","","","","","","","61","","",""
"revaluation","181","874075","0.0-4.0-2.0-0.31","spark_pilot_norest","10686","3","17","Female","","false","","","","","[1172.5,273.89999997615814]","./assets/img/ocean/memory/9.jpg","[""ArrowDown"",""ArrowRight""]","value training","ocean","30","{""ArrowUp,ArrowLeft"":23,""ArrowUp,ArrowRight"":10,""ArrowDown,ArrowLeft"":8,""ArrowDown,ArrowRight"":30}","true","ArrowDown,ArrowRight","false","original","1","62","","",""
"html-keyboard-response","182","874576","0.0-4.0-2.0-1.31","spark_pilot_norest","10686","3","17","Female","","","","","","","null","<div style=""font-size:60px;"">+</div>","null","fixation","","","","","","","","","63","","",""
"revaluation","183","880583","0.0-4.0-2.0-0.32","spark_pilot_norest","10686","3","17","Female","","false","","","","","[706.2999999523163,291.39999997615814]","./assets/img/ocean/memory/31.jpg","[""ArrowDown"",""ArrowLeft""]","value training","ocean","8","{""ArrowUp,ArrowLeft"":23,""ArrowUp,ArrowRight"":10,""ArrowDown,ArrowLeft"":8,""ArrowDown,ArrowRight"":30}","false","ArrowDown,ArrowLeft","false","original","1","64","","",""
"html-keyboard-response","184","881085","0.0-4.0-2.0-1.32","spark_pilot_norest","10686","3","17","Female","","","","","","","null","<div style=""font-size:60px;"">+</div>","null","fixation","","","","","","","","","65","","",""
"revaluation","185","885093","0.0-4.0-2.0-0.33","spark_pilot_norest","10686","3","17","Female","","false","","","","","[632.8999999761581]","./assets/img/ocean/catch/2.jpg","[""spaceBar""]","value training","ocean","0","{""ArrowUp,ArrowLeft"":23,""ArrowUp,ArrowRight"":10,""ArrowDown,ArrowLeft"":8,""ArrowDown,ArrowRight"":30}","true","spaceBar","true","original","1","66","","",""
"html-keyboard-response","186","885595","0.0-4.0-2.0-1.33","spark_pilot_norest","10686","3","17","Female","","","","","","","null","<div style=""font-size:60px;"">+</div>","null","fixation","","","","","","","","","67","","",""
"revaluation","187","891601","0.0-4.0-2.0-0.34","spark_pilot_norest","10686","3","17","Female","","false","","","","","[329.7000000476837,422]","./assets/img/ocean/memory/31.jpg","[""ArrowDown"",""ArrowRight""]","value training","ocean","30","{""ArrowUp,ArrowLeft"":23,""ArrowUp,ArrowRight"":10,""ArrowDown,ArrowLeft"":8,""ArrowDown,ArrowRight"":30}","true","ArrowDown,ArrowRight","false","original","1","68","","",""
"html-keyboard-response","188","892103","0.0-4.0-2.0-1.34","spark_pilot_norest","10686","3","17","Female","","","","","","","null","<div style=""font-size:60px;"">+</div>","null","fixation","","","","","","","","","69","","",""
"revaluation","189","898111","0.0-4.0-2.0-0.35","spark_pilot_norest","10686","3","17","Female","","false","","","","","[404.39999997615814,250.40000009536743]","./assets/img/ocean/memory/33.jpg","[""ArrowDown"",""ArrowRight""]","value training","ocean","30","{""ArrowUp,ArrowLeft"":23,""ArrowUp,ArrowRight"":10,""ArrowDown,ArrowLeft"":8,""ArrowDown,ArrowRight"":30}","true","ArrowDown,ArrowRight","false","original","1","70","","",""
"html-keyboard-response","190","898613","0.0-4.0-2.0-1.35","spark_pilot_norest","10686","3","17","Female","","","","","","","null","<div style=""font-size:60px;"">+</div>","null","fixation","","","","","","","","","71","","",""
"revaluation","191","902618","0.0-4.0-2.0-0.36","spark_pilot_norest","10686","3","17","Female","","false","","","","","[517.9000000953674]","./assets/img/ocean/catch/5.jpg","[""spaceBar""]","value training","ocean","0","{""ArrowUp,ArrowLeft"":23,""ArrowUp,ArrowRight"":10,""ArrowDown,ArrowLeft"":8,""ArrowDown,ArrowRight"":30}","true","spaceBar","true","original","1","72","","",""
"html-keyboard-response","192","903120","0.0-4.0-2.0-1.36","spark_pilot_norest","10686","3","17","Female","","","","","","","null","<div style=""font-size:60px;"">+</div>","null","fixation","","","","","","","","","73","","",""
"revaluation","193","909127","0.0-4.0-2.0-0.37","spark_pilot_norest","10686","3","17","Female","","false","","","","","[633.3000000715256,236.29999995231628]","./assets/img/ocean/memory/2.jpg","[""ArrowDown"",""ArrowRight""]","value training","ocean","30","{""ArrowUp,ArrowLeft"":23,""ArrowUp,ArrowRight"":10,""ArrowDown,ArrowLeft"":8,""ArrowDown,ArrowRight"":30}","true","ArrowDown,ArrowRight","false","original","1","74","","",""
"html-keyboard-response","194","909629","0.0-4.0-2.0-1.37","spark_pilot_norest","10686","3","17","Female","","","","","","","null","<div style=""font-size:60px;"">+</div>","null","fixation","","","","","","","","","75","","",""
"revaluation","195","913636","0.0-4.0-2.0-0.38","spark_pilot_norest","10686","3","17","Female","","false","","","","","[559.8999999761581]","./assets/img/ocean/catch/6.jpg","[""spaceBar""]","value training","ocean","0","{""ArrowUp,ArrowLeft"":23,""ArrowUp,ArrowRight"":10,""ArrowDown,ArrowLeft"":8,""ArrowDown,ArrowRight"":30}","true","spaceBar","true","original","1","76","","",""
"html-keyboard-response","196","914138","0.0-4.0-2.0-1.38","spark_pilot_norest","10686","3","17","Female","","","","","","","null","<div style=""font-size:60px;"">+</div>","null","fixation","","","","","","","","","77","","",""
"revaluation","197","920144","0.0-4.0-2.0-0.39","spark_pilot_norest","10686","3","17","Female","","false","","","","","[701.7999999523163,431.5]","./assets/img/ocean/memory/29.jpg","[""ArrowDown"",""ArrowRight""]","value training","ocean","30","{""ArrowUp,ArrowLeft"":23,""ArrowUp,ArrowRight"":10,""ArrowDown,ArrowLeft"":8,""ArrowDown,ArrowRight"":30}","true","ArrowDown,ArrowRight","false","original","1","78","","",""
"html-keyboard-response","198","920646","0.0-4.0-2.0-1.39","spark_pilot_norest","10686","3","17","Female","","","","","","","null","<div style=""font-size:60px;"">+</div>","null","fixation","","","","","","","","","79","","",""
"revaluation","199","926651","0.0-4.0-2.0-0.40","spark_pilot_norest","10686","3","17","Female","","false","","","","","[779.6000000238419,250]","./assets/img/ocean/memory/26.jpg","[""ArrowDown"",""ArrowRight""]","value training","ocean","30","{""ArrowUp,ArrowLeft"":23,""ArrowUp,ArrowRight"":10,""ArrowDown,ArrowLeft"":8,""ArrowDown,ArrowRight"":30}","true","ArrowDown,ArrowRight","false","original","1","80","","",""
"html-keyboard-response","200","927152","0.0-4.0-2.0-1.40","spark_pilot_norest","10686","3","17","Female","","","","","","","null","<div style=""font-size:60px;"">+</div>","null","fixation","","","","","","","","","81","","",""
"revaluation","201","933175","0.0-4.0-2.0-0.41","spark_pilot_norest","10686","3","17","Female","","false","","","","","[892.6000000238419,218.20000004768372]","./assets/img/ocean/memory/38.jpg","[""ArrowDown"",""ArrowRight""]","value training","ocean","30","{""ArrowUp,ArrowLeft"":23,""ArrowUp,ArrowRight"":10,""ArrowDown,ArrowLeft"":8,""ArrowDown,ArrowRight"":30}","true","ArrowDown,ArrowRight","false","original","1","82","","",""
"html-keyboard-response","202","933677","0.0-4.0-2.0-1.41","spark_pilot_norest","10686","3","17","Female","","","","","","","null","<div style=""font-size:60px;"">+</div>","null","fixation","","","","","","","","","83","","",""
"revaluation","203","939682","0.0-4.0-2.0-0.42","spark_pilot_norest","10686","3","17","Female","","false","","","","","[548.4000000953674,155.80000007152557]","./assets/img/ocean/memory/1.jpg","[""ArrowDown"",""ArrowRight""]","value training","ocean","30","{""ArrowUp,ArrowLeft"":23,""ArrowUp,ArrowRight"":10,""ArrowDown,ArrowLeft"":8,""ArrowDown,ArrowRight"":30}","true","ArrowDown,ArrowRight","false","original","1","84","","",""
"html-keyboard-response","204","940183","0.0-4.0-2.0-1.42","spark_pilot_norest","10686","3","17","Female","","","","","","","null","<div style=""font-size:60px;"">+</div>","null","fixation","","","","","","","","","85","","",""
"revaluation","205","946189","0.0-4.0-2.0-0.43","spark_pilot_norest","10686","3","17","Female","","false","","","","","[675.5,202]","./assets/img/ocean/memory/33.jpg","[""ArrowDown"",""ArrowRight""]","value training","ocean","30","{""ArrowUp,ArrowLeft"":23,""ArrowUp,ArrowRight"":10,""ArrowDown,ArrowLeft"":8,""ArrowDown,ArrowRight"":30}","true","ArrowDown,ArrowRight","false","original","1","86","","",""
"html-keyboard-response","206","946691","0.0-4.0-2.0-1.43","spark_pilot_norest","10686","3","17","Female","","","","","","","null","<div style=""font-size:60px;"">+</div>","null","fixation","","","","","","","","","87","","",""
"revaluation","207","952694","0.0-4.0-2.0-0.44","spark_pilot_norest","10686","3","17","Female","","false","","","","","[645.8000000715256,223.29999995231628]","./assets/img/ocean/memory/6.jpg","[""ArrowDown"",""ArrowRight""]","value training","ocean","30","{""ArrowUp,ArrowLeft"":23,""ArrowUp,ArrowRight"":10,""ArrowDown,ArrowLeft"":8,""ArrowDown,ArrowRight"":30}","true","ArrowDown,ArrowRight","false","original","1","88","","",""
"html-keyboard-response","208","953195","0.0-4.0-2.0-1.44","spark_pilot_norest","10686","3","17","Female","","","","","","","null","<div style=""font-size:60px;"">+</div>","null","fixation","","","","","","","","","89","","",""
"revaluation","209","959203","0.0-4.0-2.0-0.45","spark_pilot_norest","10686","3","17","Female","","false","","","","","[754.1000000238419,194.80000007152557]","./assets/img/ocean/memory/11.jpg","[""ArrowDown"",""ArrowRight""]","value training","ocean","30","{""ArrowUp,ArrowLeft"":23,""ArrowUp,ArrowRight"":10,""ArrowDown,ArrowLeft"":8,""ArrowDown,ArrowRight"":30}","true","ArrowDown,ArrowRight","false","original","1","90","","",""
"html-keyboard-response","210","959704","0.0-4.0-2.0-1.45","spark_pilot_norest","10686","3","17","Female","","","","","","","null","<div style=""font-size:60px;"">+</div>","null","fixation","","","","","","","","","91","","",""
"revaluation","211","965713","0.0-4.0-2.0-0.46","spark_pilot_norest","10686","3","17","Female","","false","","","","","[675.6000000238419,213.19999992847443]","./assets/img/ocean/memory/1.jpg","[""ArrowDown"",""ArrowRight""]","value training","ocean","30","{""ArrowUp,ArrowLeft"":23,""ArrowUp,ArrowRight"":10,""ArrowDown,ArrowLeft"":8,""ArrowDown,ArrowRight"":30}","true","ArrowDown,ArrowRight","false","original","1","92","","",""
"html-keyboard-response","212","966216","0.0-4.0-2.0-1.46","spark_pilot_norest","10686","3","17","Female","","","","","","","null","<div style=""font-size:60px;"">+</div>","null","fixation","","","","","","","","","93","","",""
"revaluation","213","972225","0.0-4.0-2.0-0.47","spark_pilot_norest","10686","3","17","Female","","false","","","","","[809.2999999523163,250.39999997615814]","./assets/img/ocean/memory/9.jpg","[""ArrowDown"",""ArrowRight""]","value training","ocean","30","{""ArrowUp,ArrowLeft"":23,""ArrowUp,ArrowRight"":10,""ArrowDown,ArrowLeft"":8,""ArrowDown,ArrowRight"":30}","true","ArrowDown,ArrowRight","false","original","1","94","","",""
"html-keyboard-response","214","972727","0.0-4.0-2.0-1.47","spark_pilot_norest","10686","3","17","Female","","","","","","","null","<div style=""font-size:60px;"">+</div>","null","fixation","","","","","","","","","95","","",""
"revaluation","215","978733","0.0-4.0-2.0-0.48","spark_pilot_norest","10686","3","17","Female","","false","","","","","[742.2000000476837,229.5]","./assets/img/ocean/memory/38.jpg","[""ArrowDown"",""ArrowRight""]","value training","ocean","30","{""ArrowUp,ArrowLeft"":23,""ArrowUp,ArrowRight"":10,""ArrowDown,ArrowLeft"":8,""ArrowDown,ArrowRight"":30}","true","ArrowDown,ArrowRight","false","original","1","96","","",""
"html-keyboard-response","216","979235","0.0-4.0-2.0-1.48","spark_pilot_norest","10686","3","17","Female","","","","","","","null","<div style=""font-size:60px;"">+</div>","null","fixation","","","","","","","","","97","","",""
"revaluation","217","985241","0.0-4.0-2.0-0.49","spark_pilot_norest","10686","3","17","Female","","false","","","","","[679.2000000476837,212.19999992847443]","./assets/img/ocean/memory/29.jpg","[""ArrowDown"",""ArrowRight""]","value training","ocean","30","{""ArrowUp,ArrowLeft"":23,""ArrowUp,ArrowRight"":10,""ArrowDown,ArrowLeft"":8,""ArrowDown,ArrowRight"":30}","true","ArrowDown,ArrowRight","false","original","1","98","","",""
"html-keyboard-response","218","985743","0.0-4.0-2.0-1.49","spark_pilot_norest","10686","3","17","Female","","","","","","","null","<div style=""font-size:60px;"">+</div>","null","fixation","","","","","","","","","99","","",""
"learning-instructions","219","1000433","0.0-4.0-3.0-0.0","spark_pilot_norest","10686","3","17","Female","","","","","","","1795.5","<p> Now, you will travel with a friend who will choose whether you go up or down first. </p>
            <p> On these turns, you will just see the animal that they found. You will still get to choose which chest to search for treasure.</p>","","instructions","","","","","","","","","","","",""
"revaluation","220","1004458","0.0-4.0-4.0-0.0","spark_pilot_norest","10686","3","17","Female","","false","","","","","[1167.6999999284744]","./assets/img/ocean/animals/seahorse.jpg","[""ArrowRight""]","revaluation","ocean","10","{""ArrowUp,ArrowLeft"":23,""ArrowUp,ArrowRight"":10,""ArrowDown,ArrowLeft"":8,""ArrowDown,ArrowRight"":30}","false","ArrowUp,ArrowRight","","original","1","0","","",""
"html-keyboard-response","221","1004974","0.0-4.0-4.0-1.0","spark_pilot_norest","10686","3","17","Female","","","","","","","null","<div style=""font-size:60px;"">+</div>","null","fixation","","","","","","","","","1","","",""
"revaluation","222","1009004","0.0-4.0-4.0-0.1","spark_pilot_norest","10686","3","17","Female","","false","","","","","[397.6999999284744]","./assets/img/ocean/animals/octopus.jpg","[""ArrowLeft""]","revaluation","ocean","8","{""ArrowUp,ArrowLeft"":23,""ArrowUp,ArrowRight"":10,""ArrowDown,ArrowLeft"":8,""ArrowDown,ArrowRight"":30}","false","ArrowDown,ArrowLeft","","original","1","2","","",""
"html-keyboard-response","223","1009515","0.0-4.0-4.0-1.1","spark_pilot_norest","10686","3","17","Female","","","","","","","null","<div style=""font-size:60px;"">+</div>","null","fixation","","","","","","","","","3","","",""
"revaluation","224","1013539","0.0-4.0-4.0-0.2","spark_pilot_norest","10686","3","17","Female","","false","","","","","[1536.3000000715256]","./assets/img/ocean/animals/octopus.jpg","[""ArrowRight""]","revaluation","ocean","30","{""ArrowUp,ArrowLeft"":23,""ArrowUp,ArrowRight"":10,""ArrowDown,ArrowLeft"":8,""ArrowDown,ArrowRight"":30}","true","ArrowDown,ArrowRight","","original","1","4","","",""
"html-keyboard-response","225","1014055","0.0-4.0-4.0-1.2","spark_pilot_norest","10686","3","17","Female","","","","","","","null","<div style=""font-size:60px;"">+</div>","null","fixation","","","","","","","","","5","","",""
"revaluation","226","1018077","0.0-4.0-4.0-0.3","spark_pilot_norest","10686","3","17","Female","","false","","","","","[336.7999999523163]","./assets/img/ocean/animals/seahorse.jpg","[""ArrowLeft""]","revaluation","ocean","23","{""ArrowUp,ArrowLeft"":23,""ArrowUp,ArrowRight"":10,""ArrowDown,ArrowLeft"":8,""ArrowDown,ArrowRight"":30}","true","ArrowUp,ArrowLeft","","original","1","6","","",""
"html-keyboard-response","227","1018591","0.0-4.0-4.0-1.3","spark_pilot_norest","10686","3","17","Female","","","","","","","null","<div style=""font-size:60px;"">+</div>","null","fixation","","","","","","","","","7","","",""
"revaluation","228","1022608","0.0-4.0-4.0-0.4","spark_pilot_norest","10686","3","17","Female","","false","","","","","[973]","./assets/img/ocean/animals/seahorse.jpg","[""ArrowLeft""]","revaluation","ocean","23","{""ArrowUp,ArrowLeft"":23,""ArrowUp,ArrowRight"":10,""ArrowDown,ArrowLeft"":8,""ArrowDown,ArrowRight"":30}","true","ArrowUp,ArrowLeft","","original","1","8","","",""
"html-keyboard-response","229","1023120","0.0-4.0-4.0-1.4","spark_pilot_norest","10686","3","17","Female","","","","","","","null","<div style=""font-size:60px;"">+</div>","null","fixation","","","","","","","","","9","","",""
"revaluation","230","1027140","0.0-4.0-4.0-0.5","spark_pilot_norest","10686","3","17","Female","","false","","","","","[1509.1000000238419]","./assets/img/ocean/animals/seahorse.jpg","[""ArrowRight""]","revaluation","ocean","10","{""ArrowUp,ArrowLeft"":23,""ArrowUp,ArrowRight"":10,""ArrowDown,ArrowLeft"":8,""ArrowDown,ArrowRight"":30}","false","ArrowUp,ArrowRight","","original","1","10","","",""
"html-keyboard-response","231","1027649","0.0-4.0-4.0-1.5","spark_pilot_norest","10686","3","17","Female","","","","","","","null","<div style=""font-size:60px;"">+</div>","null","fixation","","","","","","","","","11","","",""
"revaluation","232","1031656","0.0-4.0-4.0-0.6","spark_pilot_norest","10686","3","17","Female","","true","","","","","[]","./assets/img/ocean/animals/octopus.jpg","[]","revaluation","ocean","-5","{""ArrowUp,ArrowLeft"":23,""ArrowUp,ArrowRight"":10,""ArrowDown,ArrowLeft"":8,""ArrowDown,ArrowRight"":30}","false","ArrowDown","","original","1","12","","",""
"html-keyboard-response","233","1032158","0.0-4.0-4.0-1.6","spark_pilot_norest","10686","3","17","Female","","","","","","","null","<div style=""font-size:60px;"">+</div>","null","fixation","","","","","","","","","13","","",""
"revaluation","234","1036165","0.0-4.0-4.0-0.7","spark_pilot_norest","10686","3","17","Female","","false","","","","","[387.7999999523163]","./assets/img/ocean/animals/octopus.jpg","[""ArrowRight""]","revaluation","ocean","30","{""ArrowUp,ArrowLeft"":23,""ArrowUp,ArrowRight"":10,""ArrowDown,ArrowLeft"":8,""ArrowDown,ArrowRight"":30}","true","ArrowDown,ArrowRight","","original","1","14","","",""
"html-keyboard-response","235","1036676","0.0-4.0-4.0-1.7","spark_pilot_norest","10686","3","17","Female","","","","","","","null","<div style=""font-size:60px;"">+</div>","null","fixation","","","","","","","","","15","","",""
"revaluation","236","1040683","0.0-4.0-4.0-0.8","spark_pilot_norest","10686","3","17","Female","","false","","","","","[497]","./assets/img/ocean/animals/seahorse.jpg","[""ArrowLeft""]","revaluation","ocean","23","{""ArrowUp,ArrowLeft"":23,""ArrowUp,ArrowRight"":10,""ArrowDown,ArrowLeft"":8,""ArrowDown,ArrowRight"":30}","true","ArrowUp,ArrowLeft","","original","1","16","","",""
"html-keyboard-response","237","1041185","0.0-4.0-4.0-1.8","spark_pilot_norest","10686","3","17","Female","","","","","","","null","<div style=""font-size:60px;"">+</div>","null","fixation","","","","","","","","","17","","",""
"revaluation","238","1045189","0.0-4.0-4.0-0.9","spark_pilot_norest","10686","3","17","Female","","false","","","","","[375.5]","./assets/img/ocean/animals/octopus.jpg","[""ArrowRight""]","revaluation","ocean","30","{""ArrowUp,ArrowLeft"":23,""ArrowUp,ArrowRight"":10,""ArrowDown,ArrowLeft"":8,""ArrowDown,ArrowRight"":30}","true","ArrowDown,ArrowRight","","original","1","18","","",""
"html-keyboard-response","239","1045691","0.0-4.0-4.0-1.9","spark_pilot_norest","10686","3","17","Female","","","","","","","null","<div style=""font-size:60px;"">+</div>","null","fixation","","","","","","","","","19","","",""
"revaluation","240","1049695","0.0-4.0-4.0-0.10","spark_pilot_norest","10686","3","17","Female","","false","","","","","[325.39999997615814]","./assets/img/ocean/animals/seahorse.jpg","[""ArrowLeft""]","revaluation","ocean","23","{""ArrowUp,ArrowLeft"":23,""ArrowUp,ArrowRight"":10,""ArrowDown,ArrowLeft"":8,""ArrowDown,ArrowRight"":30}","true","ArrowUp,ArrowLeft","","original","1","20","","",""
"html-keyboard-response","241","1050197","0.0-4.0-4.0-1.10","spark_pilot_norest","10686","3","17","Female","","","","","","","null","<div style=""font-size:60px;"">+</div>","null","fixation","","","","","","","","","21","","",""
"revaluation","242","1054203","0.0-4.0-4.0-0.11","spark_pilot_norest","10686","3","17","Female","","false","","","","","[282.8000000715256]","./assets/img/ocean/animals/seahorse.jpg","[""ArrowLeft""]","revaluation","ocean","23","{""ArrowUp,ArrowLeft"":23,""ArrowUp,ArrowRight"":10,""ArrowDown,ArrowLeft"":8,""ArrowDown,ArrowRight"":30}","true","ArrowUp,ArrowLeft","","original","1","22","","",""
"html-keyboard-response","243","1054705","0.0-4.0-4.0-1.11","spark_pilot_norest","10686","3","17","Female","","","","","","","null","<div style=""font-size:60px;"">+</div>","null","fixation","","","","","","","","","23","","",""
"revaluation","244","1058712","0.0-4.0-4.0-0.12","spark_pilot_norest","10686","3","17","Female","","false","","","","","[444.2000000476837]","./assets/img/ocean/animals/seahorse.jpg","[""ArrowLeft""]","revaluation","ocean","23","{""ArrowUp,ArrowLeft"":23,""ArrowUp,ArrowRight"":10,""ArrowDown,ArrowLeft"":8,""ArrowDown,ArrowRight"":30}","true","ArrowUp,ArrowLeft","","original","1","24","","",""
"html-keyboard-response","245","1059213","0.0-4.0-4.0-1.12","spark_pilot_norest","10686","3","17","Female","","","","","","","null","<div style=""font-size:60px;"">+</div>","null","fixation","","","","","","","","","25","","",""
"revaluation","246","1063219","0.0-4.0-4.0-0.13","spark_pilot_norest","10686","3","17","Female","","false","","","","","[418.09999990463257]","./assets/img/ocean/animals/octopus.jpg","[""ArrowRight""]","revaluation","ocean","30","{""ArrowUp,ArrowLeft"":23,""ArrowUp,ArrowRight"":10,""ArrowDown,ArrowLeft"":8,""ArrowDown,ArrowRight"":30}","true","ArrowDown,ArrowRight","","original","1","26","","",""
"html-keyboard-response","247","1063720","0.0-4.0-4.0-1.13","spark_pilot_norest","10686","3","17","Female","","","","","","","null","<div style=""font-size:60px;"">+</div>","null","fixation","","","","","","","","","27","","",""
"revaluation","248","1067727","0.0-4.0-4.0-0.14","spark_pilot_norest","10686","3","17","Female","","false","","","","","[368.10000002384186]","./assets/img/ocean/animals/octopus.jpg","[""ArrowRight""]","revaluation","ocean","30","{""ArrowUp,ArrowLeft"":23,""ArrowUp,ArrowRight"":10,""ArrowDown,ArrowLeft"":8,""ArrowDown,ArrowRight"":30}","true","ArrowDown,ArrowRight","","original","1","28","","",""
"html-keyboard-response","249","1068229","0.0-4.0-4.0-1.14","spark_pilot_norest","10686","3","17","Female","","","","","","","null","<div style=""font-size:60px;"">+</div>","null","fixation","","","","","","","","","29","","",""
"revaluation","250","1072234","0.0-4.0-4.0-0.15","spark_pilot_norest","10686","3","17","Female","","false","","","","","[570.8999999761581]","./assets/img/ocean/animals/seahorse.jpg","[""ArrowLeft""]","revaluation","ocean","23","{""ArrowUp,ArrowLeft"":23,""ArrowUp,ArrowRight"":10,""ArrowDown,ArrowLeft"":8,""ArrowDown,ArrowRight"":30}","true","ArrowUp,ArrowLeft","","original","1","30","","",""
"html-keyboard-response","251","1072735","0.0-4.0-4.0-1.15","spark_pilot_norest","10686","3","17","Female","","","","","","","null","<div style=""font-size:60px;"">+</div>","null","fixation","","","","","","","","","31","","",""
"revaluation","252","1076741","0.0-4.0-4.0-0.16","spark_pilot_norest","10686","3","17","Female","","false","","","","","[684]","./assets/img/ocean/animals/octopus.jpg","[""ArrowRight""]","revaluation","ocean","30","{""ArrowUp,ArrowLeft"":23,""ArrowUp,ArrowRight"":10,""ArrowDown,ArrowLeft"":8,""ArrowDown,ArrowRight"":30}","true","ArrowDown,ArrowRight","","original","1","32","","",""
"html-keyboard-response","253","1077243","0.0-4.0-4.0-1.16","spark_pilot_norest","10686","3","17","Female","","","","","","","null","<div style=""font-size:60px;"">+</div>","null","fixation","","","","","","","","","33","","",""
"revaluation","254","1081250","0.0-4.0-4.0-0.17","spark_pilot_norest","10686","3","17","Female","","false","","","","","[252.30000007152557]","./assets/img/ocean/animals/octopus.jpg","[""ArrowRight""]","revaluation","ocean","30","{""ArrowUp,ArrowLeft"":23,""ArrowUp,ArrowRight"":10,""ArrowDown,ArrowLeft"":8,""ArrowDown,ArrowRight"":30}","true","ArrowDown,ArrowRight","","original","1","34","","",""
"html-keyboard-response","255","1081753","0.0-4.0-4.0-1.17","spark_pilot_norest","10686","3","17","Female","","","","","","","null","<div style=""font-size:60px;"">+</div>","null","fixation","","","","","","","","","35","","",""
"learning-instructions","256","1089900","0.0-4.0-5.0-0.0","spark_pilot_norest","10686","3","17","Female","","","","","","","null","<p> You have almost finished this part of the game! </p>
            <p> We are going to ask you to make a few more choices. </p>","","instructions","","","","","","","","","","","",""
"learning-instructions","257","1105886","0.0-4.0-5.0-0.1","spark_pilot_norest","10686","3","17","Female","","","","","","","null","<p> First, you need to decide whether to go up or down. When you see each picture, use the arrow keys to make your choice. </p>
            <p><b>You will not see which animal you found, but try to get to the one that will give you the most treasure.</b></p>","","instructions","","","","","","","","","","","",""
"html-keyboard-response","258","1106901","0.0-4.0-6.0-0.0","spark_pilot_norest","10686","3","17","Female","","","","","","","null","<div style=""font-size:100px;color:red;"">Starting in...</div>","null","","","","","","","","","","","","",""
"html-keyboard-response","259","1107915","0.0-4.0-6.0-1.0","spark_pilot_norest","10686","3","17","Female","","","","","","","null","<div style=""font-size:200px;color:red;"">3</div>","null","","","","","","","","","","","","",""
"html-keyboard-response","260","1108927","0.0-4.0-6.0-2.0","spark_pilot_norest","10686","3","17","Female","","","","","","","null","<div style=""font-size:200px;color:red;"">2</div>","null","","","","","","","","","","","","",""
"html-keyboard-response","261","1109930","0.0-4.0-6.0-3.0","spark_pilot_norest","10686","3","17","Female","","","","","","","null","<div style=""font-size:200px;color:red;"">1</div>","null","","","","","","","","","","","","",""
"revaluation","262","1110420","0.0-4.0-7.0-0.0","spark_pilot_norest","10686","3","17","Female","","false","","","","","[486]","./assets/img/ocean/test/3.jpg","[""ArrowUp""]","first stage test","ocean","0","{""ArrowUp,ArrowLeft"":23,""ArrowUp,ArrowRight"":10,""ArrowDown,ArrowLeft"":8,""ArrowDown,ArrowRight"":30}","false","ArrowUp","false","original","1","","","",""
"html-keyboard-response","263","1110932","0.0-4.0-7.0-1.0","spark_pilot_norest","10686","3","17","Female","","","","","","","null","<div style=""font-size:60px;"">+</div>","null","fixation","","","","","","","","","","","",""
"revaluation","264","1111863","0.0-4.0-7.0-0.1","spark_pilot_norest","10686","3","17","Female","","false","","","","","[927.2000000476837]","./assets/img/ocean/test/2.jpg","[""ArrowUp""]","first stage test","ocean","0","{""ArrowUp,ArrowLeft"":23,""ArrowUp,ArrowRight"":10,""ArrowDown,ArrowLeft"":8,""ArrowDown,ArrowRight"":30}","false","ArrowUp","false","original","1","","","",""
"html-keyboard-response","265","1112365","0.0-4.0-7.0-1.1","spark_pilot_norest","10686","3","17","Female","","","","","","","null","<div style=""font-size:60px;"">+</div>","null","fixation","","","","","","","","","","","",""
"revaluation","266","1114239","0.0-4.0-7.0-0.2","spark_pilot_norest","10686","3","17","Female","","false","","","","","[1871.7999999523163]","./assets/img/ocean/test/0.jpg","[""ArrowDown""]","first stage test","ocean","0","{""ArrowUp,ArrowLeft"":23,""ArrowUp,ArrowRight"":10,""ArrowDown,ArrowLeft"":8,""ArrowDown,ArrowRight"":30}","true","ArrowDown","false","original","1","","","",""
"html-keyboard-response","267","1114753","0.0-4.0-7.0-1.2","spark_pilot_norest","10686","3","17","Female","","","","","","","null","<div style=""font-size:60px;"">+</div>","null","fixation","","","","","","","","","","","",""
"revaluation","268","1115758","0.0-4.0-7.0-0.3","spark_pilot_norest","10686","3","17","Female","","false","","","","","[1000.4000000953674]","./assets/img/ocean/test/1.jpg","[""ArrowUp""]","first stage test","ocean","0","{""ArrowUp,ArrowLeft"":23,""ArrowUp,ArrowRight"":10,""ArrowDown,ArrowLeft"":8,""ArrowDown,ArrowRight"":30}","false","ArrowUp","false","original","1","","","",""
"html-keyboard-response","269","1116271","0.0-4.0-7.0-1.3","spark_pilot_norest","10686","3","17","Female","","","","","","","null","<div style=""font-size:60px;"">+</div>","null","fixation","","","","","","","","","","","",""
"learning-instructions","270","1129613","0.0-4.0-8.0-0.0","spark_pilot_norest","10686","3","17","Female","","","","","","","null","<p> Now you will see the animals again and can search their chests for treasure. </p>
            <p> This time, you will not see how much treasure you earned, but you will earn more bonus money for making better choices. </p>","","instructions","","","","","","","","","","","",""
"html-keyboard-response","271","1130626","0.0-4.0-9.0-0.0","spark_pilot_norest","10686","3","17","Female","","","","","","","null","<div style=""font-size:100px;color:red;"">Starting in...</div>","null","","","","","","","","","","","","",""
"html-keyboard-response","272","1131642","0.0-4.0-9.0-1.0","spark_pilot_norest","10686","3","17","Female","","","","","","","null","<div style=""font-size:200px;color:red;"">3</div>","null","","","","","","","","","","","","",""
"html-keyboard-response","273","1132643","0.0-4.0-9.0-2.0","spark_pilot_norest","10686","3","17","Female","","","","","","","null","<div style=""font-size:200px;color:red;"">2</div>","null","","","","","","","","","","","","",""
"html-keyboard-response","274","1133658","0.0-4.0-9.0-3.0","spark_pilot_norest","10686","3","17","Female","","","","","","","null","<div style=""font-size:200px;color:red;"">1</div>","null","","","","","","","","","","","","",""
"revaluation","275","1134442","0.0-4.0-10.0-0.0","spark_pilot_norest","10686","3","17","Female","","false","","","","","[780.7000000476837]","./assets/img/ocean/animals/seahorse.jpg","[""ArrowRight""]","second stage test","ocean","0","{""ArrowUp,ArrowLeft"":23,""ArrowUp,ArrowRight"":10,""ArrowDown,ArrowLeft"":8,""ArrowDown,ArrowRight"":30}","false","ArrowUp,ArrowRight","","original","1","","","",""
"html-keyboard-response","276","1134951","0.0-4.0-10.0-1.0","spark_pilot_norest","10686","3","17","Female","","","","","","","null","<div style=""font-size:60px;"">+</div>","null","fixation","","","","","","","","","","","",""
"revaluation","277","1135588","0.0-4.0-10.0-0.1","spark_pilot_norest","10686","3","17","Female","","false","","","","","[631.4000000953674]","./assets/img/ocean/animals/seahorse.jpg","[""ArrowRight""]","second stage test","ocean","0","{""ArrowUp,ArrowLeft"":23,""ArrowUp,ArrowRight"":10,""ArrowDown,ArrowLeft"":8,""ArrowDown,ArrowRight"":30}","false","ArrowUp,ArrowRight","","original","1","","","",""
"html-keyboard-response","278","1136103","0.0-4.0-10.0-1.1","spark_pilot_norest","10686","3","17","Female","","","","","","","null","<div style=""font-size:60px;"">+</div>","null","fixation","","","","","","","","","","","",""
"revaluation","279","1136888","0.0-4.0-10.0-0.2","spark_pilot_norest","10686","3","17","Female","","false","","","","","[782.2999999523163]","./assets/img/ocean/animals/seahorse.jpg","[""ArrowLeft""]","second stage test","ocean","0","{""ArrowUp,ArrowLeft"":23,""ArrowUp,ArrowRight"":10,""ArrowDown,ArrowLeft"":8,""ArrowDown,ArrowRight"":30}","true","ArrowUp,ArrowLeft","","original","1","","","",""
"html-keyboard-response","280","1137397","0.0-4.0-10.0-1.2","spark_pilot_norest","10686","3","17","Female","","","","","","","null","<div style=""font-size:60px;"">+</div>","null","fixation","","","","","","","","","","","",""
"revaluation","281","1137754","0.0-4.0-10.0-0.3","spark_pilot_norest","10686","3","17","Female","","false","","","","","[354.39999997615814]","./assets/img/ocean/animals/seahorse.jpg","[""ArrowLeft""]","second stage test","ocean","0","{""ArrowUp,ArrowLeft"":23,""ArrowUp,ArrowRight"":10,""ArrowDown,ArrowLeft"":8,""ArrowDown,ArrowRight"":30}","true","ArrowUp,ArrowLeft","","original","1","","","",""
"html-keyboard-response","282","1138267","0.0-4.0-10.0-1.3","spark_pilot_norest","10686","3","17","Female","","","","","","","null","<div style=""font-size:60px;"">+</div>","null","fixation","","","","","","","","","","","",""
"revaluation","283","1139183","0.0-4.0-10.0-0.4","spark_pilot_norest","10686","3","17","Female","","false","","","","","[914.8999999761581]","./assets/img/ocean/animals/octopus.jpg","[""ArrowRight""]","second stage test","ocean","0","{""ArrowUp,ArrowLeft"":23,""ArrowUp,ArrowRight"":10,""ArrowDown,ArrowLeft"":8,""ArrowDown,ArrowRight"":30}","true","ArrowDown,ArrowRight","","original","1","","","",""
"html-keyboard-response","284","1139689","0.0-4.0-10.0-1.4","spark_pilot_norest","10686","3","17","Female","","","","","","","null","<div style=""font-size:60px;"">+</div>","null","fixation","","","","","","","","","","","",""
"revaluation","285","1140021","0.0-4.0-10.0-0.5","spark_pilot_norest","10686","3","17","Female","","false","","","","","[329.8000000715256]","./assets/img/ocean/animals/octopus.jpg","[""ArrowRight""]","second stage test","ocean","0","{""ArrowUp,ArrowLeft"":23,""ArrowUp,ArrowRight"":10,""ArrowDown,ArrowLeft"":8,""ArrowDown,ArrowRight"":30}","true","ArrowDown,ArrowRight","","original","1","","","",""
"html-keyboard-response","286","1140533","0.0-4.0-10.0-1.5","spark_pilot_norest","10686","3","17","Female","","","","","","","null","<div style=""font-size:60px;"">+</div>","null","fixation","","","","","","","","","","","",""
"revaluation","287","1141004","0.0-4.0-10.0-0.6","spark_pilot_norest","10686","3","17","Female","","false","","","","","[469.39999997615814]","./assets/img/ocean/animals/octopus.jpg","[""ArrowRight""]","second stage test","ocean","0","{""ArrowUp,ArrowLeft"":23,""ArrowUp,ArrowRight"":10,""ArrowDown,ArrowLeft"":8,""ArrowDown,ArrowRight"":30}","true","ArrowDown,ArrowRight","","original","1","","","",""
"html-keyboard-response","288","1141516","0.0-4.0-10.0-1.6","spark_pilot_norest","10686","3","17","Female","","","","","","","null","<div style=""font-size:60px;"">+</div>","null","fixation","","","","","","","","","","","",""
"revaluation","289","1141755","0.0-4.0-10.0-0.7","spark_pilot_norest","10686","3","17","Female","","false","","","","","[238.29999995231628]","./assets/img/ocean/animals/octopus.jpg","[""ArrowRight""]","second stage test","ocean","0","{""ArrowUp,ArrowLeft"":23,""ArrowUp,ArrowRight"":10,""ArrowDown,ArrowLeft"":8,""ArrowDown,ArrowRight"":30}","true","ArrowDown,ArrowRight","","original","1","","","",""
"html-keyboard-response","290","1142262","0.0-4.0-10.0-1.7","spark_pilot_norest","10686","3","17","Female","","","","","","","null","<div style=""font-size:60px;"">+</div>","null","fixation","","","","","","","","","","","",""
"learning-instructions","291","1146729","0.0-4.0-0.1-0.2","spark_pilot_norest","10686","3","17","Female","","","","","","","1714.3999999761581","<p> This time you are searching for treasure in the <b>canyon</b>.</p>","","instructions","","","","","","","","","","","",""
"learning-instructions","292","1164754","0.0-4.0-0.1-0.3","spark_pilot_norest","10686","3","17","Female","","","","","","","779.2999999523163","<p><b>New</b> animals with <b>new</b> treasure chests live here. You need to explore to discover where the animal with the best treasure chest is.</p>
                    <p> Like before, once you figure out which animal has the chest with the most treasure, you should try to get to that animal and select that chest! </p>","","instructions","","","","","","","","","","","",""
"learning-instructions","293","1180841","0.0-4.0-1.1-0.1","spark_pilot_norest","10686","3","17","Female","","","","","","","1356.8999999761581","<p> Remember, when you see a picture of the place, use the up and down keys to <b>find an animal</b>.</p>
            <p> When you encounter an animal, you should use the left and right keys to <b>select a treasure chest</b>.</p>
            <p> Don't forget to look out for the robber! </p>","","instructions","","","","","","","","","","","",""
"revaluation","294","1186856","0.0-4.0-2.1-0.50","spark_pilot_norest","10686","3","17","Female","","false","","","","","[1387.6999999284744,444.2999999523163]","./assets/img/canyon/memory/34.jpg","[""ArrowUp"",""ArrowRight""]","value training","canyon","10","{""ArrowUp,ArrowLeft"":26,""ArrowUp,ArrowRight"":10,""ArrowDown,ArrowLeft"":5,""ArrowDown,ArrowRight"":17}","false","ArrowUp,ArrowRight","false","revaluation","2","0","","",""
"html-keyboard-response","295","1187366","0.0-4.0-2.1-1.50","spark_pilot_norest","10686","3","17","Female","","","","","","","null","<div style=""font-size:60px;"">+</div>","null","fixation","","","","","","","","","1","","",""
"revaluation","296","1193397","0.0-4.0-2.1-0.51","spark_pilot_norest","10686","3","17","Female","","false","","","","","[691.7999999523163,234.89999997615814]","./assets/img/canyon/memory/11.jpg","[""ArrowUp"",""ArrowLeft""]","value training","canyon","26","{""ArrowUp,ArrowLeft"":26,""ArrowUp,ArrowRight"":10,""ArrowDown,ArrowLeft"":5,""ArrowDown,ArrowRight"":17}","true","ArrowUp,ArrowLeft","false","revaluation","2","2","","",""
"html-keyboard-response","297","1193912","0.0-4.0-2.1-1.51","spark_pilot_norest","10686","3","17","Female","","","","","","","null","<div style=""font-size:60px;"">+</div>","null","fixation","","","","","","","","","3","","",""
"revaluation","298","1199941","0.0-4.0-2.1-0.52","spark_pilot_norest","10686","3","17","Female","","false","","","","","[493.2999999523163,239.70000004768372]","./assets/img/canyon/memory/1.jpg","[""ArrowDown"",""ArrowRight""]","value training","canyon","17","{""ArrowUp,ArrowLeft"":26,""ArrowUp,ArrowRight"":10,""ArrowDown,ArrowLeft"":5,""ArrowDown,ArrowRight"":17}","false","ArrowDown,ArrowRight","false","revaluation","2","4","","",""
"html-keyboard-response","299","1200443","0.0-4.0-2.1-1.52","spark_pilot_norest","10686","3","17","Female","","","","","","","null","<div style=""font-size:60px;"">+</div>","null","fixation","","","","","","","","","5","","",""
"revaluation","300","1204464","0.0-4.0-2.1-0.53","spark_pilot_norest","10686","3","17","Female","","false","","","","","[429.60000002384186]","./assets/img/canyon/catch/0.jpg","[""spaceBar""]","value training","canyon","0","{""ArrowUp,ArrowLeft"":26,""ArrowUp,ArrowRight"":10,""ArrowDown,ArrowLeft"":5,""ArrowDown,ArrowRight"":17}","true","spaceBar","true","revaluation","2","6","","",""
"html-keyboard-response","301","1204977","0.0-4.0-2.1-1.53","spark_pilot_norest","10686","3","17","Female","","","","","","","null","<div style=""font-size:60px;"">+</div>","null","fixation","","","","","","","","","7","","",""
"revaluation","302","1210991","0.0-4.0-2.1-0.54","spark_pilot_norest","10686","3","17","Female","","false","","","","","[439.89999997615814,315.60000002384186]","./assets/img/canyon/memory/29.jpg","[""ArrowDown"",""ArrowLeft""]","value training","canyon","5","{""ArrowUp,ArrowLeft"":26,""ArrowUp,ArrowRight"":10,""ArrowDown,ArrowLeft"":5,""ArrowDown,ArrowRight"":17}","false","ArrowDown,ArrowLeft","false","revaluation","2","8","","",""
"html-keyboard-response","303","1211492","0.0-4.0-2.1-1.54","spark_pilot_norest","10686","3","17","Female","","","","","","","null","<div style=""font-size:60px;"">+</div>","null","fixation","","","","","","","","","9","","",""
"revaluation","304","1217498","0.0-4.0-2.1-0.55","spark_pilot_norest","10686","3","17","Female","","false","","","","","[525,196.60000002384186]","./assets/img/canyon/memory/31.jpg","[""ArrowUp"",""ArrowLeft""]","value training","canyon","26","{""ArrowUp,ArrowLeft"":26,""ArrowUp,ArrowRight"":10,""ArrowDown,ArrowLeft"":5,""ArrowDown,ArrowRight"":17}","true","ArrowUp,ArrowLeft","false","revaluation","2","10","","",""
"html-keyboard-response","305","1217999","0.0-4.0-2.1-1.55","spark_pilot_norest","10686","3","17","Female","","","","","","","null","<div style=""font-size:60px;"">+</div>","null","fixation","","","","","","","","","11","","",""
"revaluation","306","1224005","0.0-4.0-2.1-0.56","spark_pilot_norest","10686","3","17","Female","","false","","","","","[594,203.30000007152557]","./assets/img/canyon/memory/24.jpg","[""ArrowUp"",""ArrowLeft""]","value training","canyon","26","{""ArrowUp,ArrowLeft"":26,""ArrowUp,ArrowRight"":10,""ArrowDown,ArrowLeft"":5,""ArrowDown,ArrowRight"":17}","true","ArrowUp,ArrowLeft","false","revaluation","2","12","","",""
"html-keyboard-response","307","1224507","0.0-4.0-2.1-1.56","spark_pilot_norest","10686","3","17","Female","","","","","","","null","<div style=""font-size:60px;"">+</div>","null","fixation","","","","","","","","","13","","",""
"revaluation","308","1230515","0.0-4.0-2.1-0.57","spark_pilot_norest","10686","3","17","Female","","false","","","","","[841,209.80000007152557]","./assets/img/canyon/memory/26.jpg","[""ArrowUp"",""ArrowLeft""]","value training","canyon","26","{""ArrowUp,ArrowLeft"":26,""ArrowUp,ArrowRight"":10,""ArrowDown,ArrowLeft"":5,""ArrowDown,ArrowRight"":17}","true","ArrowUp,ArrowLeft","false","revaluation","2","14","","",""
"html-keyboard-response","309","1231016","0.0-4.0-2.1-1.57","spark_pilot_norest","10686","3","17","Female","","","","","","","null","<div style=""font-size:60px;"">+</div>","null","fixation","","","","","","","","","15","","",""
"revaluation","310","1237018","0.0-4.0-2.1-0.58","spark_pilot_norest","10686","3","17","Female","","false","","","","","[771.6000000238419,267.89999997615814]","./assets/img/canyon/memory/35.jpg","[""ArrowUp"",""ArrowLeft""]","value training","canyon","26","{""ArrowUp,ArrowLeft"":26,""ArrowUp,ArrowRight"":10,""ArrowDown,ArrowLeft"":5,""ArrowDown,ArrowRight"":17}","true","ArrowUp,ArrowLeft","false","revaluation","2","16","","",""
