"trial_type","trial_index","time_elapsed","internal_node_id","task_version","subject_id","assigned_condition","age","gender","success","timeout","failed_images","failed_audio","failed_video","browser_interaction","rt","stimulus","response","task_part","environment","score","rewardMap","correct","fullState","isCatch","condition","order","trial_num","key_press","ground_truth","bonus"
"pavlovia","0","2008","0.0-0.0","spark_pilot_norest","8735","6","23","Female","","","","","","","","","","","","","","","","","","","","","",""
"preload","1","8163","0.0-1.0","spark_pilot_norest","8735","6","23","Female","true","false","[]","[]","[]","[{""event"":""fullscreenenter"",""trial"":2,""time"":22225}]","","","","","","","","","","","","","","","",""
"fullscreen","2","23211","0.0-2.0","spark_pilot_norest","8735","6","23","Female","true","","","","","","","","","","","","","","","","","","","","",""
"audio-button-response","3","32157","0.0-3.0-0.0-0.0","spark_pilot_norest","8735","6","23","Female","","","","","","","8720","./assets/audio/audiotest/turtle.mp3","4","audio_test","","","","","","","","","","","",""
"audio-button-response","4","35486","0.0-3.0-0.1-0.1","spark_pilot_norest","8735","6","23","Female","","","","","","","2309","./assets/audio/audiotest/turtle.mp3","2","audio_test","","","","","","","","","","","",""
"learning-instructions","5","47808","0.0-3.0-1.0-0.0","spark_pilot_norest","8735","6","23","Female","","","","","","","5294.5","<p> Welcome! Please remember to stay in fullscreen mode and don't click away from the experiment. </p>","","instructions","","","","","","","","","","","",""
"learning-instructions","6","58750","0.0-3.0-1.0-0.1","spark_pilot_norest","8735","6","23","Female","","","","","","","2513.3999996185303","<p> Today you will be playing a game to earn treasure. </p>
            <p> At the end of the experiment, you will earn a bonus based on how much treasure you find. </p>
            <img src='./assets/img/instructions/treasure.jpg' class='instructions-image'>","","instructions","","","","","","","","","","","",""
"learning-instructions","7","71192","0.0-3.0-1.0-0.2","spark_pilot_norest","8735","6","23","Female","","","","","","","4175.699999809265","<p> Animals have hidden treasure in treasure chests. </p>
            <p> You need to first find an animal and then choose which of their treasure chests to search. </p>
            <img src='./assets/img/space/animals/cat.jpg' class='instructions-image'>","","instructions","","","","","","","","","","","",""
"learning-instructions","8","93551","0.0-3.0-1.0-0.3","spark_pilot_norest","8735","6","23","Female","","","","","","","9194.099999427795","<p> In each round, you will search for treasure in a different place. In the real game, there will be two rounds. </p>
            <p> You will begin with a separate, practice round where you will search for treasure in outer space. </p>
            <img src='./assets/img/space/0.jpg' class='instructions-image'>","","instructions","","","","","","","","","","","",""
"learning-instructions","9","105723","0.0-3.0-1.0-0.4","spark_pilot_norest","8735","6","23","Female","","","","","","","758.0999994277954","<p> On every turn, you will see a picture of the place that you are in, but the specific image may be different each time. </p>
            <p> For example, both of these images mean you are in outer space. </p>
            <img src='./assets/img/instructions/outerspace.jpg' class='instructions-image'>","","instructions","","","","","","","","","","","",""
"learning-instructions","10","114159","0.0-3.0-1.0-0.5","spark_pilot_norest","8735","6","23","Female","","","","","","","602.1999998092651","<p> You need to decide which direction to travel in. </p>
            <p> You can choose between going <b>up or down</b> by using the arrow keys. </p>
            <img src='./assets/img/instructions/updown.jpg' class='instructions-image'>","","instructions","","","","","","","","","","","",""
"learning-instructions","11","123776","0.0-3.0-1.0-0.6","spark_pilot_norest","8735","6","23","Female","","","","","","","800.6999998092651","<p> You will have <b>2 seconds</b> to make your choice. </p>
            <p> If you do not make a choice within 2 seconds, you will not find an animal or earn treasure. </p>
            <img src='./assets/img/instructions/2seconds.jpg' class='instructions-image'>","","instructions","","","","","","","","","","","",""
"learning-instructions","12","132026","0.0-3.0-1.0-0.7","spark_pilot_norest","8735","6","23","Female","","","","","","","1211.8999996185303","<p> Let’s try practicing that now! </p>
            <p> When you see a picture of the place you are in, press the <b>up</b> key to travel up. </p>
            <img src='./assets/img/instructions/pressUp.jpg' class='instructions-image'>","","instructions","","","","","","","","","","","",""
"revaluation","13","136076","0.0-3.0-2.0-0.0","spark_pilot_norest","8735","6","23","Female","","false","","","","","[941.3999996185303]","./assets/img/space/0.jpg","[""ArrowUp""]","first stage practice","space","0","null","null","ArrowUp","false","","","","","",""
"html-keyboard-response","14","136594","0.0-3.0-2.0-1.0","spark_pilot_norest","8735","6","23","Female","","","","","","","null","<div style=""font-size:60px;"">+</div>","null","fixation","","","","","","","","","","","",""
"revaluation","15","140615","0.0-3.0-2.0-0.1","spark_pilot_norest","8735","6","23","Female","","false","","","","","[724.9000005722046]","./assets/img/space/1.jpg","[""ArrowUp""]","first stage practice","space","0","null","null","ArrowUp","false","","","","","",""
"html-keyboard-response","16","141123","0.0-3.0-2.0-1.1","spark_pilot_norest","8735","6","23","Female","","","","","","","null","<div style=""font-size:60px;"">+</div>","null","fixation","","","","","","","","","","","",""
"revaluation","17","145163","0.0-3.0-2.0-0.2","spark_pilot_norest","8735","6","23","Female","","false","","","","","[537.5]","./assets/img/space/2.jpg","[""ArrowUp""]","first stage practice","space","0","null","null","ArrowUp","false","","","","","",""
"html-keyboard-response","18","145683","0.0-3.0-2.0-1.2","spark_pilot_norest","8735","6","23","Female","","","","","","","null","<div style=""font-size:60px;"">+</div>","null","fixation","","","","","","","","","","","",""
"learning-instructions","19","152582","0.0-3.0-3.0-0.0","spark_pilot_norest","8735","6","23","Female","","","","","","","2156.300000190735","<p> Great job! Now try pressing the <b>down</b> key to travel down. </p>
            <img src='./assets/img/instructions/pressDown.jpg' class='instructions-image'>","","instructions","","","","","","","","","","","",""
"revaluation","20","156615","0.0-3.0-4.0-0.0","spark_pilot_norest","8735","6","23","Female","","false","","","","","[403.69999980926514]","./assets/img/space/3.jpg","[""ArrowDown""]","first stage practice","space","0","null","null","ArrowDown","false","","","","","",""
"html-keyboard-response","21","157133","0.0-3.0-4.0-1.0","spark_pilot_norest","8735","6","23","Female","","","","","","","null","<div style=""font-size:60px;"">+</div>","null","fixation","","","","","","","","","","","",""
"revaluation","22","161154","0.0-3.0-4.0-0.1","spark_pilot_norest","8735","6","23","Female","","false","","","","","[313.5]","./assets/img/space/4.jpg","[""ArrowDown""]","first stage practice","space","0","null","null","ArrowDown","false","","","","","",""
"html-keyboard-response","23","161663","0.0-3.0-4.0-1.1","spark_pilot_norest","8735","6","23","Female","","","","","","","null","<div style=""font-size:60px;"">+</div>","null","fixation","","","","","","","","","","","",""
"revaluation","24","165703","0.0-3.0-4.0-0.2","spark_pilot_norest","8735","6","23","Female","","false","","","","","[634.5]","./assets/img/space/5.jpg","[""ArrowDown""]","first stage practice","space","0","null","null","ArrowDown","false","","","","","",""
"html-keyboard-response","25","166214","0.0-3.0-4.0-1.2","spark_pilot_norest","8735","6","23","Female","","","","","","","null","<div style=""font-size:60px;"">+</div>","null","fixation","","","","","","","","","","","",""
"learning-instructions","26","177229","0.0-3.0-5.0-0.0","spark_pilot_norest","8735","6","23","Female","","","","","","","1094.3000001907349","<p> The animals don’t move, so the animal in the upper part of a place will stay in the upper part of a place, and the animal in the lower part of a place will stay in the lower part of a place. </p>","","instructions","","","","","","","","","","","",""
"learning-instructions","27","187942","0.0-3.0-5.0-0.1","spark_pilot_norest","8735","6","23","Female","","","","","","","1581.4000005722046","<p> Each animal has two treasure chests for you to choose from. </p>
            <p> The amount of treasure in each chest can range from <b> 0 to 40 pieces.</b></p>","","instructions","","","","","","","","","","","",""
"learning-instructions","28","200022","0.0-3.0-5.0-0.2","spark_pilot_norest","8735","6","23","Female","","","","","","","891.1000003814697","<p> You should decide which chest to search for treasure by using the <b>left</b> and <b>right</b> arrow keys. </p>
            <p><b> Pay attention to which animal is on the screen, as the animals have different treasure chests. </b></p>
            <img src='./assets/img/instructions/leftright.jpg' class='instructions-image'>","","instructions","","","","","","","","","","","",""
"learning-instructions","29","207146","0.0-3.0-5.0-0.3","spark_pilot_norest","8735","6","23","Female","","","","","","","754.8999996185303","<p> Let’s try practicing that now. </p>
            <p> When you see an animal, choose which chest to search for treasure. </p>
            <img src='./assets/img/instructions/chooseChest.jpg' class='instructions-image'>","","instructions","","","","","","","","","","","",""
"revaluation","30","211179","0.0-3.0-6.0-0.0","spark_pilot_norest","8735","6","23","Female","","false","","","","","[996]","./assets/img/space/animals/rabbit.jpg","[""ArrowLeft""]","second stage practice","space","15","{""ArrowUp,ArrowLeft"":3,""ArrowUp,ArrowRight"":36,""ArrowDown,ArrowLeft"":15,""ArrowDown,ArrowRight"":23}","false","ArrowDown,ArrowLeft","","","","","","",""
"html-keyboard-response","31","211688","0.0-3.0-6.0-1.0","spark_pilot_norest","8735","6","23","Female","","","","","","","null","<div style=""font-size:60px;"">+</div>","null","fixation","","","","","","","","","","","",""
"revaluation","32","215710","0.0-3.0-6.0-0.1","spark_pilot_norest","8735","6","23","Female","","false","","","","","[305]","./assets/img/space/animals/rabbit.jpg","[""ArrowRight""]","second stage practice","space","23","{""ArrowUp,ArrowLeft"":3,""ArrowUp,ArrowRight"":36,""ArrowDown,ArrowLeft"":15,""ArrowDown,ArrowRight"":23}","true","ArrowDown,ArrowRight","","","","","","",""
"html-keyboard-response","33","216218","0.0-3.0-6.0-1.1","spark_pilot_norest","8735","6","23","Female","","","","","","","null","<div style=""font-size:60px;"">+</div>","null","fixation","","","","","","","","","","","",""
"revaluation","34","220249","0.0-3.0-6.0-0.2","spark_pilot_norest","8735","6","23","Female","","false","","","","","[307.3999996185303]","./assets/img/space/animals/cat.jpg","[""ArrowRight""]","second stage practice","space","36","{""ArrowUp,ArrowLeft"":3,""ArrowUp,ArrowRight"":36,""ArrowDown,ArrowLeft"":15,""ArrowDown,ArrowRight"":23}","true","ArrowUp,ArrowRight","","","","","","",""
"html-keyboard-response","35","220758","0.0-3.0-6.0-1.2","spark_pilot_norest","8735","6","23","Female","","","","","","","null","<div style=""font-size:60px;"">+</div>","null","fixation","","","","","","","","","","","",""
"revaluation","36","224789","0.0-3.0-6.0-0.3","spark_pilot_norest","8735","6","23","Female","","false","","","","","[323.5]","./assets/img/space/animals/cat.jpg","[""ArrowLeft""]","second stage practice","space","3","{""ArrowUp,ArrowLeft"":3,""ArrowUp,ArrowRight"":36,""ArrowDown,ArrowLeft"":15,""ArrowDown,ArrowRight"":23}","false","ArrowUp,ArrowLeft","","","","","","",""
"html-keyboard-response","37","225294","0.0-3.0-6.0-1.3","spark_pilot_norest","8735","6","23","Female","","","","","","","null","<div style=""font-size:60px;"">+</div>","null","fixation","","","","","","","","","","","",""
"learning-instructions","38","245651","0.0-3.0-7.0-0.0","spark_pilot_norest","8735","6","23","Female","","","","","","","3441.5","<p> Great job. Now let’s try putting it together. </p>
            <p> On each turn, you will first see a picture to remind you of the place you are in, and you need to choose whether to go up or down. </p>
            <p> Then you will see an animal and choose which of its chests to search for treasure. </p>","","instructions","","","","","","","","","","","",""
"learning-instructions","39","254875","0.0-3.0-7.0-0.1","spark_pilot_norest","8735","6","23","Female","","","","","","","950.1999998092651","<p> When you choose whether to go up or down, try to go to the animal with the chest with the most treasure. </p>
            <p> Try practicing that now! </p>","","instructions","","","","","","","","","","","",""
"revaluation","40","260913","0.0-3.0-8.0-0.0","spark_pilot_norest","8735","6","23","Female","","false","","","","","[828.8999996185303,811.6000003814697]","./assets/img/space/6.jpg","[""ArrowUp"",""ArrowRight""]","full practice","space","36","{""ArrowUp,ArrowLeft"":3,""ArrowUp,ArrowRight"":36,""ArrowDown,ArrowLeft"":15,""ArrowDown,ArrowRight"":23}","true","ArrowUp,ArrowRight","false","","","","","",""
"html-keyboard-response","41","261423","0.0-3.0-8.0-1.0","spark_pilot_norest","8735","6","23","Female","","","","","","","null","<div style=""font-size:60px;"">+</div>","null","fixation","","","","","","","","","","","",""
"revaluation","42","267463","0.0-3.0-8.0-0.1","spark_pilot_norest","8735","6","23","Female","","false","","","","","[787.3000001907349,583.1000003814697]","./assets/img/space/7.jpg","[""ArrowUp"",""ArrowRight""]","full practice","space","36","{""ArrowUp,ArrowLeft"":3,""ArrowUp,ArrowRight"":36,""ArrowDown,ArrowLeft"":15,""ArrowDown,ArrowRight"":23}","true","ArrowUp,ArrowRight","false","","","","","",""
"html-keyboard-response","43","267983","0.0-3.0-8.0-1.1","spark_pilot_norest","8735","6","23","Female","","","","","","","null","<div style=""font-size:60px;"">+</div>","null","fixation","","","","","","","","","","","",""
"revaluation","44","274033","0.0-3.0-8.0-0.2","spark_pilot_norest","8735","6","23","Female","","false","","","","","[420.0999994277954,677.3999996185303]","./assets/img/space/8.jpg","[""ArrowUp"",""ArrowRight""]","full practice","space","36","{""ArrowUp,ArrowLeft"":3,""ArrowUp,ArrowRight"":36,""ArrowDown,ArrowLeft"":15,""ArrowDown,ArrowRight"":23}","true","ArrowUp,ArrowRight","false","","","","","",""
"html-keyboard-response","45","274553","0.0-3.0-8.0-1.2","spark_pilot_norest","8735","6","23","Female","","","","","","","null","<div style=""font-size:60px;"">+</div>","null","fixation","","","","","","","","","","","",""
"revaluation","46","280604","0.0-3.0-8.0-0.3","spark_pilot_norest","8735","6","23","Female","","false","","","","","[319.69999980926514,525.3000001907349]","./assets/img/space/9.jpg","[""ArrowDown"",""ArrowRight""]","full practice","space","23","{""ArrowUp,ArrowLeft"":3,""ArrowUp,ArrowRight"":36,""ArrowDown,ArrowLeft"":15,""ArrowDown,ArrowRight"":23}","false","ArrowDown,ArrowRight","false","","","","","",""
"html-keyboard-response","47","281122","0.0-3.0-8.0-1.3","spark_pilot_norest","8735","6","23","Female","","","","","","","null","<div style=""font-size:60px;"">+</div>","null","fixation","","","","","","","","","","","",""
"revaluation","48","287141","0.0-3.0-8.0-0.4","spark_pilot_norest","8735","6","23","Female","","false","","","","","[329.3999996185303,407.80000019073486]","./assets/img/space/10.jpg","[""ArrowDown"",""ArrowLeft""]","full practice","space","15","{""ArrowUp,ArrowLeft"":3,""ArrowUp,ArrowRight"":36,""ArrowDown,ArrowLeft"":15,""ArrowDown,ArrowRight"":23}","false","ArrowDown,ArrowLeft","false","","","","","",""
"html-keyboard-response","49","287651","0.0-3.0-8.0-1.4","spark_pilot_norest","8735","6","23","Female","","","","","","","null","<div style=""font-size:60px;"">+</div>","null","fixation","","","","","","","","","","","",""
"learning-instructions","50","298897","0.0-3.0-9.0-0.0","spark_pilot_norest","8735","6","23","Female","","","","","","","870.8000001907349","<p> One last thing: sometimes, you will see a robber. The robber can be anywhere in the picture. </p>
            <p> If you do not stop them, you will lose treasure. </p>
            <img src='./assets/img/instructions/robber.jpg' class='instructions-image'>","","instructions","","","","","","","","","","","",""
"learning-instructions","51","306805","0.0-3.0-9.0-0.1","spark_pilot_norest","8735","6","23","Female","","","","","","","739.5999994277954","<p> If you see the robber, you should <b>press the space bar</b> rather than using the arrow keys. </p>
            <p> Try practicing that now! </p>","","instructions","","","","","","","","","","","",""
"revaluation","52","310834","0.0-3.0-10.0-0.0","spark_pilot_norest","8735","6","23","Female","","false","","","","","[603.6000003814697]","./assets/img/space/catch/0.jpg","[""spaceBar""]","catch practice","space","0","{""ArrowUp,ArrowLeft"":3,""ArrowUp,ArrowRight"":36,""ArrowDown,ArrowLeft"":15,""ArrowDown,ArrowRight"":23}","true","spaceBar","true","","","","","",""
"html-keyboard-response","53","311343","0.0-3.0-10.0-1.0","spark_pilot_norest","8735","6","23","Female","","","","","","","null","<div style=""font-size:60px;"">+</div>","null","fixation","","","","","","","","","","","",""
"revaluation","54","315375","0.0-3.0-10.0-0.1","spark_pilot_norest","8735","6","23","Female","","false","","","","","[847.3000001907349]","./assets/img/space/catch/1.jpg","[""spaceBar""]","catch practice","space","0","{""ArrowUp,ArrowLeft"":3,""ArrowUp,ArrowRight"":36,""ArrowDown,ArrowLeft"":15,""ArrowDown,ArrowRight"":23}","true","spaceBar","true","","","","","",""
"html-keyboard-response","55","315883","0.0-3.0-10.0-1.1","spark_pilot_norest","8735","6","23","Female","","","","","","","null","<div style=""font-size:60px;"">+</div>","null","fixation","","","","","","","","","","","",""
"revaluation","56","319914","0.0-3.0-10.0-0.2","spark_pilot_norest","8735","6","23","Female","","false","","","","","[419.3999996185303]","./assets/img/space/catch/2.jpg","[""spaceBar""]","catch practice","space","0","{""ArrowUp,ArrowLeft"":3,""ArrowUp,ArrowRight"":36,""ArrowDown,ArrowLeft"":15,""ArrowDown,ArrowRight"":23}","true","spaceBar","true","","","","","",""
"html-keyboard-response","57","320423","0.0-3.0-10.0-1.2","spark_pilot_norest","8735","6","23","Female","","","","","","","null","<div style=""font-size:60px;"">+</div>","null","fixation","","","","","","","","","","","",""
"learning-instructions","58","330651","0.0-3.0-11.0-0.0-0.0","spark_pilot_norest","8735","6","23","Female","","","","","","","4906","<p> Now, you will practice a shortened version of the game to get a sense of how it all fits together. </p>","","instructions","","","","","","","","","","","",""
"learning-instructions","59","334798","0.0-3.0-11.0-0.0-0.1","spark_pilot_norest","8735","6","23","Female","","","","","","","962.0999994277954","<p>This time you are searching for treasure in outer space.</p>","","instructions","","","","","","","","","","","",""
"learning-instructions","60","350733","0.0-3.0-11.0-1.0-0.0","spark_pilot_norest","8735","6","23","Female","","","","","","","1158.0999994277954","<p> Remember, when you see a picture of the place, use the up and down keys to <b>find an animal</b>.</p>
            <p> When you encounter an animal, you should use the left and right keys to <b>select a treasure chest</b>.</p>
            <p> Don't forget to look out for the robber! </p>","","instructions","","","","","","","","","","","",""
"revaluation","61","356793","0.0-3.0-11.0-2.0-0.0","spark_pilot_norest","8735","6","23","Female","","false","","","","","[670.8999996185303,443.6000003814697]","./assets/img/space/11.jpg","[""ArrowUp"",""ArrowLeft""]","practice block","space","3","{""ArrowUp,ArrowLeft"":3,""ArrowUp,ArrowRight"":36,""ArrowDown,ArrowLeft"":15,""ArrowDown,ArrowRight"":23}","false","ArrowUp,ArrowLeft","false","","","","","",""
"html-keyboard-response","62","357313","0.0-3.0-11.0-2.0-1.0","spark_pilot_norest","8735","6","23","Female","","","","","","","null","<div style=""font-size:60px;"">+</div>","null","fixation","","","","","","","","","","","",""
"revaluation","63","363364","0.0-3.0-11.0-2.0-0.1","spark_pilot_norest","8735","6","23","Female","","false","","","","","[422.79999923706055,335]","./assets/img/space/12.jpg","[""ArrowUp"",""ArrowRight""]","practice block","space","36","{""ArrowUp,ArrowLeft"":3,""ArrowUp,ArrowRight"":36,""ArrowDown,ArrowLeft"":15,""ArrowDown,ArrowRight"":23}","true","ArrowUp,ArrowRight","false","","","","","",""
"html-keyboard-response","64","363873","0.0-3.0-11.0-2.0-1.1","spark_pilot_norest","8735","6","23","Female","","","","","","","null","<div style=""font-size:60px;"">+</div>","null","fixation","","","","","","","","","","","",""
"revaluation","65","369923","0.0-3.0-11.0-2.0-0.2","spark_pilot_norest","8735","6","23","Female","","false","","","","","[816,369.6000003814697]","./assets/img/space/13.jpg","[""ArrowUp"",""ArrowRight""]","practice block","space","36","{""ArrowUp,ArrowLeft"":3,""ArrowUp,ArrowRight"":36,""ArrowDown,ArrowLeft"":15,""ArrowDown,ArrowRight"":23}","true","ArrowUp,ArrowRight","false","","","","","",""
"html-keyboard-response","66","370433","0.0-3.0-11.0-2.0-1.2","spark_pilot_norest","8735","6","23","Female","","","","","","","null","<div style=""font-size:60px;"">+</div>","null","fixation","","","","","","","","","","","",""
"revaluation","67","376453","0.0-3.0-11.0-2.0-0.3","spark_pilot_norest","8735","6","23","Female","","false","","","","","[562.5999994277954,333.70000076293945]","./assets/img/space/14.jpg","[""ArrowUp"",""ArrowRight""]","practice block","space","36","{""ArrowUp,ArrowLeft"":3,""ArrowUp,ArrowRight"":36,""ArrowDown,ArrowLeft"":15,""ArrowDown,ArrowRight"":23}","true","ArrowUp,ArrowRight","false","","","","","",""
"html-keyboard-response","68","376972","0.0-3.0-11.0-2.0-1.3","spark_pilot_norest","8735","6","23","Female","","","","","","","null","<div style=""font-size:60px;"">+</div>","null","fixation","","","","","","","","","","","",""
"revaluation","69","382988","0.0-3.0-11.0-2.0-0.4","spark_pilot_norest","8735","6","23","Female","","false","","","","","[1008.5,426.5]","./assets/img/space/11.jpg","[""ArrowUp"",""ArrowRight""]","practice block","space","36","{""ArrowUp,ArrowLeft"":3,""ArrowUp,ArrowRight"":36,""ArrowDown,ArrowLeft"":15,""ArrowDown,ArrowRight"":23}","true","ArrowUp,ArrowRight","false","","","","","",""
"html-keyboard-response","70","383498","0.0-3.0-11.0-2.0-1.4","spark_pilot_norest","8735","6","23","Female","","","","","","","null","<div style=""font-size:60px;"">+</div>","null","fixation","","","","","","","","","","","",""
"revaluation","71","389529","0.0-3.0-11.0-2.0-0.5","spark_pilot_norest","8735","6","23","Female","","false","","","","","[402.3999996185303,379.20000076293945]","./assets/img/space/12.jpg","[""ArrowUp"",""ArrowRight""]","practice block","space","36","{""ArrowUp,ArrowLeft"":3,""ArrowUp,ArrowRight"":36,""ArrowDown,ArrowLeft"":15,""ArrowDown,ArrowRight"":23}","true","ArrowUp,ArrowRight","false","","","","","",""
"html-keyboard-response","72","390035","0.0-3.0-11.0-2.0-1.5","spark_pilot_norest","8735","6","23","Female","","","","","","","null","<div style=""font-size:60px;"">+</div>","null","fixation","","","","","","","","","","","",""
"revaluation","73","396054","0.0-3.0-11.0-2.0-0.6","spark_pilot_norest","8735","6","23","Female","","false","","","","","[907.4000005722046,302.8999996185303]","./assets/img/space/13.jpg","[""ArrowUp"",""ArrowRight""]","practice block","space","36","{""ArrowUp,ArrowLeft"":3,""ArrowUp,ArrowRight"":36,""ArrowDown,ArrowLeft"":15,""ArrowDown,ArrowRight"":23}","true","ArrowUp,ArrowRight","false","","","","","",""
"html-keyboard-response","74","396570","0.0-3.0-11.0-2.0-1.6","spark_pilot_norest","8735","6","23","Female","","","","","","","null","<div style=""font-size:60px;"">+</div>","null","fixation","","","","","","","","","","","",""
"revaluation","75","402598","0.0-3.0-11.0-2.0-0.7","spark_pilot_norest","8735","6","23","Female","","false","","","","","[446.5,708.1999998092651]","./assets/img/space/14.jpg","[""ArrowUp"",""ArrowRight""]","practice block","space","36","{""ArrowUp,ArrowLeft"":3,""ArrowUp,ArrowRight"":36,""ArrowDown,ArrowLeft"":15,""ArrowDown,ArrowRight"":23}","true","ArrowUp,ArrowRight","false","","","","","",""
"html-keyboard-response","76","403103","0.0-3.0-11.0-2.0-1.7","spark_pilot_norest","8735","6","23","Female","","","","","","","null","<div style=""font-size:60px;"">+</div>","null","fixation","","","","","","","","","","","",""
"revaluation","77","407113","0.0-3.0-11.0-2.0-0.8","spark_pilot_norest","8735","6","23","Female","","true","","","","","[]","./assets/img/space/catch/3.jpg","[]","practice block","space","-5","{""ArrowUp,ArrowLeft"":3,""ArrowUp,ArrowRight"":36,""ArrowDown,ArrowLeft"":15,""ArrowDown,ArrowRight"":23}","false","","true","","","","","",""
"html-keyboard-response","78","407622","0.0-3.0-11.0-2.0-1.8","spark_pilot_norest","8735","6","23","Female","","","","","","","null","<div style=""font-size:60px;"">+</div>","null","fixation","","","","","","","","","","","",""
"learning-instructions","79","422538","0.0-3.0-11.0-3.0-0.0","spark_pilot_norest","8735","6","23","Female","","","","","","","1823.8999996185303","<p> Now, you will travel with a friend who will choose whether you go up or down first. </p>
            <p> On these turns, you will just see the animal that they found. You will still get to choose which chest to search for treasure.</p>","","instructions","","","","","","","","","","","",""
"revaluation","80","426573","0.0-3.0-11.0-4.0-0.0","spark_pilot_norest","8735","6","23","Female","","false","","","","","[830.6000003814697]","./assets/img/space/animals/cat.jpg","[""ArrowRight""]","practice block","space","36","{""ArrowUp,ArrowLeft"":3,""ArrowUp,ArrowRight"":36,""ArrowDown,ArrowLeft"":15,""ArrowDown,ArrowRight"":23}","true","ArrowUp,ArrowRight","","","","","","",""
"html-keyboard-response","81","427083","0.0-3.0-11.0-4.0-1.0","spark_pilot_norest","8735","6","23","Female","","","","","","","null","<div style=""font-size:60px;"">+</div>","null","fixation","","","","","","","","","","","",""
"revaluation","82","431103","0.0-3.0-11.0-4.0-0.1","spark_pilot_norest","8735","6","23","Female","","false","","","","","[354.1000003814697]","./assets/img/space/animals/cat.jpg","[""ArrowRight""]","practice block","space","36","{""ArrowUp,ArrowLeft"":3,""ArrowUp,ArrowRight"":36,""ArrowDown,ArrowLeft"":15,""ArrowDown,ArrowRight"":23}","true","ArrowUp,ArrowRight","","","","","","",""
"html-keyboard-response","83","431611","0.0-3.0-11.0-4.0-1.1","spark_pilot_norest","8735","6","23","Female","","","","","","","null","<div style=""font-size:60px;"">+</div>","null","fixation","","","","","","","","","","","",""
"revaluation","84","435654","0.0-3.0-11.0-4.0-0.2","spark_pilot_norest","8735","6","23","Female","","false","","","","","[380.4000005722046]","./assets/img/space/animals/rabbit.jpg","[""ArrowRight""]","practice block","space","23","{""ArrowUp,ArrowLeft"":3,""ArrowUp,ArrowRight"":36,""ArrowDown,ArrowLeft"":15,""ArrowDown,ArrowRight"":23}","true","ArrowDown,ArrowRight","","","","","","",""
"html-keyboard-response","85","436172","0.0-3.0-11.0-4.0-1.2","spark_pilot_norest","8735","6","23","Female","","","","","","","null","<div style=""font-size:60px;"">+</div>","null","fixation","","","","","","","","","","","",""
"revaluation","86","440203","0.0-3.0-11.0-4.0-0.3","spark_pilot_norest","8735","6","23","Female","","false","","","","","[380.80000019073486]","./assets/img/space/animals/rabbit.jpg","[""ArrowRight""]","practice block","space","23","{""ArrowUp,ArrowLeft"":3,""ArrowUp,ArrowRight"":36,""ArrowDown,ArrowLeft"":15,""ArrowDown,ArrowRight"":23}","true","ArrowDown,ArrowRight","","","","","","",""
"html-keyboard-response","87","440712","0.0-3.0-11.0-4.0-1.3","spark_pilot_norest","8735","6","23","Female","","","","","","","null","<div style=""font-size:60px;"">+</div>","null","fixation","","","","","","","","","","","",""
"learning-instructions","88","448902","0.0-3.0-11.0-5.0-0.0","spark_pilot_norest","8735","6","23","Female","","","","","","","null","<p> You have almost finished this part of the game! </p>
            <p> We are going to ask you to make a few more choices. </p>","","instructions","","","","","","","","","","","",""
"learning-instructions","89","465011","0.0-3.0-11.0-5.0-0.1","spark_pilot_norest","8735","6","23","Female","","","","","","","null","<p> First, you need to decide whether to go up or down. When you see each picture, use the arrow keys to make your choice. </p>
            <p><b>You will not see which animal you found, but try to get to the one that will give you the most treasure.</b></p>","","instructions","","","","","","","","","","","",""
"html-keyboard-response","90","466021","0.0-3.0-11.0-6.0-0.0","spark_pilot_norest","8735","6","23","Female","","","","","","","null","<div style=""font-size:100px;color:red;"">Starting in...</div>","null","","","","","","","","","","","","",""
"html-keyboard-response","91","467042","0.0-3.0-11.0-6.0-1.0","spark_pilot_norest","8735","6","23","Female","","","","","","","null","<div style=""font-size:200px;color:red;"">3</div>","null","","","","","","","","","","","","",""
"html-keyboard-response","92","468062","0.0-3.0-11.0-6.0-2.0","spark_pilot_norest","8735","6","23","Female","","","","","","","null","<div style=""font-size:200px;color:red;"">2</div>","null","","","","","","","","","","","","",""
"html-keyboard-response","93","469068","0.0-3.0-11.0-6.0-3.0","spark_pilot_norest","8735","6","23","Female","","","","","","","null","<div style=""font-size:200px;color:red;"">1</div>","null","","","","","","","","","","","","",""
"revaluation","94","469710","0.0-3.0-11.0-7.0","spark_pilot_norest","8735","6","23","Female","","false","","","","","[633.8999996185303]","./assets/img/space/15.jpg","[""ArrowUp""]","practice block","space","0","{""ArrowUp,ArrowLeft"":3,""ArrowUp,ArrowRight"":36,""ArrowDown,ArrowLeft"":15,""ArrowDown,ArrowRight"":23}","true","ArrowUp","false","","","","","",""
"html-keyboard-response","95","470212","0.0-3.0-11.0-8.0","spark_pilot_norest","8735","6","23","Female","","","","","","","null","<div style=""font-size:60px;"">+</div>","null","fixation","","","","","","","","","","","",""
"learning-instructions","96","483702","0.0-3.0-11.0-9.0-0.0","spark_pilot_norest","8735","6","23","Female","","","","","","","null","<p> Now you will see the animals again and can search their chests for treasure. </p>
            <p> This time, you will not see how much treasure you earned, but you will earn more bonus money for making better choices. </p>","","instructions","","","","","","","","","","","",""
"html-keyboard-response","97","484712","0.0-3.0-11.0-10.0-0.0","spark_pilot_norest","8735","6","23","Female","","","","","","","null","<div style=""font-size:100px;color:red;"">Starting in...</div>","null","","","","","","","","","","","","",""
"html-keyboard-response","98","485722","0.0-3.0-11.0-10.0-1.0","spark_pilot_norest","8735","6","23","Female","","","","","","","null","<div style=""font-size:200px;color:red;"">3</div>","null","","","","","","","","","","","","",""
"html-keyboard-response","99","486731","0.0-3.0-11.0-10.0-2.0","spark_pilot_norest","8735","6","23","Female","","","","","","","null","<div style=""font-size:200px;color:red;"">2</div>","null","","","","","","","","","","","","",""
"html-keyboard-response","100","487741","0.0-3.0-11.0-10.0-3.0","spark_pilot_norest","8735","6","23","Female","","","","","","","null","<div style=""font-size:200px;color:red;"">1</div>","null","","","","","","","","","","","","",""
"revaluation","101","488100","0.0-3.0-11.0-11.0-0.0","spark_pilot_norest","8735","6","23","Female","","false","","","","","[349.80000019073486]","./assets/img/space/animals/cat.jpg","[""ArrowRight""]","practice block","space","0","{""ArrowUp,ArrowLeft"":3,""ArrowUp,ArrowRight"":36,""ArrowDown,ArrowLeft"":15,""ArrowDown,ArrowRight"":23}","true","ArrowUp,ArrowRight","","","","","","",""
"html-keyboard-response","102","488611","0.0-3.0-11.0-11.0-1.0","spark_pilot_norest","8735","6","23","Female","","","","","","","null","<div style=""font-size:60px;"">+</div>","null","fixation","","","","","","","","","","","",""
"revaluation","103","489498","0.0-3.0-11.0-11.0-0.1","spark_pilot_norest","8735","6","23","Female","","false","","","","","[879.1000003814697]","./assets/img/space/animals/rabbit.jpg","[""ArrowRight""]","practice block","space","0","{""ArrowUp,ArrowLeft"":3,""ArrowUp,ArrowRight"":36,""ArrowDown,ArrowLeft"":15,""ArrowDown,ArrowRight"":23}","true","ArrowDown,ArrowRight","","","","","","",""
"html-keyboard-response","104","490022","0.0-3.0-11.0-11.0-1.1","spark_pilot_norest","8735","6","23","Female","","","","","","","null","<div style=""font-size:60px;"">+</div>","null","fixation","","","","","","","","","","","",""
"learning-instructions","105","495764","0.0-3.0-12.0-0.0","spark_pilot_norest","8735","6","23","Female","","","","","","","1130.1000003814697","<p> Before you start, we're going to ask you a few questions about how the game works. </p>","","instructions","","","","","","","","","","","",""
"comp-q","106","502179","0.0-3.0-13.0-0.0-0.0","spark_pilot_norest","8735","6","23","Female","","","","","","","827.3999996185303","<p> <b> True or False? </b> </p>
            <p> There can be 50 pieces of treasure in a given animal's chest. </p>","0","comp_question","","","","false","","","","","","","",""
"comp-q","107","509823","0.0-3.0-13.0-0.0-1.0","spark_pilot_norest","8735","6","23","Female","","","","","","","1107.8000001907349","<p> <b>Incorrect.</b> The amount of treasure in each chest can range from 0 to 40 pieces. </p>","0","comp_answer","","","","","","","","","","","",""
"comp-q","108","516399","0.0-3.0-13.0-0.1-0.1","spark_pilot_norest","8735","6","23","Female","","","","","","","1015","<p> <b> True or False? </b> </p>
            <p> There can be 50 pieces of treasure in a given animal's chest. </p>","1","comp_question","","","","true","","","","","","","",""
"comp-q","109","524898","0.0-3.0-13.0-0.1-1.1","spark_pilot_norest","8735","6","23","Female","","","","","","","1844.1000003814697","<p> <b> That's right! </b> The amount of treasure in each chest can range from 0 to 40 pieces. </p>","0","comp_answer","","","","","","","","","","","",""
"comp-q","110","534189","0.0-3.0-13.0-0.2-0.2","spark_pilot_norest","8735","6","23","Female","","","","","","","2174.5","<p> <b> True or False? </b> </p><p> In this game, all animals have the same amount of treasure in their left and right chests. </p>","0","comp_question","","","","false","","","","","","","",""
"comp-q","111","541145","0.0-3.0-13.0-0.2-1.2","spark_pilot_norest","8735","6","23","Female","","","","","","","1860.8000001907349","<p> <b>Incorrect.</b> Animals have different amounts of treasure in their treasure chests. </p>","0","comp_answer","","","","","","","","","","","",""
"comp-q","112","549048","0.0-3.0-13.0-0.3-0.3","spark_pilot_norest","8735","6","23","Female","","","","","","","813.6999998092651","<p> <b> True or False? </b> </p><p> In this game, all animals have the same amount of treasure in their left and right chests. </p>","1","comp_question","","","","true","","","","","","","",""
"comp-q","113","562667","0.0-3.0-13.0-0.3-1.3","spark_pilot_norest","8735","6","23","Female","","","","","","","8391.60000038147","<p> <b> That's right! </b> Animals have different amounts of treasure in their treasure chests. </p>","0","comp_answer","","","","","","","","","","","",""
"comp-q","114","568976","0.0-3.0-13.0-0.4-0.4","spark_pilot_norest","8735","6","23","Female","","","","","","","453","<p> <b> True or False? </b> </p><p> The same animal will always be there if you go up in the same place. </p>","0","comp_question","","","","true","","","","","","","",""
"comp-q","115","577550","0.0-3.0-13.0-0.4-1.4","spark_pilot_norest","8735","6","23","Female","","","","","","","2118.300000190735","<p> <b> That's right! </b> One animal lives in the upper part and one lives in the lower part of every place. </p>","0","comp_answer","","","","","","","","","","","",""
"comp-q","116","583745","0.0-3.0-13.0-0.5-0.5","spark_pilot_norest","8735","6","23","Female","","","","","","","662","<p> <b> True or False? </b> </p><p> If you see a different picture, it means you are in a new place. </p>","0","comp_question","","","","false","","","","","","","",""
"comp-q","117","596119","0.0-3.0-13.0-0.5-1.5","spark_pilot_norest","8735","6","23","Female","","","","","","","1276.3000001907349","<p> <b>Incorrect.</b> Lots of different images may show the same place. For example,  you may see three different images that all remind you that you are in outer space. </p>","0","comp_answer","","","","","","","","","","","",""
"comp-q","118","602779","0.0-3.0-13.0-0.6-0.6","spark_pilot_norest","8735","6","23","Female","","","","","","","1166.7000007629395","<p> <b> True or False? </b> </p><p> If you see a different picture, it means you are in a new place. </p>","1","comp_question","","","","true","","","","","","","",""
"comp-q","119","619482","0.0-3.0-13.0-0.6-1.6","spark_pilot_norest","8735","6","23","Female","","","","","","","5470.699999809265","<p> <b> That's right! </b> Lots of different images may show the same place. For example,  you may see three different images that all remind you that you are in outer space. </p>","0","comp_answer","","","","","","","","","","","",""
"learning-instructions","120","631591","0.0-3.0-14.0-0.0","spark_pilot_norest","8735","6","23","Female","","","","","","","2260.199999809265","<p> Good job. Remember to do your best because the amount of treasure you earn will be converted into bonus money. </p>
            <p> It’s time to start the real game! </p>","","instructions","","","","","","","","","","","",""
"learning-instructions","121","638066","0.0-4.0-0.0-0.0","spark_pilot_norest","8735","6","23","Female","","","","","","","3705.5","<p> This time you are searching for treasure in the <b>canyon</b>.</p>","","instructions","","","","","","","","","","","",""
"learning-instructions","122","657109","0.0-4.0-0.0-0.1","spark_pilot_norest","8735","6","23","Female","","","","","","","1739","<p><b>New</b> animals with <b>new</b> treasure chests live here. You need to explore to discover where the animal with the best treasure chest is.</p>
                    <p> Like before, once you figure out which animal has the chest with the most treasure, you should try to get to that animal and select that chest! </p>","","instructions","","","","","","","","","","","",""
"learning-instructions","123","676720","0.0-4.0-1.0-0.0","spark_pilot_norest","8735","6","23","Female","","","","","","","4879.39999961853","<p> Remember, when you see a picture of the place, use the up and down keys to <b>find an animal</b>.</p>
            <p> When you encounter an animal, you should use the left and right keys to <b>select a treasure chest</b>.</p>
            <p> Don't forget to look out for the robber! </p>","","instructions","","","","","","","","","","","",""
"revaluation","124","682748","0.0-4.0-2.0-0.0","spark_pilot_norest","8735","6","23","Female","","false","","","","","[937.3999996185303,537.1000003814697]","./assets/img/canyon/memory/4.jpg","[""ArrowUp"",""ArrowRight""]","value training","canyon","10","{""ArrowUp,ArrowLeft"":23,""ArrowUp,ArrowRight"":10,""ArrowDown,ArrowLeft"":8,""ArrowDown,ArrowRight"":30}","false","ArrowUp,ArrowRight","false","revaluation","1","0","","",""
"html-keyboard-response","125","683267","0.0-4.0-2.0-1.0","spark_pilot_norest","8735","6","23","Female","","","","","","","null","<div style=""font-size:60px;"">+</div>","null","fixation","","","","","","","","","1","","",""
"revaluation","126","689308","0.0-4.0-2.0-0.1","spark_pilot_norest","8735","6","23","Female","","false","","","","","[578.7999992370605,277.1000003814697]","./assets/img/canyon/memory/24.jpg","[""ArrowUp"",""ArrowLeft""]","value training","canyon","23","{""ArrowUp,ArrowLeft"":23,""ArrowUp,ArrowRight"":10,""ArrowDown,ArrowLeft"":8,""ArrowDown,ArrowRight"":30}","false","ArrowUp,ArrowLeft","false","revaluation","1","2","","",""
"html-keyboard-response","127","689815","0.0-4.0-2.0-1.1","spark_pilot_norest","8735","6","23","Female","","","","","","","null","<div style=""font-size:60px;"">+</div>","null","fixation","","","","","","","","","3","","",""
"revaluation","128","695881","0.0-4.0-2.0-0.2","spark_pilot_norest","8735","6","23","Female","","false","","","","","[125,376.80000019073486]","./assets/img/canyon/memory/41.jpg","[""ArrowDown"",""ArrowRight""]","value training","canyon","30","{""ArrowUp,ArrowLeft"":23,""ArrowUp,ArrowRight"":10,""ArrowDown,ArrowLeft"":8,""ArrowDown,ArrowRight"":30}","true","ArrowDown,ArrowRight","false","revaluation","1","4","","",""
"html-keyboard-response","129","696390","0.0-4.0-2.0-1.2","spark_pilot_norest","8735","6","23","Female","","","","","","","null","<div style=""font-size:60px;"">+</div>","null","fixation","","","","","","","","","5","","",""
"revaluation","130","702432","0.0-4.0-2.0-0.3","spark_pilot_norest","8735","6","23","Female","","false","","","","","[302.4000005722046,378.30000019073486]","./assets/img/canyon/memory/11.jpg","[""ArrowDown"",""ArrowLeft""]","value training","canyon","8","{""ArrowUp,ArrowLeft"":23,""ArrowUp,ArrowRight"":10,""ArrowDown,ArrowLeft"":8,""ArrowDown,ArrowRight"":30}","false","ArrowDown,ArrowLeft","false","revaluation","1","6","","",""
"html-keyboard-response","131","702938","0.0-4.0-2.0-1.3","spark_pilot_norest","8735","6","23","Female","","","","","","","null","<div style=""font-size:60px;"">+</div>","null","fixation","","","","","","","","","7","","",""
"revaluation","132","708965","0.0-4.0-2.0-0.4","spark_pilot_norest","8735","6","23","Female","","false","","","","","[160.19999980926514,377.5]","./assets/img/canyon/memory/14.jpg","[""ArrowDown"",""ArrowRight""]","value training","canyon","30","{""ArrowUp,ArrowLeft"":23,""ArrowUp,ArrowRight"":10,""ArrowDown,ArrowLeft"":8,""ArrowDown,ArrowRight"":30}","true","ArrowDown,ArrowRight","false","revaluation","1","8","","",""
"html-keyboard-response","133","709471","0.0-4.0-2.0-1.4","spark_pilot_norest","8735","6","23","Female","","","","","","","null","<div style=""font-size:60px;"">+</div>","null","fixation","","","","","","","","","9","","",""
"revaluation","134","715483","0.0-4.0-2.0-0.5","spark_pilot_norest","8735","6","23","Female","","false","","","","","[367.19999980926514,302.1000003814697]","./assets/img/canyon/memory/30.jpg","[""ArrowDown"",""ArrowRight""]","value training","canyon","30","{""ArrowUp,ArrowLeft"":23,""ArrowUp,ArrowRight"":10,""ArrowDown,ArrowLeft"":8,""ArrowDown,ArrowRight"":30}","true","ArrowDown,ArrowRight","false","revaluation","1","10","","",""
"html-keyboard-response","135","715991","0.0-4.0-2.0-1.5","spark_pilot_norest","8735","6","23","Female","","","","","","","null","<div style=""font-size:60px;"">+</div>","null","fixation","","","","","","","","","11","","",""
"revaluation","136","722022","0.0-4.0-2.0-0.6","spark_pilot_norest","8735","6","23","Female","","false","","","","","[378.5999994277954,441.6000003814697]","./assets/img/canyon/memory/0.jpg","[""ArrowDown"",""ArrowRight""]","value training","canyon","30","{""ArrowUp,ArrowLeft"":23,""ArrowUp,ArrowRight"":10,""ArrowDown,ArrowLeft"":8,""ArrowDown,ArrowRight"":30}","true","ArrowDown,ArrowRight","false","revaluation","1","12","","",""
"html-keyboard-response","137","722531","0.0-4.0-2.0-1.6","spark_pilot_norest","8735","6","23","Female","","","","","","","null","<div style=""font-size:60px;"">+</div>","null","fixation","","","","","","","","","13","","",""
"revaluation","138","728551","0.0-4.0-2.0-0.7","spark_pilot_norest","8735","6","23","Female","","false","","","","","[636.8999996185303,346]","./assets/img/canyon/memory/7.jpg","[""ArrowDown"",""ArrowRight""]","value training","canyon","30","{""ArrowUp,ArrowLeft"":23,""ArrowUp,ArrowRight"":10,""ArrowDown,ArrowLeft"":8,""ArrowDown,ArrowRight"":30}","true","ArrowDown,ArrowRight","false","revaluation","1","14","","",""
"html-keyboard-response","139","729061","0.0-4.0-2.0-1.7","spark_pilot_norest","8735","6","23","Female","","","","","","","null","<div style=""font-size:60px;"">+</div>","null","fixation","","","","","","","","","15","","",""
"revaluation","140","735087","0.0-4.0-2.0-0.8","spark_pilot_norest","8735","6","23","Female","","false","","","","","[368.80000019073486,405.79999923706055]","./assets/img/canyon/memory/6.jpg","[""ArrowDown"",""ArrowRight""]","value training","canyon","30","{""ArrowUp,ArrowLeft"":23,""ArrowUp,ArrowRight"":10,""ArrowDown,ArrowLeft"":8,""ArrowDown,ArrowRight"":30}","true","ArrowDown,ArrowRight","false","revaluation","1","16","","",""
"html-keyboard-response","141","735591","0.0-4.0-2.0-1.8","spark_pilot_norest","8735","6","23","Female","","","","","","","null","<div style=""font-size:60px;"">+</div>","null","fixation","","","","","","","","","17","","",""
"revaluation","142","741606","0.0-4.0-2.0-0.9","spark_pilot_norest","8735","6","23","Female","","false","","","","","[836.5,432.19999980926514]","./assets/img/canyon/memory/7.jpg","[""ArrowDown"",""ArrowRight""]","value training","canyon","30","{""ArrowUp,ArrowLeft"":23,""ArrowUp,ArrowRight"":10,""ArrowDown,ArrowLeft"":8,""ArrowDown,ArrowRight"":30}","true","ArrowDown,ArrowRight","false","revaluation","1","18","","",""
"html-keyboard-response","143","742116","0.0-4.0-2.0-1.9","spark_pilot_norest","8735","6","23","Female","","","","","","","null","<div style=""font-size:60px;"">+</div>","null","fixation","","","","","","","","","19","","",""
"revaluation","144","748142","0.0-4.0-2.0-0.10","spark_pilot_norest","8735","6","23","Female","","false","","","","","[411.3999996185303,312.30000019073486]","./assets/img/canyon/memory/22.jpg","[""ArrowDown"",""ArrowRight""]","value training","canyon","30","{""ArrowUp,ArrowLeft"":23,""ArrowUp,ArrowRight"":10,""ArrowDown,ArrowLeft"":8,""ArrowDown,ArrowRight"":30}","true","ArrowDown,ArrowRight","false","revaluation","1","20","","",""
"html-keyboard-response","145","748651","0.0-4.0-2.0-1.10","spark_pilot_norest","8735","6","23","Female","","","","","","","null","<div style=""font-size:60px;"">+</div>","null","fixation","","","","","","","","","21","","",""
"revaluation","146","754669","0.0-4.0-2.0-0.11","spark_pilot_norest","8735","6","23","Female","","false","","","","","[792.3000001907349,398]","./assets/img/canyon/memory/14.jpg","[""ArrowDown"",""ArrowRight""]","value training","canyon","30","{""ArrowUp,ArrowLeft"":23,""ArrowUp,ArrowRight"":10,""ArrowDown,ArrowLeft"":8,""ArrowDown,ArrowRight"":30}","true","ArrowDown,ArrowRight","false","revaluation","1","22","","",""
"html-keyboard-response","147","755176","0.0-4.0-2.0-1.11","spark_pilot_norest","8735","6","23","Female","","","","","","","null","<div style=""font-size:60px;"">+</div>","null","fixation","","","","","","","","","23","","",""
"revaluation","148","759213","0.0-4.0-2.0-0.12","spark_pilot_norest","8735","6","23","Female","","false","","","","","[690.9000005722046]","./assets/img/canyon/catch/5.jpg","[""ArrowDown""]","value training","canyon","-10","{""ArrowUp,ArrowLeft"":23,""ArrowUp,ArrowRight"":10,""ArrowDown,ArrowLeft"":8,""ArrowDown,ArrowRight"":30}","false","ArrowDown","true","revaluation","1","24","","",""
"html-keyboard-response","149","759717","0.0-4.0-2.0-1.12","spark_pilot_norest","8735","6","23","Female","","","","","","","null","<div style=""font-size:60px;"">+</div>","null","fixation","","","","","","","","","25","","",""
"revaluation","150","765737","0.0-4.0-2.0-0.13","spark_pilot_norest","8735","6","23","Female","","false","","","","","[1449.6999998092651,155.30000019073486]","./assets/img/canyon/memory/30.jpg","[""ArrowDown"",""ArrowRight""]","value training","canyon","30","{""ArrowUp,ArrowLeft"":23,""ArrowUp,ArrowRight"":10,""ArrowDown,ArrowLeft"":8,""ArrowDown,ArrowRight"":30}","true","ArrowDown,ArrowRight","false","revaluation","1","26","","",""
"html-keyboard-response","151","766247","0.0-4.0-2.0-1.13","spark_pilot_norest","8735","6","23","Female","","","","","","","null","<div style=""font-size:60px;"">+</div>","null","fixation","","","","","","","","","27","","",""
"revaluation","152","770267","0.0-4.0-2.0-0.14","spark_pilot_norest","8735","6","23","Female","","false","","","","","[1200.5]","./assets/img/canyon/catch/3.jpg","[""spaceBar""]","value training","canyon","0","{""ArrowUp,ArrowLeft"":23,""ArrowUp,ArrowRight"":10,""ArrowDown,ArrowLeft"":8,""ArrowDown,ArrowRight"":30}","true","spaceBar","true","revaluation","1","28","","",""
"html-keyboard-response","153","770777","0.0-4.0-2.0-1.14","spark_pilot_norest","8735","6","23","Female","","","","","","","null","<div style=""font-size:60px;"">+</div>","null","fixation","","","","","","","","","29","","",""
"revaluation","154","776800","0.0-4.0-2.0-0.15","spark_pilot_norest","8735","6","23","Female","","false","","","","","[408.8999996185303,334.19999980926514]","./assets/img/canyon/memory/27.jpg","[""ArrowDown"",""ArrowRight""]","value training","canyon","30","{""ArrowUp,ArrowLeft"":23,""ArrowUp,ArrowRight"":10,""ArrowDown,ArrowLeft"":8,""ArrowDown,ArrowRight"":30}","true","ArrowDown,ArrowRight","false","revaluation","1","30","","",""
"html-keyboard-response","155","777305","0.0-4.0-2.0-1.15","spark_pilot_norest","8735","6","23","Female","","","","","","","null","<div style=""font-size:60px;"">+</div>","null","fixation","","","","","","","","","31","","",""
"revaluation","156","783327","0.0-4.0-2.0-0.16","spark_pilot_norest","8735","6","23","Female","","false","","","","","[467.6000003814697,1046.3999996185303]","./assets/img/canyon/memory/6.jpg","[""ArrowDown"",""ArrowRight""]","value training","canyon","30","{""ArrowUp,ArrowLeft"":23,""ArrowUp,ArrowRight"":10,""ArrowDown,ArrowLeft"":8,""ArrowDown,ArrowRight"":30}","true","ArrowDown,ArrowRight","false","revaluation","1","32","","",""
"html-keyboard-response","157","783830","0.0-4.0-2.0-1.16","spark_pilot_norest","8735","6","23","Female","","","","","","","null","<div style=""font-size:60px;"">+</div>","null","fixation","","","","","","","","","33","","",""
"revaluation","158","789842","0.0-4.0-2.0-0.17","spark_pilot_norest","8735","6","23","Female","","false","","","","","[1250.6000003814697,1825.6999998092651]","./assets/img/canyon/memory/37.jpg","[""ArrowDown"",""ArrowRight""]","value training","canyon","30","{""ArrowUp,ArrowLeft"":23,""ArrowUp,ArrowRight"":10,""ArrowDown,ArrowLeft"":8,""ArrowDown,ArrowRight"":30}","true","ArrowDown,ArrowRight","false","revaluation","1","34","","",""
"html-keyboard-response","159","790350","0.0-4.0-2.0-1.17","spark_pilot_norest","8735","6","23","Female","","","","","","","null","<div style=""font-size:60px;"">+</div>","null","fixation","","","","","","","","","35","","",""
"revaluation","160","794367","0.0-4.0-2.0-0.18","spark_pilot_norest","8735","6","23","Female","","false","","","","","[1066.3999996185303]","./assets/img/canyon/catch/0.jpg","[""spaceBar""]","value training","canyon","0","{""ArrowUp,ArrowLeft"":23,""ArrowUp,ArrowRight"":10,""ArrowDown,ArrowLeft"":8,""ArrowDown,ArrowRight"":30}","true","spaceBar","true","revaluation","1","36","","",""
"html-keyboard-response","161","794870","0.0-4.0-2.0-1.18","spark_pilot_norest","8735","6","23","Female","","","","","","","null","<div style=""font-size:60px;"">+</div>","null","fixation","","","","","","","","","37","","",""
"revaluation","162","800888","0.0-4.0-2.0-0.19","spark_pilot_norest","8735","6","23","Female","","false","","","","","[548.4000005722046,355.5]","./assets/img/canyon/memory/36.jpg","[""ArrowDown"",""ArrowRight""]","value training","canyon","30","{""ArrowUp,ArrowLeft"":23,""ArrowUp,ArrowRight"":10,""ArrowDown,ArrowLeft"":8,""ArrowDown,ArrowRight"":30}","true","ArrowDown,ArrowRight","false","revaluation","1","38","","",""
"html-keyboard-response","163","801403","0.0-4.0-2.0-1.19","spark_pilot_norest","8735","6","23","Female","","","","","","","null","<div style=""font-size:60px;"">+</div>","null","fixation","","","","","","","","","39","","",""
"revaluation","164","807437","0.0-4.0-2.0-0.20","spark_pilot_norest","8735","6","23","Female","","false","","","","","[544.8000001907349,743.5999994277954]","./assets/img/canyon/memory/21.jpg","[""ArrowDown"",""ArrowRight""]","value training","canyon","30","{""ArrowUp,ArrowLeft"":23,""ArrowUp,ArrowRight"":10,""ArrowDown,ArrowLeft"":8,""ArrowDown,ArrowRight"":30}","true","ArrowDown,ArrowRight","false","revaluation","1","40","","",""
"html-keyboard-response","165","807944","0.0-4.0-2.0-1.20","spark_pilot_norest","8735","6","23","Female","","","","","","","null","<div style=""font-size:60px;"">+</div>","null","fixation","","","","","","","","","41","","",""
"revaluation","166","813969","0.0-4.0-2.0-0.21","spark_pilot_norest","8735","6","23","Female","","false","","","","","[477.6000003814697,937.3000001907349]","./assets/img/canyon/memory/22.jpg","[""ArrowDown"",""ArrowRight""]","value training","canyon","30","{""ArrowUp,ArrowLeft"":23,""ArrowUp,ArrowRight"":10,""ArrowDown,ArrowLeft"":8,""ArrowDown,ArrowRight"":30}","true","ArrowDown,ArrowRight","false","revaluation","1","42","","",""
"html-keyboard-response","167","814473","0.0-4.0-2.0-1.21","spark_pilot_norest","8735","6","23","Female","","","","","","","null","<div style=""font-size:60px;"">+</div>","null","fixation","","","","","","","","","43","","",""
"revaluation","168","820488","0.0-4.0-2.0-0.22","spark_pilot_norest","8735","6","23","Female","","false","","","","","[441.9000005722046,932.8999996185303]","./assets/img/canyon/memory/35.jpg","[""ArrowDown"",""ArrowRight""]","value training","canyon","30","{""ArrowUp,ArrowLeft"":23,""ArrowUp,ArrowRight"":10,""ArrowDown,ArrowLeft"":8,""ArrowDown,ArrowRight"":30}","true","ArrowDown,ArrowRight","false","revaluation","1","44","","",""
"html-keyboard-response","169","820994","0.0-4.0-2.0-1.22","spark_pilot_norest","8735","6","23","Female","","","","","","","null","<div style=""font-size:60px;"">+</div>","null","fixation","","","","","","","","","45","","",""
"revaluation","170","827017","0.0-4.0-2.0-0.23","spark_pilot_norest","8735","6","23","Female","","false","","","","","[421.5,960.3999996185303]","./assets/img/canyon/memory/9.jpg","[""ArrowDown"",""ArrowRight""]","value training","canyon","30","{""ArrowUp,ArrowLeft"":23,""ArrowUp,ArrowRight"":10,""ArrowDown,ArrowLeft"":8,""ArrowDown,ArrowRight"":30}","true","ArrowDown,ArrowRight","false","revaluation","1","46","","",""
"html-keyboard-response","171","827524","0.0-4.0-2.0-1.23","spark_pilot_norest","8735","6","23","Female","","","","","","","null","<div style=""font-size:60px;"">+</div>","null","fixation","","","","","","","","","47","","",""
"revaluation","172","833557","0.0-4.0-2.0-0.24","spark_pilot_norest","8735","6","23","Female","","false","","","","","[387.9000005722046,596.3999996185303]","./assets/img/canyon/memory/1.jpg","[""ArrowDown"",""ArrowRight""]","value training","canyon","30","{""ArrowUp,ArrowLeft"":23,""ArrowUp,ArrowRight"":10,""ArrowDown,ArrowLeft"":8,""ArrowDown,ArrowRight"":30}","true","ArrowDown,ArrowRight","false","revaluation","1","48","","",""
"html-keyboard-response","173","834070","0.0-4.0-2.0-1.24","spark_pilot_norest","8735","6","23","Female","","","","","","","null","<div style=""font-size:60px;"">+</div>","null","fixation","","","","","","","","","49","","",""
"revaluation","174","840111","0.0-4.0-2.0-0.25","spark_pilot_norest","8735","6","23","Female","","false","","","","","[564.5,1557.3999996185303]","./assets/img/canyon/memory/18.jpg","[""ArrowDown"",""ArrowRight""]","value training","canyon","30","{""ArrowUp,ArrowLeft"":23,""ArrowUp,ArrowRight"":10,""ArrowDown,ArrowLeft"":8,""ArrowDown,ArrowRight"":30}","true","ArrowDown,ArrowRight","false","revaluation","1","50","","",""
"html-keyboard-response","175","840616","0.0-4.0-2.0-1.25","spark_pilot_norest","8735","6","23","Female","","","","","","","null","<div style=""font-size:60px;"">+</div>","null","fixation","","","","","","","","","51","","",""
"revaluation","176","844629","0.0-4.0-2.0-0.26","spark_pilot_norest","8735","6","23","Female","","true","","","","","[]","./assets/img/canyon/memory/27.jpg","[]","value training","canyon","-5","{""ArrowUp,ArrowLeft"":23,""ArrowUp,ArrowRight"":10,""ArrowDown,ArrowLeft"":8,""ArrowDown,ArrowRight"":30}","false","","false","revaluation","1","52","","",""
"html-keyboard-response","177","845131","0.0-4.0-2.0-1.26","spark_pilot_norest","8735","6","23","Female","","","","","","","null","<div style=""font-size:60px;"">+</div>","null","fixation","","","","","","","","","53","","",""
"revaluation","178","851168","0.0-4.0-2.0-0.27","spark_pilot_norest","8735","6","23","Female","","false","","","","","[1575.3000001907349,1247.3999996185303]","./assets/img/canyon/memory/11.jpg","[""ArrowDown"",""ArrowRight""]","value training","canyon","30","{""ArrowUp,ArrowLeft"":23,""ArrowUp,ArrowRight"":10,""ArrowDown,ArrowLeft"":8,""ArrowDown,ArrowRight"":30}","true","ArrowDown,ArrowRight","false","revaluation","1","54","","",""
"html-keyboard-response","179","851677","0.0-4.0-2.0-1.27","spark_pilot_norest","8735","6","23","Female","","","","","","","null","<div style=""font-size:60px;"">+</div>","null","fixation","","","","","","","","","55","","",""
"revaluation","180","857711","0.0-4.0-2.0-0.28","spark_pilot_norest","8735","6","23","Female","","false","","","","","[662.5,1467.1999998092651]","./assets/img/canyon/memory/31.jpg","[""ArrowDown"",""ArrowRight""]","value training","canyon","30","{""ArrowUp,ArrowLeft"":23,""ArrowUp,ArrowRight"":10,""ArrowDown,ArrowLeft"":8,""ArrowDown,ArrowRight"":30}","true","ArrowDown,ArrowRight","false","revaluation","1","56","","",""
"html-keyboard-response","181","858224","0.0-4.0-2.0-1.28","spark_pilot_norest","8735","6","23","Female","","","","","","","null","<div style=""font-size:60px;"">+</div>","null","fixation","","","","","","","","","57","","",""
"revaluation","182","864248","0.0-4.0-2.0-0.29","spark_pilot_norest","8735","6","23","Female","","false","","","","","[439.70000076293945,373.4000005722046]","./assets/img/canyon/memory/35.jpg","[""ArrowDown"",""ArrowRight""]","value training","canyon","30","{""ArrowUp,ArrowLeft"":23,""ArrowUp,ArrowRight"":10,""ArrowDown,ArrowLeft"":8,""ArrowDown,ArrowRight"":30}","true","ArrowDown,ArrowRight","false","revaluation","1","58","","",""
"html-keyboard-response","183","864757","0.0-4.0-2.0-1.29","spark_pilot_norest","8735","6","23","Female","","","","","","","null","<div style=""font-size:60px;"">+</div>","null","fixation","","","","","","","","","59","","",""
"revaluation","184","870783","0.0-4.0-2.0-0.30","spark_pilot_norest","8735","6","23","Female","","false","","","","","[414.6000003814697,196.60000038146973]","./assets/img/canyon/memory/1.jpg","[""ArrowDown"",""ArrowRight""]","value training","canyon","30","{""ArrowUp,ArrowLeft"":23,""ArrowUp,ArrowRight"":10,""ArrowDown,ArrowLeft"":8,""ArrowDown,ArrowRight"":30}","true","ArrowDown,ArrowRight","false","revaluation","1","60","","",""
"html-keyboard-response","185","871293","0.0-4.0-2.0-1.30","spark_pilot_norest","8735","6","23","Female","","","","","","","null","<div style=""font-size:60px;"">+</div>","null","fixation","","","","","","","","","61","","",""
"revaluation","186","877322","0.0-4.0-2.0-0.31","spark_pilot_norest","8735","6","23","Female","","false","","","","","[452.20000076293945,472.69999980926514]","./assets/img/canyon/memory/36.jpg","[""ArrowDown"",""ArrowRight""]","value training","canyon","30","{""ArrowUp,ArrowLeft"":23,""ArrowUp,ArrowRight"":10,""ArrowDown,ArrowLeft"":8,""ArrowDown,ArrowRight"":30}","true","ArrowDown,ArrowRight","false","revaluation","1","62","","",""
"html-keyboard-response","187","877826","0.0-4.0-2.0-1.31","spark_pilot_norest","8735","6","23","Female","","","","","","","null","<div style=""font-size:60px;"">+</div>","null","fixation","","","","","","","","","63","","",""
"revaluation","188","883845","0.0-4.0-2.0-0.32","spark_pilot_norest","8735","6","23","Female","","false","","","","","[442.80000019073486,612]","./assets/img/canyon/memory/21.jpg","[""ArrowDown"",""ArrowRight""]","value training","canyon","30","{""ArrowUp,ArrowLeft"":23,""ArrowUp,ArrowRight"":10,""ArrowDown,ArrowLeft"":8,""ArrowDown,ArrowRight"":30}","true","ArrowDown,ArrowRight","false","revaluation","1","64","","",""
"html-keyboard-response","189","884362","0.0-4.0-2.0-1.32","spark_pilot_norest","8735","6","23","Female","","","","","","","null","<div style=""font-size:60px;"">+</div>","null","fixation","","","","","","","","","65","","",""
"revaluation","190","890390","0.0-4.0-2.0-0.33","spark_pilot_norest","8735","6","23","Female","","false","","","","","[526.3999996185303,915]","./assets/img/canyon/memory/18.jpg","[""ArrowDown"",""ArrowRight""]","value training","canyon","30","{""ArrowUp,ArrowLeft"":23,""ArrowUp,ArrowRight"":10,""ArrowDown,ArrowLeft"":8,""ArrowDown,ArrowRight"":30}","true","ArrowDown,ArrowRight","false","revaluation","1","66","","",""
"html-keyboard-response","191","890895","0.0-4.0-2.0-1.33","spark_pilot_norest","8735","6","23","Female","","","","","","","null","<div style=""font-size:60px;"">+</div>","null","fixation","","","","","","","","","67","","",""
"revaluation","192","896920","0.0-4.0-2.0-0.34","spark_pilot_norest","8735","6","23","Female","","false","","","","","[532.6000003814697,1032.7999992370605]","./assets/img/canyon/memory/0.jpg","[""ArrowDown"",""ArrowRight""]","value training","canyon","30","{""ArrowUp,ArrowLeft"":23,""ArrowUp,ArrowRight"":10,""ArrowDown,ArrowLeft"":8,""ArrowDown,ArrowRight"":30}","true","ArrowDown,ArrowRight","false","revaluation","1","68","","",""
"html-keyboard-response","193","897423","0.0-4.0-2.0-1.34","spark_pilot_norest","8735","6","23","Female","","","","","","","null","<div style=""font-size:60px;"">+</div>","null","fixation","","","","","","","","","69","","",""
"revaluation","194","901440","0.0-4.0-2.0-0.35","spark_pilot_norest","8735","6","23","Female","","false","","","","","[1028.3999996185303]","./assets/img/canyon/catch/4.jpg","[""spaceBar""]","value training","canyon","0","{""ArrowUp,ArrowLeft"":23,""ArrowUp,ArrowRight"":10,""ArrowDown,ArrowLeft"":8,""ArrowDown,ArrowRight"":30}","true","spaceBar","true","revaluation","1","70","","",""
"html-keyboard-response","195","901945","0.0-4.0-2.0-1.35","spark_pilot_norest","8735","6","23","Female","","","","","","","null","<div style=""font-size:60px;"">+</div>","null","fixation","","","","","","","","","71","","",""
"revaluation","196","907962","0.0-4.0-2.0-0.36","spark_pilot_norest","8735","6","23","Female","","false","","","","","[760.7999992370605,902.6999998092651]","./assets/img/canyon/memory/25.jpg","[""ArrowDown"",""ArrowRight""]","value training","canyon","30","{""ArrowUp,ArrowLeft"":23,""ArrowUp,ArrowRight"":10,""ArrowDown,ArrowLeft"":8,""ArrowDown,ArrowRight"":30}","true","ArrowDown,ArrowRight","false","revaluation","1","72","","",""
"html-keyboard-response","197","908471","0.0-4.0-2.0-1.36","spark_pilot_norest","8735","6","23","Female","","","","","","","null","<div style=""font-size:60px;"">+</div>","null","fixation","","","","","","","","","73","","",""
"revaluation","198","912490","0.0-4.0-2.0-0.37","spark_pilot_norest","8735","6","23","Female","","false","","","","","[1371.2000007629395]","./assets/img/canyon/catch/2.jpg","[""spaceBar""]","value training","canyon","0","{""ArrowUp,ArrowLeft"":23,""ArrowUp,ArrowRight"":10,""ArrowDown,ArrowLeft"":8,""ArrowDown,ArrowRight"":30}","true","spaceBar","true","revaluation","1","74","","",""
"html-keyboard-response","199","912997","0.0-4.0-2.0-1.37","spark_pilot_norest","8735","6","23","Female","","","","","","","null","<div style=""font-size:60px;"">+</div>","null","fixation","","","","","","","","","75","","",""
"revaluation","200","917022","0.0-4.0-2.0-0.38","spark_pilot_norest","8735","6","23","Female","","false","","","","","[1456.5999994277954]","./assets/img/canyon/catch/7.jpg","[""spaceBar""]","value training","canyon","0","{""ArrowUp,ArrowLeft"":23,""ArrowUp,ArrowRight"":10,""ArrowDown,ArrowLeft"":8,""ArrowDown,ArrowRight"":30}","true","spaceBar","true","revaluation","1","76","","",""
"html-keyboard-response","201","917533","0.0-4.0-2.0-1.38","spark_pilot_norest","8735","6","23","Female","","","","","","","null","<div style=""font-size:60px;"">+</div>","null","fixation","","","","","","","","","77","","",""
"revaluation","202","923545","0.0-4.0-2.0-0.39","spark_pilot_norest","8735","6","23","Female","","false","","","","","[851.5999994277954,682.3000001907349]","./assets/img/canyon/memory/25.jpg","[""ArrowDown"",""ArrowRight""]","value training","canyon","30","{""ArrowUp,ArrowLeft"":23,""ArrowUp,ArrowRight"":10,""ArrowDown,ArrowLeft"":8,""ArrowDown,ArrowRight"":30}","true","ArrowDown,ArrowRight","false","revaluation","1","78","","",""
"html-keyboard-response","203","924061","0.0-4.0-2.0-1.39","spark_pilot_norest","8735","6","23","Female","","","","","","","null","<div style=""font-size:60px;"">+</div>","null","fixation","","","","","","","","","79","","",""
"revaluation","204","930092","0.0-4.0-2.0-0.40","spark_pilot_norest","8735","6","23","Female","","false","","","","","[670.8000001907349,809.7999992370605]","./assets/img/canyon/memory/10.jpg","[""ArrowDown"",""ArrowRight""]","value training","canyon","30","{""ArrowUp,ArrowLeft"":23,""ArrowUp,ArrowRight"":10,""ArrowDown,ArrowLeft"":8,""ArrowDown,ArrowRight"":30}","true","ArrowDown,ArrowRight","false","revaluation","1","80","","",""
"html-keyboard-response","205","930594","0.0-4.0-2.0-1.40","spark_pilot_norest","8735","6","23","Female","","","","","","","null","<div style=""font-size:60px;"">+</div>","null","fixation","","","","","","","","","81","","",""
"revaluation","206","934605","0.0-4.0-2.0-0.41","spark_pilot_norest","8735","6","23","Female","","false","","","","","[1148.8000001907349]","./assets/img/canyon/catch/1.jpg","[""spaceBar""]","value training","canyon","0","{""ArrowUp,ArrowLeft"":23,""ArrowUp,ArrowRight"":10,""ArrowDown,ArrowLeft"":8,""ArrowDown,ArrowRight"":30}","true","spaceBar","true","revaluation","1","82","","",""
"html-keyboard-response","207","935110","0.0-4.0-2.0-1.41","spark_pilot_norest","8735","6","23","Female","","","","","","","null","<div style=""font-size:60px;"">+</div>","null","fixation","","","","","","","","","83","","",""
"revaluation","208","939137","0.0-4.0-2.0-0.42","spark_pilot_norest","8735","6","23","Female","","false","","","","","[1096.3999996185303]","./assets/img/canyon/catch/6.jpg","[""spaceBar""]","value training","canyon","0","{""ArrowUp,ArrowLeft"":23,""ArrowUp,ArrowRight"":10,""ArrowDown,ArrowLeft"":8,""ArrowDown,ArrowRight"":30}","true","spaceBar","true","revaluation","1","84","","",""
"html-keyboard-response","209","939647","0.0-4.0-2.0-1.42","spark_pilot_norest","8735","6","23","Female","","","","","","","null","<div style=""font-size:60px;"">+</div>","null","fixation","","","","","","","","","85","","",""
"revaluation","210","945673","0.0-4.0-2.0-0.43","spark_pilot_norest","8735","6","23","Female","","false","","","","","[648.6999998092651,963.3000001907349]","./assets/img/canyon/memory/24.jpg","[""ArrowDown"",""ArrowRight""]","value training","canyon","30","{""ArrowUp,ArrowLeft"":23,""ArrowUp,ArrowRight"":10,""ArrowDown,ArrowLeft"":8,""ArrowDown,ArrowRight"":30}","true","ArrowDown,ArrowRight","false","revaluation","1","86","","",""
"html-keyboard-response","211","946187","0.0-4.0-2.0-1.43","spark_pilot_norest","8735","6","23","Female","","","","","","","null","<div style=""font-size:60px;"">+</div>","null","fixation","","","","","","","","","87","","",""
"revaluation","212","952211","0.0-4.0-2.0-0.44","spark_pilot_norest","8735","6","23","Female","","false","","","","","[557.5,585.5999994277954]","./assets/img/canyon/memory/37.jpg","[""ArrowDown"",""ArrowRight""]","value training","canyon","30","{""ArrowUp,ArrowLeft"":23,""ArrowUp,ArrowRight"":10,""ArrowDown,ArrowLeft"":8,""ArrowDown,ArrowRight"":30}","true","ArrowDown,ArrowRight","false","revaluation","1","88","","",""
"html-keyboard-response","213","952724","0.0-4.0-2.0-1.44","spark_pilot_norest","8735","6","23","Female","","","","","","","null","<div style=""font-size:60px;"">+</div>","null","fixation","","","","","","","","","89","","",""
"revaluation","214","958758","0.0-4.0-2.0-0.45","spark_pilot_norest","8735","6","23","Female","","false","","","","","[533.5999994277954,741]","./assets/img/canyon/memory/9.jpg","[""ArrowDown"",""ArrowRight""]","value training","canyon","30","{""ArrowUp,ArrowLeft"":23,""ArrowUp,ArrowRight"":10,""ArrowDown,ArrowLeft"":8,""ArrowDown,ArrowRight"":30}","true","ArrowDown,ArrowRight","false","revaluation","1","90","","",""
"html-keyboard-response","215","959266","0.0-4.0-2.0-1.45","spark_pilot_norest","8735","6","23","Female","","","","","","","null","<div style=""font-size:60px;"">+</div>","null","fixation","","","","","","","","","91","","",""
"revaluation","216","965294","0.0-4.0-2.0-0.46","spark_pilot_norest","8735","6","23","Female","","false","","","","","[499.6000003814697,702.1000003814697]","./assets/img/canyon/memory/31.jpg","[""ArrowDown"",""ArrowRight""]","value training","canyon","30","{""ArrowUp,ArrowLeft"":23,""ArrowUp,ArrowRight"":10,""ArrowDown,ArrowLeft"":8,""ArrowDown,ArrowRight"":30}","true","ArrowDown,ArrowRight","false","revaluation","1","92","","",""
"html-keyboard-response","217","965799","0.0-4.0-2.0-1.46","spark_pilot_norest","8735","6","23","Female","","","","","","","null","<div style=""font-size:60px;"">+</div>","null","fixation","","","","","","","","","93","","",""
"revaluation","218","971833","0.0-4.0-2.0-0.47","spark_pilot_norest","8735","6","23","Female","","false","","","","","[520.3999996185303,782.5]","./assets/img/canyon/memory/41.jpg","[""ArrowDown"",""ArrowRight""]","value training","canyon","30","{""ArrowUp,ArrowLeft"":23,""ArrowUp,ArrowRight"":10,""ArrowDown,ArrowLeft"":8,""ArrowDown,ArrowRight"":30}","true","ArrowDown,ArrowRight","false","revaluation","1","94","","",""
"html-keyboard-response","219","972337","0.0-4.0-2.0-1.47","spark_pilot_norest","8735","6","23","Female","","","","","","","null","<div style=""font-size:60px;"">+</div>","null","fixation","","","","","","","","","95","","",""
"revaluation","220","978367","0.0-4.0-2.0-0.48","spark_pilot_norest","8735","6","23","Female","","false","","","","","[460.9000005722046,468.30000019073486]","./assets/img/canyon/memory/4.jpg","[""ArrowDown"",""ArrowRight""]","value training","canyon","30","{""ArrowUp,ArrowLeft"":23,""ArrowUp,ArrowRight"":10,""ArrowDown,ArrowLeft"":8,""ArrowDown,ArrowRight"":30}","true","ArrowDown,ArrowRight","false","revaluation","1","96","","",""
"html-keyboard-response","221","978869","0.0-4.0-2.0-1.48","spark_pilot_norest","8735","6","23","Female","","","","","","","null","<div style=""font-size:60px;"">+</div>","null","fixation","","","","","","","","","97","","",""
"revaluation","222","984901","0.0-4.0-2.0-0.49","spark_pilot_norest","8735","6","23","Female","","false","","","","","[645.1999998092651,758.1000003814697]","./assets/img/canyon/memory/10.jpg","[""ArrowDown"",""ArrowRight""]","value training","canyon","30","{""ArrowUp,ArrowLeft"":23,""ArrowUp,ArrowRight"":10,""ArrowDown,ArrowLeft"":8,""ArrowDown,ArrowRight"":30}","true","ArrowDown,ArrowRight","false","revaluation","1","98","","",""
"html-keyboard-response","223","985407","0.0-4.0-2.0-1.49","spark_pilot_norest","8735","6","23","Female","","","","","","","null","<div style=""font-size:60px;"">+</div>","null","fixation","","","","","","","","","99","","",""
"learning-instructions","224","1016430","0.0-4.0-3.0-0.0","spark_pilot_norest","8735","6","23","Female","","","","","","","18038.699999809265","<p> Now, you will travel with a friend who will choose whether you go up or down first. </p>
            <p> On these turns, you will just see the animal that they found. You will still get to choose which chest to search for treasure.</p>","","instructions","","","","","","","","","","","",""
"revaluation","225","1020471","0.0-4.0-4.0-0.0","spark_pilot_norest","8735","6","23","Female","","false","","","","","[575.0999994277954]","./assets/img/canyon/animals/giraffe.jpg","[""ArrowRight""]","revaluation","canyon","7","{""ArrowUp,ArrowLeft"":27,""ArrowUp,ArrowRight"":15,""ArrowDown,ArrowLeft"":21,""ArrowDown,ArrowRight"":7}","false","ArrowDown,ArrowRight","","revaluation","1","0","","",""
"html-keyboard-response","226","1020998","0.0-4.0-4.0-1.0","spark_pilot_norest","8735","6","23","Female","","","","","","","null","<div style=""font-size:60px;"">+</div>","null","fixation","","","","","","","","","1","","",""
"revaluation","227","1025029","0.0-4.0-4.0-0.1","spark_pilot_norest","8735","6","23","Female","","false","","","","","[845.5]","./assets/img/canyon/animals/lion.jpg","[""ArrowRight""]","revaluation","canyon","15","{""ArrowUp,ArrowLeft"":27,""ArrowUp,ArrowRight"":15,""ArrowDown,ArrowLeft"":21,""ArrowDown,ArrowRight"":7}","false","ArrowUp,ArrowRight","","revaluation","1","2","","",""
"html-keyboard-response","228","1025539","0.0-4.0-4.0-1.1","spark_pilot_norest","8735","6","23","Female","","","","","","","null","<div style=""font-size:60px;"">+</div>","null","fixation","","","","","","","","","3","","",""
"revaluation","229","1029561","0.0-4.0-4.0-0.2","spark_pilot_norest","8735","6","23","Female","","false","","","","","[445.80000019073486]","./assets/img/canyon/animals/lion.jpg","[""ArrowLeft""]","revaluation","canyon","27","{""ArrowUp,ArrowLeft"":27,""ArrowUp,ArrowRight"":15,""ArrowDown,ArrowLeft"":21,""ArrowDown,ArrowRight"":7}","true","ArrowUp,ArrowLeft","","revaluation","1","4","","",""
"html-keyboard-response","230","1030063","0.0-4.0-4.0-1.2","spark_pilot_norest","8735","6","23","Female","","","","","","","null","<div style=""font-size:60px;"">+</div>","null","fixation","","","","","","","","","5","","",""
"revaluation","231","1034081","0.0-4.0-4.0-0.3","spark_pilot_norest","8735","6","23","Female","","false","","","","","[788.6000003814697]","./assets/img/canyon/animals/lion.jpg","[""ArrowLeft""]","revaluation","canyon","27","{""ArrowUp,ArrowLeft"":27,""ArrowUp,ArrowRight"":15,""ArrowDown,ArrowLeft"":21,""ArrowDown,ArrowRight"":7}","true","ArrowUp,ArrowLeft","","revaluation","1","6","","",""
"html-keyboard-response","232","1034595","0.0-4.0-4.0-1.3","spark_pilot_norest","8735","6","23","Female","","","","","","","null","<div style=""font-size:60px;"">+</div>","null","fixation","","","","","","","","","7","","",""
"revaluation","233","1038611","0.0-4.0-4.0-0.4","spark_pilot_norest","8735","6","23","Female","","false","","","","","[509.5]","./assets/img/canyon/animals/giraffe.jpg","[""ArrowLeft""]","revaluation","canyon","21","{""ArrowUp,ArrowLeft"":27,""ArrowUp,ArrowRight"":15,""ArrowDown,ArrowLeft"":21,""ArrowDown,ArrowRight"":7}","true","ArrowDown,ArrowLeft","","revaluation","1","8","","",""
"html-keyboard-response","234","1039118","0.0-4.0-4.0-1.4","spark_pilot_norest","8735","6","23","Female","","","","","","","null","<div style=""font-size:60px;"">+</div>","null","fixation","","","","","","","","","9","","",""
"revaluation","235","1043136","0.0-4.0-4.0-0.5","spark_pilot_norest","8735","6","23","Female","","false","","","","","[309.80000019073486]","./assets/img/canyon/animals/giraffe.jpg","[""ArrowLeft""]","revaluation","canyon","21","{""ArrowUp,ArrowLeft"":27,""ArrowUp,ArrowRight"":15,""ArrowDown,ArrowLeft"":21,""ArrowDown,ArrowRight"":7}","true","ArrowDown,ArrowLeft","","revaluation","1","10","","",""
"html-keyboard-response","236","1043654","0.0-4.0-4.0-1.5","spark_pilot_norest","8735","6","23","Female","","","","","","","null","<div style=""font-size:60px;"">+</div>","null","fixation","","","","","","","","","11","","",""
"revaluation","237","1047670","0.0-4.0-4.0-0.6","spark_pilot_norest","8735","6","23","Female","","false","","","","","[322.20000076293945]","./assets/img/canyon/animals/giraffe.jpg","[""ArrowLeft""]","revaluation","canyon","21","{""ArrowUp,ArrowLeft"":27,""ArrowUp,ArrowRight"":15,""ArrowDown,ArrowLeft"":21,""ArrowDown,ArrowRight"":7}","true","ArrowDown,ArrowLeft","","revaluation","1","12","","",""
"html-keyboard-response","238","1048180","0.0-4.0-4.0-1.6","spark_pilot_norest","8735","6","23","Female","","","","","","","null","<div style=""font-size:60px;"">+</div>","null","fixation","","","","","","","","","13","","",""
"revaluation","239","1052197","0.0-4.0-4.0-0.7","spark_pilot_norest","8735","6","23","Female","","false","","","","","[344.5]","./assets/img/canyon/animals/giraffe.jpg","[""ArrowLeft""]","revaluation","canyon","21","{""ArrowUp,ArrowLeft"":27,""ArrowUp,ArrowRight"":15,""ArrowDown,ArrowLeft"":21,""ArrowDown,ArrowRight"":7}","true","ArrowDown,ArrowLeft","","revaluation","1","14","","",""
"html-keyboard-response","240","1052703","0.0-4.0-4.0-1.7","spark_pilot_norest","8735","6","23","Female","","","","","","","null","<div style=""font-size:60px;"">+</div>","null","fixation","","","","","","","","","15","","",""
"revaluation","241","1056724","0.0-4.0-4.0-0.8","spark_pilot_norest","8735","6","23","Female","","false","","","","","[339.3999996185303]","./assets/img/canyon/animals/lion.jpg","[""ArrowLeft""]","revaluation","canyon","27","{""ArrowUp,ArrowLeft"":27,""ArrowUp,ArrowRight"":15,""ArrowDown,ArrowLeft"":21,""ArrowDown,ArrowRight"":7}","true","ArrowUp,ArrowLeft","","revaluation","1","16","","",""
"html-keyboard-response","242","1057226","0.0-4.0-4.0-1.8","spark_pilot_norest","8735","6","23","Female","","","","","","","null","<div style=""font-size:60px;"">+</div>","null","fixation","","","","","","","","","17","","",""
"revaluation","243","1061248","0.0-4.0-4.0-0.9","spark_pilot_norest","8735","6","23","Female","","false","","","","","[458.5]","./assets/img/canyon/animals/lion.jpg","[""ArrowLeft""]","revaluation","canyon","27","{""ArrowUp,ArrowLeft"":27,""ArrowUp,ArrowRight"":15,""ArrowDown,ArrowLeft"":21,""ArrowDown,ArrowRight"":7}","true","ArrowUp,ArrowLeft","","revaluation","1","18","","",""
"html-keyboard-response","244","1061753","0.0-4.0-4.0-1.9","spark_pilot_norest","8735","6","23","Female","","","","","","","null","<div style=""font-size:60px;"">+</div>","null","fixation","","","","","","","","","19","","",""
"revaluation","245","1065766","0.0-4.0-4.0-0.10","spark_pilot_norest","8735","6","23","Female","","false","","","","","[454.79999923706055]","./assets/img/canyon/animals/lion.jpg","[""ArrowLeft""]","revaluation","canyon","27","{""ArrowUp,ArrowLeft"":27,""ArrowUp,ArrowRight"":15,""ArrowDown,ArrowLeft"":21,""ArrowDown,ArrowRight"":7}","true","ArrowUp,ArrowLeft","","revaluation","1","20","","",""
"html-keyboard-response","246","1066269","0.0-4.0-4.0-1.10","spark_pilot_norest","8735","6","23","Female","","","","","","","null","<div style=""font-size:60px;"">+</div>","null","fixation","","","","","","","","","21","","",""
"revaluation","247","1070279","0.0-4.0-4.0-0.11","spark_pilot_norest","8735","6","23","Female","","false","","","","","[492]","./assets/img/canyon/animals/giraffe.jpg","[""ArrowLeft""]","revaluation","canyon","21","{""ArrowUp,ArrowLeft"":27,""ArrowUp,ArrowRight"":15,""ArrowDown,ArrowLeft"":21,""ArrowDown,ArrowRight"":7}","true","ArrowDown,ArrowLeft","","revaluation","1","22","","",""
"html-keyboard-response","248","1070786","0.0-4.0-4.0-1.11","spark_pilot_norest","8735","6","23","Female","","","","","","","null","<div style=""font-size:60px;"">+</div>","null","fixation","","","","","","","","","23","","",""
"revaluation","249","1074801","0.0-4.0-4.0-0.12","spark_pilot_norest","8735","6","23","Female","","false","","","","","[460.0999994277954]","./assets/img/canyon/animals/giraffe.jpg","[""ArrowLeft""]","revaluation","canyon","21","{""ArrowUp,ArrowLeft"":27,""ArrowUp,ArrowRight"":15,""ArrowDown,ArrowLeft"":21,""ArrowDown,ArrowRight"":7}","true","ArrowDown,ArrowLeft","","revaluation","1","24","","",""
"html-keyboard-response","250","1075306","0.0-4.0-4.0-1.12","spark_pilot_norest","8735","6","23","Female","","","","","","","null","<div style=""font-size:60px;"">+</div>","null","fixation","","","","","","","","","25","","",""
"revaluation","251","1079328","0.0-4.0-4.0-0.13","spark_pilot_norest","8735","6","23","Female","","false","","","","","[318.5]","./assets/img/canyon/animals/giraffe.jpg","[""ArrowLeft""]","revaluation","canyon","21","{""ArrowUp,ArrowLeft"":27,""ArrowUp,ArrowRight"":15,""ArrowDown,ArrowLeft"":21,""ArrowDown,ArrowRight"":7}","true","ArrowDown,ArrowLeft","","revaluation","1","26","","",""
"html-keyboard-response","252","1079841","0.0-4.0-4.0-1.13","spark_pilot_norest","8735","6","23","Female","","","","","","","null","<div style=""font-size:60px;"">+</div>","null","fixation","","","","","","","","","27","","",""
"revaluation","253","1083852","0.0-4.0-4.0-0.14","spark_pilot_norest","8735","6","23","Female","","false","","","","","[745.0999994277954]","./assets/img/canyon/animals/giraffe.jpg","[""ArrowLeft""]","revaluation","canyon","21","{""ArrowUp,ArrowLeft"":27,""ArrowUp,ArrowRight"":15,""ArrowDown,ArrowLeft"":21,""ArrowDown,ArrowRight"":7}","true","ArrowDown,ArrowLeft","","revaluation","1","28","","",""
"html-keyboard-response","254","1084369","0.0-4.0-4.0-1.14","spark_pilot_norest","8735","6","23","Female","","","","","","","null","<div style=""font-size:60px;"">+</div>","null","fixation","","","","","","","","","29","","",""
"revaluation","255","1088391","0.0-4.0-4.0-0.15","spark_pilot_norest","8735","6","23","Female","","false","","","","","[300.6000003814697]","./assets/img/canyon/animals/lion.jpg","[""ArrowLeft""]","revaluation","canyon","27","{""ArrowUp,ArrowLeft"":27,""ArrowUp,ArrowRight"":15,""ArrowDown,ArrowLeft"":21,""ArrowDown,ArrowRight"":7}","true","ArrowUp,ArrowLeft","","revaluation","1","30","","",""
"html-keyboard-response","256","1088896","0.0-4.0-4.0-1.15","spark_pilot_norest","8735","6","23","Female","","","","","","","null","<div style=""font-size:60px;"">+</div>","null","fixation","","","","","","","","","31","","",""
"revaluation","257","1092925","0.0-4.0-4.0-0.16","spark_pilot_norest","8735","6","23","Female","","false","","","","","[392.19999980926514]","./assets/img/canyon/animals/lion.jpg","[""ArrowLeft""]","revaluation","canyon","27","{""ArrowUp,ArrowLeft"":27,""ArrowUp,ArrowRight"":15,""ArrowDown,ArrowLeft"":21,""ArrowDown,ArrowRight"":7}","true","ArrowUp,ArrowLeft","","revaluation","1","32","","",""
"html-keyboard-response","258","1093440","0.0-4.0-4.0-1.16","spark_pilot_norest","8735","6","23","Female","","","","","","","null","<div style=""font-size:60px;"">+</div>","null","fixation","","","","","","","","","33","","",""
"revaluation","259","1097457","0.0-4.0-4.0-0.17","spark_pilot_norest","8735","6","23","Female","","false","","","","","[800.3999996185303]","./assets/img/canyon/animals/lion.jpg","[""ArrowLeft""]","revaluation","canyon","27","{""ArrowUp,ArrowLeft"":27,""ArrowUp,ArrowRight"":15,""ArrowDown,ArrowLeft"":21,""ArrowDown,ArrowRight"":7}","true","ArrowUp,ArrowLeft","","revaluation","1","34","","",""
"html-keyboard-response","260","1097960","0.0-4.0-4.0-1.17","spark_pilot_norest","8735","6","23","Female","","","","","","","null","<div style=""font-size:60px;"">+</div>","null","fixation","","","","","","","","","35","","",""
"learning-instructions","261","1106187","0.0-4.0-5.0-0.0","spark_pilot_norest","8735","6","23","Female","","","","","","","null","<p> You have almost finished this part of the game! </p>
            <p> We are going to ask you to make a few more choices. </p>","","instructions","","","","","","","","","","","",""
"learning-instructions","262","1122180","0.0-4.0-5.0-0.1","spark_pilot_norest","8735","6","23","Female","","","","","","","null","<p> First, you need to decide whether to go up or down. When you see each picture, use the arrow keys to make your choice. </p>
            <p><b>You will not see which animal you found, but try to get to the one that will give you the most treasure.</b></p>","","instructions","","","","","","","","","","","",""
"html-keyboard-response","263","1123201","0.0-4.0-6.0-0.0","spark_pilot_norest","8735","6","23","Female","","","","","","","null","<div style=""font-size:100px;color:red;"">Starting in...</div>","null","","","","","","","","","","","","",""
"html-keyboard-response","264","1124211","0.0-4.0-6.0-1.0","spark_pilot_norest","8735","6","23","Female","","","","","","","null","<div style=""font-size:200px;color:red;"">3</div>","null","","","","","","","","","","","","",""
"html-keyboard-response","265","1125231","0.0-4.0-6.0-2.0","spark_pilot_norest","8735","6","23","Female","","","","","","","null","<div style=""font-size:200px;color:red;"">2</div>","null","","","","","","","","","","","","",""
"html-keyboard-response","266","1126241","0.0-4.0-6.0-3.0","spark_pilot_norest","8735","6","23","Female","","","","","","","null","<div style=""font-size:200px;color:red;"">1</div>","null","","","","","","","","","","","","",""
"revaluation","267","1127094","0.0-4.0-7.0-0.0","spark_pilot_norest","8735","6","23","Female","","false","","","","","[845.8000001907349]","./assets/img/canyon/test/1.jpg","[""ArrowUp""]","first stage test","canyon","0","{""ArrowUp,ArrowLeft"":27,""ArrowUp,ArrowRight"":15,""ArrowDown,ArrowLeft"":21,""ArrowDown,ArrowRight"":7}","true","ArrowUp","false","revaluation","1","","","",""
"html-keyboard-response","268","1127610","0.0-4.0-7.0-1.0","spark_pilot_norest","8735","6","23","Female","","","","","","","null","<div style=""font-size:60px;"">+</div>","null","fixation","","","","","","","","","","","",""
"revaluation","269","1128294","0.0-4.0-7.0-0.1","spark_pilot_norest","8735","6","23","Female","","false","","","","","[676]","./assets/img/canyon/test/0.jpg","[""ArrowUp""]","first stage test","canyon","0","{""ArrowUp,ArrowLeft"":27,""ArrowUp,ArrowRight"":15,""ArrowDown,ArrowLeft"":21,""ArrowDown,ArrowRight"":7}","true","ArrowUp","false","revaluation","1","","","",""
"html-keyboard-response","270","1128800","0.0-4.0-7.0-1.1","spark_pilot_norest","8735","6","23","Female","","","","","","","null","<div style=""font-size:60px;"">+</div>","null","fixation","","","","","","","","","","","",""
"revaluation","271","1130510","0.0-4.0-7.0-0.2","spark_pilot_norest","8735","6","23","Female","","false","","","","","[1695.7000007629395]","./assets/img/canyon/test/2.jpg","[""ArrowUp""]","first stage test","canyon","0","{""ArrowUp,ArrowLeft"":27,""ArrowUp,ArrowRight"":15,""ArrowDown,ArrowLeft"":21,""ArrowDown,ArrowRight"":7}","true","ArrowUp","false","revaluation","1","","","",""
"html-keyboard-response","272","1131030","0.0-4.0-7.0-1.2","spark_pilot_norest","8735","6","23","Female","","","","","","","null","<div style=""font-size:60px;"">+</div>","null","fixation","","","","","","","","","","","",""
"revaluation","273","1131347","0.0-4.0-7.0-0.3","spark_pilot_norest","8735","6","23","Female","","false","","","","","[309.79999923706055]","./assets/img/canyon/test/3.jpg","[""ArrowDown""]","first stage test","canyon","0","{""ArrowUp,ArrowLeft"":27,""ArrowUp,ArrowRight"":15,""ArrowDown,ArrowLeft"":21,""ArrowDown,ArrowRight"":7}","false","ArrowDown","false","revaluation","1","","","",""
"html-keyboard-response","274","1131861","0.0-4.0-7.0-1.3","spark_pilot_norest","8735","6","23","Female","","","","","","","null","<div style=""font-size:60px;"">+</div>","null","fixation","","","","","","","","","","","",""
"learning-instructions","275","1145201","0.0-4.0-8.0-0.0","spark_pilot_norest","8735","6","23","Female","","","","","","","null","<p> Now you will see the animals again and can search their chests for treasure. </p>
            <p> This time, you will not see how much treasure you earned, but you will earn more bonus money for making better choices. </p>","","instructions","","","","","","","","","","","",""
"html-keyboard-response","276","1146221","0.0-4.0-9.0-0.0","spark_pilot_norest","8735","6","23","Female","","","","","","","null","<div style=""font-size:100px;color:red;"">Starting in...</div>","null","","","","","","","","","","","","",""
"html-keyboard-response","277","1147240","0.0-4.0-9.0-1.0","spark_pilot_norest","8735","6","23","Female","","","","","","","null","<div style=""font-size:200px;color:red;"">3</div>","null","","","","","","","","","","","","",""
"html-keyboard-response","278","1148250","0.0-4.0-9.0-2.0","spark_pilot_norest","8735","6","23","Female","","","","","","","null","<div style=""font-size:200px;color:red;"">2</div>","null","","","","","","","","","","","","",""
"html-keyboard-response","279","1149270","0.0-4.0-9.0-3.0","spark_pilot_norest","8735","6","23","Female","","","","","","","null","<div style=""font-size:200px;color:red;"">1</div>","null","","","","","","","","","","","","",""
"revaluation","280","1149553","0.0-4.0-10.0-0.0","spark_pilot_norest","8735","6","23","Female","","false","","","","","[275.30000019073486]","./assets/img/canyon/animals/lion.jpg","[""ArrowLeft""]","second stage test","canyon","0","{""ArrowUp,ArrowLeft"":27,""ArrowUp,ArrowRight"":15,""ArrowDown,ArrowLeft"":21,""ArrowDown,ArrowRight"":7}","true","ArrowUp,ArrowLeft","","revaluation","1","","","",""
"html-keyboard-response","281","1150071","0.0-4.0-10.0-1.0","spark_pilot_norest","8735","6","23","Female","","","","","","","null","<div style=""font-size:60px;"">+</div>","null","fixation","","","","","","","","","","","",""
"revaluation","282","1150424","0.0-4.0-10.0-0.1","spark_pilot_norest","8735","6","23","Female","","false","","","","","[345.6000003814697]","./assets/img/canyon/animals/lion.jpg","[""ArrowLeft""]","second stage test","canyon","0","{""ArrowUp,ArrowLeft"":27,""ArrowUp,ArrowRight"":15,""ArrowDown,ArrowLeft"":21,""ArrowDown,ArrowRight"":7}","true","ArrowUp,ArrowLeft","","revaluation","1","","","",""
"html-keyboard-response","283","1150940","0.0-4.0-10.0-1.1","spark_pilot_norest","8735","6","23","Female","","","","","","","null","<div style=""font-size:60px;"">+</div>","null","fixation","","","","","","","","","","","",""
"revaluation","284","1151279","0.0-4.0-10.0-0.2","spark_pilot_norest","8735","6","23","Female","","false","","","","","[330.20000076293945]","./assets/img/canyon/animals/lion.jpg","[""ArrowLeft""]","second stage test","canyon","0","{""ArrowUp,ArrowLeft"":27,""ArrowUp,ArrowRight"":15,""ArrowDown,ArrowLeft"":21,""ArrowDown,ArrowRight"":7}","true","ArrowUp,ArrowLeft","","revaluation","1","","","",""
"html-keyboard-response","285","1151791","0.0-4.0-10.0-1.2","spark_pilot_norest","8735","6","23","Female","","","","","","","null","<div style=""font-size:60px;"">+</div>","null","fixation","","","","","","","","","","","",""
"revaluation","286","1152110","0.0-4.0-10.0-0.3","spark_pilot_norest","8735","6","23","Female","","false","","","","","[311]","./assets/img/canyon/animals/lion.jpg","[""ArrowLeft""]","second stage test","canyon","0","{""ArrowUp,ArrowLeft"":27,""ArrowUp,ArrowRight"":15,""ArrowDown,ArrowLeft"":21,""ArrowDown,ArrowRight"":7}","true","ArrowUp,ArrowLeft","","revaluation","1","","","",""
"html-keyboard-response","287","1152620","0.0-4.0-10.0-1.3","spark_pilot_norest","8735","6","23","Female","","","","","","","null","<div style=""font-size:60px;"">+</div>","null","fixation","","","","","","","","","","","",""
"revaluation","288","1153117","0.0-4.0-10.0-0.4","spark_pilot_norest","8735","6","23","Female","","false","","","","","[489.0999994277954]","./assets/img/canyon/animals/giraffe.jpg","[""ArrowLeft""]","second stage test","canyon","0","{""ArrowUp,ArrowLeft"":27,""ArrowUp,ArrowRight"":15,""ArrowDown,ArrowLeft"":21,""ArrowDown,ArrowRight"":7}","true","ArrowDown,ArrowLeft","","revaluation","1","","","",""
"html-keyboard-response","289","1153630","0.0-4.0-10.0-1.4","spark_pilot_norest","8735","6","23","Female","","","","","","","null","<div style=""font-size:60px;"">+</div>","null","fixation","","","","","","","","","","","",""
"revaluation","290","1153964","0.0-4.0-10.0-0.5","spark_pilot_norest","8735","6","23","Female","","false","","","","","[325.69999980926514]","./assets/img/canyon/animals/giraffe.jpg","[""ArrowLeft""]","second stage test","canyon","0","{""ArrowUp,ArrowLeft"":27,""ArrowUp,ArrowRight"":15,""ArrowDown,ArrowLeft"":21,""ArrowDown,ArrowRight"":7}","true","ArrowDown,ArrowLeft","","revaluation","1","","","",""
"html-keyboard-response","291","1154481","0.0-4.0-10.0-1.5","spark_pilot_norest","8735","6","23","Female","","","","","","","null","<div style=""font-size:60px;"">+</div>","null","fixation","","","","","","","","","","","",""
"revaluation","292","1154835","0.0-4.0-10.0-0.6","spark_pilot_norest","8735","6","23","Female","","false","","","","","[346]","./assets/img/canyon/animals/giraffe.jpg","[""ArrowLeft""]","second stage test","canyon","0","{""ArrowUp,ArrowLeft"":27,""ArrowUp,ArrowRight"":15,""ArrowDown,ArrowLeft"":21,""ArrowDown,ArrowRight"":7}","true","ArrowDown,ArrowLeft","","revaluation","1","","","",""
"html-keyboard-response","293","1155350","0.0-4.0-10.0-1.6","spark_pilot_norest","8735","6","23","Female","","","","","","","null","<div style=""font-size:60px;"">+</div>","null","fixation","","","","","","","","","","","",""
"revaluation","294","1155666","0.0-4.0-10.0-0.7","spark_pilot_norest","8735","6","23","Female","","false","","","","","[308.30000019073486]","./assets/img/canyon/animals/giraffe.jpg","[""ArrowLeft""]","second stage test","canyon","0","{""ArrowUp,ArrowLeft"":27,""ArrowUp,ArrowRight"":15,""ArrowDown,ArrowLeft"":21,""ArrowDown,ArrowRight"":7}","true","ArrowDown,ArrowLeft","","revaluation","1","","","",""
"html-keyboard-response","295","1156180","0.0-4.0-10.0-1.7","spark_pilot_norest","8735","6","23","Female","","","","","","","null","<div style=""font-size:60px;"">+</div>","null","fixation","","","","","","","","","","","",""
"learning-instructions","296","1165516","0.0-4.0-0.1-0.2","spark_pilot_norest","8735","6","23","Female","","","","","","","6603.60000038147","<p> This time you are searching for treasure in the <b>ocean</b>.</p>","","instructions","","","","","","","","","","","",""
"learning-instructions","297","1184204","0.0-4.0-0.1-0.3","spark_pilot_norest","8735","6","23","Female","","","","","","","1444.3999996185303","<p><b>New</b> animals with <b>new</b> treasure chests live here. You need to explore to discover where the animal with the best treasure chest is.</p>
                    <p> Like before, once you figure out which animal has the chest with the most treasure, you should try to get to that animal and select that chest! </p>","","instructions","","","","","","","","","","","",""
"learning-instructions","298","1200221","0.0-4.0-1.1-0.1","spark_pilot_norest","8735","6","23","Female","","","","","","","1281.8000001907349","<p> Remember, when you see a picture of the place, use the up and down keys to <b>find an animal</b>.</p>
            <p> When you encounter an animal, you should use the left and right keys to <b>select a treasure chest</b>.</p>
            <p> Don't forget to look out for the robber! </p>","","instructions","","","","","","","","","","","",""
"revaluation","299","1206268","0.0-4.0-2.1-0.50","spark_pilot_norest","8735","6","23","Female","","false","","","","","[618.8999996185303,564.6999998092651]","./assets/img/ocean/memory/18.jpg","[""ArrowUp"",""ArrowLeft""]","value training","ocean","26","{""ArrowUp,ArrowLeft"":26,""ArrowUp,ArrowRight"":10,""ArrowDown,ArrowLeft"":5,""ArrowDown,ArrowRight"":17}","true","ArrowUp,ArrowLeft","false","original","2","0","","",""
"html-keyboard-response","300","1206773","0.0-4.0-2.1-1.50","spark_pilot_norest","8735","6","23","Female","","","","","","","null","<div style=""font-size:60px;"">+</div>","null","fixation","","","","","","","","","1","","",""
"revaluation","301","1212818","0.0-4.0-2.1-0.51","spark_pilot_norest","8735","6","23","Female","","false","","","","","[354.19999980926514,287.1000003814697]","./assets/img/ocean/memory/37.jpg","[""ArrowUp"",""ArrowRight""]","value training","ocean","10","{""ArrowUp,ArrowLeft"":26,""ArrowUp,ArrowRight"":10,""ArrowDown,ArrowLeft"":5,""ArrowDown,ArrowRight"":17}","false","ArrowUp,ArrowRight","false","original","2","2","","",""
"html-keyboard-response","302","1213337","0.0-4.0-2.1-1.51","spark_pilot_norest","8735","6","23","Female","","","","","","","null","<div style=""font-size:60px;"">+</div>","null","fixation","","","","","","","","","3","","",""
"revaluation","303","1219378","0.0-4.0-2.1-0.52","spark_pilot_norest","8735","6","23","Female","","false","","","","","[325.80000019073486,500.6000003814697]","./assets/img/ocean/memory/24.jpg","[""ArrowDown"",""ArrowLeft""]","value training","ocean","5","{""ArrowUp,ArrowLeft"":26,""ArrowUp,ArrowRight"":10,""ArrowDown,ArrowLeft"":5,""ArrowDown,ArrowRight"":17}","false","ArrowDown,ArrowLeft","false","original","2","4","","",""
"html-keyboard-response","304","1219886","0.0-4.0-2.1-1.52","spark_pilot_norest","8735","6","23","Female","","","","","","","null","<div style=""font-size:60px;"">+</div>","null","fixation","","","","","","","","","5","","",""
"revaluation","305","1225948","0.0-4.0-2.1-0.53","spark_pilot_norest","8735","6","23","Female","","false","","","","","[473.8999996185303,420.5999994277954]","./assets/img/ocean/memory/14.jpg","[""ArrowDown"",""ArrowRight""]","value training","ocean","17","{""ArrowUp,ArrowLeft"":26,""ArrowUp,ArrowRight"":10,""ArrowDown,ArrowLeft"":5,""ArrowDown,ArrowRight"":17}","false","ArrowDown,ArrowRight","false","original","2","6","","",""
"html-keyboard-response","306","1226467","0.0-4.0-2.1-1.53","spark_pilot_norest","8735","6","23","Female","","","","","","","null","<div style=""font-size:60px;"">+</div>","null","fixation","","","","","","","","","7","","",""
"revaluation","307","1232490","0.0-4.0-2.1-0.54","spark_pilot_norest","8735","6","23","Female","","false","","","","","[354.3999996185303,343.80000019073486]","./assets/img/ocean/memory/35.jpg","[""ArrowUp"",""ArrowLeft""]","value training","ocean","26","{""ArrowUp,ArrowLeft"":26,""ArrowUp,ArrowRight"":10,""ArrowDown,ArrowLeft"":5,""ArrowDown,ArrowRight"":17}","true","ArrowUp,ArrowLeft","false","original","2","8","","",""
"html-keyboard-response","308","1232998","0.0-4.0-2.1-1.54","spark_pilot_norest","8735","6","23","Female","","","","","","","null","<div style=""font-size:60px;"">+</div>","null","fixation","","","","","","","","","9","","",""
"revaluation","309","1239025","0.0-4.0-2.1-0.55","spark_pilot_norest","8735","6","23","Female","","false","","","","","[554.3999996185303,472.20000076293945]","./assets/img/ocean/memory/10.jpg","[""ArrowUp"",""ArrowLeft""]","value training","ocean","26","{""ArrowUp,ArrowLeft"":26,""ArrowUp,ArrowRight"":10,""ArrowDown,ArrowLeft"":5,""ArrowDown,ArrowRight"":17}","true","ArrowUp,ArrowLeft","false","original","2","10","","",""
"html-keyboard-response","310","1239528","0.0-4.0-2.1-1.55","spark_pilot_norest","8735","6","23","Female","","","","","","","null","<div style=""font-size:60px;"">+</div>","null","fixation","","","","","","","","","11","","",""
