"trial_type","trial_index","time_elapsed","internal_node_id","task_version","subject_id","assigned_condition","age","gender","success","timeout","failed_images","failed_audio","failed_video","browser_interaction","rt","stimulus","response","task_part","environment","score","rewardMap","correct","fullState","isCatch","condition","order","trial_num","key_press","ground_truth","bonus"
"pavlovia","0","917","0.0-0.0","spark_pilot_norest","8359","3","19","Male","","","","","","","","","","","","","","","","","","","","","",""
"preload","1","12437","0.0-1.0","spark_pilot_norest","8359","3","19","Male","true","false","[]","[]","[]","[{""event"":""fullscreenenter"",""trial"":2,""time"":16166}]","","","","","","","","","","","","","","","",""
"fullscreen","2","17162","0.0-2.0","spark_pilot_norest","8359","3","19","Male","true","","","","","","","","","","","","","","","","","","","","",""
"audio-button-response","3","18796","0.0-3.0-0.0-0.0","spark_pilot_norest","8359","3","19","Male","","","","","","","1587","./assets/audio/audiotest/turtle.mp3","2","audio_test","","","","","","","","","","","",""
"learning-instructions","4","28013","0.0-3.0-1.0-0.0","spark_pilot_norest","8359","3","19","Male","","","","","","","2203.100000023842","<p> Welcome! Please remember to stay in fullscreen mode and don't click away from the experiment. </p>","","instructions","","","","","","","","","","","",""
"learning-instructions","5","38237","0.0-3.0-1.0-0.1","spark_pilot_norest","8359","3","19","Male","","","","","","","1773.6000000238419","<p> Today you will be playing a game to earn treasure. </p>
            <p> At the end of the experiment, you will earn a bonus based on how much treasure you find. </p>
            <img src='./assets/img/instructions/treasure.jpg' class='instructions-image'>","","instructions","","","","","","","","","","","",""
"learning-instructions","6","46897","0.0-3.0-1.0-0.2","spark_pilot_norest","8359","3","19","Male","","","","","","","361.5","<p> Animals have hidden treasure in treasure chests. </p>
            <p> You need to first find an animal and then choose which of their treasure chests to search. </p>
            <img src='./assets/img/space/animals/cat.jpg' class='instructions-image'>","","instructions","","","","","","","","","","","",""
"learning-instructions","7","60387","0.0-3.0-1.0-0.3","spark_pilot_norest","8359","3","19","Male","","","","","","","282.4000000357628","<p> In each round, you will search for treasure in a different place. In the real game, there will be two rounds. </p>
            <p> You will begin with a separate, practice round where you will search for treasure in outer space. </p>
            <img src='./assets/img/space/0.jpg' class='instructions-image'>","","instructions","","","","","","","","","","","",""
"learning-instructions","8","72570","0.0-3.0-1.0-0.4","spark_pilot_norest","8359","3","19","Male","","","","","","","728.8000000119209","<p> On every turn, you will see a picture of the place that you are in, but the specific image may be different each time. </p>
            <p> For example, both of these images mean you are in outer space. </p>
            <img src='./assets/img/instructions/outerspace.jpg' class='instructions-image'>","","instructions","","","","","","","","","","","",""
"learning-instructions","9","82505","0.0-3.0-1.0-0.5","spark_pilot_norest","8359","3","19","Male","","","","","","","2076.5","<p> You need to decide which direction to travel in. </p>
            <p> You can choose between going <b>up or down</b> by using the arrow keys. </p>
            <img src='./assets/img/instructions/updown.jpg' class='instructions-image'>","","instructions","","","","","","","","","","","",""
"learning-instructions","10","92721","0.0-3.0-1.0-0.6","spark_pilot_norest","8359","3","19","Male","","","","","","","1359.8999999761581","<p> You will have <b>2 seconds</b> to make your choice. </p>
            <p> If you do not make a choice within 2 seconds, you will not find an animal or earn treasure. </p>
            <img src='./assets/img/instructions/2seconds.jpg' class='instructions-image'>","","instructions","","","","","","","","","","","",""
"learning-instructions","11","100155","0.0-3.0-1.0-0.7","spark_pilot_norest","8359","3","19","Male","","","","","","","365.60000002384186","<p> Let’s try practicing that now! </p>
            <p> When you see a picture of the place you are in, press the <b>up</b> key to travel up. </p>
            <img src='./assets/img/instructions/pressUp.jpg' class='instructions-image'>","","instructions","","","","","","","","","","","",""
"revaluation","12","104179","0.0-3.0-2.0-0.0","spark_pilot_norest","8359","3","19","Male","","false","","","","","[966.6999999880791]","./assets/img/space/0.jpg","[""ArrowUp""]","first stage practice","space","0","null","null","ArrowUp","false","","","","","",""
"html-keyboard-response","13","104694","0.0-3.0-2.0-1.0","spark_pilot_norest","8359","3","19","Male","","","","","","","null","<div style=""font-size:60px;"">+</div>","null","fixation","","","","","","","","","","","",""
"revaluation","14","108715","0.0-3.0-2.0-0.1","spark_pilot_norest","8359","3","19","Male","","false","","","","","[588]","./assets/img/space/1.jpg","[""ArrowUp""]","first stage practice","space","0","null","null","ArrowUp","false","","","","","",""
"html-keyboard-response","15","109222","0.0-3.0-2.0-1.1","spark_pilot_norest","8359","3","19","Male","","","","","","","null","<div style=""font-size:60px;"">+</div>","null","fixation","","","","","","","","","","","",""
"revaluation","16","113245","0.0-3.0-2.0-0.2","spark_pilot_norest","8359","3","19","Male","","false","","","","","[665.5999999642372]","./assets/img/space/2.jpg","[""ArrowUp""]","first stage practice","space","0","null","null","ArrowUp","false","","","","","",""
"html-keyboard-response","17","113752","0.0-3.0-2.0-1.2","spark_pilot_norest","8359","3","19","Male","","","","","","","null","<div style=""font-size:60px;"">+</div>","null","fixation","","","","","","","","","","","",""
"learning-instructions","18","119001","0.0-3.0-3.0-0.0","spark_pilot_norest","8359","3","19","Male","","","","","","","523.3000000119209","<p> Great job! Now try pressing the <b>down</b> key to travel down. </p>
            <img src='./assets/img/instructions/pressDown.jpg' class='instructions-image'>","","instructions","","","","","","","","","","","",""
"revaluation","19","123020","0.0-3.0-4.0-0.0","spark_pilot_norest","8359","3","19","Male","","false","","","","","[579]","./assets/img/space/3.jpg","[""ArrowDown""]","first stage practice","space","0","null","null","ArrowDown","false","","","","","",""
"html-keyboard-response","20","123530","0.0-3.0-4.0-1.0","spark_pilot_norest","8359","3","19","Male","","","","","","","null","<div style=""font-size:60px;"">+</div>","null","fixation","","","","","","","","","","","",""
"revaluation","21","127553","0.0-3.0-4.0-0.1","spark_pilot_norest","8359","3","19","Male","","false","","","","","[429.39999997615814]","./assets/img/space/4.jpg","[""ArrowDown""]","first stage practice","space","0","null","null","ArrowDown","false","","","","","",""
"html-keyboard-response","22","128064","0.0-3.0-4.0-1.1","spark_pilot_norest","8359","3","19","Male","","","","","","","null","<div style=""font-size:60px;"">+</div>","null","fixation","","","","","","","","","","","",""
"revaluation","23","132097","0.0-3.0-4.0-0.2","spark_pilot_norest","8359","3","19","Male","","false","","","","","[481.5]","./assets/img/space/5.jpg","[""ArrowDown""]","first stage practice","space","0","null","null","ArrowDown","false","","","","","",""
"html-keyboard-response","24","132606","0.0-3.0-4.0-1.2","spark_pilot_norest","8359","3","19","Male","","","","","","","null","<div style=""font-size:60px;"">+</div>","null","fixation","","","","","","","","","","","",""
"learning-instructions","25","143326","0.0-3.0-5.0-0.0","spark_pilot_norest","8359","3","19","Male","","","","","","","815.1000000238419","<p> The animals don’t move, so the animal in the upper part of a place will stay in the upper part of a place, and the animal in the lower part of a place will stay in the lower part of a place. </p>","","instructions","","","","","","","","","","","",""
"learning-instructions","26","162346","0.0-3.0-5.0-0.1","spark_pilot_norest","8359","3","19","Male","","","","","","","9846.899999976158","<p> Each animal has two treasure chests for you to choose from. </p>
            <p> The amount of treasure in each chest can range from <b> 0 to 40 pieces.</b></p>","","instructions","","","","","","","","","","","",""
"learning-instructions","27","183402","0.0-3.0-5.0-0.2","spark_pilot_norest","8359","3","19","Male","","","","","","","9822","<p> You should decide which chest to search for treasure by using the <b>left</b> and <b>right</b> arrow keys. </p>
            <p><b> Pay attention to which animal is on the screen, as the animals have different treasure chests. </b></p>
            <img src='./assets/img/instructions/leftright.jpg' class='instructions-image'>","","instructions","","","","","","","","","","","",""
"learning-instructions","28","190852","0.0-3.0-5.0-0.3","spark_pilot_norest","8359","3","19","Male","","","","","","","1049","<p> Let’s try practicing that now. </p>
            <p> When you see an animal, choose which chest to search for treasure. </p>
            <img src='./assets/img/instructions/chooseChest.jpg' class='instructions-image'>","","instructions","","","","","","","","","","","",""
"revaluation","29","194877","0.0-3.0-6.0-0.0","spark_pilot_norest","8359","3","19","Male","","false","","","","","[635.7000000476837]","./assets/img/space/animals/rabbit.jpg","[""ArrowLeft""]","second stage practice","space","15","{""ArrowUp,ArrowLeft"":3,""ArrowUp,ArrowRight"":36,""ArrowDown,ArrowLeft"":15,""ArrowDown,ArrowRight"":23}","false","ArrowDown,ArrowLeft","","","","","","",""
"html-keyboard-response","30","195385","0.0-3.0-6.0-1.0","spark_pilot_norest","8359","3","19","Male","","","","","","","null","<div style=""font-size:60px;"">+</div>","null","fixation","","","","","","","","","","","",""
"revaluation","31","199410","0.0-3.0-6.0-0.1","spark_pilot_norest","8359","3","19","Male","","false","","","","","[571.5]","./assets/img/space/animals/cat.jpg","[""ArrowRight""]","second stage practice","space","36","{""ArrowUp,ArrowLeft"":3,""ArrowUp,ArrowRight"":36,""ArrowDown,ArrowLeft"":15,""ArrowDown,ArrowRight"":23}","true","ArrowUp,ArrowRight","","","","","","",""
"html-keyboard-response","32","199921","0.0-3.0-6.0-1.1","spark_pilot_norest","8359","3","19","Male","","","","","","","null","<div style=""font-size:60px;"">+</div>","null","fixation","","","","","","","","","","","",""
"revaluation","33","203944","0.0-3.0-6.0-0.2","spark_pilot_norest","8359","3","19","Male","","false","","","","","[290.39999997615814]","./assets/img/space/animals/rabbit.jpg","[""ArrowLeft""]","second stage practice","space","15","{""ArrowUp,ArrowLeft"":3,""ArrowUp,ArrowRight"":36,""ArrowDown,ArrowLeft"":15,""ArrowDown,ArrowRight"":23}","false","ArrowDown,ArrowLeft","","","","","","",""
"html-keyboard-response","34","204455","0.0-3.0-6.0-1.2","spark_pilot_norest","8359","3","19","Male","","","","","","","null","<div style=""font-size:60px;"">+</div>","null","fixation","","","","","","","","","","","",""
"revaluation","35","208485","0.0-3.0-6.0-0.3","spark_pilot_norest","8359","3","19","Male","","false","","","","","[491.39999997615814]","./assets/img/space/animals/cat.jpg","[""ArrowLeft""]","second stage practice","space","3","{""ArrowUp,ArrowLeft"":3,""ArrowUp,ArrowRight"":36,""ArrowDown,ArrowLeft"":15,""ArrowDown,ArrowRight"":23}","false","ArrowUp,ArrowLeft","","","","","","",""
"html-keyboard-response","36","208993","0.0-3.0-6.0-1.3","spark_pilot_norest","8359","3","19","Male","","","","","","","null","<div style=""font-size:60px;"">+</div>","null","fixation","","","","","","","","","","","",""
"learning-instructions","37","228224","0.0-3.0-7.0-0.0","spark_pilot_norest","8359","3","19","Male","","","","","","","2347.100000023842","<p> Great job. Now let’s try putting it together. </p>
            <p> On each turn, you will first see a picture to remind you of the place you are in, and you need to choose whether to go up or down. </p>
            <p> Then you will see an animal and choose which of its chests to search for treasure. </p>","","instructions","","","","","","","","","","","",""
"learning-instructions","38","262793","0.0-3.0-7.0-0.1","spark_pilot_norest","8359","3","19","Male","","","","","","","26283.399999976158","<p> When you choose whether to go up or down, try to go to the animal with the chest with the most treasure. </p>
            <p> Try practicing that now! </p>","","instructions","","","","","","","","","","","",""
"revaluation","39","268826","0.0-3.0-8.0-0.0","spark_pilot_norest","8359","3","19","Male","","false","","","","","[793.5,622.8999999761581]","./assets/img/space/6.jpg","[""ArrowUp"",""ArrowRight""]","full practice","space","36","{""ArrowUp,ArrowLeft"":3,""ArrowUp,ArrowRight"":36,""ArrowDown,ArrowLeft"":15,""ArrowDown,ArrowRight"":23}","true","ArrowUp,ArrowRight","false","","","","","",""
"html-keyboard-response","40","269335","0.0-3.0-8.0-1.0","spark_pilot_norest","8359","3","19","Male","","","","","","","null","<div style=""font-size:60px;"">+</div>","null","fixation","","","","","","","","","","","",""
"revaluation","41","275356","0.0-3.0-8.0-0.1","spark_pilot_norest","8359","3","19","Male","","false","","","","","[432.80000001192093,432.19999998807907]","./assets/img/space/7.jpg","[""ArrowUp"",""ArrowRight""]","full practice","space","36","{""ArrowUp,ArrowLeft"":3,""ArrowUp,ArrowRight"":36,""ArrowDown,ArrowLeft"":15,""ArrowDown,ArrowRight"":23}","true","ArrowUp,ArrowRight","false","","","","","",""
"html-keyboard-response","42","275863","0.0-3.0-8.0-1.1","spark_pilot_norest","8359","3","19","Male","","","","","","","null","<div style=""font-size:60px;"">+</div>","null","fixation","","","","","","","","","","","",""
"revaluation","43","281892","0.0-3.0-8.0-0.2","spark_pilot_norest","8359","3","19","Male","","false","","","","","[360.89999997615814,289.69999998807907]","./assets/img/space/8.jpg","[""ArrowUp"",""ArrowRight""]","full practice","space","36","{""ArrowUp,ArrowLeft"":3,""ArrowUp,ArrowRight"":36,""ArrowDown,ArrowLeft"":15,""ArrowDown,ArrowRight"":23}","true","ArrowUp,ArrowRight","false","","","","","",""
"html-keyboard-response","44","282398","0.0-3.0-8.0-1.2","spark_pilot_norest","8359","3","19","Male","","","","","","","null","<div style=""font-size:60px;"">+</div>","null","fixation","","","","","","","","","","","",""
"revaluation","45","288427","0.0-3.0-8.0-0.3","spark_pilot_norest","8359","3","19","Male","","false","","","","","[480.5,252.89999997615814]","./assets/img/space/9.jpg","[""ArrowUp"",""ArrowRight""]","full practice","space","36","{""ArrowUp,ArrowLeft"":3,""ArrowUp,ArrowRight"":36,""ArrowDown,ArrowLeft"":15,""ArrowDown,ArrowRight"":23}","true","ArrowUp,ArrowRight","false","","","","","",""
"html-keyboard-response","46","288931","0.0-3.0-8.0-1.3","spark_pilot_norest","8359","3","19","Male","","","","","","","null","<div style=""font-size:60px;"">+</div>","null","fixation","","","","","","","","","","","",""
"revaluation","47","294956","0.0-3.0-8.0-0.4","spark_pilot_norest","8359","3","19","Male","","false","","","","","[263.7999999523163,274.2000000476837]","./assets/img/space/10.jpg","[""ArrowUp"",""ArrowRight""]","full practice","space","36","{""ArrowUp,ArrowLeft"":3,""ArrowUp,ArrowRight"":36,""ArrowDown,ArrowLeft"":15,""ArrowDown,ArrowRight"":23}","true","ArrowUp,ArrowRight","false","","","","","",""
"html-keyboard-response","48","295462","0.0-3.0-8.0-1.4","spark_pilot_norest","8359","3","19","Male","","","","","","","null","<div style=""font-size:60px;"">+</div>","null","fixation","","","","","","","","","","","",""
"learning-instructions","49","308733","0.0-3.0-9.0-0.0","spark_pilot_norest","8359","3","19","Male","","","","","","","2872.099999964237","<p> One last thing: sometimes, you will see a robber. The robber can be anywhere in the picture. </p>
            <p> If you do not stop them, you will lose treasure. </p>
            <img src='./assets/img/instructions/robber.jpg' class='instructions-image'>","","instructions","","","","","","","","","","","",""
"learning-instructions","50","317950","0.0-3.0-9.0-0.1","spark_pilot_norest","8359","3","19","Male","","","","","","","2016.1000000238419","<p> If you see the robber, you should <b>press the space bar</b> rather than using the arrow keys. </p>
            <p> Try practicing that now! </p>","","instructions","","","","","","","","","","","",""
"revaluation","51","321968","0.0-3.0-10.0-0.0","spark_pilot_norest","8359","3","19","Male","","false","","","","","[983.6999999880791]","./assets/img/space/catch/0.jpg","[""spaceBar""]","catch practice","space","0","{""ArrowUp,ArrowLeft"":3,""ArrowUp,ArrowRight"":36,""ArrowDown,ArrowLeft"":15,""ArrowDown,ArrowRight"":23}","true","spaceBar","true","","","","","",""
"html-keyboard-response","52","322479","0.0-3.0-10.0-1.0","spark_pilot_norest","8359","3","19","Male","","","","","","","null","<div style=""font-size:60px;"">+</div>","null","fixation","","","","","","","","","","","",""
"revaluation","53","326501","0.0-3.0-10.0-0.1","spark_pilot_norest","8359","3","19","Male","","false","","","","","[657.8000000119209]","./assets/img/space/catch/1.jpg","[""spaceBar""]","catch practice","space","0","{""ArrowUp,ArrowLeft"":3,""ArrowUp,ArrowRight"":36,""ArrowDown,ArrowLeft"":15,""ArrowDown,ArrowRight"":23}","true","spaceBar","true","","","","","",""
"html-keyboard-response","54","327016","0.0-3.0-10.0-1.1","spark_pilot_norest","8359","3","19","Male","","","","","","","null","<div style=""font-size:60px;"">+</div>","null","fixation","","","","","","","","","","","",""
"revaluation","55","331040","0.0-3.0-10.0-0.2","spark_pilot_norest","8359","3","19","Male","","false","","","","","[387.19999998807907]","./assets/img/space/catch/2.jpg","[""spaceBar""]","catch practice","space","0","{""ArrowUp,ArrowLeft"":3,""ArrowUp,ArrowRight"":36,""ArrowDown,ArrowLeft"":15,""ArrowDown,ArrowRight"":23}","true","spaceBar","true","","","","","",""
"html-keyboard-response","56","331549","0.0-3.0-10.0-1.2","spark_pilot_norest","8359","3","19","Male","","","","","","","null","<div style=""font-size:60px;"">+</div>","null","fixation","","","","","","","","","","","",""
"learning-instructions","57","352382","0.0-3.0-11.0-0.0-0.0","spark_pilot_norest","8359","3","19","Male","","","","","","","15557","<p> Now, you will practice a shortened version of the game to get a sense of how it all fits together. </p>","","instructions","","","","","","","","","","","",""
"learning-instructions","58","358475","0.0-3.0-11.0-0.0-0.1","spark_pilot_norest","8359","3","19","Male","","","","","","","2891.2000000476837","<p>This time you are searching for treasure in outer space.</p>","","instructions","","","","","","","","","","","",""
"learning-instructions","59","374443","0.0-3.0-11.0-1.0-0.0","spark_pilot_norest","8359","3","19","Male","","","","","","","1138.199999988079","<p> Remember, when you see a picture of the place, use the up and down keys to <b>find an animal</b>.</p>
            <p> When you encounter an animal, you should use the left and right keys to <b>select a treasure chest</b>.</p>
            <p> Don't forget to look out for the robber! </p>","","instructions","","","","","","","","","","","",""
"revaluation","60","380474","0.0-3.0-11.0-2.0-0.0","spark_pilot_norest","8359","3","19","Male","","false","","","","","[711.1999999880791,669.1999999880791]","./assets/img/space/11.jpg","[""ArrowUp"",""ArrowRight""]","practice block","space","36","{""ArrowUp,ArrowLeft"":3,""ArrowUp,ArrowRight"":36,""ArrowDown,ArrowLeft"":15,""ArrowDown,ArrowRight"":23}","true","ArrowUp,ArrowRight","false","","","","","",""
"html-keyboard-response","61","380978","0.0-3.0-11.0-2.0-1.0","spark_pilot_norest","8359","3","19","Male","","","","","","","null","<div style=""font-size:60px;"">+</div>","null","fixation","","","","","","","","","","","",""
"revaluation","62","387008","0.0-3.0-11.0-2.0-0.1","spark_pilot_norest","8359","3","19","Male","","false","","","","","[740.6000000238419,350.69999998807907]","./assets/img/space/12.jpg","[""ArrowUp"",""ArrowRight""]","practice block","space","36","{""ArrowUp,ArrowLeft"":3,""ArrowUp,ArrowRight"":36,""ArrowDown,ArrowLeft"":15,""ArrowDown,ArrowRight"":23}","true","ArrowUp,ArrowRight","false","","","","","",""
"html-keyboard-response","63","387519","0.0-3.0-11.0-2.0-1.1","spark_pilot_norest","8359","3","19","Male","","","","","","","null","<div style=""font-size:60px;"">+</div>","null","fixation","","","","","","","","","","","",""
"revaluation","64","393550","0.0-3.0-11.0-2.0-0.2","spark_pilot_norest","8359","3","19","Male","","false","","","","","[702.5,438.69999998807907]","./assets/img/space/13.jpg","[""ArrowUp"",""ArrowRight""]","practice block","space","36","{""ArrowUp,ArrowLeft"":3,""ArrowUp,ArrowRight"":36,""ArrowDown,ArrowLeft"":15,""ArrowDown,ArrowRight"":23}","true","ArrowUp,ArrowRight","false","","","","","",""
"html-keyboard-response","65","394062","0.0-3.0-11.0-2.0-1.2","spark_pilot_norest","8359","3","19","Male","","","","","","","null","<div style=""font-size:60px;"">+</div>","null","fixation","","","","","","","","","","","",""
"revaluation","66","400092","0.0-3.0-11.0-2.0-0.3","spark_pilot_norest","8359","3","19","Male","","false","","","","","[467.30000001192093,318.10000002384186]","./assets/img/space/14.jpg","[""ArrowUp"",""ArrowRight""]","practice block","space","36","{""ArrowUp,ArrowLeft"":3,""ArrowUp,ArrowRight"":36,""ArrowDown,ArrowLeft"":15,""ArrowDown,ArrowRight"":23}","true","ArrowUp,ArrowRight","false","","","","","",""
"html-keyboard-response","67","400607","0.0-3.0-11.0-2.0-1.3","spark_pilot_norest","8359","3","19","Male","","","","","","","null","<div style=""font-size:60px;"">+</div>","null","fixation","","","","","","","","","","","",""
"revaluation","68","406641","0.0-3.0-11.0-2.0-0.4","spark_pilot_norest","8359","3","19","Male","","false","","","","","[638,343.9000000357628]","./assets/img/space/11.jpg","[""ArrowUp"",""ArrowRight""]","practice block","space","36","{""ArrowUp,ArrowLeft"":3,""ArrowUp,ArrowRight"":36,""ArrowDown,ArrowLeft"":15,""ArrowDown,ArrowRight"":23}","true","ArrowUp,ArrowRight","false","","","","","",""
"html-keyboard-response","69","407150","0.0-3.0-11.0-2.0-1.4","spark_pilot_norest","8359","3","19","Male","","","","","","","null","<div style=""font-size:60px;"">+</div>","null","fixation","","","","","","","","","","","",""
"revaluation","70","413175","0.0-3.0-11.0-2.0-0.5","spark_pilot_norest","8359","3","19","Male","","false","","","","","[542.1999999880791,284.19999998807907]","./assets/img/space/12.jpg","[""ArrowUp"",""ArrowRight""]","practice block","space","36","{""ArrowUp,ArrowLeft"":3,""ArrowUp,ArrowRight"":36,""ArrowDown,ArrowLeft"":15,""ArrowDown,ArrowRight"":23}","true","ArrowUp,ArrowRight","false","","","","","",""
"html-keyboard-response","71","413686","0.0-3.0-11.0-2.0-1.5","spark_pilot_norest","8359","3","19","Male","","","","","","","null","<div style=""font-size:60px;"">+</div>","null","fixation","","","","","","","","","","","",""
"revaluation","72","419719","0.0-3.0-11.0-2.0-0.6","spark_pilot_norest","8359","3","19","Male","","false","","","","","[501.60000002384186,240]","./assets/img/space/13.jpg","[""ArrowUp"",""ArrowRight""]","practice block","space","36","{""ArrowUp,ArrowLeft"":3,""ArrowUp,ArrowRight"":36,""ArrowDown,ArrowLeft"":15,""ArrowDown,ArrowRight"":23}","true","ArrowUp,ArrowRight","false","","","","","",""
"html-keyboard-response","73","420233","0.0-3.0-11.0-2.0-1.6","spark_pilot_norest","8359","3","19","Male","","","","","","","null","<div style=""font-size:60px;"">+</div>","null","fixation","","","","","","","","","","","",""
"revaluation","74","426265","0.0-3.0-11.0-2.0-0.7","spark_pilot_norest","8359","3","19","Male","","false","","","","","[434.2000000476837,262.7000000476837]","./assets/img/space/14.jpg","[""ArrowUp"",""ArrowRight""]","practice block","space","36","{""ArrowUp,ArrowLeft"":3,""ArrowUp,ArrowRight"":36,""ArrowDown,ArrowLeft"":15,""ArrowDown,ArrowRight"":23}","true","ArrowUp,ArrowRight","false","","","","","",""
"html-keyboard-response","75","426772","0.0-3.0-11.0-2.0-1.7","spark_pilot_norest","8359","3","19","Male","","","","","","","null","<div style=""font-size:60px;"">+</div>","null","fixation","","","","","","","","","","","",""
"revaluation","76","430789","0.0-3.0-11.0-2.0-0.8","spark_pilot_norest","8359","3","19","Male","","false","","","","","[518.8999999761581]","./assets/img/space/catch/3.jpg","[""spaceBar""]","practice block","space","0","{""ArrowUp,ArrowLeft"":3,""ArrowUp,ArrowRight"":36,""ArrowDown,ArrowLeft"":15,""ArrowDown,ArrowRight"":23}","true","spaceBar","true","","","","","",""
"html-keyboard-response","77","431300","0.0-3.0-11.0-2.0-1.8","spark_pilot_norest","8359","3","19","Male","","","","","","","null","<div style=""font-size:60px;"">+</div>","null","fixation","","","","","","","","","","","",""
"learning-instructions","78","451231","0.0-3.0-11.0-3.0-0.0","spark_pilot_norest","8359","3","19","Male","","","","","","","6923.699999988079","<p> Now, you will travel with a friend who will choose whether you go up or down first. </p>
            <p> On these turns, you will just see the animal that they found. You will still get to choose which chest to search for treasure.</p>","","instructions","","","","","","","","","","","",""
"revaluation","79","455258","0.0-3.0-11.0-4.0-0.0","spark_pilot_norest","8359","3","19","Male","","false","","","","","[1310.8999999761581]","./assets/img/space/animals/cat.jpg","[""ArrowRight""]","practice block","space","36","{""ArrowUp,ArrowLeft"":3,""ArrowUp,ArrowRight"":36,""ArrowDown,ArrowLeft"":15,""ArrowDown,ArrowRight"":23}","true","ArrowUp,ArrowRight","","","","","","",""
"html-keyboard-response","80","455766","0.0-3.0-11.0-4.0-1.0","spark_pilot_norest","8359","3","19","Male","","","","","","","null","<div style=""font-size:60px;"">+</div>","null","fixation","","","","","","","","","","","",""
"revaluation","81","459791","0.0-3.0-11.0-4.0-0.1","spark_pilot_norest","8359","3","19","Male","","false","","","","","[1200.0999999642372]","./assets/img/space/animals/cat.jpg","[""ArrowRight""]","practice block","space","36","{""ArrowUp,ArrowLeft"":3,""ArrowUp,ArrowRight"":36,""ArrowDown,ArrowLeft"":15,""ArrowDown,ArrowRight"":23}","true","ArrowUp,ArrowRight","","","","","","",""
"html-keyboard-response","82","460301","0.0-3.0-11.0-4.0-1.1","spark_pilot_norest","8359","3","19","Male","","","","","","","null","<div style=""font-size:60px;"">+</div>","null","fixation","","","","","","","","","","","",""
"revaluation","83","464327","0.0-3.0-11.0-4.0-0.2","spark_pilot_norest","8359","3","19","Male","","false","","","","","[412.2999999523163]","./assets/img/space/animals/rabbit.jpg","[""ArrowLeft""]","practice block","space","15","{""ArrowUp,ArrowLeft"":3,""ArrowUp,ArrowRight"":36,""ArrowDown,ArrowLeft"":15,""ArrowDown,ArrowRight"":23}","false","ArrowDown,ArrowLeft","","","","","","",""
"html-keyboard-response","84","464836","0.0-3.0-11.0-4.0-1.2","spark_pilot_norest","8359","3","19","Male","","","","","","","null","<div style=""font-size:60px;"">+</div>","null","fixation","","","","","","","","","","","",""
"revaluation","85","468866","0.0-3.0-11.0-4.0-0.3","spark_pilot_norest","8359","3","19","Male","","false","","","","","[387.7999999523163]","./assets/img/space/animals/rabbit.jpg","[""ArrowRight""]","practice block","space","23","{""ArrowUp,ArrowLeft"":3,""ArrowUp,ArrowRight"":36,""ArrowDown,ArrowLeft"":15,""ArrowDown,ArrowRight"":23}","true","ArrowDown,ArrowRight","","","","","","",""
"html-keyboard-response","86","469373","0.0-3.0-11.0-4.0-1.3","spark_pilot_norest","8359","3","19","Male","","","","","","","null","<div style=""font-size:60px;"">+</div>","null","fixation","","","","","","","","","","","",""
"learning-instructions","87","477532","0.0-3.0-11.0-5.0-0.0","spark_pilot_norest","8359","3","19","Male","","","","","","","null","<p> You have almost finished this part of the game! </p>
            <p> We are going to ask you to make a few more choices. </p>","","instructions","","","","","","","","","","","",""
"learning-instructions","88","493615","0.0-3.0-11.0-5.0-0.1","spark_pilot_norest","8359","3","19","Male","","","","","","","null","<p> First, you need to decide whether to go up or down. When you see each picture, use the arrow keys to make your choice. </p>
            <p><b>You will not see which animal you found, but try to get to the one that will give you the most treasure.</b></p>","","instructions","","","","","","","","","","","",""
"html-keyboard-response","89","494627","0.0-3.0-11.0-6.0-0.0","spark_pilot_norest","8359","3","19","Male","","","","","","","null","<div style=""font-size:100px;color:red;"">Starting in...</div>","null","","","","","","","","","","","","",""
"html-keyboard-response","90","495639","0.0-3.0-11.0-6.0-1.0","spark_pilot_norest","8359","3","19","Male","","","","","","","null","<div style=""font-size:200px;color:red;"">3</div>","null","","","","","","","","","","","","",""
"html-keyboard-response","91","496644","0.0-3.0-11.0-6.0-2.0","spark_pilot_norest","8359","3","19","Male","","","","","","","null","<div style=""font-size:200px;color:red;"">2</div>","null","","","","","","","","","","","","",""
"html-keyboard-response","92","497662","0.0-3.0-11.0-6.0-3.0","spark_pilot_norest","8359","3","19","Male","","","","","","","null","<div style=""font-size:200px;color:red;"">1</div>","null","","","","","","","","","","","","",""
"revaluation","93","498098","0.0-3.0-11.0-7.0","spark_pilot_norest","8359","3","19","Male","","false","","","","","[429.89999997615814]","./assets/img/space/15.jpg","[""ArrowUp""]","practice block","space","0","{""ArrowUp,ArrowLeft"":3,""ArrowUp,ArrowRight"":36,""ArrowDown,ArrowLeft"":15,""ArrowDown,ArrowRight"":23}","true","ArrowUp","false","","","","","",""
"html-keyboard-response","94","498603","0.0-3.0-11.0-8.0","spark_pilot_norest","8359","3","19","Male","","","","","","","null","<div style=""font-size:60px;"">+</div>","null","fixation","","","","","","","","","","","",""
"learning-instructions","95","512036","0.0-3.0-11.0-9.0-0.0","spark_pilot_norest","8359","3","19","Male","","","","","","","null","<p> Now you will see the animals again and can search their chests for treasure. </p>
            <p> This time, you will not see how much treasure you earned, but you will earn more bonus money for making better choices. </p>","","instructions","","","","","","","","","","","",""
"html-keyboard-response","96","513052","0.0-3.0-11.0-10.0-0.0","spark_pilot_norest","8359","3","19","Male","","","","","","","null","<div style=""font-size:100px;color:red;"">Starting in...</div>","null","","","","","","","","","","","","",""
"html-keyboard-response","97","514064","0.0-3.0-11.0-10.0-1.0","spark_pilot_norest","8359","3","19","Male","","","","","","","null","<div style=""font-size:200px;color:red;"">3</div>","null","","","","","","","","","","","","",""
"html-keyboard-response","98","515077","0.0-3.0-11.0-10.0-2.0","spark_pilot_norest","8359","3","19","Male","","","","","","","null","<div style=""font-size:200px;color:red;"">2</div>","null","","","","","","","","","","","","",""
"html-keyboard-response","99","516091","0.0-3.0-11.0-10.0-3.0","spark_pilot_norest","8359","3","19","Male","","","","","","","null","<div style=""font-size:200px;color:red;"">1</div>","null","","","","","","","","","","","","",""
"revaluation","100","516557","0.0-3.0-11.0-11.0-0.0","spark_pilot_norest","8359","3","19","Male","","false","","","","","[457.5999999642372]","./assets/img/space/animals/cat.jpg","[""ArrowRight""]","practice block","space","0","{""ArrowUp,ArrowLeft"":3,""ArrowUp,ArrowRight"":36,""ArrowDown,ArrowLeft"":15,""ArrowDown,ArrowRight"":23}","true","ArrowUp,ArrowRight","","","","","","",""
"html-keyboard-response","101","517060","0.0-3.0-11.0-11.0-1.0","spark_pilot_norest","8359","3","19","Male","","","","","","","null","<div style=""font-size:60px;"">+</div>","null","fixation","","","","","","","","","","","",""
"revaluation","102","518154","0.0-3.0-11.0-11.0-0.1","spark_pilot_norest","8359","3","19","Male","","false","","","","","[1085.5]","./assets/img/space/animals/rabbit.jpg","[""ArrowRight""]","practice block","space","0","{""ArrowUp,ArrowLeft"":3,""ArrowUp,ArrowRight"":36,""ArrowDown,ArrowLeft"":15,""ArrowDown,ArrowRight"":23}","true","ArrowDown,ArrowRight","","","","","","",""
"html-keyboard-response","103","518660","0.0-3.0-11.0-11.0-1.1","spark_pilot_norest","8359","3","19","Male","","","","","","","null","<div style=""font-size:60px;"">+</div>","null","fixation","","","","","","","","","","","",""
"learning-instructions","104","524083","0.0-3.0-12.0-0.0","spark_pilot_norest","8359","3","19","Male","","","","","","","808.7000000476837","<p> Before you start, we're going to ask you a few questions about how the game works. </p>","","instructions","","","","","","","","","","","",""
"comp-q","105","530649","0.0-3.0-13.0-0.0-0.0","spark_pilot_norest","8359","3","19","Male","","","","","","","948.6000000238419","<p> <b> True or False? </b> </p>
            <p> There can be 50 pieces of treasure in a given animal's chest. </p>","1","comp_question","","","","true","","","","","","","",""
"comp-q","106","538189","0.0-3.0-13.0-0.0-1.0","spark_pilot_norest","8359","3","19","Male","","","","","","","853.5999999642372","<p> <b> That's right! </b> The amount of treasure in each chest can range from 0 to 40 pieces. </p>","0","comp_answer","","","","","","","","","","","",""
"comp-q","107","546033","0.0-3.0-13.0-0.1-0.1","spark_pilot_norest","8359","3","19","Male","","","","","","","691.6999999880791","<p> <b> True or False? </b> </p><p> In this game, all animals have the same amount of treasure in their left and right chests. </p>","1","comp_question","","","","true","","","","","","","",""
"comp-q","108","552967","0.0-3.0-13.0-0.1-1.1","spark_pilot_norest","8359","3","19","Male","","","","","","","1676","<p> <b> That's right! </b> Animals have different amounts of treasure in their treasure chests. </p>","0","comp_answer","","","","","","","","","","","",""
"comp-q","109","559599","0.0-3.0-13.0-0.2-0.2","spark_pilot_norest","8359","3","19","Male","","","","","","","758.6000000238419","<p> <b> True or False? </b> </p><p> The same animal will always be there if you go up in the same place. </p>","0","comp_question","","","","true","","","","","","","",""
"comp-q","110","677748","0.0-3.0-13.0-0.2-1.2","spark_pilot_norest","8359","3","19","Male","","","","","","","111683.19999998808","<p> <b> That's right! </b> One animal lives in the upper part and one lives in the lower part of every place. </p>","0","comp_answer","","","","","","","","","","","",""
"comp-q","111","683816","0.0-3.0-13.0-0.3-0.3","spark_pilot_norest","8359","3","19","Male","","","","","","","482.69999998807907","<p> <b> True or False? </b> </p><p> If you see a different picture, it means you are in a new place. </p>","1","comp_question","","","","true","","","","","","","",""
"comp-q","112","705348","0.0-3.0-13.0-0.3-1.3","spark_pilot_norest","8359","3","19","Male","","","","","","","10255.800000011921","<p> <b> That's right! </b> Lots of different images may show the same place. For example,  you may see three different images that all remind you that you are in outer space. </p>","0","comp_answer","","","","","","","","","","","",""
"learning-instructions","113","716122","0.0-3.0-14.0-0.0","spark_pilot_norest","8359","3","19","Male","","","","","","","877.3000000119209","<p> Good job. Remember to do your best because the amount of treasure you earn will be converted into bonus money. </p>
            <p> It’s time to start the real game! </p>","","instructions","","","","","","","","","","","",""
"learning-instructions","114","747088","0.0-4.0-0.0-0.0","spark_pilot_norest","8359","3","19","Male","","","","","","","28241.600000023842","<p> This time you are searching for treasure in the <b>ocean</b>.</p>","","instructions","","","","","","","","","","","",""
"learning-instructions","115","765679","0.0-4.0-0.0-0.1","spark_pilot_norest","8359","3","19","Male","","","","","","","1225.6000000238419","<p><b>New</b> animals with <b>new</b> treasure chests live here. You need to explore to discover where the animal with the best treasure chest is.</p>
                    <p> Like before, once you figure out which animal has the chest with the most treasure, you should try to get to that animal and select that chest! </p>","","instructions","","","","","","","","","","","",""
"learning-instructions","116","780997","0.0-4.0-1.0-0.0","spark_pilot_norest","8359","3","19","Male","","","","","","","582.6999999880791","<p> Remember, when you see a picture of the place, use the up and down keys to <b>find an animal</b>.</p>
            <p> When you encounter an animal, you should use the left and right keys to <b>select a treasure chest</b>.</p>
            <p> Don't forget to look out for the robber! </p>","","instructions","","","","","","","","","","","",""
"revaluation","117","787028","0.0-4.0-2.0-0.0","spark_pilot_norest","8359","3","19","Male","","false","","","","","[1031.199999988079,355.19999998807907]","./assets/img/ocean/memory/1.jpg","[""ArrowUp"",""ArrowLeft""]","value training","ocean","23","{""ArrowUp,ArrowLeft"":23,""ArrowUp,ArrowRight"":10,""ArrowDown,ArrowLeft"":8,""ArrowDown,ArrowRight"":30}","false","ArrowUp,ArrowLeft","false","original","1","0","","",""
"html-keyboard-response","118","787539","0.0-4.0-2.0-1.0","spark_pilot_norest","8359","3","19","Male","","","","","","","null","<div style=""font-size:60px;"">+</div>","null","fixation","","","","","","","","","1","","",""
"revaluation","119","793566","0.0-4.0-2.0-0.1","spark_pilot_norest","8359","3","19","Male","","false","","","","","[223.60000002384186,239.5999999642372]","./assets/img/ocean/memory/3.jpg","[""ArrowUp"",""ArrowRight""]","value training","ocean","10","{""ArrowUp,ArrowLeft"":23,""ArrowUp,ArrowRight"":10,""ArrowDown,ArrowLeft"":8,""ArrowDown,ArrowRight"":30}","false","ArrowUp,ArrowRight","false","original","1","2","","",""
"html-keyboard-response","120","794074","0.0-4.0-2.0-1.1","spark_pilot_norest","8359","3","19","Male","","","","","","","null","<div style=""font-size:60px;"">+</div>","null","fixation","","","","","","","","","3","","",""
"revaluation","121","798097","0.0-4.0-2.0-0.2","spark_pilot_norest","8359","3","19","Male","","false","","","","","[236.10000002384186]","./assets/img/ocean/catch/1.jpg","[""ArrowDown""]","value training","ocean","-10","{""ArrowUp,ArrowLeft"":23,""ArrowUp,ArrowRight"":10,""ArrowDown,ArrowLeft"":8,""ArrowDown,ArrowRight"":30}","false","ArrowDown","true","original","1","4","","",""
"html-keyboard-response","122","798608","0.0-4.0-2.0-1.2","spark_pilot_norest","8359","3","19","Male","","","","","","","null","<div style=""font-size:60px;"">+</div>","null","fixation","","","","","","","","","5","","",""
"revaluation","123","804637","0.0-4.0-2.0-0.3","spark_pilot_norest","8359","3","19","Male","","false","","","","","[425.69999998807907,376]","./assets/img/ocean/memory/6.jpg","[""ArrowDown"",""ArrowLeft""]","value training","ocean","8","{""ArrowUp,ArrowLeft"":23,""ArrowUp,ArrowRight"":10,""ArrowDown,ArrowLeft"":8,""ArrowDown,ArrowRight"":30}","false","ArrowDown,ArrowLeft","false","original","1","6","","",""
"html-keyboard-response","124","805147","0.0-4.0-2.0-1.3","spark_pilot_norest","8359","3","19","Male","","","","","","","null","<div style=""font-size:60px;"">+</div>","null","fixation","","","","","","","","","7","","",""
"revaluation","125","811180","0.0-4.0-2.0-0.4","spark_pilot_norest","8359","3","19","Male","","false","","","","","[362.9000000357628,362.69999998807907]","./assets/img/ocean/memory/28.jpg","[""ArrowDown"",""ArrowRight""]","value training","ocean","30","{""ArrowUp,ArrowLeft"":23,""ArrowUp,ArrowRight"":10,""ArrowDown,ArrowLeft"":8,""ArrowDown,ArrowRight"":30}","true","ArrowDown,ArrowRight","false","original","1","8","","",""
"html-keyboard-response","126","811688","0.0-4.0-2.0-1.4","spark_pilot_norest","8359","3","19","Male","","","","","","","null","<div style=""font-size:60px;"">+</div>","null","fixation","","","","","","","","","9","","",""
"revaluation","127","817712","0.0-4.0-2.0-0.5","spark_pilot_norest","8359","3","19","Male","","false","","","","","[503.5999999642372,380.80000001192093]","./assets/img/ocean/memory/10.jpg","[""ArrowDown"",""ArrowRight""]","value training","ocean","30","{""ArrowUp,ArrowLeft"":23,""ArrowUp,ArrowRight"":10,""ArrowDown,ArrowLeft"":8,""ArrowDown,ArrowRight"":30}","true","ArrowDown,ArrowRight","false","original","1","10","","",""
"html-keyboard-response","128","818224","0.0-4.0-2.0-1.5","spark_pilot_norest","8359","3","19","Male","","","","","","","null","<div style=""font-size:60px;"">+</div>","null","fixation","","","","","","","","","11","","",""
"revaluation","129","824262","0.0-4.0-2.0-0.6","spark_pilot_norest","8359","3","19","Male","","false","","","","","[404,281.80000001192093]","./assets/img/ocean/memory/7.jpg","[""ArrowDown"",""ArrowRight""]","value training","ocean","30","{""ArrowUp,ArrowLeft"":23,""ArrowUp,ArrowRight"":10,""ArrowDown,ArrowLeft"":8,""ArrowDown,ArrowRight"":30}","true","ArrowDown,ArrowRight","false","original","1","12","","",""
"html-keyboard-response","130","824771","0.0-4.0-2.0-1.6","spark_pilot_norest","8359","3","19","Male","","","","","","","null","<div style=""font-size:60px;"">+</div>","null","fixation","","","","","","","","","13","","",""
"revaluation","131","830803","0.0-4.0-2.0-0.7","spark_pilot_norest","8359","3","19","Male","","false","","","","","[617.2000000476837,309.30000001192093]","./assets/img/ocean/memory/24.jpg","[""ArrowDown"",""ArrowRight""]","value training","ocean","30","{""ArrowUp,ArrowLeft"":23,""ArrowUp,ArrowRight"":10,""ArrowDown,ArrowLeft"":8,""ArrowDown,ArrowRight"":30}","true","ArrowDown,ArrowRight","false","original","1","14","","",""
"html-keyboard-response","132","831312","0.0-4.0-2.0-1.7","spark_pilot_norest","8359","3","19","Male","","","","","","","null","<div style=""font-size:60px;"">+</div>","null","fixation","","","","","","","","","15","","",""
"revaluation","133","837340","0.0-4.0-2.0-0.8","spark_pilot_norest","8359","3","19","Male","","false","","","","","[383.69999998807907,282]","./assets/img/ocean/memory/33.jpg","[""ArrowDown"",""ArrowRight""]","value training","ocean","30","{""ArrowUp,ArrowLeft"":23,""ArrowUp,ArrowRight"":10,""ArrowDown,ArrowLeft"":8,""ArrowDown,ArrowRight"":30}","true","ArrowDown,ArrowRight","false","original","1","16","","",""
"html-keyboard-response","134","837849","0.0-4.0-2.0-1.8","spark_pilot_norest","8359","3","19","Male","","","","","","","null","<div style=""font-size:60px;"">+</div>","null","fixation","","","","","","","","","17","","",""
"revaluation","135","841879","0.0-4.0-2.0-0.9","spark_pilot_norest","8359","3","19","Male","","false","","","","","[447.10000002384186]","./assets/img/ocean/catch/2.jpg","[""spaceBar""]","value training","ocean","0","{""ArrowUp,ArrowLeft"":23,""ArrowUp,ArrowRight"":10,""ArrowDown,ArrowLeft"":8,""ArrowDown,ArrowRight"":30}","true","spaceBar","true","original","1","18","","",""
"html-keyboard-response","136","842386","0.0-4.0-2.0-1.9","spark_pilot_norest","8359","3","19","Male","","","","","","","null","<div style=""font-size:60px;"">+</div>","null","fixation","","","","","","","","","19","","",""
"revaluation","137","848416","0.0-4.0-2.0-0.10","spark_pilot_norest","8359","3","19","Male","","false","","","","","[377,280.5]","./assets/img/ocean/memory/10.jpg","[""ArrowDown"",""ArrowRight""]","value training","ocean","30","{""ArrowUp,ArrowLeft"":23,""ArrowUp,ArrowRight"":10,""ArrowDown,ArrowLeft"":8,""ArrowDown,ArrowRight"":30}","true","ArrowDown,ArrowRight","false","original","1","20","","",""
"html-keyboard-response","138","848928","0.0-4.0-2.0-1.10","spark_pilot_norest","8359","3","19","Male","","","","","","","null","<div style=""font-size:60px;"">+</div>","null","fixation","","","","","","","","","21","","",""
"revaluation","139","854952","0.0-4.0-2.0-0.11","spark_pilot_norest","8359","3","19","Male","","false","","","","","[364.10000002384186,289.80000001192093]","./assets/img/ocean/memory/38.jpg","[""ArrowDown"",""ArrowRight""]","value training","ocean","30","{""ArrowUp,ArrowLeft"":23,""ArrowUp,ArrowRight"":10,""ArrowDown,ArrowLeft"":8,""ArrowDown,ArrowRight"":30}","true","ArrowDown,ArrowRight","false","original","1","22","","",""
"html-keyboard-response","140","855466","0.0-4.0-2.0-1.11","spark_pilot_norest","8359","3","19","Male","","","","","","","null","<div style=""font-size:60px;"">+</div>","null","fixation","","","","","","","","","23","","",""
"revaluation","141","861488","0.0-4.0-2.0-0.12","spark_pilot_norest","8359","3","19","Male","","false","","","","","[576.2000000476837,306]","./assets/img/ocean/memory/15.jpg","[""ArrowDown"",""ArrowRight""]","value training","ocean","30","{""ArrowUp,ArrowLeft"":23,""ArrowUp,ArrowRight"":10,""ArrowDown,ArrowLeft"":8,""ArrowDown,ArrowRight"":30}","true","ArrowDown,ArrowRight","false","original","1","24","","",""
"html-keyboard-response","142","862003","0.0-4.0-2.0-1.12","spark_pilot_norest","8359","3","19","Male","","","","","","","null","<div style=""font-size:60px;"">+</div>","null","fixation","","","","","","","","","25","","",""
"revaluation","143","868045","0.0-4.0-2.0-0.13","spark_pilot_norest","8359","3","19","Male","","false","","","","","[957.5,341.10000002384186]","./assets/img/ocean/memory/33.jpg","[""ArrowDown"",""ArrowRight""]","value training","ocean","30","{""ArrowUp,ArrowLeft"":23,""ArrowUp,ArrowRight"":10,""ArrowDown,ArrowLeft"":8,""ArrowDown,ArrowRight"":30}","true","ArrowDown,ArrowRight","false","original","1","26","","",""
"html-keyboard-response","144","868551","0.0-4.0-2.0-1.13","spark_pilot_norest","8359","3","19","Male","","","","","","","null","<div style=""font-size:60px;"">+</div>","null","fixation","","","","","","","","","27","","",""
"revaluation","145","874575","0.0-4.0-2.0-0.14","spark_pilot_norest","8359","3","19","Male","","false","","","","","[405.4000000357628,330.19999998807907]","./assets/img/ocean/memory/11.jpg","[""ArrowDown"",""ArrowRight""]","value training","ocean","30","{""ArrowUp,ArrowLeft"":23,""ArrowUp,ArrowRight"":10,""ArrowDown,ArrowLeft"":8,""ArrowDown,ArrowRight"":30}","true","ArrowDown,ArrowRight","false","original","1","28","","",""
"html-keyboard-response","146","875082","0.0-4.0-2.0-1.14","spark_pilot_norest","8359","3","19","Male","","","","","","","null","<div style=""font-size:60px;"">+</div>","null","fixation","","","","","","","","","29","","",""
"revaluation","147","881112","0.0-4.0-2.0-0.15","spark_pilot_norest","8359","3","19","Male","","false","","","","","[790.1999999880791,525.6000000238419]","./assets/img/ocean/memory/20.jpg","[""ArrowDown"",""ArrowRight""]","value training","ocean","30","{""ArrowUp,ArrowLeft"":23,""ArrowUp,ArrowRight"":10,""ArrowDown,ArrowLeft"":8,""ArrowDown,ArrowRight"":30}","true","ArrowDown,ArrowRight","false","original","1","30","","",""
"html-keyboard-response","148","881628","0.0-4.0-2.0-1.15","spark_pilot_norest","8359","3","19","Male","","","","","","","null","<div style=""font-size:60px;"">+</div>","null","fixation","","","","","","","","","31","","",""
"revaluation","149","887661","0.0-4.0-2.0-0.16","spark_pilot_norest","8359","3","19","Male","","false","","","","","[377,347.19999998807907]","./assets/img/ocean/memory/4.jpg","[""ArrowDown"",""ArrowRight""]","value training","ocean","30","{""ArrowUp,ArrowLeft"":23,""ArrowUp,ArrowRight"":10,""ArrowDown,ArrowLeft"":8,""ArrowDown,ArrowRight"":30}","true","ArrowDown,ArrowRight","false","original","1","32","","",""
"html-keyboard-response","150","888170","0.0-4.0-2.0-1.16","spark_pilot_norest","8359","3","19","Male","","","","","","","null","<div style=""font-size:60px;"">+</div>","null","fixation","","","","","","","","","33","","",""
"revaluation","151","894204","0.0-4.0-2.0-0.17","spark_pilot_norest","8359","3","19","Male","","false","","","","","[543.3000000119209,457.69999998807907]","./assets/img/ocean/memory/36.jpg","[""ArrowDown"",""ArrowRight""]","value training","ocean","30","{""ArrowUp,ArrowLeft"":23,""ArrowUp,ArrowRight"":10,""ArrowDown,ArrowLeft"":8,""ArrowDown,ArrowRight"":30}","true","ArrowDown,ArrowRight","false","original","1","34","","",""
"html-keyboard-response","152","894711","0.0-4.0-2.0-1.17","spark_pilot_norest","8359","3","19","Male","","","","","","","null","<div style=""font-size:60px;"">+</div>","null","fixation","","","","","","","","","35","","",""
"revaluation","153","900737","0.0-4.0-2.0-0.18","spark_pilot_norest","8359","3","19","Male","","false","","","","","[423.89999997615814,329.60000002384186]","./assets/img/ocean/memory/4.jpg","[""ArrowDown"",""ArrowRight""]","value training","ocean","30","{""ArrowUp,ArrowLeft"":23,""ArrowUp,ArrowRight"":10,""ArrowDown,ArrowLeft"":8,""ArrowDown,ArrowRight"":30}","true","ArrowDown,ArrowRight","false","original","1","36","","",""
"html-keyboard-response","154","901252","0.0-4.0-2.0-1.18","spark_pilot_norest","8359","3","19","Male","","","","","","","null","<div style=""font-size:60px;"">+</div>","null","fixation","","","","","","","","","37","","",""
"revaluation","155","907285","0.0-4.0-2.0-0.19","spark_pilot_norest","8359","3","19","Male","","false","","","","","[371.30000001192093,332.4000000357628]","./assets/img/ocean/memory/21.jpg","[""ArrowDown"",""ArrowRight""]","value training","ocean","30","{""ArrowUp,ArrowLeft"":23,""ArrowUp,ArrowRight"":10,""ArrowDown,ArrowLeft"":8,""ArrowDown,ArrowRight"":30}","true","ArrowDown,ArrowRight","false","original","1","38","","",""
"html-keyboard-response","156","907791","0.0-4.0-2.0-1.19","spark_pilot_norest","8359","3","19","Male","","","","","","","null","<div style=""font-size:60px;"">+</div>","null","fixation","","","","","","","","","39","","",""
"revaluation","157","913815","0.0-4.0-2.0-0.20","spark_pilot_norest","8359","3","19","Male","","false","","","","","[422.89999997615814,317.80000001192093]","./assets/img/ocean/memory/3.jpg","[""ArrowDown"",""ArrowRight""]","value training","ocean","30","{""ArrowUp,ArrowLeft"":23,""ArrowUp,ArrowRight"":10,""ArrowDown,ArrowLeft"":8,""ArrowDown,ArrowRight"":30}","true","ArrowDown,ArrowRight","false","original","1","40","","",""
"html-keyboard-response","158","914327","0.0-4.0-2.0-1.20","spark_pilot_norest","8359","3","19","Male","","","","","","","null","<div style=""font-size:60px;"">+</div>","null","fixation","","","","","","","","","41","","",""
"revaluation","159","918344","0.0-4.0-2.0-0.21","spark_pilot_norest","8359","3","19","Male","","false","","","","","[530.0999999642372]","./assets/img/ocean/catch/7.jpg","[""ArrowDown""]","value training","ocean","-10","{""ArrowUp,ArrowLeft"":23,""ArrowUp,ArrowRight"":10,""ArrowDown,ArrowLeft"":8,""ArrowDown,ArrowRight"":30}","false","ArrowDown","true","original","1","42","","",""
"html-keyboard-response","160","918856","0.0-4.0-2.0-1.21","spark_pilot_norest","8359","3","19","Male","","","","","","","null","<div style=""font-size:60px;"">+</div>","null","fixation","","","","","","","","","43","","",""
"revaluation","161","924889","0.0-4.0-2.0-0.22","spark_pilot_norest","8359","3","19","Male","","false","","","","","[464,422.80000001192093]","./assets/img/ocean/memory/6.jpg","[""ArrowDown"",""ArrowRight""]","value training","ocean","30","{""ArrowUp,ArrowLeft"":23,""ArrowUp,ArrowRight"":10,""ArrowDown,ArrowLeft"":8,""ArrowDown,ArrowRight"":30}","true","ArrowDown,ArrowRight","false","original","1","44","","",""
"html-keyboard-response","162","925399","0.0-4.0-2.0-1.22","spark_pilot_norest","8359","3","19","Male","","","","","","","null","<div style=""font-size:60px;"">+</div>","null","fixation","","","","","","","","","45","","",""
"revaluation","163","931428","0.0-4.0-2.0-0.23","spark_pilot_norest","8359","3","19","Male","","false","","","","","[627.3000000119209,343.10000002384186]","./assets/img/ocean/memory/35.jpg","[""ArrowDown"",""ArrowRight""]","value training","ocean","30","{""ArrowUp,ArrowLeft"":23,""ArrowUp,ArrowRight"":10,""ArrowDown,ArrowLeft"":8,""ArrowDown,ArrowRight"":30}","true","ArrowDown,ArrowRight","false","original","1","46","","",""
"html-keyboard-response","164","931936","0.0-4.0-2.0-1.23","spark_pilot_norest","8359","3","19","Male","","","","","","","null","<div style=""font-size:60px;"">+</div>","null","fixation","","","","","","","","","47","","",""
"revaluation","165","937970","0.0-4.0-2.0-0.24","spark_pilot_norest","8359","3","19","Male","","false","","","","","[464.30000001192093,324.19999998807907]","./assets/img/ocean/memory/24.jpg","[""ArrowDown"",""ArrowRight""]","value training","ocean","30","{""ArrowUp,ArrowLeft"":23,""ArrowUp,ArrowRight"":10,""ArrowDown,ArrowLeft"":8,""ArrowDown,ArrowRight"":30}","true","ArrowDown,ArrowRight","false","original","1","48","","",""
"html-keyboard-response","166","938481","0.0-4.0-2.0-1.24","spark_pilot_norest","8359","3","19","Male","","","","","","","null","<div style=""font-size:60px;"">+</div>","null","fixation","","","","","","","","","49","","",""
"revaluation","167","944512","0.0-4.0-2.0-0.25","spark_pilot_norest","8359","3","19","Male","","false","","","","","[414.19999998807907,294.7000000476837]","./assets/img/ocean/memory/37.jpg","[""ArrowDown"",""ArrowRight""]","value training","ocean","30","{""ArrowUp,ArrowLeft"":23,""ArrowUp,ArrowRight"":10,""ArrowDown,ArrowLeft"":8,""ArrowDown,ArrowRight"":30}","true","ArrowDown,ArrowRight","false","original","1","50","","",""
"html-keyboard-response","168","945027","0.0-4.0-2.0-1.25","spark_pilot_norest","8359","3","19","Male","","","","","","","null","<div style=""font-size:60px;"">+</div>","null","fixation","","","","","","","","","51","","",""
"revaluation","169","949052","0.0-4.0-2.0-0.26","spark_pilot_norest","8359","3","19","Male","","false","","","","","[487]","./assets/img/ocean/catch/5.jpg","[""ArrowDown""]","value training","ocean","-10","{""ArrowUp,ArrowLeft"":23,""ArrowUp,ArrowRight"":10,""ArrowDown,ArrowLeft"":8,""ArrowDown,ArrowRight"":30}","false","ArrowDown","true","original","1","52","","",""
"html-keyboard-response","170","949558","0.0-4.0-2.0-1.26","spark_pilot_norest","8359","3","19","Male","","","","","","","null","<div style=""font-size:60px;"">+</div>","null","fixation","","","","","","","","","53","","",""
"revaluation","171","955584","0.0-4.0-2.0-0.27","spark_pilot_norest","8359","3","19","Male","","false","","","","","[513.9000000357628,451.19999998807907]","./assets/img/ocean/memory/7.jpg","[""ArrowDown"",""ArrowRight""]","value training","ocean","30","{""ArrowUp,ArrowLeft"":23,""ArrowUp,ArrowRight"":10,""ArrowDown,ArrowLeft"":8,""ArrowDown,ArrowRight"":30}","true","ArrowDown,ArrowRight","false","original","1","54","","",""
"html-keyboard-response","172","956095","0.0-4.0-2.0-1.27","spark_pilot_norest","8359","3","19","Male","","","","","","","null","<div style=""font-size:60px;"">+</div>","null","fixation","","","","","","","","","55","","",""
"revaluation","173","960121","0.0-4.0-2.0-0.28","spark_pilot_norest","8359","3","19","Male","","false","","","","","[573.8000000119209]","./assets/img/ocean/catch/6.jpg","[""spaceBar""]","value training","ocean","0","{""ArrowUp,ArrowLeft"":23,""ArrowUp,ArrowRight"":10,""ArrowDown,ArrowLeft"":8,""ArrowDown,ArrowRight"":30}","true","spaceBar","true","original","1","56","","",""
"html-keyboard-response","174","960631","0.0-4.0-2.0-1.28","spark_pilot_norest","8359","3","19","Male","","","","","","","null","<div style=""font-size:60px;"">+</div>","null","fixation","","","","","","","","","57","","",""
"revaluation","175","966673","0.0-4.0-2.0-0.29","spark_pilot_norest","8359","3","19","Male","","false","","","","","[696.5,828.1999999880791]","./assets/img/ocean/memory/5.jpg","[""ArrowDown"",""ArrowRight""]","value training","ocean","30","{""ArrowUp,ArrowLeft"":23,""ArrowUp,ArrowRight"":10,""ArrowDown,ArrowLeft"":8,""ArrowDown,ArrowRight"":30}","true","ArrowDown,ArrowRight","false","original","1","58","","",""
"html-keyboard-response","176","967186","0.0-4.0-2.0-1.29","spark_pilot_norest","8359","3","19","Male","","","","","","","null","<div style=""font-size:60px;"">+</div>","null","fixation","","","","","","","","","59","","",""
"revaluation","177","973220","0.0-4.0-2.0-0.30","spark_pilot_norest","8359","3","19","Male","","false","","","","","[384.5,365]","./assets/img/ocean/memory/28.jpg","[""ArrowDown"",""ArrowRight""]","value training","ocean","30","{""ArrowUp,ArrowLeft"":23,""ArrowUp,ArrowRight"":10,""ArrowDown,ArrowLeft"":8,""ArrowDown,ArrowRight"":30}","true","ArrowDown,ArrowRight","false","original","1","60","","",""
"html-keyboard-response","178","973728","0.0-4.0-2.0-1.30","spark_pilot_norest","8359","3","19","Male","","","","","","","null","<div style=""font-size:60px;"">+</div>","null","fixation","","","","","","","","","61","","",""
"revaluation","179","979759","0.0-4.0-2.0-0.31","spark_pilot_norest","8359","3","19","Male","","false","","","","","[453.69999998807907,331.60000002384186]","./assets/img/ocean/memory/1.jpg","[""ArrowDown"",""ArrowRight""]","value training","ocean","30","{""ArrowUp,ArrowLeft"":23,""ArrowUp,ArrowRight"":10,""ArrowDown,ArrowLeft"":8,""ArrowDown,ArrowRight"":30}","true","ArrowDown,ArrowRight","false","original","1","62","","",""
"html-keyboard-response","180","980272","0.0-4.0-2.0-1.31","spark_pilot_norest","8359","3","19","Male","","","","","","","null","<div style=""font-size:60px;"">+</div>","null","fixation","","","","","","","","","63","","",""
"revaluation","181","986302","0.0-4.0-2.0-0.32","spark_pilot_norest","8359","3","19","Male","","false","","","","","[700.8000000119209,339.39999997615814]","./assets/img/ocean/memory/38.jpg","[""ArrowDown"",""ArrowRight""]","value training","ocean","30","{""ArrowUp,ArrowLeft"":23,""ArrowUp,ArrowRight"":10,""ArrowDown,ArrowLeft"":8,""ArrowDown,ArrowRight"":30}","true","ArrowDown,ArrowRight","false","original","1","64","","",""
"html-keyboard-response","182","986806","0.0-4.0-2.0-1.32","spark_pilot_norest","8359","3","19","Male","","","","","","","null","<div style=""font-size:60px;"">+</div>","null","fixation","","","","","","","","","65","","",""
"revaluation","183","992845","0.0-4.0-2.0-0.33","spark_pilot_norest","8359","3","19","Male","","false","","","","","[354.7999999523163,381.5]","./assets/img/ocean/memory/9.jpg","[""ArrowDown"",""ArrowRight""]","value training","ocean","30","{""ArrowUp,ArrowLeft"":23,""ArrowUp,ArrowRight"":10,""ArrowDown,ArrowLeft"":8,""ArrowDown,ArrowRight"":30}","true","ArrowDown,ArrowRight","false","original","1","66","","",""
"html-keyboard-response","184","993353","0.0-4.0-2.0-1.33","spark_pilot_norest","8359","3","19","Male","","","","","","","null","<div style=""font-size:60px;"">+</div>","null","fixation","","","","","","","","","67","","",""
"revaluation","185","999386","0.0-4.0-2.0-0.34","spark_pilot_norest","8359","3","19","Male","","false","","","","","[642.5,328.89999997615814]","./assets/img/ocean/memory/20.jpg","[""ArrowDown"",""ArrowRight""]","value training","ocean","30","{""ArrowUp,ArrowLeft"":23,""ArrowUp,ArrowRight"":10,""ArrowDown,ArrowLeft"":8,""ArrowDown,ArrowRight"":30}","true","ArrowDown,ArrowRight","false","original","1","68","","",""
"html-keyboard-response","186","999894","0.0-4.0-2.0-1.34","spark_pilot_norest","8359","3","19","Male","","","","","","","null","<div style=""font-size:60px;"">+</div>","null","fixation","","","","","","","","","69","","",""
"revaluation","187","1005927","0.0-4.0-2.0-0.35","spark_pilot_norest","8359","3","19","Male","","false","","","","","[629.6999999880791,323.30000001192093]","./assets/img/ocean/memory/21.jpg","[""ArrowDown"",""ArrowRight""]","value training","ocean","30","{""ArrowUp,ArrowLeft"":23,""ArrowUp,ArrowRight"":10,""ArrowDown,ArrowLeft"":8,""ArrowDown,ArrowRight"":30}","true","ArrowDown,ArrowRight","false","original","1","70","","",""
"html-keyboard-response","188","1006445","0.0-4.0-2.0-1.35","spark_pilot_norest","8359","3","19","Male","","","","","","","null","<div style=""font-size:60px;"">+</div>","null","fixation","","","","","","","","","71","","",""
"revaluation","189","1012481","0.0-4.0-2.0-0.36","spark_pilot_norest","8359","3","19","Male","","false","","","","","[438.5999999642372,250.10000002384186]","./assets/img/ocean/memory/5.jpg","[""ArrowDown"",""ArrowRight""]","value training","ocean","30","{""ArrowUp,ArrowLeft"":23,""ArrowUp,ArrowRight"":10,""ArrowDown,ArrowLeft"":8,""ArrowDown,ArrowRight"":30}","true","ArrowDown,ArrowRight","false","original","1","72","","",""
"html-keyboard-response","190","1012993","0.0-4.0-2.0-1.36","spark_pilot_norest","8359","3","19","Male","","","","","","","null","<div style=""font-size:60px;"">+</div>","null","fixation","","","","","","","","","73","","",""
"revaluation","191","1019026","0.0-4.0-2.0-0.37","spark_pilot_norest","8359","3","19","Male","","false","","","","","[487.5,273]","./assets/img/ocean/memory/18.jpg","[""ArrowDown"",""ArrowRight""]","value training","ocean","30","{""ArrowUp,ArrowLeft"":23,""ArrowUp,ArrowRight"":10,""ArrowDown,ArrowLeft"":8,""ArrowDown,ArrowRight"":30}","true","ArrowDown,ArrowRight","false","original","1","74","","",""
"html-keyboard-response","192","1019533","0.0-4.0-2.0-1.37","spark_pilot_norest","8359","3","19","Male","","","","","","","null","<div style=""font-size:60px;"">+</div>","null","fixation","","","","","","","","","75","","",""
"revaluation","193","1025558","0.0-4.0-2.0-0.38","spark_pilot_norest","8359","3","19","Male","","false","","","","","[634.1000000238419,374.39999997615814]","./assets/img/ocean/memory/35.jpg","[""ArrowDown"",""ArrowRight""]","value training","ocean","30","{""ArrowUp,ArrowLeft"":23,""ArrowUp,ArrowRight"":10,""ArrowDown,ArrowLeft"":8,""ArrowDown,ArrowRight"":30}","true","ArrowDown,ArrowRight","false","original","1","76","","",""
"html-keyboard-response","194","1026063","0.0-4.0-2.0-1.38","spark_pilot_norest","8359","3","19","Male","","","","","","","null","<div style=""font-size:60px;"">+</div>","null","fixation","","","","","","","","","77","","",""
"revaluation","195","1030086","0.0-4.0-2.0-0.39","spark_pilot_norest","8359","3","19","Male","","false","","","","","[776.2000000476837]","./assets/img/ocean/catch/4.jpg","[""spaceBar""]","value training","ocean","0","{""ArrowUp,ArrowLeft"":23,""ArrowUp,ArrowRight"":10,""ArrowDown,ArrowLeft"":8,""ArrowDown,ArrowRight"":30}","true","spaceBar","true","original","1","78","","",""
"html-keyboard-response","196","1030601","0.0-4.0-2.0-1.39","spark_pilot_norest","8359","3","19","Male","","","","","","","null","<div style=""font-size:60px;"">+</div>","null","fixation","","","","","","","","","79","","",""
"revaluation","197","1036632","0.0-4.0-2.0-0.40","spark_pilot_norest","8359","3","19","Male","","false","","","","","[476,466.10000002384186]","./assets/img/ocean/memory/36.jpg","[""ArrowDown"",""ArrowRight""]","value training","ocean","30","{""ArrowUp,ArrowLeft"":23,""ArrowUp,ArrowRight"":10,""ArrowDown,ArrowLeft"":8,""ArrowDown,ArrowRight"":30}","true","ArrowDown,ArrowRight","false","original","1","80","","",""
"html-keyboard-response","198","1037144","0.0-4.0-2.0-1.40","spark_pilot_norest","8359","3","19","Male","","","","","","","null","<div style=""font-size:60px;"">+</div>","null","fixation","","","","","","","","","81","","",""
"revaluation","199","1041169","0.0-4.0-2.0-0.41","spark_pilot_norest","8359","3","19","Male","","false","","","","","[840.5999999642372]","./assets/img/ocean/catch/3.jpg","[""spaceBar""]","value training","ocean","0","{""ArrowUp,ArrowLeft"":23,""ArrowUp,ArrowRight"":10,""ArrowDown,ArrowLeft"":8,""ArrowDown,ArrowRight"":30}","true","spaceBar","true","original","1","82","","",""
"html-keyboard-response","200","1041680","0.0-4.0-2.0-1.41","spark_pilot_norest","8359","3","19","Male","","","","","","","null","<div style=""font-size:60px;"">+</div>","null","fixation","","","","","","","","","83","","",""
"revaluation","201","1047711","0.0-4.0-2.0-0.42","spark_pilot_norest","8359","3","19","Male","","false","","","","","[395.69999998807907,378.69999998807907]","./assets/img/ocean/memory/37.jpg","[""ArrowDown"",""ArrowRight""]","value training","ocean","30","{""ArrowUp,ArrowLeft"":23,""ArrowUp,ArrowRight"":10,""ArrowDown,ArrowLeft"":8,""ArrowDown,ArrowRight"":30}","true","ArrowDown,ArrowRight","false","original","1","84","","",""
"html-keyboard-response","202","1048227","0.0-4.0-2.0-1.42","spark_pilot_norest","8359","3","19","Male","","","","","","","null","<div style=""font-size:60px;"">+</div>","null","fixation","","","","","","","","","85","","",""
"revaluation","203","1054268","0.0-4.0-2.0-0.43","spark_pilot_norest","8359","3","19","Male","","false","","","","","[391.5,399.4000000357628]","./assets/img/ocean/memory/8.jpg","[""ArrowDown"",""ArrowRight""]","value training","ocean","30","{""ArrowUp,ArrowLeft"":23,""ArrowUp,ArrowRight"":10,""ArrowDown,ArrowLeft"":8,""ArrowDown,ArrowRight"":30}","true","ArrowDown,ArrowRight","false","original","1","86","","",""
"html-keyboard-response","204","1054778","0.0-4.0-2.0-1.43","spark_pilot_norest","8359","3","19","Male","","","","","","","null","<div style=""font-size:60px;"">+</div>","null","fixation","","","","","","","","","87","","",""
"revaluation","205","1060810","0.0-4.0-2.0-0.44","spark_pilot_norest","8359","3","19","Male","","false","","","","","[453.39999997615814,339.10000002384186]","./assets/img/ocean/memory/18.jpg","[""ArrowDown"",""ArrowRight""]","value training","ocean","30","{""ArrowUp,ArrowLeft"":23,""ArrowUp,ArrowRight"":10,""ArrowDown,ArrowLeft"":8,""ArrowDown,ArrowRight"":30}","true","ArrowDown,ArrowRight","false","original","1","88","","",""
"html-keyboard-response","206","1061317","0.0-4.0-2.0-1.44","spark_pilot_norest","8359","3","19","Male","","","","","","","null","<div style=""font-size:60px;"">+</div>","null","fixation","","","","","","","","","89","","",""
"revaluation","207","1067342","0.0-4.0-2.0-0.45","spark_pilot_norest","8359","3","19","Male","","false","","","","","[658.3000000119209,347.5999999642372]","./assets/img/ocean/memory/15.jpg","[""ArrowDown"",""ArrowRight""]","value training","ocean","30","{""ArrowUp,ArrowLeft"":23,""ArrowUp,ArrowRight"":10,""ArrowDown,ArrowLeft"":8,""ArrowDown,ArrowRight"":30}","true","ArrowDown,ArrowRight","false","original","1","90","","",""
"html-keyboard-response","208","1067854","0.0-4.0-2.0-1.45","spark_pilot_norest","8359","3","19","Male","","","","","","","null","<div style=""font-size:60px;"">+</div>","null","fixation","","","","","","","","","91","","",""
"revaluation","209","1073880","0.0-4.0-2.0-0.46","spark_pilot_norest","8359","3","19","Male","","false","","","","","[563.0999999642372,449.30000001192093]","./assets/img/ocean/memory/11.jpg","[""ArrowDown"",""ArrowRight""]","value training","ocean","30","{""ArrowUp,ArrowLeft"":23,""ArrowUp,ArrowRight"":10,""ArrowDown,ArrowLeft"":8,""ArrowDown,ArrowRight"":30}","true","ArrowDown,ArrowRight","false","original","1","92","","",""
"html-keyboard-response","210","1074389","0.0-4.0-2.0-1.46","spark_pilot_norest","8359","3","19","Male","","","","","","","null","<div style=""font-size:60px;"">+</div>","null","fixation","","","","","","","","","93","","",""
"revaluation","211","1080418","0.0-4.0-2.0-0.47","spark_pilot_norest","8359","3","19","Male","","false","","","","","[714.3000000119209,710.8000000119209]","./assets/img/ocean/memory/9.jpg","[""ArrowDown"",""ArrowRight""]","value training","ocean","30","{""ArrowUp,ArrowLeft"":23,""ArrowUp,ArrowRight"":10,""ArrowDown,ArrowLeft"":8,""ArrowDown,ArrowRight"":30}","true","ArrowDown,ArrowRight","false","original","1","94","","",""
"html-keyboard-response","212","1080925","0.0-4.0-2.0-1.47","spark_pilot_norest","8359","3","19","Male","","","","","","","null","<div style=""font-size:60px;"">+</div>","null","fixation","","","","","","","","","95","","",""
"revaluation","213","1084945","0.0-4.0-2.0-0.48","spark_pilot_norest","8359","3","19","Male","","false","","","","","[647.5]","./assets/img/ocean/catch/0.jpg","[""spaceBar""]","value training","ocean","0","{""ArrowUp,ArrowLeft"":23,""ArrowUp,ArrowRight"":10,""ArrowDown,ArrowLeft"":8,""ArrowDown,ArrowRight"":30}","true","spaceBar","true","original","1","96","","",""
"html-keyboard-response","214","1085458","0.0-4.0-2.0-1.48","spark_pilot_norest","8359","3","19","Male","","","","","","","null","<div style=""font-size:60px;"">+</div>","null","fixation","","","","","","","","","97","","",""
"revaluation","215","1091487","0.0-4.0-2.0-0.49","spark_pilot_norest","8359","3","19","Male","","false","","","","","[399.0999999642372,469.69999998807907]","./assets/img/ocean/memory/8.jpg","[""ArrowDown"",""ArrowRight""]","value training","ocean","30","{""ArrowUp,ArrowLeft"":23,""ArrowUp,ArrowRight"":10,""ArrowDown,ArrowLeft"":8,""ArrowDown,ArrowRight"":30}","true","ArrowDown,ArrowRight","false","original","1","98","","",""
"html-keyboard-response","216","1092000","0.0-4.0-2.0-1.49","spark_pilot_norest","8359","3","19","Male","","","","","","","null","<div style=""font-size:60px;"">+</div>","null","fixation","","","","","","","","","99","","",""
"learning-instructions","217","1114076","0.0-4.0-3.0-0.0","spark_pilot_norest","8359","3","19","Male","","","","","","","9155","<p> Now, you will travel with a friend who will choose whether you go up or down first. </p>
            <p> On these turns, you will just see the animal that they found. You will still get to choose which chest to search for treasure.</p>","","instructions","","","","","","","","","","","",""
"revaluation","218","1118095","0.0-4.0-4.0-0.0","spark_pilot_norest","8359","3","19","Male","","false","","","","","[765.5]","./assets/img/ocean/animals/seahorse.jpg","[""ArrowRight""]","revaluation","ocean","30","{""ArrowUp,ArrowLeft"":23,""ArrowUp,ArrowRight"":10,""ArrowDown,ArrowLeft"":8,""ArrowDown,ArrowRight"":30}","true","ArrowDown,ArrowRight","","original","1","0","","",""
"html-keyboard-response","219","1118616","0.0-4.0-4.0-1.0","spark_pilot_norest","8359","3","19","Male","","","","","","","null","<div style=""font-size:60px;"">+</div>","null","fixation","","","","","","","","","1","","",""
"revaluation","220","1122642","0.0-4.0-4.0-0.1","spark_pilot_norest","8359","3","19","Male","","false","","","","","[435]","./assets/img/ocean/animals/seahorse.jpg","[""ArrowRight""]","revaluation","ocean","30","{""ArrowUp,ArrowLeft"":23,""ArrowUp,ArrowRight"":10,""ArrowDown,ArrowLeft"":8,""ArrowDown,ArrowRight"":30}","true","ArrowDown,ArrowRight","","original","1","2","","",""
"html-keyboard-response","221","1123150","0.0-4.0-4.0-1.1","spark_pilot_norest","8359","3","19","Male","","","","","","","null","<div style=""font-size:60px;"">+</div>","null","fixation","","","","","","","","","3","","",""
"revaluation","222","1127175","0.0-4.0-4.0-0.2","spark_pilot_norest","8359","3","19","Male","","false","","","","","[472.10000002384186]","./assets/img/ocean/animals/seahorse.jpg","[""ArrowRight""]","revaluation","ocean","30","{""ArrowUp,ArrowLeft"":23,""ArrowUp,ArrowRight"":10,""ArrowDown,ArrowLeft"":8,""ArrowDown,ArrowRight"":30}","true","ArrowDown,ArrowRight","","original","1","4","","",""
"html-keyboard-response","223","1127685","0.0-4.0-4.0-1.2","spark_pilot_norest","8359","3","19","Male","","","","","","","null","<div style=""font-size:60px;"">+</div>","null","fixation","","","","","","","","","5","","",""
"revaluation","224","1131711","0.0-4.0-4.0-0.3","spark_pilot_norest","8359","3","19","Male","","false","","","","","[382.89999997615814]","./assets/img/ocean/animals/seahorse.jpg","[""ArrowRight""]","revaluation","ocean","30","{""ArrowUp,ArrowLeft"":23,""ArrowUp,ArrowRight"":10,""ArrowDown,ArrowLeft"":8,""ArrowDown,ArrowRight"":30}","true","ArrowDown,ArrowRight","","original","1","6","","",""
"html-keyboard-response","225","1132226","0.0-4.0-4.0-1.3","spark_pilot_norest","8359","3","19","Male","","","","","","","null","<div style=""font-size:60px;"">+</div>","null","fixation","","","","","","","","","7","","",""
"revaluation","226","1136250","0.0-4.0-4.0-0.4","spark_pilot_norest","8359","3","19","Male","","false","","","","","[1647.4000000357628]","./assets/img/ocean/animals/octopus.jpg","[""ArrowRight""]","revaluation","ocean","10","{""ArrowUp,ArrowLeft"":23,""ArrowUp,ArrowRight"":10,""ArrowDown,ArrowLeft"":8,""ArrowDown,ArrowRight"":30}","false","ArrowUp,ArrowRight","","original","1","8","","",""
"html-keyboard-response","227","1136755","0.0-4.0-4.0-1.4","spark_pilot_norest","8359","3","19","Male","","","","","","","null","<div style=""font-size:60px;"">+</div>","null","fixation","","","","","","","","","9","","",""
"revaluation","228","1140771","0.0-4.0-4.0-0.5","spark_pilot_norest","8359","3","19","Male","","false","","","","","[562.8000000119209]","./assets/img/ocean/animals/octopus.jpg","[""ArrowLeft""]","revaluation","ocean","23","{""ArrowUp,ArrowLeft"":23,""ArrowUp,ArrowRight"":10,""ArrowDown,ArrowLeft"":8,""ArrowDown,ArrowRight"":30}","true","ArrowUp,ArrowLeft","","original","1","10","","",""
"html-keyboard-response","229","1141279","0.0-4.0-4.0-1.5","spark_pilot_norest","8359","3","19","Male","","","","","","","null","<div style=""font-size:60px;"">+</div>","null","fixation","","","","","","","","","11","","",""
"revaluation","230","1145303","0.0-4.0-4.0-0.6","spark_pilot_norest","8359","3","19","Male","","false","","","","","[411.10000002384186]","./assets/img/ocean/animals/octopus.jpg","[""ArrowLeft""]","revaluation","ocean","23","{""ArrowUp,ArrowLeft"":23,""ArrowUp,ArrowRight"":10,""ArrowDown,ArrowLeft"":8,""ArrowDown,ArrowRight"":30}","true","ArrowUp,ArrowLeft","","original","1","12","","",""
"html-keyboard-response","231","1145814","0.0-4.0-4.0-1.6","spark_pilot_norest","8359","3","19","Male","","","","","","","null","<div style=""font-size:60px;"">+</div>","null","fixation","","","","","","","","","13","","",""
"revaluation","232","1149838","0.0-4.0-4.0-0.7","spark_pilot_norest","8359","3","19","Male","","false","","","","","[575]","./assets/img/ocean/animals/octopus.jpg","[""ArrowLeft""]","revaluation","ocean","23","{""ArrowUp,ArrowLeft"":23,""ArrowUp,ArrowRight"":10,""ArrowDown,ArrowLeft"":8,""ArrowDown,ArrowRight"":30}","true","ArrowUp,ArrowLeft","","original","1","14","","",""
"html-keyboard-response","233","1150350","0.0-4.0-4.0-1.7","spark_pilot_norest","8359","3","19","Male","","","","","","","null","<div style=""font-size:60px;"">+</div>","null","fixation","","","","","","","","","15","","",""
"revaluation","234","1154366","0.0-4.0-4.0-0.8","spark_pilot_norest","8359","3","19","Male","","false","","","","","[349]","./assets/img/ocean/animals/seahorse.jpg","[""ArrowRight""]","revaluation","ocean","30","{""ArrowUp,ArrowLeft"":23,""ArrowUp,ArrowRight"":10,""ArrowDown,ArrowLeft"":8,""ArrowDown,ArrowRight"":30}","true","ArrowDown,ArrowRight","","original","1","16","","",""
"html-keyboard-response","235","1154879","0.0-4.0-4.0-1.8","spark_pilot_norest","8359","3","19","Male","","","","","","","null","<div style=""font-size:60px;"">+</div>","null","fixation","","","","","","","","","17","","",""
"revaluation","236","1158902","0.0-4.0-4.0-0.9","spark_pilot_norest","8359","3","19","Male","","false","","","","","[807.3000000119209]","./assets/img/ocean/animals/seahorse.jpg","[""ArrowRight""]","revaluation","ocean","30","{""ArrowUp,ArrowLeft"":23,""ArrowUp,ArrowRight"":10,""ArrowDown,ArrowLeft"":8,""ArrowDown,ArrowRight"":30}","true","ArrowDown,ArrowRight","","original","1","18","","",""
"html-keyboard-response","237","1159417","0.0-4.0-4.0-1.9","spark_pilot_norest","8359","3","19","Male","","","","","","","null","<div style=""font-size:60px;"">+</div>","null","fixation","","","","","","","","","19","","",""
"revaluation","238","1163441","0.0-4.0-4.0-0.10","spark_pilot_norest","8359","3","19","Male","","false","","","","","[569]","./assets/img/ocean/animals/octopus.jpg","[""ArrowLeft""]","revaluation","ocean","23","{""ArrowUp,ArrowLeft"":23,""ArrowUp,ArrowRight"":10,""ArrowDown,ArrowLeft"":8,""ArrowDown,ArrowRight"":30}","true","ArrowUp,ArrowLeft","","original","1","20","","",""
"html-keyboard-response","239","1163950","0.0-4.0-4.0-1.10","spark_pilot_norest","8359","3","19","Male","","","","","","","null","<div style=""font-size:60px;"">+</div>","null","fixation","","","","","","","","","21","","",""
"revaluation","240","1167975","0.0-4.0-4.0-0.11","spark_pilot_norest","8359","3","19","Male","","false","","","","","[527.6999999880791]","./assets/img/ocean/animals/seahorse.jpg","[""ArrowRight""]","revaluation","ocean","30","{""ArrowUp,ArrowLeft"":23,""ArrowUp,ArrowRight"":10,""ArrowDown,ArrowLeft"":8,""ArrowDown,ArrowRight"":30}","true","ArrowDown,ArrowRight","","original","1","22","","",""
"html-keyboard-response","241","1168485","0.0-4.0-4.0-1.11","spark_pilot_norest","8359","3","19","Male","","","","","","","null","<div style=""font-size:60px;"">+</div>","null","fixation","","","","","","","","","23","","",""
"revaluation","242","1172500","0.0-4.0-4.0-0.12","spark_pilot_norest","8359","3","19","Male","","false","","","","","[534.1000000238419]","./assets/img/ocean/animals/seahorse.jpg","[""ArrowRight""]","revaluation","ocean","30","{""ArrowUp,ArrowLeft"":23,""ArrowUp,ArrowRight"":10,""ArrowDown,ArrowLeft"":8,""ArrowDown,ArrowRight"":30}","true","ArrowDown,ArrowRight","","original","1","24","","",""
"html-keyboard-response","243","1173014","0.0-4.0-4.0-1.12","spark_pilot_norest","8359","3","19","Male","","","","","","","null","<div style=""font-size:60px;"">+</div>","null","fixation","","","","","","","","","25","","",""
"revaluation","244","1177038","0.0-4.0-4.0-0.13","spark_pilot_norest","8359","3","19","Male","","false","","","","","[542.4000000357628]","./assets/img/ocean/animals/octopus.jpg","[""ArrowLeft""]","revaluation","ocean","23","{""ArrowUp,ArrowLeft"":23,""ArrowUp,ArrowRight"":10,""ArrowDown,ArrowLeft"":8,""ArrowDown,ArrowRight"":30}","true","ArrowUp,ArrowLeft","","original","1","26","","",""
"html-keyboard-response","245","1177550","0.0-4.0-4.0-1.13","spark_pilot_norest","8359","3","19","Male","","","","","","","null","<div style=""font-size:60px;"">+</div>","null","fixation","","","","","","","","","27","","",""
"revaluation","246","1181575","0.0-4.0-4.0-0.14","spark_pilot_norest","8359","3","19","Male","","false","","","","","[547.1999999880791]","./assets/img/ocean/animals/seahorse.jpg","[""ArrowRight""]","revaluation","ocean","30","{""ArrowUp,ArrowLeft"":23,""ArrowUp,ArrowRight"":10,""ArrowDown,ArrowLeft"":8,""ArrowDown,ArrowRight"":30}","true","ArrowDown,ArrowRight","","original","1","28","","",""
"html-keyboard-response","247","1182085","0.0-4.0-4.0-1.14","spark_pilot_norest","8359","3","19","Male","","","","","","","null","<div style=""font-size:60px;"">+</div>","null","fixation","","","","","","","","","29","","",""
"revaluation","248","1186102","0.0-4.0-4.0-0.15","spark_pilot_norest","8359","3","19","Male","","false","","","","","[351.9000000357628]","./assets/img/ocean/animals/octopus.jpg","[""ArrowLeft""]","revaluation","ocean","23","{""ArrowUp,ArrowLeft"":23,""ArrowUp,ArrowRight"":10,""ArrowDown,ArrowLeft"":8,""ArrowDown,ArrowRight"":30}","true","ArrowUp,ArrowLeft","","original","1","30","","",""
"html-keyboard-response","249","1186618","0.0-4.0-4.0-1.15","spark_pilot_norest","8359","3","19","Male","","","","","","","null","<div style=""font-size:60px;"">+</div>","null","fixation","","","","","","","","","31","","",""
"revaluation","250","1190638","0.0-4.0-4.0-0.16","spark_pilot_norest","8359","3","19","Male","","false","","","","","[466.89999997615814]","./assets/img/ocean/animals/octopus.jpg","[""ArrowLeft""]","revaluation","ocean","23","{""ArrowUp,ArrowLeft"":23,""ArrowUp,ArrowRight"":10,""ArrowDown,ArrowLeft"":8,""ArrowDown,ArrowRight"":30}","true","ArrowUp,ArrowLeft","","original","1","32","","",""
"html-keyboard-response","251","1191147","0.0-4.0-4.0-1.16","spark_pilot_norest","8359","3","19","Male","","","","","","","null","<div style=""font-size:60px;"">+</div>","null","fixation","","","","","","","","","33","","",""
"revaluation","252","1195163","0.0-4.0-4.0-0.17","spark_pilot_norest","8359","3","19","Male","","false","","","","","[861.5999999642372]","./assets/img/ocean/animals/octopus.jpg","[""ArrowLeft""]","revaluation","ocean","23","{""ArrowUp,ArrowLeft"":23,""ArrowUp,ArrowRight"":10,""ArrowDown,ArrowLeft"":8,""ArrowDown,ArrowRight"":30}","true","ArrowUp,ArrowLeft","","original","1","34","","",""
"html-keyboard-response","253","1195670","0.0-4.0-4.0-1.17","spark_pilot_norest","8359","3","19","Male","","","","","","","null","<div style=""font-size:60px;"">+</div>","null","fixation","","","","","","","","","35","","",""
"learning-instructions","254","1203812","0.0-4.0-5.0-0.0","spark_pilot_norest","8359","3","19","Male","","","","","","","null","<p> You have almost finished this part of the game! </p>
            <p> We are going to ask you to make a few more choices. </p>","","instructions","","","","","","","","","","","",""
"learning-instructions","255","1219795","0.0-4.0-5.0-0.1","spark_pilot_norest","8359","3","19","Male","","","","","","","null","<p> First, you need to decide whether to go up or down. When you see each picture, use the arrow keys to make your choice. </p>
            <p><b>You will not see which animal you found, but try to get to the one that will give you the most treasure.</b></p>","","instructions","","","","","","","","","","","",""
"html-keyboard-response","256","1220804","0.0-4.0-6.0-0.0","spark_pilot_norest","8359","3","19","Male","","","","","","","null","<div style=""font-size:100px;color:red;"">Starting in...</div>","null","","","","","","","","","","","","",""
"html-keyboard-response","257","1221812","0.0-4.0-6.0-1.0","spark_pilot_norest","8359","3","19","Male","","","","","","","null","<div style=""font-size:200px;color:red;"">3</div>","null","","","","","","","","","","","","",""
"html-keyboard-response","258","1222824","0.0-4.0-6.0-2.0","spark_pilot_norest","8359","3","19","Male","","","","","","","null","<div style=""font-size:200px;color:red;"">2</div>","null","","","","","","","","","","","","",""
"html-keyboard-response","259","1223840","0.0-4.0-6.0-3.0","spark_pilot_norest","8359","3","19","Male","","","","","","","null","<div style=""font-size:200px;color:red;"">1</div>","null","","","","","","","","","","","","",""
"revaluation","260","1224167","0.0-4.0-7.0-0.0","spark_pilot_norest","8359","3","19","Male","","false","","","","","[322.10000002384186]","./assets/img/ocean/test/2.jpg","[""ArrowDown""]","first stage test","ocean","0","{""ArrowUp,ArrowLeft"":23,""ArrowUp,ArrowRight"":10,""ArrowDown,ArrowLeft"":8,""ArrowDown,ArrowRight"":30}","true","ArrowDown","false","original","1","","","",""
"html-keyboard-response","261","1224678","0.0-4.0-7.0-1.0","spark_pilot_norest","8359","3","19","Male","","","","","","","null","<div style=""font-size:60px;"">+</div>","null","fixation","","","","","","","","","","","",""
"revaluation","262","1226516","0.0-4.0-7.0-0.1","spark_pilot_norest","8359","3","19","Male","","false","","","","","[1830.8999999761581]","./assets/img/ocean/test/3.jpg","[""ArrowDown""]","first stage test","ocean","0","{""ArrowUp,ArrowLeft"":23,""ArrowUp,ArrowRight"":10,""ArrowDown,ArrowLeft"":8,""ArrowDown,ArrowRight"":30}","true","ArrowDown","false","original","1","","","",""
"html-keyboard-response","263","1227020","0.0-4.0-7.0-1.1","spark_pilot_norest","8359","3","19","Male","","","","","","","null","<div style=""font-size:60px;"">+</div>","null","fixation","","","","","","","","","","","",""
"revaluation","264","1228309","0.0-4.0-7.0-0.2","spark_pilot_norest","8359","3","19","Male","","false","","","","","[1279.199999988079]","./assets/img/ocean/test/0.jpg","[""ArrowDown""]","first stage test","ocean","0","{""ArrowUp,ArrowLeft"":23,""ArrowUp,ArrowRight"":10,""ArrowDown,ArrowLeft"":8,""ArrowDown,ArrowRight"":30}","true","ArrowDown","false","original","1","","","",""
"html-keyboard-response","265","1228816","0.0-4.0-7.0-1.2","spark_pilot_norest","8359","3","19","Male","","","","","","","null","<div style=""font-size:60px;"">+</div>","null","fixation","","","","","","","","","","","",""
"revaluation","266","1230877","0.0-4.0-7.0-0.3","spark_pilot_norest","8359","3","19","Male","","false","","","","","[2057.199999988079]","./assets/img/ocean/test/1.jpg","[""ArrowDown""]","first stage test","ocean","0","{""ArrowUp,ArrowLeft"":23,""ArrowUp,ArrowRight"":10,""ArrowDown,ArrowLeft"":8,""ArrowDown,ArrowRight"":30}","true","ArrowDown","false","original","1","","","",""
"html-keyboard-response","267","1231386","0.0-4.0-7.0-1.3","spark_pilot_norest","8359","3","19","Male","","","","","","","null","<div style=""font-size:60px;"">+</div>","null","fixation","","","","","","","","","","","",""
"learning-instructions","268","1244742","0.0-4.0-8.0-0.0","spark_pilot_norest","8359","3","19","Male","","","","","","","null","<p> Now you will see the animals again and can search their chests for treasure. </p>
            <p> This time, you will not see how much treasure you earned, but you will earn more bonus money for making better choices. </p>","","instructions","","","","","","","","","","","",""
"html-keyboard-response","269","1245749","0.0-4.0-9.0-0.0","spark_pilot_norest","8359","3","19","Male","","","","","","","null","<div style=""font-size:100px;color:red;"">Starting in...</div>","null","","","","","","","","","","","","",""
"html-keyboard-response","270","1246757","0.0-4.0-9.0-1.0","spark_pilot_norest","8359","3","19","Male","","","","","","","null","<div style=""font-size:200px;color:red;"">3</div>","null","","","","","","","","","","","","",""
"html-keyboard-response","271","1247766","0.0-4.0-9.0-2.0","spark_pilot_norest","8359","3","19","Male","","","","","","","null","<div style=""font-size:200px;color:red;"">2</div>","null","","","","","","","","","","","","",""
"html-keyboard-response","272","1248770","0.0-4.0-9.0-3.0","spark_pilot_norest","8359","3","19","Male","","","","","","","null","<div style=""font-size:200px;color:red;"">1</div>","null","","","","","","","","","","","","",""
"revaluation","273","1249798","0.0-4.0-10.0-0.0","spark_pilot_norest","8359","3","19","Male","","false","","","","","[1021]","./assets/img/ocean/animals/octopus.jpg","[""ArrowLeft""]","second stage test","ocean","0","{""ArrowUp,ArrowLeft"":23,""ArrowUp,ArrowRight"":10,""ArrowDown,ArrowLeft"":8,""ArrowDown,ArrowRight"":30}","true","ArrowUp,ArrowLeft","","original","1","","","",""
"html-keyboard-response","274","1250309","0.0-4.0-10.0-1.0","spark_pilot_norest","8359","3","19","Male","","","","","","","null","<div style=""font-size:60px;"">+</div>","null","fixation","","","","","","","","","","","",""
"revaluation","275","1251261","0.0-4.0-10.0-0.1","spark_pilot_norest","8359","3","19","Male","","false","","","","","[944.1999999880791]","./assets/img/ocean/animals/octopus.jpg","[""ArrowLeft""]","second stage test","ocean","0","{""ArrowUp,ArrowLeft"":23,""ArrowUp,ArrowRight"":10,""ArrowDown,ArrowLeft"":8,""ArrowDown,ArrowRight"":30}","true","ArrowUp,ArrowLeft","","original","1","","","",""
"html-keyboard-response","276","1251769","0.0-4.0-10.0-1.1","spark_pilot_norest","8359","3","19","Male","","","","","","","null","<div style=""font-size:60px;"">+</div>","null","fixation","","","","","","","","","","","",""
"revaluation","277","1252315","0.0-4.0-10.0-0.2","spark_pilot_norest","8359","3","19","Male","","false","","","","","[538.4000000357628]","./assets/img/ocean/animals/octopus.jpg","[""ArrowLeft""]","second stage test","ocean","0","{""ArrowUp,ArrowLeft"":23,""ArrowUp,ArrowRight"":10,""ArrowDown,ArrowLeft"":8,""ArrowDown,ArrowRight"":30}","true","ArrowUp,ArrowLeft","","original","1","","","",""
"html-keyboard-response","278","1252820","0.0-4.0-10.0-1.2","spark_pilot_norest","8359","3","19","Male","","","","","","","null","<div style=""font-size:60px;"">+</div>","null","fixation","","","","","","","","","","","",""
"revaluation","279","1253681","0.0-4.0-10.0-0.3","spark_pilot_norest","8359","3","19","Male","","false","","","","","[854.0999999642372]","./assets/img/ocean/animals/octopus.jpg","[""ArrowLeft""]","second stage test","ocean","0","{""ArrowUp,ArrowLeft"":23,""ArrowUp,ArrowRight"":10,""ArrowDown,ArrowLeft"":8,""ArrowDown,ArrowRight"":30}","true","ArrowUp,ArrowLeft","","original","1","","","",""
"html-keyboard-response","280","1254190","0.0-4.0-10.0-1.3","spark_pilot_norest","8359","3","19","Male","","","","","","","null","<div style=""font-size:60px;"">+</div>","null","fixation","","","","","","","","","","","",""
"revaluation","281","1255095","0.0-4.0-10.0-0.4","spark_pilot_norest","8359","3","19","Male","","false","","","","","[899.5999999642372]","./assets/img/ocean/animals/seahorse.jpg","[""ArrowRight""]","second stage test","ocean","0","{""ArrowUp,ArrowLeft"":23,""ArrowUp,ArrowRight"":10,""ArrowDown,ArrowLeft"":8,""ArrowDown,ArrowRight"":30}","true","ArrowDown,ArrowRight","","original","1","","","",""
"html-keyboard-response","282","1255603","0.0-4.0-10.0-1.4","spark_pilot_norest","8359","3","19","Male","","","","","","","null","<div style=""font-size:60px;"">+</div>","null","fixation","","","","","","","","","","","",""
"revaluation","283","1256590","0.0-4.0-10.0-0.5","spark_pilot_norest","8359","3","19","Male","","false","","","","","[978.4000000357628]","./assets/img/ocean/animals/seahorse.jpg","[""ArrowRight""]","second stage test","ocean","0","{""ArrowUp,ArrowLeft"":23,""ArrowUp,ArrowRight"":10,""ArrowDown,ArrowLeft"":8,""ArrowDown,ArrowRight"":30}","true","ArrowDown,ArrowRight","","original","1","","","",""
"html-keyboard-response","284","1257101","0.0-4.0-10.0-1.5","spark_pilot_norest","8359","3","19","Male","","","","","","","null","<div style=""font-size:60px;"">+</div>","null","fixation","","","","","","","","","","","",""
"revaluation","285","1257709","0.0-4.0-10.0-0.6","spark_pilot_norest","8359","3","19","Male","","false","","","","","[599]","./assets/img/ocean/animals/seahorse.jpg","[""ArrowRight""]","second stage test","ocean","0","{""ArrowUp,ArrowLeft"":23,""ArrowUp,ArrowRight"":10,""ArrowDown,ArrowLeft"":8,""ArrowDown,ArrowRight"":30}","true","ArrowDown,ArrowRight","","original","1","","","",""
"html-keyboard-response","286","1258214","0.0-4.0-10.0-1.6","spark_pilot_norest","8359","3","19","Male","","","","","","","null","<div style=""font-size:60px;"">+</div>","null","fixation","","","","","","","","","","","",""
"revaluation","287","1258576","0.0-4.0-10.0-0.7","spark_pilot_norest","8359","3","19","Male","","false","","","","","[356.89999997615814]","./assets/img/ocean/animals/seahorse.jpg","[""ArrowRight""]","second stage test","ocean","0","{""ArrowUp,ArrowLeft"":23,""ArrowUp,ArrowRight"":10,""ArrowDown,ArrowLeft"":8,""ArrowDown,ArrowRight"":30}","true","ArrowDown,ArrowRight","","original","1","","","",""
"html-keyboard-response","288","1259084","0.0-4.0-10.0-1.7","spark_pilot_norest","8359","3","19","Male","","","","","","","null","<div style=""font-size:60px;"">+</div>","null","fixation","","","","","","","","","","","",""
"learning-instructions","289","1264791","0.0-4.0-0.1-0.2","spark_pilot_norest","8359","3","19","Male","","","","","","","2924.899999976158","<p> This time you are searching for treasure in the <b>canyon</b>.</p>","","instructions","","","","","","","","","","","",""
"learning-instructions","290","1330040","0.0-4.0-0.1-0.3","spark_pilot_norest","8359","3","19","Male","","","","","","","47997","<p><b>New</b> animals with <b>new</b> treasure chests live here. You need to explore to discover where the animal with the best treasure chest is.</p>
                    <p> Like before, once you figure out which animal has the chest with the most treasure, you should try to get to that animal and select that chest! </p>","","instructions","","","","","","","","","","","",""
"learning-instructions","291","1345907","0.0-4.0-1.1-0.1","spark_pilot_norest","8359","3","19","Male","","","","","","","1099.199999988079","<p> Remember, when you see a picture of the place, use the up and down keys to <b>find an animal</b>.</p>
            <p> When you encounter an animal, you should use the left and right keys to <b>select a treasure chest</b>.</p>
            <p> Don't forget to look out for the robber! </p>","","instructions","","","","","","","","","","","",""
"revaluation","292","1351932","0.0-4.0-2.1-0.50","spark_pilot_norest","8359","3","19","Male","","false","","","","","[898,326.39999997615814]","./assets/img/canyon/memory/37.jpg","[""ArrowUp"",""ArrowLeft""]","value training","canyon","26","{""ArrowUp,ArrowLeft"":26,""ArrowUp,ArrowRight"":10,""ArrowDown,ArrowLeft"":5,""ArrowDown,ArrowRight"":17}","true","ArrowUp,ArrowLeft","false","revaluation","2","0","","",""
"html-keyboard-response","293","1352444","0.0-4.0-2.1-1.50","spark_pilot_norest","8359","3","19","Male","","","","","","","null","<div style=""font-size:60px;"">+</div>","null","fixation","","","","","","","","","1","","",""
"revaluation","294","1358481","0.0-4.0-2.1-0.51","spark_pilot_norest","8359","3","19","Male","","false","","","","","[956,572]","./assets/img/canyon/memory/6.jpg","[""ArrowDown"",""ArrowLeft""]","value training","canyon","5","{""ArrowUp,ArrowLeft"":26,""ArrowUp,ArrowRight"":10,""ArrowDown,ArrowLeft"":5,""ArrowDown,ArrowRight"":17}","false","ArrowDown,ArrowLeft","false","revaluation","2","2","","",""
"html-keyboard-response","295","1358985","0.0-4.0-2.1-1.51","spark_pilot_norest","8359","3","19","Male","","","","","","","null","<div style=""font-size:60px;"">+</div>","null","fixation","","","","","","","","","3","","",""
"revaluation","296","1365025","0.0-4.0-2.1-0.52","spark_pilot_norest","8359","3","19","Male","","false","","","","","[504.30000001192093,377.69999998807907]","./assets/img/canyon/memory/7.jpg","[""ArrowDown"",""ArrowRight""]","value training","canyon","17","{""ArrowUp,ArrowLeft"":26,""ArrowUp,ArrowRight"":10,""ArrowDown,ArrowLeft"":5,""ArrowDown,ArrowRight"":17}","false","ArrowDown,ArrowRight","false","revaluation","2","4","","",""
"html-keyboard-response","297","1365532","0.0-4.0-2.1-1.52","spark_pilot_norest","8359","3","19","Male","","","","","","","null","<div style=""font-size:60px;"">+</div>","null","fixation","","","","","","","","","5","","",""
"revaluation","298","1371564","0.0-4.0-2.1-0.53","spark_pilot_norest","8359","3","19","Male","","false","","","","","[357.30000001192093,284.30000001192093]","./assets/img/canyon/memory/1.jpg","[""ArrowUp"",""ArrowRight""]","value training","canyon","10","{""ArrowUp,ArrowLeft"":26,""ArrowUp,ArrowRight"":10,""ArrowDown,ArrowLeft"":5,""ArrowDown,ArrowRight"":17}","false","ArrowUp,ArrowRight","false","revaluation","2","6","","",""
"html-keyboard-response","299","1372077","0.0-4.0-2.1-1.53","spark_pilot_norest","8359","3","19","Male","","","","","","","null","<div style=""font-size:60px;"">+</div>","null","fixation","","","","","","","","","7","","",""
"revaluation","300","1378107","0.0-4.0-2.1-0.54","spark_pilot_norest","8359","3","19","Male","","false","","","","","[496.5,341.60000002384186]","./assets/img/canyon/memory/10.jpg","[""ArrowUp"",""ArrowLeft""]","value training","canyon","26","{""ArrowUp,ArrowLeft"":26,""ArrowUp,ArrowRight"":10,""ArrowDown,ArrowLeft"":5,""ArrowDown,ArrowRight"":17}","true","ArrowUp,ArrowLeft","false","revaluation","2","8","","",""
"html-keyboard-response","301","1378620","0.0-4.0-2.1-1.54","spark_pilot_norest","8359","3","19","Male","","","","","","","null","<div style=""font-size:60px;"">+</div>","null","fixation","","","","","","","","","9","","",""
"revaluation","302","1384652","0.0-4.0-2.1-0.55","spark_pilot_norest","8359","3","19","Male","","false","","","","","[434.2000000476837,379]","./assets/img/canyon/memory/9.jpg","[""ArrowUp"",""ArrowLeft""]","value training","canyon","26","{""ArrowUp,ArrowLeft"":26,""ArrowUp,ArrowRight"":10,""ArrowDown,ArrowLeft"":5,""ArrowDown,ArrowRight"":17}","true","ArrowUp,ArrowLeft","false","revaluation","2","10","","",""
"html-keyboard-response","303","1385162","0.0-4.0-2.1-1.55","spark_pilot_norest","8359","3","19","Male","","","","","","","null","<div style=""font-size:60px;"">+</div>","null","fixation","","","","","","","","","11","","",""
"revaluation","304","1391191","0.0-4.0-2.1-0.56","spark_pilot_norest","8359","3","19","Male","","false","","","","","[550.1000000238419,314.5]","./assets/img/canyon/memory/15.jpg","[""ArrowUp"",""ArrowLeft""]","value training","canyon","26","{""ArrowUp,ArrowLeft"":26,""ArrowUp,ArrowRight"":10,""ArrowDown,ArrowLeft"":5,""ArrowDown,ArrowRight"":17}","true","ArrowUp,ArrowLeft","false","revaluation","2","12","","",""
"html-keyboard-response","305","1391698","0.0-4.0-2.1-1.56","spark_pilot_norest","8359","3","19","Male","","","","","","","null","<div style=""font-size:60px;"">+</div>","null","fixation","","","","","","","","","13","","",""
"revaluation","306","1397722","0.0-4.0-2.1-0.57","spark_pilot_norest","8359","3","19","Male","","false","","","","","[564.6999999880791,477.89999997615814]","./assets/img/canyon/memory/20.jpg","[""ArrowUp"",""ArrowLeft""]","value training","canyon","26","{""ArrowUp,ArrowLeft"":26,""ArrowUp,ArrowRight"":10,""ArrowDown,ArrowLeft"":5,""ArrowDown,ArrowRight"":17}","true","ArrowUp,ArrowLeft","false","revaluation","2","14","","",""
"html-keyboard-response","307","1398235","0.0-4.0-2.1-1.57","spark_pilot_norest","8359","3","19","Male","","","","","","","null","<div style=""font-size:60px;"">+</div>","null","fixation","","","","","","","","","15","","",""
"revaluation","308","1404265","0.0-4.0-2.1-0.58","spark_pilot_norest","8359","3","19","Male","","false","","","","","[410.10000002384186,553.5]","./assets/img/canyon/memory/35.jpg","[""ArrowUp"",""ArrowLeft""]","value training","canyon","26","{""ArrowUp,ArrowLeft"":26,""ArrowUp,ArrowRight"":10,""ArrowDown,ArrowLeft"":5,""ArrowDown,ArrowRight"":17}","true","ArrowUp,ArrowLeft","false","revaluation","2","16","","",""
"html-keyboard-response","309","1404770","0.0-4.0-2.1-1.58","spark_pilot_norest","8359","3","19","Male","","","","","","","null","<div style=""font-size:60px;"">+</div>","null","fixation","","","","","","","","","17","","",""
"revaluation","310","1410798","0.0-4.0-2.1-0.59","spark_pilot_norest","8359","3","19","Male","","false","","","","","[469.7999999523163,422.30000001192093]","./assets/img/canyon/memory/36.jpg","[""ArrowUp"",""ArrowLeft""]","value training","canyon","26","{""ArrowUp,ArrowLeft"":26,""ArrowUp,ArrowRight"":10,""ArrowDown,ArrowLeft"":5,""ArrowDown,ArrowRight"":17}","true","ArrowUp,ArrowLeft","false","revaluation","2","18","","",""
"html-keyboard-response","311","1411306","0.0-4.0-2.1-1.59","spark_pilot_norest","8359","3","19","Male","","","","","","","null","<div style=""font-size:60px;"">+</div>","null","fixation","","","","","","","","","19","","",""
"revaluation","312","1417331","0.0-4.0-2.1-0.60","spark_pilot_norest","8359","3","19","Male","","false","","","","","[445.69999998807907,451.0999999642372]","./assets/img/canyon/memory/21.jpg","[""ArrowUp"",""ArrowLeft""]","value training","canyon","26","{""ArrowUp,ArrowLeft"":26,""ArrowUp,ArrowRight"":10,""ArrowDown,ArrowLeft"":5,""ArrowDown,ArrowRight"":17}","true","ArrowUp,ArrowLeft","false","revaluation","2","20","","",""
"html-keyboard-response","313","1417847","0.0-4.0-2.1-1.60","spark_pilot_norest","8359","3","19","Male","","","","","","","null","<div style=""font-size:60px;"">+</div>","null","fixation","","","","","","","","","21","","",""
