"trial_type","trial_index","time_elapsed","internal_node_id","task_version","subject_id","assigned_condition","age","gender","browser_interaction","success","timeout","failed_images","failed_audio","failed_video","rt","stimulus","response","task_part","environment","score","rewardMap","correct","fullState","isCatch","condition","order","trial_num","key_press","ground_truth","bonus"
"pavlovia","0","6590","0.0-0.0","spark_pilot_norest","8180","7","13","Male","[{""event"":""blur"",""trial"":1,""time"":25308},{""event"":""focus"",""trial"":2,""time"":35814},{""event"":""fullscreenenter"",""trial"":2,""time"":35988}]","","","","","","","","","","","","","","","","","","","","",""
"preload","1","28416","0.0-1.0","spark_pilot_norest","8180","7","13","Male","[{""event"":""blur"",""trial"":1,""time"":25308},{""event"":""focus"",""trial"":2,""time"":35814},{""event"":""fullscreenenter"",""trial"":2,""time"":35988}]","true","false","[]","[]","[]","","","","","","","","","","","","","","","",""
"fullscreen","2","36990","0.0-2.0","spark_pilot_norest","8180","7","13","Male","","true","","","","","","","","","","","","","","","","","","","",""
"audio-button-response","3","38679","0.0-3.0-0.0-0.0","spark_pilot_norest","8180","7","13","Male","","","","","","","1581","./assets/audio/audiotest/turtle.mp3","2","audio_test","","","","","","","","","","","",""
"learning-instructions","4","48799","0.0-3.0-1.0-0.0","spark_pilot_norest","8180","7","13","Male","","","","","","","3159.2000000476837","<p> Welcome! Please remember to stay in fullscreen mode and don't click away from the experiment. </p>","","instructions","","","","","","","","","","","",""
"learning-instructions","5","58749","0.0-3.0-1.0-0.1","spark_pilot_norest","8180","7","13","Male","","","","","","","1549.6000001430511","<p> Today you will be playing a game to earn treasure. </p>
            <p> At the end of the experiment, you will earn a bonus based on how much treasure you find. </p>
            <img src='./assets/img/instructions/treasure.jpg' class='instructions-image'>","","instructions","","","","","","","","","","","",""
"learning-instructions","6","68131","0.0-3.0-1.0-0.2","spark_pilot_norest","8180","7","13","Male","","","","","","","1131.5","<p> Animals have hidden treasure in treasure chests. </p>
            <p> You need to first find an animal and then choose which of their treasure chests to search. </p>
            <img src='./assets/img/space/animals/cat.jpg' class='instructions-image'>","","instructions","","","","","","","","","","","",""
"learning-instructions","7","82445","0.0-3.0-1.0-0.3","spark_pilot_norest","8180","7","13","Male","","","","","","","1176.4000000953674","<p> In each round, you will search for treasure in a different place. In the real game, there will be two rounds. </p>
            <p> You will begin with a separate, practice round where you will search for treasure in outer space. </p>
            <img src='./assets/img/space/0.jpg' class='instructions-image'>","","instructions","","","","","","","","","","","",""
"learning-instructions","8","96999","0.0-3.0-1.0-0.4","spark_pilot_norest","8180","7","13","Male","","","","","","","3139.7999999523163","<p> On every turn, you will see a picture of the place that you are in, but the specific image may be different each time. </p>
            <p> For example, both of these images mean you are in outer space. </p>
            <img src='./assets/img/instructions/outerspace.jpg' class='instructions-image'>","","instructions","","","","","","","","","","","",""
"learning-instructions","9","105503","0.0-3.0-1.0-0.5","spark_pilot_norest","8180","7","13","Male","","","","","","","684.2000000476837","<p> You need to decide which direction to travel in. </p>
            <p> You can choose between going <b>up or down</b> by using the arrow keys. </p>
            <img src='./assets/img/instructions/updown.jpg' class='instructions-image'>","","instructions","","","","","","","","","","","",""
"learning-instructions","10","116215","0.0-3.0-1.0-0.6","spark_pilot_norest","8180","7","13","Male","","","","","","","1906.2000000476837","<p> You will have <b>2 seconds</b> to make your choice. </p>
            <p> If you do not make a choice within 2 seconds, you will not find an animal or earn treasure. </p>
            <img src='./assets/img/instructions/2seconds.jpg' class='instructions-image'>","","instructions","","","","","","","","","","","",""
"learning-instructions","11","124493","0.0-3.0-1.0-0.7","spark_pilot_norest","8180","7","13","Male","","","","","","","1254","<p> Let’s try practicing that now! </p>
            <p> When you see a picture of the place you are in, press the <b>up</b> key to travel up. </p>
            <img src='./assets/img/instructions/pressUp.jpg' class='instructions-image'>","","instructions","","","","","","","","","","","",""
"revaluation","12","128525","0.0-3.0-2.0-0.0","spark_pilot_norest","8180","7","13","Male","","","false","","","","[640.2999999523163]","./assets/img/space/0.jpg","[""ArrowUp""]","first stage practice","space","0","null","null","ArrowUp","false","","","","","",""
"html-keyboard-response","13","129028","0.0-3.0-2.0-1.0","spark_pilot_norest","8180","7","13","Male","","","","","","","null","<div style=""font-size:60px;"">+</div>","null","fixation","","","","","","","","","","","",""
"revaluation","14","133054","0.0-3.0-2.0-0.1","spark_pilot_norest","8180","7","13","Male","","","false","","","","[917.9000000953674]","./assets/img/space/1.jpg","[""ArrowUp""]","first stage practice","space","0","null","null","ArrowUp","false","","","","","",""
"html-keyboard-response","15","133566","0.0-3.0-2.0-1.1","spark_pilot_norest","8180","7","13","Male","","","","","","","null","<div style=""font-size:60px;"">+</div>","null","fixation","","","","","","","","","","","",""
"revaluation","16","137581","0.0-3.0-2.0-0.2","spark_pilot_norest","8180","7","13","Male","","","false","","","","[757]","./assets/img/space/2.jpg","[""ArrowUp""]","first stage practice","space","0","null","null","ArrowUp","false","","","","","",""
"html-keyboard-response","17","138094","0.0-3.0-2.0-1.2","spark_pilot_norest","8180","7","13","Male","","","","","","","null","<div style=""font-size:60px;"">+</div>","null","fixation","","","","","","","","","","","",""
"learning-instructions","18","145936","0.0-3.0-3.0-0.0","spark_pilot_norest","8180","7","13","Male","","","","","","","3156.5999999046326","<p> Great job! Now try pressing the <b>down</b> key to travel down. </p>
            <img src='./assets/img/instructions/pressDown.jpg' class='instructions-image'>","","instructions","","","","","","","","","","","",""
"revaluation","19","149938","0.0-3.0-4.0-0.0","spark_pilot_norest","8180","7","13","Male","","","false","","","","[675.1000001430511]","./assets/img/space/3.jpg","[""ArrowDown""]","first stage practice","space","0","null","null","ArrowDown","false","","","","","",""
"html-keyboard-response","20","150443","0.0-3.0-4.0-1.0","spark_pilot_norest","8180","7","13","Male","","","","","","","null","<div style=""font-size:60px;"">+</div>","null","fixation","","","","","","","","","","","",""
"revaluation","21","154457","0.0-3.0-4.0-0.1","spark_pilot_norest","8180","7","13","Male","","","false","","","","[399.39999985694885]","./assets/img/space/4.jpg","[""ArrowDown""]","first stage practice","space","0","null","null","ArrowDown","false","","","","","",""
"html-keyboard-response","22","154969","0.0-3.0-4.0-1.1","spark_pilot_norest","8180","7","13","Male","","","","","","","null","<div style=""font-size:60px;"">+</div>","null","fixation","","","","","","","","","","","",""
"revaluation","23","158983","0.0-3.0-4.0-0.2","spark_pilot_norest","8180","7","13","Male","","","false","","","","[922]","./assets/img/space/5.jpg","[""ArrowDown""]","first stage practice","space","0","null","null","ArrowDown","false","","","","","",""
"html-keyboard-response","24","159495","0.0-3.0-4.0-1.2","spark_pilot_norest","8180","7","13","Male","","","","","","","null","<div style=""font-size:60px;"">+</div>","null","fixation","","","","","","","","","","","",""
"learning-instructions","25","172589","0.0-3.0-5.0-0.0","spark_pilot_norest","8180","7","13","Male","","","","","","","3249.9000000953674","<p> The animals don’t move, so the animal in the upper part of a place will stay in the upper part of a place, and the animal in the lower part of a place will stay in the lower part of a place. </p>","","instructions","","","","","","","","","","","",""
"learning-instructions","26","182563","0.0-3.0-5.0-0.1","spark_pilot_norest","8180","7","13","Male","","","","","","","854","<p> Each animal has two treasure chests for you to choose from. </p>
            <p> The amount of treasure in each chest can range from <b> 0 to 40 pieces.</b></p>","","instructions","","","","","","","","","","","",""
"learning-instructions","27","194819","0.0-3.0-5.0-0.2","spark_pilot_norest","8180","7","13","Male","","","","","","","1080.5999999046326","<p> You should decide which chest to search for treasure by using the <b>left</b> and <b>right</b> arrow keys. </p>
            <p><b> Pay attention to which animal is on the screen, as the animals have different treasure chests. </b></p>
            <img src='./assets/img/instructions/leftright.jpg' class='instructions-image'>","","instructions","","","","","","","","","","","",""
"learning-instructions","28","201987","0.0-3.0-5.0-0.3","spark_pilot_norest","8180","7","13","Male","","","","","","","807.8999998569489","<p> Let’s try practicing that now. </p>
            <p> When you see an animal, choose which chest to search for treasure. </p>
            <img src='./assets/img/instructions/chooseChest.jpg' class='instructions-image'>","","instructions","","","","","","","","","","","",""
"revaluation","29","206000","0.0-3.0-6.0-0.0","spark_pilot_norest","8180","7","13","Male","","","false","","","","[951.6999998092651]","./assets/img/space/animals/cat.jpg","[""ArrowRight""]","second stage practice","space","36","{""ArrowUp,ArrowLeft"":3,""ArrowUp,ArrowRight"":36,""ArrowDown,ArrowLeft"":15,""ArrowDown,ArrowRight"":23}","true","ArrowUp,ArrowRight","","","","","","",""
"html-keyboard-response","30","206515","0.0-3.0-6.0-1.0","spark_pilot_norest","8180","7","13","Male","","","","","","","null","<div style=""font-size:60px;"">+</div>","null","fixation","","","","","","","","","","","",""
"revaluation","31","210532","0.0-3.0-6.0-0.1","spark_pilot_norest","8180","7","13","Male","","","false","","","","[760.5]","./assets/img/space/animals/rabbit.jpg","[""ArrowRight""]","second stage practice","space","23","{""ArrowUp,ArrowLeft"":3,""ArrowUp,ArrowRight"":36,""ArrowDown,ArrowLeft"":15,""ArrowDown,ArrowRight"":23}","true","ArrowDown,ArrowRight","","","","","","",""
"html-keyboard-response","32","211033","0.0-3.0-6.0-1.1","spark_pilot_norest","8180","7","13","Male","","","","","","","null","<div style=""font-size:60px;"">+</div>","null","fixation","","","","","","","","","","","",""
"revaluation","33","215050","0.0-3.0-6.0-0.2","spark_pilot_norest","8180","7","13","Male","","","false","","","","[433.39999985694885]","./assets/img/space/animals/cat.jpg","[""ArrowLeft""]","second stage practice","space","3","{""ArrowUp,ArrowLeft"":3,""ArrowUp,ArrowRight"":36,""ArrowDown,ArrowLeft"":15,""ArrowDown,ArrowRight"":23}","false","ArrowUp,ArrowLeft","","","","","","",""
"html-keyboard-response","34","215558","0.0-3.0-6.0-1.2","spark_pilot_norest","8180","7","13","Male","","","","","","","null","<div style=""font-size:60px;"">+</div>","null","fixation","","","","","","","","","","","",""
"revaluation","35","219572","0.0-3.0-6.0-0.3","spark_pilot_norest","8180","7","13","Male","","","false","","","","[500.59999990463257]","./assets/img/space/animals/rabbit.jpg","[""ArrowLeft""]","second stage practice","space","15","{""ArrowUp,ArrowLeft"":3,""ArrowUp,ArrowRight"":36,""ArrowDown,ArrowLeft"":15,""ArrowDown,ArrowRight"":23}","false","ArrowDown,ArrowLeft","","","","","","",""
"html-keyboard-response","36","220080","0.0-3.0-6.0-1.3","spark_pilot_norest","8180","7","13","Male","","","","","","","null","<div style=""font-size:60px;"">+</div>","null","fixation","","","","","","","","","","","",""
"learning-instructions","37","237899","0.0-3.0-7.0-0.0","spark_pilot_norest","8180","7","13","Male","","","","","","","1020.5","<p> Great job. Now let’s try putting it together. </p>
            <p> On each turn, you will first see a picture to remind you of the place you are in, and you need to choose whether to go up or down. </p>
            <p> Then you will see an animal and choose which of its chests to search for treasure. </p>","","instructions","","","","","","","","","","","",""
"learning-instructions","38","247173","0.0-3.0-7.0-0.1","spark_pilot_norest","8180","7","13","Male","","","","","","","1023.9000000953674","<p> When you choose whether to go up or down, try to go to the animal with the chest with the most treasure. </p>
            <p> Try practicing that now! </p>","","instructions","","","","","","","","","","","",""
"revaluation","39","253207","0.0-3.0-8.0-0.0","spark_pilot_norest","8180","7","13","Male","","","false","","","","[1517.8000001907349,555.7999999523163]","./assets/img/space/6.jpg","[""ArrowUp"",""ArrowRight""]","full practice","space","36","{""ArrowUp,ArrowLeft"":3,""ArrowUp,ArrowRight"":36,""ArrowDown,ArrowLeft"":15,""ArrowDown,ArrowRight"":23}","true","ArrowUp,ArrowRight","false","","","","","",""
"html-keyboard-response","40","253722","0.0-3.0-8.0-1.0","spark_pilot_norest","8180","7","13","Male","","","","","","","null","<div style=""font-size:60px;"">+</div>","null","fixation","","","","","","","","","","","",""
"revaluation","41","259750","0.0-3.0-8.0-0.1","spark_pilot_norest","8180","7","13","Male","","","false","","","","[320.2000000476837,439.2999999523163]","./assets/img/space/7.jpg","[""ArrowDown"",""ArrowRight""]","full practice","space","23","{""ArrowUp,ArrowLeft"":3,""ArrowUp,ArrowRight"":36,""ArrowDown,ArrowLeft"":15,""ArrowDown,ArrowRight"":23}","false","ArrowDown,ArrowRight","false","","","","","",""
"html-keyboard-response","42","260252","0.0-3.0-8.0-1.1","spark_pilot_norest","8180","7","13","Male","","","","","","","null","<div style=""font-size:60px;"">+</div>","null","fixation","","","","","","","","","","","",""
"revaluation","43","266284","0.0-3.0-8.0-0.2","spark_pilot_norest","8180","7","13","Male","","","false","","","","[182.59999990463257,417.2999999523163]","./assets/img/space/8.jpg","[""ArrowUp"",""ArrowRight""]","full practice","space","36","{""ArrowUp,ArrowLeft"":3,""ArrowUp,ArrowRight"":36,""ArrowDown,ArrowLeft"":15,""ArrowDown,ArrowRight"":23}","true","ArrowUp,ArrowRight","false","","","","","",""
"html-keyboard-response","44","266793","0.0-3.0-8.0-1.2","spark_pilot_norest","8180","7","13","Male","","","","","","","null","<div style=""font-size:60px;"">+</div>","null","fixation","","","","","","","","","","","",""
"revaluation","45","272820","0.0-3.0-8.0-0.3","spark_pilot_norest","8180","7","13","Male","","","false","","","","[553.9000000953674,374.30000019073486]","./assets/img/space/9.jpg","[""ArrowUp"",""ArrowRight""]","full practice","space","36","{""ArrowUp,ArrowLeft"":3,""ArrowUp,ArrowRight"":36,""ArrowDown,ArrowLeft"":15,""ArrowDown,ArrowRight"":23}","true","ArrowUp,ArrowRight","false","","","","","",""
"html-keyboard-response","46","273334","0.0-3.0-8.0-1.3","spark_pilot_norest","8180","7","13","Male","","","","","","","null","<div style=""font-size:60px;"">+</div>","null","fixation","","","","","","","","","","","",""
"revaluation","47","279338","0.0-3.0-8.0-0.4","spark_pilot_norest","8180","7","13","Male","","","false","","","","[156,211.79999995231628]","./assets/img/space/10.jpg","[""ArrowUp"",""ArrowLeft""]","full practice","space","3","{""ArrowUp,ArrowLeft"":3,""ArrowUp,ArrowRight"":36,""ArrowDown,ArrowLeft"":15,""ArrowDown,ArrowRight"":23}","false","ArrowUp,ArrowLeft","false","","","","","",""
"html-keyboard-response","48","279840","0.0-3.0-8.0-1.4","spark_pilot_norest","8180","7","13","Male","","","","","","","null","<div style=""font-size:60px;"">+</div>","null","fixation","","","","","","","","","","","",""
"learning-instructions","49","294031","0.0-3.0-9.0-0.0","spark_pilot_norest","8180","7","13","Male","","","","","","","3903.0999999046326","<p> One last thing: sometimes, you will see a robber. The robber can be anywhere in the picture. </p>
            <p> If you do not stop them, you will lose treasure. </p>
            <img src='./assets/img/instructions/robber.jpg' class='instructions-image'>","","instructions","","","","","","","","","","","",""
"learning-instructions","50","304235","0.0-3.0-9.0-0.1","spark_pilot_norest","8180","7","13","Male","","","","","","","3037","<p> If you see the robber, you should <b>press the space bar</b> rather than using the arrow keys. </p>
            <p> Try practicing that now! </p>","","instructions","","","","","","","","","","","",""
"revaluation","51","308244","0.0-3.0-10.0-0.0","spark_pilot_norest","8180","7","13","Male","","","false","","","","[1711.8999998569489]","./assets/img/space/catch/0.jpg","[""spaceBar""]","catch practice","space","0","{""ArrowUp,ArrowLeft"":3,""ArrowUp,ArrowRight"":36,""ArrowDown,ArrowLeft"":15,""ArrowDown,ArrowRight"":23}","true","spaceBar","true","","","","","",""
"html-keyboard-response","52","308744","0.0-3.0-10.0-1.0","spark_pilot_norest","8180","7","13","Male","","","","","","","null","<div style=""font-size:60px;"">+</div>","null","fixation","","","","","","","","","","","",""
"revaluation","53","312748","0.0-3.0-10.0-0.1","spark_pilot_norest","8180","7","13","Male","","","false","","","","[866.2000000476837]","./assets/img/space/catch/1.jpg","[""spaceBar""]","catch practice","space","0","{""ArrowUp,ArrowLeft"":3,""ArrowUp,ArrowRight"":36,""ArrowDown,ArrowLeft"":15,""ArrowDown,ArrowRight"":23}","true","spaceBar","true","","","","","",""
"html-keyboard-response","54","313249","0.0-3.0-10.0-1.1","spark_pilot_norest","8180","7","13","Male","","","","","","","null","<div style=""font-size:60px;"">+</div>","null","fixation","","","","","","","","","","","",""
"revaluation","55","317275","0.0-3.0-10.0-0.2","spark_pilot_norest","8180","7","13","Male","","","false","","","","[929.3999998569489]","./assets/img/space/catch/2.jpg","[""spaceBar""]","catch practice","space","0","{""ArrowUp,ArrowLeft"":3,""ArrowUp,ArrowRight"":36,""ArrowDown,ArrowLeft"":15,""ArrowDown,ArrowRight"":23}","true","spaceBar","true","","","","","",""
"html-keyboard-response","56","317778","0.0-3.0-10.0-1.2","spark_pilot_norest","8180","7","13","Male","","","","","","","null","<div style=""font-size:60px;"">+</div>","null","fixation","","","","","","","","","","","",""
"learning-instructions","57","326875","0.0-3.0-11.0-0.0-0.0","spark_pilot_norest","8180","7","13","Male","","","","","","","3856.7000000476837","<p> Now, you will practice a shortened version of the game to get a sense of how it all fits together. </p>","","instructions","","","","","","","","","","","",""
"learning-instructions","58","330759","0.0-3.0-11.0-0.0-0.1","spark_pilot_norest","8180","7","13","Male","","","","","","","710.7000000476837","<p>This time you are searching for treasure in outer space.</p>","","instructions","","","","","","","","","","","",""
"learning-instructions","59","346797","0.0-3.0-11.0-1.0-0.0","spark_pilot_norest","8180","7","13","Male","","","","","","","1279","<p> Remember, when you see a picture of the place, use the up and down keys to <b>find an animal</b>.</p>
            <p> When you encounter an animal, you should use the left and right keys to <b>select a treasure chest</b>.</p>
            <p> Don't forget to look out for the robber! </p>","","instructions","","","","","","","","","","","",""
"revaluation","60","350808","0.0-3.0-11.0-2.0-0.0","spark_pilot_norest","8180","7","13","Male","","","true","","","","[]","./assets/img/space/11.jpg","[]","practice block","space","-5","{""ArrowUp,ArrowLeft"":3,""ArrowUp,ArrowRight"":36,""ArrowDown,ArrowLeft"":15,""ArrowDown,ArrowRight"":23}","false","","false","","","","","",""
"html-keyboard-response","61","351322","0.0-3.0-11.0-2.0-1.0","spark_pilot_norest","8180","7","13","Male","","","","","","","null","<div style=""font-size:60px;"">+</div>","null","fixation","","","","","","","","","","","",""
"revaluation","62","357348","0.0-3.0-11.0-2.0-0.1","spark_pilot_norest","8180","7","13","Male","","","false","","","","[929.2000000476837,132.09999990463257]","./assets/img/space/12.jpg","[""ArrowUp"",""ArrowRight""]","practice block","space","36","{""ArrowUp,ArrowLeft"":3,""ArrowUp,ArrowRight"":36,""ArrowDown,ArrowLeft"":15,""ArrowDown,ArrowRight"":23}","true","ArrowUp,ArrowRight","false","","","","","",""
"html-keyboard-response","63","357864","0.0-3.0-11.0-2.0-1.1","spark_pilot_norest","8180","7","13","Male","","","","","","","null","<div style=""font-size:60px;"">+</div>","null","fixation","","","","","","","","","","","",""
"revaluation","64","363893","0.0-3.0-11.0-2.0-0.2","spark_pilot_norest","8180","7","13","Male","","","false","","","","[787.4000000953674,66.20000004768372]","./assets/img/space/13.jpg","[""ArrowUp"",""ArrowRight""]","practice block","space","36","{""ArrowUp,ArrowLeft"":3,""ArrowUp,ArrowRight"":36,""ArrowDown,ArrowLeft"":15,""ArrowDown,ArrowRight"":23}","true","ArrowUp,ArrowRight","false","","","","","",""
"html-keyboard-response","65","364406","0.0-3.0-11.0-2.0-1.2","spark_pilot_norest","8180","7","13","Male","","","","","","","null","<div style=""font-size:60px;"">+</div>","null","fixation","","","","","","","","","","","",""
"revaluation","66","370422","0.0-3.0-11.0-2.0-0.3","spark_pilot_norest","8180","7","13","Male","","","false","","","","[757,57.09999990463257]","./assets/img/space/14.jpg","[""ArrowUp"",""ArrowRight""]","practice block","space","36","{""ArrowUp,ArrowLeft"":3,""ArrowUp,ArrowRight"":36,""ArrowDown,ArrowLeft"":15,""ArrowDown,ArrowRight"":23}","true","ArrowUp,ArrowRight","false","","","","","",""
"html-keyboard-response","67","370925","0.0-3.0-11.0-2.0-1.3","spark_pilot_norest","8180","7","13","Male","","","","","","","null","<div style=""font-size:60px;"">+</div>","null","fixation","","","","","","","","","","","",""
"revaluation","68","376950","0.0-3.0-11.0-2.0-0.4","spark_pilot_norest","8180","7","13","Male","","","false","","","","[949.8000001907349,70.5]","./assets/img/space/11.jpg","[""ArrowUp"",""ArrowRight""]","practice block","space","36","{""ArrowUp,ArrowLeft"":3,""ArrowUp,ArrowRight"":36,""ArrowDown,ArrowLeft"":15,""ArrowDown,ArrowRight"":23}","true","ArrowUp,ArrowRight","false","","","","","",""
"html-keyboard-response","69","377451","0.0-3.0-11.0-2.0-1.4","spark_pilot_norest","8180","7","13","Male","","","","","","","null","<div style=""font-size:60px;"">+</div>","null","fixation","","","","","","","","","","","",""
"revaluation","70","383457","0.0-3.0-11.0-2.0-0.5","spark_pilot_norest","8180","7","13","Male","","","false","","","","[958.9000000953674,534.7999999523163]","./assets/img/space/12.jpg","[""ArrowUp"",""ArrowRight""]","practice block","space","36","{""ArrowUp,ArrowLeft"":3,""ArrowUp,ArrowRight"":36,""ArrowDown,ArrowLeft"":15,""ArrowDown,ArrowRight"":23}","true","ArrowUp,ArrowRight","false","","","","","",""
"html-keyboard-response","71","383972","0.0-3.0-11.0-2.0-1.5","spark_pilot_norest","8180","7","13","Male","","","","","","","null","<div style=""font-size:60px;"">+</div>","null","fixation","","","","","","","","","","","",""
"revaluation","72","389977","0.0-3.0-11.0-2.0-0.6","spark_pilot_norest","8180","7","13","Male","","","false","","","","[991,1382.2999999523163]","./assets/img/space/13.jpg","[""ArrowUp"",""ArrowRight""]","practice block","space","36","{""ArrowUp,ArrowLeft"":3,""ArrowUp,ArrowRight"":36,""ArrowDown,ArrowLeft"":15,""ArrowDown,ArrowRight"":23}","true","ArrowUp,ArrowRight","false","","","","","",""
"html-keyboard-response","73","390484","0.0-3.0-11.0-2.0-1.6","spark_pilot_norest","8180","7","13","Male","","","","","","","null","<div style=""font-size:60px;"">+</div>","null","fixation","","","","","","","","","","","",""
"revaluation","74","396489","0.0-3.0-11.0-2.0-0.7","spark_pilot_norest","8180","7","13","Male","","","false","","","","[1166.2999999523163,1053.4000000953674]","./assets/img/space/14.jpg","[""ArrowUp"",""ArrowRight""]","practice block","space","36","{""ArrowUp,ArrowLeft"":3,""ArrowUp,ArrowRight"":36,""ArrowDown,ArrowLeft"":15,""ArrowDown,ArrowRight"":23}","true","ArrowUp,ArrowRight","false","","","","","",""
"html-keyboard-response","75","396990","0.0-3.0-11.0-2.0-1.7","spark_pilot_norest","8180","7","13","Male","","","","","","","null","<div style=""font-size:60px;"">+</div>","null","fixation","","","","","","","","","","","",""
"revaluation","76","400995","0.0-3.0-11.0-2.0-0.8","spark_pilot_norest","8180","7","13","Male","","","true","","","","[]","./assets/img/space/catch/3.jpg","[]","practice block","space","-5","{""ArrowUp,ArrowLeft"":3,""ArrowUp,ArrowRight"":36,""ArrowDown,ArrowLeft"":15,""ArrowDown,ArrowRight"":23}","false","","true","","","","","",""
"html-keyboard-response","77","401496","0.0-3.0-11.0-2.0-1.8","spark_pilot_norest","8180","7","13","Male","","","","","","","null","<div style=""font-size:60px;"">+</div>","null","fixation","","","","","","","","","","","",""
"learning-instructions","78","419639","0.0-3.0-11.0-3.0-0.0","spark_pilot_norest","8180","7","13","Male","","","","","","","4572.100000143051","<p> Now, you will travel with a friend who will choose whether you go up or down first. </p>
            <p> On these turns, you will just see the animal that they found. You will still get to choose which chest to search for treasure.</p>","","instructions","","","","","","","","","","","",""
"revaluation","79","423650","0.0-3.0-11.0-4.0-0.0","spark_pilot_norest","8180","7","13","Male","","","true","","","","[]","./assets/img/space/animals/cat.jpg","[]","practice block","space","-5","{""ArrowUp,ArrowLeft"":3,""ArrowUp,ArrowRight"":36,""ArrowDown,ArrowLeft"":15,""ArrowDown,ArrowRight"":23}","false","ArrowUp","","","","","","",""
"html-keyboard-response","80","424155","0.0-3.0-11.0-4.0-1.0","spark_pilot_norest","8180","7","13","Male","","","","","","","null","<div style=""font-size:60px;"">+</div>","null","fixation","","","","","","","","","","","",""
"revaluation","81","428168","0.0-3.0-11.0-4.0-0.1","spark_pilot_norest","8180","7","13","Male","","","false","","","","[478.2999999523163]","./assets/img/space/animals/cat.jpg","[""ArrowRight""]","practice block","space","36","{""ArrowUp,ArrowLeft"":3,""ArrowUp,ArrowRight"":36,""ArrowDown,ArrowLeft"":15,""ArrowDown,ArrowRight"":23}","true","ArrowUp,ArrowRight","","","","","","",""
"html-keyboard-response","82","428683","0.0-3.0-11.0-4.0-1.1","spark_pilot_norest","8180","7","13","Male","","","","","","","null","<div style=""font-size:60px;"">+</div>","null","fixation","","","","","","","","","","","",""
"revaluation","83","432706","0.0-3.0-11.0-4.0-0.2","spark_pilot_norest","8180","7","13","Male","","","false","","","","[656.5]","./assets/img/space/animals/rabbit.jpg","[""ArrowRight""]","practice block","space","23","{""ArrowUp,ArrowLeft"":3,""ArrowUp,ArrowRight"":36,""ArrowDown,ArrowLeft"":15,""ArrowDown,ArrowRight"":23}","true","ArrowDown,ArrowRight","","","","","","",""
"html-keyboard-response","84","433209","0.0-3.0-11.0-4.0-1.2","spark_pilot_norest","8180","7","13","Male","","","","","","","null","<div style=""font-size:60px;"">+</div>","null","fixation","","","","","","","","","","","",""
"revaluation","85","437233","0.0-3.0-11.0-4.0-0.3","spark_pilot_norest","8180","7","13","Male","","","false","","","","[377]","./assets/img/space/animals/rabbit.jpg","[""ArrowRight""]","practice block","space","23","{""ArrowUp,ArrowLeft"":3,""ArrowUp,ArrowRight"":36,""ArrowDown,ArrowLeft"":15,""ArrowDown,ArrowRight"":23}","true","ArrowDown,ArrowRight","","","","","","",""
"html-keyboard-response","86","437748","0.0-3.0-11.0-4.0-1.3","spark_pilot_norest","8180","7","13","Male","","","","","","","null","<div style=""font-size:60px;"">+</div>","null","fixation","","","","","","","","","","","",""
"learning-instructions","87","445873","0.0-3.0-11.0-5.0-0.0","spark_pilot_norest","8180","7","13","Male","","","","","","","null","<p> You have almost finished this part of the game! </p>
            <p> We are going to ask you to make a few more choices. </p>","","instructions","","","","","","","","","","","",""
"learning-instructions","88","461867","0.0-3.0-11.0-5.0-0.1","spark_pilot_norest","8180","7","13","Male","","","","","","","null","<p> First, you need to decide whether to go up or down. When you see each picture, use the arrow keys to make your choice. </p>
            <p><b>You will not see which animal you found, but try to get to the one that will give you the most treasure.</b></p>","","instructions","","","","","","","","","","","",""
"html-keyboard-response","89","462868","0.0-3.0-11.0-6.0-0.0","spark_pilot_norest","8180","7","13","Male","","","","","","","null","<div style=""font-size:100px;color:red;"">Starting in...</div>","null","","","","","","","","","","","","",""
"html-keyboard-response","90","463869","0.0-3.0-11.0-6.0-1.0","spark_pilot_norest","8180","7","13","Male","","","","","","","null","<div style=""font-size:200px;color:red;"">3</div>","null","","","","","","","","","","","","",""
"html-keyboard-response","91","464869","0.0-3.0-11.0-6.0-2.0","spark_pilot_norest","8180","7","13","Male","","","","","","","null","<div style=""font-size:200px;color:red;"">2</div>","null","","","","","","","","","","","","",""
"html-keyboard-response","92","465879","0.0-3.0-11.0-6.0-3.0","spark_pilot_norest","8180","7","13","Male","","","","","","","null","<div style=""font-size:200px;color:red;"">1</div>","null","","","","","","","","","","","","",""
"revaluation","93","465972","0.0-3.0-11.0-7.0","spark_pilot_norest","8180","7","13","Male","","","false","","","","[91.79999995231628]","./assets/img/space/15.jpg","[""ArrowUp""]","practice block","space","0","{""ArrowUp,ArrowLeft"":3,""ArrowUp,ArrowRight"":36,""ArrowDown,ArrowLeft"":15,""ArrowDown,ArrowRight"":23}","true","ArrowUp","false","","","","","",""
"html-keyboard-response","94","466485","0.0-3.0-11.0-8.0","spark_pilot_norest","8180","7","13","Male","","","","","","","null","<div style=""font-size:60px;"">+</div>","null","fixation","","","","","","","","","","","",""
"learning-instructions","95","479872","0.0-3.0-11.0-9.0-0.0","spark_pilot_norest","8180","7","13","Male","","","","","","","null","<p> Now you will see the animals again and can search their chests for treasure. </p>
            <p> This time, you will not see how much treasure you earned, but you will earn more bonus money for making better choices. </p>","","instructions","","","","","","","","","","","",""
"html-keyboard-response","96","480885","0.0-3.0-11.0-10.0-0.0","spark_pilot_norest","8180","7","13","Male","","","","","","","null","<div style=""font-size:100px;color:red;"">Starting in...</div>","null","","","","","","","","","","","","",""
"html-keyboard-response","97","481893","0.0-3.0-11.0-10.0-1.0","spark_pilot_norest","8180","7","13","Male","","","","","","","null","<div style=""font-size:200px;color:red;"">3</div>","null","","","","","","","","","","","","",""
"html-keyboard-response","98","482894","0.0-3.0-11.0-10.0-2.0","spark_pilot_norest","8180","7","13","Male","","","","","","","null","<div style=""font-size:200px;color:red;"">2</div>","null","","","","","","","","","","","","",""
"html-keyboard-response","99","483905","0.0-3.0-11.0-10.0-3.0","spark_pilot_norest","8180","7","13","Male","","","","","","","null","<div style=""font-size:200px;color:red;"">1</div>","null","","","","","","","","","","","","",""
"revaluation","100","484676","0.0-3.0-11.0-11.0-0.0","spark_pilot_norest","8180","7","13","Male","","","false","","","","[769.7999999523163]","./assets/img/space/animals/cat.jpg","[""ArrowRight""]","practice block","space","0","{""ArrowUp,ArrowLeft"":3,""ArrowUp,ArrowRight"":36,""ArrowDown,ArrowLeft"":15,""ArrowDown,ArrowRight"":23}","true","ArrowUp,ArrowRight","","","","","","",""
"html-keyboard-response","101","485183","0.0-3.0-11.0-11.0-1.0","spark_pilot_norest","8180","7","13","Male","","","","","","","null","<div style=""font-size:60px;"">+</div>","null","fixation","","","","","","","","","","","",""
"revaluation","102","486100","0.0-3.0-11.0-11.0-0.1","spark_pilot_norest","8180","7","13","Male","","","false","","","","[915]","./assets/img/space/animals/rabbit.jpg","[""ArrowRight""]","practice block","space","0","{""ArrowUp,ArrowLeft"":3,""ArrowUp,ArrowRight"":36,""ArrowDown,ArrowLeft"":15,""ArrowDown,ArrowRight"":23}","true","ArrowDown,ArrowRight","","","","","","",""
"html-keyboard-response","103","486605","0.0-3.0-11.0-11.0-1.1","spark_pilot_norest","8180","7","13","Male","","","","","","","null","<div style=""font-size:60px;"">+</div>","null","fixation","","","","","","","","","","","",""
"learning-instructions","104","493048","0.0-3.0-12.0-0.0","spark_pilot_norest","8180","7","13","Male","","","","","","","1871","<p> Before you start, we're going to ask you a few questions about how the game works. </p>","","instructions","","","","","","","","","","","",""
"comp-q","105","499725","0.0-3.0-13.0-0.0-0.0","spark_pilot_norest","8180","7","13","Male","","","","","","","1106.5","<p> <b> True or False? </b> </p>
            <p> There can be 50 pieces of treasure in a given animal's chest. </p>","1","comp_question","","","","true","","","","","","","",""
"comp-q","106","507513","0.0-3.0-13.0-0.0-1.0","spark_pilot_norest","8180","7","13","Male","","","","","","","1136.1000001430511","<p> <b> That's right! </b> The amount of treasure in each chest can range from 0 to 40 pieces. </p>","0","comp_answer","","","","","","","","","","","",""
"comp-q","107","515970","0.0-3.0-13.0-0.1-0.1","spark_pilot_norest","8180","7","13","Male","","","","","","","1352.7999999523163","<p> <b> True or False? </b> </p><p> In this game, all animals have the same amount of treasure in their left and right chests. </p>","1","comp_question","","","","true","","","","","","","",""
"comp-q","108","523129","0.0-3.0-13.0-0.1-1.1","spark_pilot_norest","8180","7","13","Male","","","","","","","1942.2999999523163","<p> <b> That's right! </b> Animals have different amounts of treasure in their treasure chests. </p>","0","comp_answer","","","","","","","","","","","",""
"comp-q","109","529699","0.0-3.0-13.0-0.2-0.2","spark_pilot_norest","8180","7","13","Male","","","","","","","742.4000000953674","<p> <b> True or False? </b> </p><p> The same animal will always be there if you go up in the same place. </p>","0","comp_question","","","","true","","","","","","","",""
"comp-q","110","538263","0.0-3.0-13.0-0.2-1.2","spark_pilot_norest","8180","7","13","Male","","","","","","","2116.5","<p> <b> That's right! </b> One animal lives in the upper part and one lives in the lower part of every place. </p>","0","comp_answer","","","","","","","","","","","",""
"comp-q","111","544343","0.0-3.0-13.0-0.3-0.3","spark_pilot_norest","8180","7","13","Male","","","","","","","556.5","<p> <b> True or False? </b> </p><p> If you see a different picture, it means you are in a new place. </p>","1","comp_question","","","","true","","","","","","","",""
"comp-q","112","557916","0.0-3.0-13.0-0.3-1.3","spark_pilot_norest","8180","7","13","Male","","","","","","","2359.899999856949","<p> <b> That's right! </b> Lots of different images may show the same place. For example,  you may see three different images that all remind you that you are in outer space. </p>","0","comp_answer","","","","","","","","","","","",""
"learning-instructions","113","569543","0.0-3.0-14.0-0.0","spark_pilot_norest","8180","7","13","Male","","","","","","","1786.4000000953674","<p> Good job. Remember to do your best because the amount of treasure you earn will be converted into bonus money. </p>
            <p> It’s time to start the real game! </p>","","instructions","","","","","","","","","","","",""
"learning-instructions","114","572859","0.0-4.0-0.0-0.0","spark_pilot_norest","8180","7","13","Male","","","","","","","552.2999999523163","<p> This time you are searching for treasure in the <b>canyon</b>.</p>","","instructions","","","","","","","","","","","",""
"learning-instructions","115","591673","0.0-4.0-0.0-0.1","spark_pilot_norest","8180","7","13","Male","","","","","","","1536.2000000476837","<p><b>New</b> animals with <b>new</b> treasure chests live here. You need to explore to discover where the animal with the best treasure chest is.</p>
                    <p> Like before, once you figure out which animal has the chest with the most treasure, you should try to get to that animal and select that chest! </p>","","instructions","","","","","","","","","","","",""
"learning-instructions","116","607033","0.0-4.0-1.0-0.0","spark_pilot_norest","8180","7","13","Male","","","","","","","636.2000000476837","<p> Remember, when you see a picture of the place, use the up and down keys to <b>find an animal</b>.</p>
            <p> When you encounter an animal, you should use the left and right keys to <b>select a treasure chest</b>.</p>
            <p> Don't forget to look out for the robber! </p>","","instructions","","","","","","","","","","","",""
"revaluation","117","613059","0.0-4.0-2.0-0.0","spark_pilot_norest","8180","7","13","Male","","","false","","","","[1626,795.5999999046326]","./assets/img/canyon/memory/34.jpg","[""ArrowDown"",""ArrowRight""]","value training","canyon","30","{""ArrowUp,ArrowLeft"":23,""ArrowUp,ArrowRight"":10,""ArrowDown,ArrowLeft"":8,""ArrowDown,ArrowRight"":30}","true","ArrowDown,ArrowRight","false","original","1","0","","",""
"html-keyboard-response","118","613574","0.0-4.0-2.0-1.0","spark_pilot_norest","8180","7","13","Male","","","","","","","null","<div style=""font-size:60px;"">+</div>","null","fixation","","","","","","","","","1","","",""
"revaluation","119","619599","0.0-4.0-2.0-0.1","spark_pilot_norest","8180","7","13","Male","","","false","","","","[316.60000014305115,333.59999990463257]","./assets/img/canyon/memory/15.jpg","[""ArrowDown"",""ArrowLeft""]","value training","canyon","8","{""ArrowUp,ArrowLeft"":23,""ArrowUp,ArrowRight"":10,""ArrowDown,ArrowLeft"":8,""ArrowDown,ArrowRight"":30}","false","ArrowDown,ArrowLeft","false","original","1","2","","",""
"html-keyboard-response","120","620114","0.0-4.0-2.0-1.1","spark_pilot_norest","8180","7","13","Male","","","","","","","null","<div style=""font-size:60px;"">+</div>","null","fixation","","","","","","","","","3","","",""
"revaluation","121","626137","0.0-4.0-2.0-0.2","spark_pilot_norest","8180","7","13","Male","","","false","","","","[679.6000001430511,545.6999998092651]","./assets/img/canyon/memory/19.jpg","[""ArrowUp"",""ArrowRight""]","value training","canyon","10","{""ArrowUp,ArrowLeft"":23,""ArrowUp,ArrowRight"":10,""ArrowDown,ArrowLeft"":8,""ArrowDown,ArrowRight"":30}","false","ArrowUp,ArrowRight","false","original","1","4","","",""
"html-keyboard-response","122","626650","0.0-4.0-2.0-1.2","spark_pilot_norest","8180","7","13","Male","","","","","","","null","<div style=""font-size:60px;"">+</div>","null","fixation","","","","","","","","","5","","",""
"revaluation","123","632680","0.0-4.0-2.0-0.3","spark_pilot_norest","8180","7","13","Male","","","false","","","","[479.2999999523163,674.2999999523163]","./assets/img/canyon/memory/6.jpg","[""ArrowUp"",""ArrowLeft""]","value training","canyon","23","{""ArrowUp,ArrowLeft"":23,""ArrowUp,ArrowRight"":10,""ArrowDown,ArrowLeft"":8,""ArrowDown,ArrowRight"":30}","false","ArrowUp,ArrowLeft","false","original","1","6","","",""
"html-keyboard-response","124","633184","0.0-4.0-2.0-1.3","spark_pilot_norest","8180","7","13","Male","","","","","","","null","<div style=""font-size:60px;"">+</div>","null","fixation","","","","","","","","","7","","",""
"revaluation","125","637202","0.0-4.0-2.0-0.4","spark_pilot_norest","8180","7","13","Male","","","false","","","","[314]","./assets/img/canyon/catch/5.jpg","[""ArrowDown""]","value training","canyon","-10","{""ArrowUp,ArrowLeft"":23,""ArrowUp,ArrowRight"":10,""ArrowDown,ArrowLeft"":8,""ArrowDown,ArrowRight"":30}","false","ArrowDown","true","original","1","8","","",""
"html-keyboard-response","126","637703","0.0-4.0-2.0-1.4","spark_pilot_norest","8180","7","13","Male","","","","","","","null","<div style=""font-size:60px;"">+</div>","null","fixation","","","","","","","","","9","","",""
"revaluation","127","643707","0.0-4.0-2.0-0.5","spark_pilot_norest","8180","7","13","Male","","","false","","","","[1010.9000000953674,154.29999995231628]","./assets/img/canyon/memory/7.jpg","[""ArrowDown"",""ArrowRight""]","value training","canyon","30","{""ArrowUp,ArrowLeft"":23,""ArrowUp,ArrowRight"":10,""ArrowDown,ArrowLeft"":8,""ArrowDown,ArrowRight"":30}","true","ArrowDown,ArrowRight","false","original","1","10","","",""
"html-keyboard-response","128","644208","0.0-4.0-2.0-1.5","spark_pilot_norest","8180","7","13","Male","","","","","","","null","<div style=""font-size:60px;"">+</div>","null","fixation","","","","","","","","","11","","",""
"revaluation","129","650213","0.0-4.0-2.0-0.6","spark_pilot_norest","8180","7","13","Male","","","false","","","","[201.59999990463257,40.700000047683716]","./assets/img/canyon/memory/26.jpg","[""ArrowDown"",""ArrowRight""]","value training","canyon","30","{""ArrowUp,ArrowLeft"":23,""ArrowUp,ArrowRight"":10,""ArrowDown,ArrowLeft"":8,""ArrowDown,ArrowRight"":30}","true","ArrowDown,ArrowRight","false","original","1","12","","",""
"html-keyboard-response","130","650714","0.0-4.0-2.0-1.6","spark_pilot_norest","8180","7","13","Male","","","","","","","null","<div style=""font-size:60px;"">+</div>","null","fixation","","","","","","","","","13","","",""
"revaluation","131","656718","0.0-4.0-2.0-0.7","spark_pilot_norest","8180","7","13","Male","","","false","","","","[16.299999952316284,144.09999990463257]","./assets/img/canyon/memory/35.jpg","[""ArrowDown"",""ArrowRight""]","value training","canyon","30","{""ArrowUp,ArrowLeft"":23,""ArrowUp,ArrowRight"":10,""ArrowDown,ArrowLeft"":8,""ArrowDown,ArrowRight"":30}","true","ArrowDown,ArrowRight","false","original","1","14","","",""
"html-keyboard-response","132","657219","0.0-4.0-2.0-1.7","spark_pilot_norest","8180","7","13","Male","","","","","","","null","<div style=""font-size:60px;"">+</div>","null","fixation","","","","","","","","","15","","",""
"revaluation","133","663222","0.0-4.0-2.0-0.8","spark_pilot_norest","8180","7","13","Male","","","false","","","","[215.70000004768372,478.2000000476837]","./assets/img/canyon/memory/17.jpg","[""ArrowDown"",""ArrowRight""]","value training","canyon","30","{""ArrowUp,ArrowLeft"":23,""ArrowUp,ArrowRight"":10,""ArrowDown,ArrowLeft"":8,""ArrowDown,ArrowRight"":30}","true","ArrowDown,ArrowRight","false","original","1","16","","",""
"html-keyboard-response","134","663724","0.0-4.0-2.0-1.8","spark_pilot_norest","8180","7","13","Male","","","","","","","null","<div style=""font-size:60px;"">+</div>","null","fixation","","","","","","","","","17","","",""
"revaluation","135","669727","0.0-4.0-2.0-0.9","spark_pilot_norest","8180","7","13","Male","","","false","","","","[198.90000009536743,590.8999998569489]","./assets/img/canyon/memory/8.jpg","[""ArrowDown"",""ArrowRight""]","value training","canyon","30","{""ArrowUp,ArrowLeft"":23,""ArrowUp,ArrowRight"":10,""ArrowDown,ArrowLeft"":8,""ArrowDown,ArrowRight"":30}","true","ArrowDown,ArrowRight","false","original","1","18","","",""
"html-keyboard-response","136","670229","0.0-4.0-2.0-1.9","spark_pilot_norest","8180","7","13","Male","","","","","","","null","<div style=""font-size:60px;"">+</div>","null","fixation","","","","","","","","","19","","",""
"revaluation","137","676233","0.0-4.0-2.0-0.10","spark_pilot_norest","8180","7","13","Male","","","false","","","","[493.7000000476837,92.70000004768372]","./assets/img/canyon/memory/30.jpg","[""ArrowDown"",""ArrowRight""]","value training","canyon","30","{""ArrowUp,ArrowLeft"":23,""ArrowUp,ArrowRight"":10,""ArrowDown,ArrowLeft"":8,""ArrowDown,ArrowRight"":30}","true","ArrowDown,ArrowRight","false","original","1","20","","",""
"html-keyboard-response","138","676734","0.0-4.0-2.0-1.10","spark_pilot_norest","8180","7","13","Male","","","","","","","null","<div style=""font-size:60px;"">+</div>","null","fixation","","","","","","","","","21","","",""
"revaluation","139","682738","0.0-4.0-2.0-0.11","spark_pilot_norest","8180","7","13","Male","","","false","","","","[628.2999999523163,139.29999995231628]","./assets/img/canyon/memory/26.jpg","[""ArrowDown"",""ArrowRight""]","value training","canyon","30","{""ArrowUp,ArrowLeft"":23,""ArrowUp,ArrowRight"":10,""ArrowDown,ArrowLeft"":8,""ArrowDown,ArrowRight"":30}","true","ArrowDown,ArrowRight","false","original","1","22","","",""
"html-keyboard-response","140","683240","0.0-4.0-2.0-1.11","spark_pilot_norest","8180","7","13","Male","","","","","","","null","<div style=""font-size:60px;"">+</div>","null","fixation","","","","","","","","","23","","",""
"revaluation","141","689245","0.0-4.0-2.0-0.12","spark_pilot_norest","8180","7","13","Male","","","false","","","","[706.4000000953674,193.5]","./assets/img/canyon/memory/17.jpg","[""ArrowDown"",""ArrowRight""]","value training","canyon","30","{""ArrowUp,ArrowLeft"":23,""ArrowUp,ArrowRight"":10,""ArrowDown,ArrowLeft"":8,""ArrowDown,ArrowRight"":30}","true","ArrowDown,ArrowRight","false","original","1","24","","",""
"html-keyboard-response","142","689747","0.0-4.0-2.0-1.12","spark_pilot_norest","8180","7","13","Male","","","","","","","null","<div style=""font-size:60px;"">+</div>","null","fixation","","","","","","","","","25","","",""
"revaluation","143","695752","0.0-4.0-2.0-0.13","spark_pilot_norest","8180","7","13","Male","","","false","","","","[799.5,174.59999990463257]","./assets/img/canyon/memory/25.jpg","[""ArrowDown"",""ArrowRight""]","value training","canyon","30","{""ArrowUp,ArrowLeft"":23,""ArrowUp,ArrowRight"":10,""ArrowDown,ArrowLeft"":8,""ArrowDown,ArrowRight"":30}","true","ArrowDown,ArrowRight","false","original","1","26","","",""
"html-keyboard-response","144","696253","0.0-4.0-2.0-1.13","spark_pilot_norest","8180","7","13","Male","","","","","","","null","<div style=""font-size:60px;"">+</div>","null","fixation","","","","","","","","","27","","",""
"revaluation","145","702257","0.0-4.0-2.0-0.14","spark_pilot_norest","8180","7","13","Male","","","false","","","","[629.6000001430511,365.5]","./assets/img/canyon/memory/2.jpg","[""ArrowDown"",""ArrowRight""]","value training","canyon","30","{""ArrowUp,ArrowLeft"":23,""ArrowUp,ArrowRight"":10,""ArrowDown,ArrowLeft"":8,""ArrowDown,ArrowRight"":30}","true","ArrowDown,ArrowRight","false","original","1","28","","",""
"html-keyboard-response","146","702760","0.0-4.0-2.0-1.14","spark_pilot_norest","8180","7","13","Male","","","","","","","null","<div style=""font-size:60px;"">+</div>","null","fixation","","","","","","","","","29","","",""
"revaluation","147","708765","0.0-4.0-2.0-0.15","spark_pilot_norest","8180","7","13","Male","","","false","","","","[474.59999990463257,345.60000014305115]","./assets/img/canyon/memory/15.jpg","[""ArrowDown"",""ArrowRight""]","value training","canyon","30","{""ArrowUp,ArrowLeft"":23,""ArrowUp,ArrowRight"":10,""ArrowDown,ArrowLeft"":8,""ArrowDown,ArrowRight"":30}","true","ArrowDown,ArrowRight","false","original","1","30","","",""
"html-keyboard-response","148","709266","0.0-4.0-2.0-1.15","spark_pilot_norest","8180","7","13","Male","","","","","","","null","<div style=""font-size:60px;"">+</div>","null","fixation","","","","","","","","","31","","",""
"revaluation","149","715270","0.0-4.0-2.0-0.16","spark_pilot_norest","8180","7","13","Male","","","false","","","","[720.5,272.09999990463257]","./assets/img/canyon/memory/1.jpg","[""ArrowDown"",""ArrowRight""]","value training","canyon","30","{""ArrowUp,ArrowLeft"":23,""ArrowUp,ArrowRight"":10,""ArrowDown,ArrowLeft"":8,""ArrowDown,ArrowRight"":30}","true","ArrowDown,ArrowRight","false","original","1","32","","",""
"html-keyboard-response","150","715772","0.0-4.0-2.0-1.16","spark_pilot_norest","8180","7","13","Male","","","","","","","null","<div style=""font-size:60px;"">+</div>","null","fixation","","","","","","","","","33","","",""
"revaluation","151","721778","0.0-4.0-2.0-0.17","spark_pilot_norest","8180","7","13","Male","","","false","","","","[534.7000000476837,405.7000000476837]","./assets/img/canyon/memory/0.jpg","[""ArrowDown"",""ArrowRight""]","value training","canyon","30","{""ArrowUp,ArrowLeft"":23,""ArrowUp,ArrowRight"":10,""ArrowDown,ArrowLeft"":8,""ArrowDown,ArrowRight"":30}","true","ArrowDown,ArrowRight","false","original","1","34","","",""
"html-keyboard-response","152","722279","0.0-4.0-2.0-1.17","spark_pilot_norest","8180","7","13","Male","","","","","","","null","<div style=""font-size:60px;"">+</div>","null","fixation","","","","","","","","","35","","",""
"revaluation","153","728285","0.0-4.0-2.0-0.18","spark_pilot_norest","8180","7","13","Male","","","false","","","","[689.9000000953674,577]","./assets/img/canyon/memory/25.jpg","[""ArrowDown"",""ArrowRight""]","value training","canyon","30","{""ArrowUp,ArrowLeft"":23,""ArrowUp,ArrowRight"":10,""ArrowDown,ArrowLeft"":8,""ArrowDown,ArrowRight"":30}","true","ArrowDown,ArrowRight","false","original","1","36","","",""
"html-keyboard-response","154","728787","0.0-4.0-2.0-1.18","spark_pilot_norest","8180","7","13","Male","","","","","","","null","<div style=""font-size:60px;"">+</div>","null","fixation","","","","","","","","","37","","",""
"revaluation","155","732791","0.0-4.0-2.0-0.19","spark_pilot_norest","8180","7","13","Male","","","false","","","","[1095]","./assets/img/canyon/catch/2.jpg","[""spaceBar""]","value training","canyon","0","{""ArrowUp,ArrowLeft"":23,""ArrowUp,ArrowRight"":10,""ArrowDown,ArrowLeft"":8,""ArrowDown,ArrowRight"":30}","true","spaceBar","true","original","1","38","","",""
"html-keyboard-response","156","733293","0.0-4.0-2.0-1.19","spark_pilot_norest","8180","7","13","Male","","","","","","","null","<div style=""font-size:60px;"">+</div>","null","fixation","","","","","","","","","39","","",""
"revaluation","157","739298","0.0-4.0-2.0-0.20","spark_pilot_norest","8180","7","13","Male","","","false","","","","[1773.2999999523163,532.4000000953674]","./assets/img/canyon/memory/6.jpg","[""ArrowDown"",""ArrowRight""]","value training","canyon","30","{""ArrowUp,ArrowLeft"":23,""ArrowUp,ArrowRight"":10,""ArrowDown,ArrowLeft"":8,""ArrowDown,ArrowRight"":30}","true","ArrowDown,ArrowRight","false","original","1","40","","",""
"html-keyboard-response","158","739800","0.0-4.0-2.0-1.20","spark_pilot_norest","8180","7","13","Male","","","","","","","null","<div style=""font-size:60px;"">+</div>","null","fixation","","","","","","","","","41","","",""
"revaluation","159","745805","0.0-4.0-2.0-0.21","spark_pilot_norest","8180","7","13","Male","","","false","","","","[1202.0999999046326,673.2999999523163]","./assets/img/canyon/memory/2.jpg","[""ArrowDown"",""ArrowRight""]","value training","canyon","30","{""ArrowUp,ArrowLeft"":23,""ArrowUp,ArrowRight"":10,""ArrowDown,ArrowLeft"":8,""ArrowDown,ArrowRight"":30}","true","ArrowDown,ArrowRight","false","original","1","42","","",""
"html-keyboard-response","160","746307","0.0-4.0-2.0-1.21","spark_pilot_norest","8180","7","13","Male","","","","","","","null","<div style=""font-size:60px;"">+</div>","null","fixation","","","","","","","","","43","","",""
"revaluation","161","752314","0.0-4.0-2.0-0.22","spark_pilot_norest","8180","7","13","Male","","","false","","","","[1535,1564.2999999523163]","./assets/img/canyon/memory/16.jpg","[""ArrowDown"",""ArrowRight""]","value training","canyon","30","{""ArrowUp,ArrowLeft"":23,""ArrowUp,ArrowRight"":10,""ArrowDown,ArrowLeft"":8,""ArrowDown,ArrowRight"":30}","true","ArrowDown,ArrowRight","false","original","1","44","","",""
"html-keyboard-response","162","752815","0.0-4.0-2.0-1.22","spark_pilot_norest","8180","7","13","Male","","","","","","","null","<div style=""font-size:60px;"">+</div>","null","fixation","","","","","","","","","45","","",""
"revaluation","163","758820","0.0-4.0-2.0-0.23","spark_pilot_norest","8180","7","13","Male","","","false","","","","[1035.4000000953674,1938.7999999523163]","./assets/img/canyon/memory/34.jpg","[""ArrowDown"",""ArrowRight""]","value training","canyon","30","{""ArrowUp,ArrowLeft"":23,""ArrowUp,ArrowRight"":10,""ArrowDown,ArrowLeft"":8,""ArrowDown,ArrowRight"":30}","true","ArrowDown,ArrowRight","false","original","1","46","","",""
"html-keyboard-response","164","759321","0.0-4.0-2.0-1.23","spark_pilot_norest","8180","7","13","Male","","","","","","","null","<div style=""font-size:60px;"">+</div>","null","fixation","","","","","","","","","47","","",""
"revaluation","165","763326","0.0-4.0-2.0-0.24","spark_pilot_norest","8180","7","13","Male","","","true","","","","[]","./assets/img/canyon/memory/37.jpg","[]","value training","canyon","-5","{""ArrowUp,ArrowLeft"":23,""ArrowUp,ArrowRight"":10,""ArrowDown,ArrowLeft"":8,""ArrowDown,ArrowRight"":30}","false","","false","original","1","48","","",""
"html-keyboard-response","166","763827","0.0-4.0-2.0-1.24","spark_pilot_norest","8180","7","13","Male","","","","","","","null","<div style=""font-size:60px;"">+</div>","null","fixation","","","","","","","","","49","","",""
"revaluation","167","769831","0.0-4.0-2.0-0.25","spark_pilot_norest","8180","7","13","Male","","","false","","","","[1487.2999999523163,518.8000001907349]","./assets/img/canyon/memory/29.jpg","[""ArrowDown"",""ArrowRight""]","value training","canyon","30","{""ArrowUp,ArrowLeft"":23,""ArrowUp,ArrowRight"":10,""ArrowDown,ArrowLeft"":8,""ArrowDown,ArrowRight"":30}","true","ArrowDown,ArrowRight","false","original","1","50","","",""
"html-keyboard-response","168","770333","0.0-4.0-2.0-1.25","spark_pilot_norest","8180","7","13","Male","","","","","","","null","<div style=""font-size:60px;"">+</div>","null","fixation","","","","","","","","","51","","",""
"revaluation","169","776337","0.0-4.0-2.0-0.26","spark_pilot_norest","8180","7","13","Male","","","false","","","","[677.5,1948.7000000476837]","./assets/img/canyon/memory/40.jpg","[""ArrowDown"",""ArrowRight""]","value training","canyon","30","{""ArrowUp,ArrowLeft"":23,""ArrowUp,ArrowRight"":10,""ArrowDown,ArrowLeft"":8,""ArrowDown,ArrowRight"":30}","true","ArrowDown,ArrowRight","false","original","1","52","","",""
"html-keyboard-response","170","776839","0.0-4.0-2.0-1.26","spark_pilot_norest","8180","7","13","Male","","","","","","","null","<div style=""font-size:60px;"">+</div>","null","fixation","","","","","","","","","53","","",""
"revaluation","171","782844","0.0-4.0-2.0-0.27","spark_pilot_norest","8180","7","13","Male","","","false","","","","[667.1000001430511,841.7000000476837]","./assets/img/canyon/memory/1.jpg","[""ArrowDown"",""ArrowRight""]","value training","canyon","30","{""ArrowUp,ArrowLeft"":23,""ArrowUp,ArrowRight"":10,""ArrowDown,ArrowLeft"":8,""ArrowDown,ArrowRight"":30}","true","ArrowDown,ArrowRight","false","original","1","54","","",""
"html-keyboard-response","172","783346","0.0-4.0-2.0-1.27","spark_pilot_norest","8180","7","13","Male","","","","","","","null","<div style=""font-size:60px;"">+</div>","null","fixation","","","","","","","","","55","","",""
"revaluation","173","789351","0.0-4.0-2.0-0.28","spark_pilot_norest","8180","7","13","Male","","","false","","","","[623.6000001430511,478.89999985694885]","./assets/img/canyon/memory/20.jpg","[""ArrowDown"",""ArrowRight""]","value training","canyon","30","{""ArrowUp,ArrowLeft"":23,""ArrowUp,ArrowRight"":10,""ArrowDown,ArrowLeft"":8,""ArrowDown,ArrowRight"":30}","true","ArrowDown,ArrowRight","false","original","1","56","","",""
"html-keyboard-response","174","789853","0.0-4.0-2.0-1.28","spark_pilot_norest","8180","7","13","Male","","","","","","","null","<div style=""font-size:60px;"">+</div>","null","fixation","","","","","","","","","57","","",""
"revaluation","175","793858","0.0-4.0-2.0-0.29","spark_pilot_norest","8180","7","13","Male","","","true","","","","[]","./assets/img/canyon/catch/4.jpg","[]","value training","canyon","-5","{""ArrowUp,ArrowLeft"":23,""ArrowUp,ArrowRight"":10,""ArrowDown,ArrowLeft"":8,""ArrowDown,ArrowRight"":30}","false","","true","original","1","58","","",""
"html-keyboard-response","176","794359","0.0-4.0-2.0-1.29","spark_pilot_norest","8180","7","13","Male","","","","","","","null","<div style=""font-size:60px;"">+</div>","null","fixation","","","","","","","","","59","","",""
"revaluation","177","800365","0.0-4.0-2.0-0.30","spark_pilot_norest","8180","7","13","Male","","","false","","","","[786.7000000476837,1905.4000000953674]","./assets/img/canyon/memory/38.jpg","[""ArrowDown"",""ArrowRight""]","value training","canyon","30","{""ArrowUp,ArrowLeft"":23,""ArrowUp,ArrowRight"":10,""ArrowDown,ArrowLeft"":8,""ArrowDown,ArrowRight"":30}","true","ArrowDown,ArrowRight","false","original","1","60","","",""
"html-keyboard-response","178","800877","0.0-4.0-2.0-1.30","spark_pilot_norest","8180","7","13","Male","","","","","","","null","<div style=""font-size:60px;"">+</div>","null","fixation","","","","","","","","","61","","",""
"revaluation","179","804881","0.0-4.0-2.0-0.31","spark_pilot_norest","8180","7","13","Male","","","false","","","","[1740.7999999523163]","./assets/img/canyon/catch/1.jpg","[""spaceBar""]","value training","canyon","0","{""ArrowUp,ArrowLeft"":23,""ArrowUp,ArrowRight"":10,""ArrowDown,ArrowLeft"":8,""ArrowDown,ArrowRight"":30}","true","spaceBar","true","original","1","62","","",""
"html-keyboard-response","180","805384","0.0-4.0-2.0-1.31","spark_pilot_norest","8180","7","13","Male","","","","","","","null","<div style=""font-size:60px;"">+</div>","null","fixation","","","","","","","","","63","","",""
"revaluation","181","809387","0.0-4.0-2.0-0.32","spark_pilot_norest","8180","7","13","Male","","","true","","","","[]","./assets/img/canyon/memory/38.jpg","[]","value training","canyon","-5","{""ArrowUp,ArrowLeft"":23,""ArrowUp,ArrowRight"":10,""ArrowDown,ArrowLeft"":8,""ArrowDown,ArrowRight"":30}","false","","false","original","1","64","","",""
"html-keyboard-response","182","809889","0.0-4.0-2.0-1.32","spark_pilot_norest","8180","7","13","Male","","","","","","","null","<div style=""font-size:60px;"">+</div>","null","fixation","","","","","","","","","65","","",""
"revaluation","183","813892","0.0-4.0-2.0-0.33","spark_pilot_norest","8180","7","13","Male","","","false","","","","[1290.1000001430511]","./assets/img/canyon/catch/0.jpg","[""spaceBar""]","value training","canyon","0","{""ArrowUp,ArrowLeft"":23,""ArrowUp,ArrowRight"":10,""ArrowDown,ArrowLeft"":8,""ArrowDown,ArrowRight"":30}","true","spaceBar","true","original","1","66","","",""
"html-keyboard-response","184","814394","0.0-4.0-2.0-1.33","spark_pilot_norest","8180","7","13","Male","","","","","","","null","<div style=""font-size:60px;"">+</div>","null","fixation","","","","","","","","","67","","",""
"revaluation","185","820399","0.0-4.0-2.0-0.34","spark_pilot_norest","8180","7","13","Male","","","false","","","","[1263.1999998092651,190.19999980926514]","./assets/img/canyon/memory/21.jpg","[""ArrowDown"",""ArrowRight""]","value training","canyon","30","{""ArrowUp,ArrowLeft"":23,""ArrowUp,ArrowRight"":10,""ArrowDown,ArrowLeft"":8,""ArrowDown,ArrowRight"":30}","true","ArrowDown,ArrowRight","false","original","1","68","","",""
"html-keyboard-response","186","820900","0.0-4.0-2.0-1.34","spark_pilot_norest","8180","7","13","Male","","","","","","","null","<div style=""font-size:60px;"">+</div>","null","fixation","","","","","","","","","69","","",""
"revaluation","187","826905","0.0-4.0-2.0-0.35","spark_pilot_norest","8180","7","13","Male","","","false","","","","[685.7999999523163,532.1999998092651]","./assets/img/canyon/memory/16.jpg","[""ArrowDown"",""ArrowRight""]","value training","canyon","30","{""ArrowUp,ArrowLeft"":23,""ArrowUp,ArrowRight"":10,""ArrowDown,ArrowLeft"":8,""ArrowDown,ArrowRight"":30}","true","ArrowDown,ArrowRight","false","original","1","70","","",""
"html-keyboard-response","188","827407","0.0-4.0-2.0-1.35","spark_pilot_norest","8180","7","13","Male","","","","","","","null","<div style=""font-size:60px;"">+</div>","null","fixation","","","","","","","","","71","","",""
"revaluation","189","831421","0.0-4.0-2.0-0.36","spark_pilot_norest","8180","7","13","Male","","","false","","","","[1227.4000000953674]","./assets/img/canyon/catch/6.jpg","[""spaceBar""]","value training","canyon","0","{""ArrowUp,ArrowLeft"":23,""ArrowUp,ArrowRight"":10,""ArrowDown,ArrowLeft"":8,""ArrowDown,ArrowRight"":30}","true","spaceBar","true","original","1","72","","",""
"html-keyboard-response","190","831923","0.0-4.0-2.0-1.36","spark_pilot_norest","8180","7","13","Male","","","","","","","null","<div style=""font-size:60px;"">+</div>","null","fixation","","","","","","","","","73","","",""
"revaluation","191","835926","0.0-4.0-2.0-0.37","spark_pilot_norest","8180","7","13","Male","","","false","","","","[1159.5]","./assets/img/canyon/catch/3.jpg","[""spaceBar""]","value training","canyon","0","{""ArrowUp,ArrowLeft"":23,""ArrowUp,ArrowRight"":10,""ArrowDown,ArrowLeft"":8,""ArrowDown,ArrowRight"":30}","true","spaceBar","true","original","1","74","","",""
"html-keyboard-response","192","836428","0.0-4.0-2.0-1.37","spark_pilot_norest","8180","7","13","Male","","","","","","","null","<div style=""font-size:60px;"">+</div>","null","fixation","","","","","","","","","75","","",""
"revaluation","193","842432","0.0-4.0-2.0-0.38","spark_pilot_norest","8180","7","13","Male","","","true","","","","[854.6999998092651]","./assets/img/canyon/memory/30.jpg","[""ArrowDown""]","value training","canyon","-5","{""ArrowUp,ArrowLeft"":23,""ArrowUp,ArrowRight"":10,""ArrowDown,ArrowLeft"":8,""ArrowDown,ArrowRight"":30}","false","ArrowDown","false","original","1","76","","",""
"html-keyboard-response","194","842934","0.0-4.0-2.0-1.38","spark_pilot_norest","8180","7","13","Male","","","","","","","null","<div style=""font-size:60px;"">+</div>","null","fixation","","","","","","","","","77","","",""
"revaluation","195","848939","0.0-4.0-2.0-0.39","spark_pilot_norest","8180","7","13","Male","","","false","","","","[731.2000000476837,746.8999998569489]","./assets/img/canyon/memory/21.jpg","[""ArrowDown"",""ArrowRight""]","value training","canyon","30","{""ArrowUp,ArrowLeft"":23,""ArrowUp,ArrowRight"":10,""ArrowDown,ArrowLeft"":8,""ArrowDown,ArrowRight"":30}","true","ArrowDown,ArrowRight","false","original","1","78","","",""
"html-keyboard-response","196","849441","0.0-4.0-2.0-1.39","spark_pilot_norest","8180","7","13","Male","","","","","","","null","<div style=""font-size:60px;"">+</div>","null","fixation","","","","","","","","","79","","",""
"revaluation","197","855445","0.0-4.0-2.0-0.40","spark_pilot_norest","8180","7","13","Male","","","false","","","","[449.2000000476837,520.3999998569489]","./assets/img/canyon/memory/20.jpg","[""ArrowDown"",""ArrowRight""]","value training","canyon","30","{""ArrowUp,ArrowLeft"":23,""ArrowUp,ArrowRight"":10,""ArrowDown,ArrowLeft"":8,""ArrowDown,ArrowRight"":30}","true","ArrowDown,ArrowRight","false","original","1","80","","",""
"html-keyboard-response","198","855947","0.0-4.0-2.0-1.40","spark_pilot_norest","8180","7","13","Male","","","","","","","null","<div style=""font-size:60px;"">+</div>","null","fixation","","","","","","","","","81","","",""
"revaluation","199","861951","0.0-4.0-2.0-0.41","spark_pilot_norest","8180","7","13","Male","","","false","","","","[431.7000000476837,79.20000004768372]","./assets/img/canyon/memory/8.jpg","[""ArrowDown"",""ArrowRight""]","value training","canyon","30","{""ArrowUp,ArrowLeft"":23,""ArrowUp,ArrowRight"":10,""ArrowDown,ArrowLeft"":8,""ArrowDown,ArrowRight"":30}","true","ArrowDown,ArrowRight","false","original","1","82","","",""
"html-keyboard-response","200","862453","0.0-4.0-2.0-1.41","spark_pilot_norest","8180","7","13","Male","","","","","","","null","<div style=""font-size:60px;"">+</div>","null","fixation","","","","","","","","","83","","",""
"revaluation","201","868458","0.0-4.0-2.0-0.42","spark_pilot_norest","8180","7","13","Male","","","false","","","","[445.5,109.10000014305115]","./assets/img/canyon/memory/7.jpg","[""ArrowDown"",""ArrowRight""]","value training","canyon","30","{""ArrowUp,ArrowLeft"":23,""ArrowUp,ArrowRight"":10,""ArrowDown,ArrowLeft"":8,""ArrowDown,ArrowRight"":30}","true","ArrowDown,ArrowRight","false","original","1","84","","",""
"html-keyboard-response","202","868959","0.0-4.0-2.0-1.42","spark_pilot_norest","8180","7","13","Male","","","","","","","null","<div style=""font-size:60px;"">+</div>","null","fixation","","","","","","","","","85","","",""
"revaluation","203","874965","0.0-4.0-2.0-0.43","spark_pilot_norest","8180","7","13","Male","","","false","","","","[450.80000019073486,121.60000014305115]","./assets/img/canyon/memory/0.jpg","[""ArrowDown"",""ArrowRight""]","value training","canyon","30","{""ArrowUp,ArrowLeft"":23,""ArrowUp,ArrowRight"":10,""ArrowDown,ArrowLeft"":8,""ArrowDown,ArrowRight"":30}","true","ArrowDown,ArrowRight","false","original","1","86","","",""
"html-keyboard-response","204","875466","0.0-4.0-2.0-1.43","spark_pilot_norest","8180","7","13","Male","","","","","","","null","<div style=""font-size:60px;"">+</div>","null","fixation","","","","","","","","","87","","",""
"revaluation","205","881471","0.0-4.0-2.0-0.44","spark_pilot_norest","8180","7","13","Male","","","false","","","","[575.4000000953674,183.09999990463257]","./assets/img/canyon/memory/40.jpg","[""ArrowDown"",""ArrowRight""]","value training","canyon","30","{""ArrowUp,ArrowLeft"":23,""ArrowUp,ArrowRight"":10,""ArrowDown,ArrowLeft"":8,""ArrowDown,ArrowRight"":30}","true","ArrowDown,ArrowRight","false","original","1","88","","",""
"html-keyboard-response","206","881973","0.0-4.0-2.0-1.44","spark_pilot_norest","8180","7","13","Male","","","","","","","null","<div style=""font-size:60px;"">+</div>","null","fixation","","","","","","","","","89","","",""
"revaluation","207","887978","0.0-4.0-2.0-0.45","spark_pilot_norest","8180","7","13","Male","","","false","","","","[557.2999999523163,187.69999980926514]","./assets/img/canyon/memory/37.jpg","[""ArrowDown"",""ArrowRight""]","value training","canyon","30","{""ArrowUp,ArrowLeft"":23,""ArrowUp,ArrowRight"":10,""ArrowDown,ArrowLeft"":8,""ArrowDown,ArrowRight"":30}","true","ArrowDown,ArrowRight","false","original","1","90","","",""
"html-keyboard-response","208","888480","0.0-4.0-2.0-1.45","spark_pilot_norest","8180","7","13","Male","","","","","","","null","<div style=""font-size:60px;"">+</div>","null","fixation","","","","","","","","","91","","",""
"revaluation","209","892484","0.0-4.0-2.0-0.46","spark_pilot_norest","8180","7","13","Male","","","true","","","","[]","./assets/img/canyon/memory/29.jpg","[]","value training","canyon","-5","{""ArrowUp,ArrowLeft"":23,""ArrowUp,ArrowRight"":10,""ArrowDown,ArrowLeft"":8,""ArrowDown,ArrowRight"":30}","false","","false","original","1","92","","",""
"html-keyboard-response","210","892985","0.0-4.0-2.0-1.46","spark_pilot_norest","8180","7","13","Male","","","","","","","null","<div style=""font-size:60px;"">+</div>","null","fixation","","","","","","","","","93","","",""
"revaluation","211","898990","0.0-4.0-2.0-0.47","spark_pilot_norest","8180","7","13","Male","","","true","","","","[449]","./assets/img/canyon/memory/35.jpg","[""ArrowDown""]","value training","canyon","-5","{""ArrowUp,ArrowLeft"":23,""ArrowUp,ArrowRight"":10,""ArrowDown,ArrowLeft"":8,""ArrowDown,ArrowRight"":30}","false","ArrowDown","false","original","1","94","","",""
"html-keyboard-response","212","899492","0.0-4.0-2.0-1.47","spark_pilot_norest","8180","7","13","Male","","","","","","","null","<div style=""font-size:60px;"">+</div>","null","fixation","","","","","","","","","95","","",""
"revaluation","213","903497","0.0-4.0-2.0-0.48","spark_pilot_norest","8180","7","13","Male","","","true","","","","[]","./assets/img/canyon/memory/19.jpg","[]","value training","canyon","-5","{""ArrowUp,ArrowLeft"":23,""ArrowUp,ArrowRight"":10,""ArrowDown,ArrowLeft"":8,""ArrowDown,ArrowRight"":30}","false","","false","original","1","96","","",""
"html-keyboard-response","214","903999","0.0-4.0-2.0-1.48","spark_pilot_norest","8180","7","13","Male","","","","","","","null","<div style=""font-size:60px;"">+</div>","null","fixation","","","","","","","","","97","","",""
"revaluation","215","908003","0.0-4.0-2.0-0.49","spark_pilot_norest","8180","7","13","Male","","","false","","","","[1203.0999999046326]","./assets/img/canyon/catch/7.jpg","[""spaceBar""]","value training","canyon","0","{""ArrowUp,ArrowLeft"":23,""ArrowUp,ArrowRight"":10,""ArrowDown,ArrowLeft"":8,""ArrowDown,ArrowRight"":30}","true","spaceBar","true","original","1","98","","",""
"html-keyboard-response","216","908504","0.0-4.0-2.0-1.49","spark_pilot_norest","8180","7","13","Male","","","","","","","null","<div style=""font-size:60px;"">+</div>","null","fixation","","","","","","","","","99","","",""
"learning-instructions","217","925401","0.0-4.0-3.0-0.0","spark_pilot_norest","8180","7","13","Male","","","","","","","3367.2999999523163","<p> Now, you will travel with a friend who will choose whether you go up or down first. </p>
            <p> On these turns, you will just see the animal that they found. You will still get to choose which chest to search for treasure.</p>","","instructions","","","","","","","","","","","",""
"revaluation","218","929403","0.0-4.0-4.0-0.0","spark_pilot_norest","8180","7","13","Male","","","false","","","","[577.7000000476837]","./assets/img/canyon/animals/lion.jpg","[""ArrowRight""]","revaluation","canyon","30","{""ArrowUp,ArrowLeft"":23,""ArrowUp,ArrowRight"":10,""ArrowDown,ArrowLeft"":8,""ArrowDown,ArrowRight"":30}","true","ArrowDown,ArrowRight","","original","1","0","","",""
"html-keyboard-response","219","929921","0.0-4.0-4.0-1.0","spark_pilot_norest","8180","7","13","Male","","","","","","","null","<div style=""font-size:60px;"">+</div>","null","fixation","","","","","","","","","1","","",""
"revaluation","220","933931","0.0-4.0-4.0-0.1","spark_pilot_norest","8180","7","13","Male","","","false","","","","[817]","./assets/img/canyon/animals/giraffe.jpg","[""ArrowLeft""]","revaluation","canyon","23","{""ArrowUp,ArrowLeft"":23,""ArrowUp,ArrowRight"":10,""ArrowDown,ArrowLeft"":8,""ArrowDown,ArrowRight"":30}","true","ArrowUp,ArrowLeft","","original","1","2","","",""
"html-keyboard-response","221","934447","0.0-4.0-4.0-1.1","spark_pilot_norest","8180","7","13","Male","","","","","","","null","<div style=""font-size:60px;"">+</div>","null","fixation","","","","","","","","","3","","",""
"revaluation","222","938466","0.0-4.0-4.0-0.2","spark_pilot_norest","8180","7","13","Male","","","false","","","","[507.40000009536743]","./assets/img/canyon/animals/lion.jpg","[""ArrowRight""]","revaluation","canyon","30","{""ArrowUp,ArrowLeft"":23,""ArrowUp,ArrowRight"":10,""ArrowDown,ArrowLeft"":8,""ArrowDown,ArrowRight"":30}","true","ArrowDown,ArrowRight","","original","1","4","","",""
"html-keyboard-response","223","938978","0.0-4.0-4.0-1.2","spark_pilot_norest","8180","7","13","Male","","","","","","","null","<div style=""font-size:60px;"">+</div>","null","fixation","","","","","","","","","5","","",""
"revaluation","224","943005","0.0-4.0-4.0-0.3","spark_pilot_norest","8180","7","13","Male","","","false","","","","[479.7000000476837]","./assets/img/canyon/animals/lion.jpg","[""ArrowRight""]","revaluation","canyon","30","{""ArrowUp,ArrowLeft"":23,""ArrowUp,ArrowRight"":10,""ArrowDown,ArrowLeft"":8,""ArrowDown,ArrowRight"":30}","true","ArrowDown,ArrowRight","","original","1","6","","",""
"html-keyboard-response","225","943519","0.0-4.0-4.0-1.3","spark_pilot_norest","8180","7","13","Male","","","","","","","null","<div style=""font-size:60px;"">+</div>","null","fixation","","","","","","","","","7","","",""
"revaluation","226","947547","0.0-4.0-4.0-0.4","spark_pilot_norest","8180","7","13","Male","","","false","","","","[851.2999999523163]","./assets/img/canyon/animals/giraffe.jpg","[""ArrowLeft""]","revaluation","canyon","23","{""ArrowUp,ArrowLeft"":23,""ArrowUp,ArrowRight"":10,""ArrowDown,ArrowLeft"":8,""ArrowDown,ArrowRight"":30}","true","ArrowUp,ArrowLeft","","original","1","8","","",""
"html-keyboard-response","227","948049","0.0-4.0-4.0-1.4","spark_pilot_norest","8180","7","13","Male","","","","","","","null","<div style=""font-size:60px;"">+</div>","null","fixation","","","","","","","","","9","","",""
"revaluation","228","952073","0.0-4.0-4.0-0.5","spark_pilot_norest","8180","7","13","Male","","","false","","","","[528.5999999046326]","./assets/img/canyon/animals/lion.jpg","[""ArrowRight""]","revaluation","canyon","30","{""ArrowUp,ArrowLeft"":23,""ArrowUp,ArrowRight"":10,""ArrowDown,ArrowLeft"":8,""ArrowDown,ArrowRight"":30}","true","ArrowDown,ArrowRight","","original","1","10","","",""
"html-keyboard-response","229","952574","0.0-4.0-4.0-1.5","spark_pilot_norest","8180","7","13","Male","","","","","","","null","<div style=""font-size:60px;"">+</div>","null","fixation","","","","","","","","","11","","",""
"revaluation","230","956578","0.0-4.0-4.0-0.6","spark_pilot_norest","8180","7","13","Male","","","false","","","","[676.5]","./assets/img/canyon/animals/giraffe.jpg","[""ArrowLeft""]","revaluation","canyon","23","{""ArrowUp,ArrowLeft"":23,""ArrowUp,ArrowRight"":10,""ArrowDown,ArrowLeft"":8,""ArrowDown,ArrowRight"":30}","true","ArrowUp,ArrowLeft","","original","1","12","","",""
"html-keyboard-response","231","957079","0.0-4.0-4.0-1.6","spark_pilot_norest","8180","7","13","Male","","","","","","","null","<div style=""font-size:60px;"">+</div>","null","fixation","","","","","","","","","13","","",""
"revaluation","232","961082","0.0-4.0-4.0-0.7","spark_pilot_norest","8180","7","13","Male","","","false","","","","[443.69999980926514]","./assets/img/canyon/animals/lion.jpg","[""ArrowRight""]","revaluation","canyon","30","{""ArrowUp,ArrowLeft"":23,""ArrowUp,ArrowRight"":10,""ArrowDown,ArrowLeft"":8,""ArrowDown,ArrowRight"":30}","true","ArrowDown,ArrowRight","","original","1","14","","",""
"html-keyboard-response","233","961584","0.0-4.0-4.0-1.7","spark_pilot_norest","8180","7","13","Male","","","","","","","null","<div style=""font-size:60px;"">+</div>","null","fixation","","","","","","","","","15","","",""
"revaluation","234","965588","0.0-4.0-4.0-0.8","spark_pilot_norest","8180","7","13","Male","","","false","","","","[113.29999995231628]","./assets/img/canyon/animals/giraffe.jpg","[""ArrowRight""]","revaluation","canyon","10","{""ArrowUp,ArrowLeft"":23,""ArrowUp,ArrowRight"":10,""ArrowDown,ArrowLeft"":8,""ArrowDown,ArrowRight"":30}","false","ArrowUp,ArrowRight","","original","1","16","","",""
"html-keyboard-response","235","966089","0.0-4.0-4.0-1.8","spark_pilot_norest","8180","7","13","Male","","","","","","","null","<div style=""font-size:60px;"">+</div>","null","fixation","","","","","","","","","17","","",""
"revaluation","236","970093","0.0-4.0-4.0-0.9","spark_pilot_norest","8180","7","13","Male","","","false","","","","[601]","./assets/img/canyon/animals/lion.jpg","[""ArrowRight""]","revaluation","canyon","30","{""ArrowUp,ArrowLeft"":23,""ArrowUp,ArrowRight"":10,""ArrowDown,ArrowLeft"":8,""ArrowDown,ArrowRight"":30}","true","ArrowDown,ArrowRight","","original","1","18","","",""
"html-keyboard-response","237","970593","0.0-4.0-4.0-1.9","spark_pilot_norest","8180","7","13","Male","","","","","","","null","<div style=""font-size:60px;"">+</div>","null","fixation","","","","","","","","","19","","",""
"revaluation","238","974598","0.0-4.0-4.0-0.10","spark_pilot_norest","8180","7","13","Male","","","false","","","","[864.8999998569489]","./assets/img/canyon/animals/giraffe.jpg","[""ArrowLeft""]","revaluation","canyon","23","{""ArrowUp,ArrowLeft"":23,""ArrowUp,ArrowRight"":10,""ArrowDown,ArrowLeft"":8,""ArrowDown,ArrowRight"":30}","true","ArrowUp,ArrowLeft","","original","1","20","","",""
"html-keyboard-response","239","975100","0.0-4.0-4.0-1.10","spark_pilot_norest","8180","7","13","Male","","","","","","","null","<div style=""font-size:60px;"">+</div>","null","fixation","","","","","","","","","21","","",""
"revaluation","240","979103","0.0-4.0-4.0-0.11","spark_pilot_norest","8180","7","13","Male","","","false","","","","[1511]","./assets/img/canyon/animals/giraffe.jpg","[""ArrowLeft""]","revaluation","canyon","23","{""ArrowUp,ArrowLeft"":23,""ArrowUp,ArrowRight"":10,""ArrowDown,ArrowLeft"":8,""ArrowDown,ArrowRight"":30}","true","ArrowUp,ArrowLeft","","original","1","22","","",""
"html-keyboard-response","241","979604","0.0-4.0-4.0-1.11","spark_pilot_norest","8180","7","13","Male","","","","","","","null","<div style=""font-size:60px;"">+</div>","null","fixation","","","","","","","","","23","","",""
"revaluation","242","983608","0.0-4.0-4.0-0.12","spark_pilot_norest","8180","7","13","Male","","","false","","","","[598.7000000476837]","./assets/img/canyon/animals/giraffe.jpg","[""ArrowLeft""]","revaluation","canyon","23","{""ArrowUp,ArrowLeft"":23,""ArrowUp,ArrowRight"":10,""ArrowDown,ArrowLeft"":8,""ArrowDown,ArrowRight"":30}","true","ArrowUp,ArrowLeft","","original","1","24","","",""
"html-keyboard-response","243","984109","0.0-4.0-4.0-1.12","spark_pilot_norest","8180","7","13","Male","","","","","","","null","<div style=""font-size:60px;"">+</div>","null","fixation","","","","","","","","","25","","",""
"revaluation","244","988113","0.0-4.0-4.0-0.13","spark_pilot_norest","8180","7","13","Male","","","false","","","","[492.90000009536743]","./assets/img/canyon/animals/lion.jpg","[""ArrowRight""]","revaluation","canyon","30","{""ArrowUp,ArrowLeft"":23,""ArrowUp,ArrowRight"":10,""ArrowDown,ArrowLeft"":8,""ArrowDown,ArrowRight"":30}","true","ArrowDown,ArrowRight","","original","1","26","","",""
"html-keyboard-response","245","988615","0.0-4.0-4.0-1.13","spark_pilot_norest","8180","7","13","Male","","","","","","","null","<div style=""font-size:60px;"">+</div>","null","fixation","","","","","","","","","27","","",""
"revaluation","246","992619","0.0-4.0-4.0-0.14","spark_pilot_norest","8180","7","13","Male","","","false","","","","[836.0999999046326]","./assets/img/canyon/animals/giraffe.jpg","[""ArrowLeft""]","revaluation","canyon","23","{""ArrowUp,ArrowLeft"":23,""ArrowUp,ArrowRight"":10,""ArrowDown,ArrowLeft"":8,""ArrowDown,ArrowRight"":30}","true","ArrowUp,ArrowLeft","","original","1","28","","",""
"html-keyboard-response","247","993120","0.0-4.0-4.0-1.14","spark_pilot_norest","8180","7","13","Male","","","","","","","null","<div style=""font-size:60px;"">+</div>","null","fixation","","","","","","","","","29","","",""
"revaluation","248","997125","0.0-4.0-4.0-0.15","spark_pilot_norest","8180","7","13","Male","","","false","","","","[746.3999998569489]","./assets/img/canyon/animals/lion.jpg","[""ArrowRight""]","revaluation","canyon","30","{""ArrowUp,ArrowLeft"":23,""ArrowUp,ArrowRight"":10,""ArrowDown,ArrowLeft"":8,""ArrowDown,ArrowRight"":30}","true","ArrowDown,ArrowRight","","original","1","30","","",""
"html-keyboard-response","249","997626","0.0-4.0-4.0-1.15","spark_pilot_norest","8180","7","13","Male","","","","","","","null","<div style=""font-size:60px;"">+</div>","null","fixation","","","","","","","","","31","","",""
"revaluation","250","1001629","0.0-4.0-4.0-0.16","spark_pilot_norest","8180","7","13","Male","","","false","","","","[1256.5999999046326]","./assets/img/canyon/animals/lion.jpg","[""ArrowRight""]","revaluation","canyon","30","{""ArrowUp,ArrowLeft"":23,""ArrowUp,ArrowRight"":10,""ArrowDown,ArrowLeft"":8,""ArrowDown,ArrowRight"":30}","true","ArrowDown,ArrowRight","","original","1","32","","",""
"html-keyboard-response","251","1002131","0.0-4.0-4.0-1.16","spark_pilot_norest","8180","7","13","Male","","","","","","","null","<div style=""font-size:60px;"">+</div>","null","fixation","","","","","","","","","33","","",""
"revaluation","252","1006134","0.0-4.0-4.0-0.17","spark_pilot_norest","8180","7","13","Male","","","false","","","","[951.5]","./assets/img/canyon/animals/giraffe.jpg","[""ArrowLeft""]","revaluation","canyon","23","{""ArrowUp,ArrowLeft"":23,""ArrowUp,ArrowRight"":10,""ArrowDown,ArrowLeft"":8,""ArrowDown,ArrowRight"":30}","true","ArrowUp,ArrowLeft","","original","1","34","","",""
"html-keyboard-response","253","1006635","0.0-4.0-4.0-1.17","spark_pilot_norest","8180","7","13","Male","","","","","","","null","<div style=""font-size:60px;"">+</div>","null","fixation","","","","","","","","","35","","",""
"learning-instructions","254","1015379","0.0-4.0-5.0-0.0","spark_pilot_norest","8180","7","13","Male","","","","","","","null","<p> You have almost finished this part of the game! </p>
            <p> We are going to ask you to make a few more choices. </p>","","instructions","","","","","","","","","","","",""
"learning-instructions","255","1031342","0.0-4.0-5.0-0.1","spark_pilot_norest","8180","7","13","Male","","","","","","","null","<p> First, you need to decide whether to go up or down. When you see each picture, use the arrow keys to make your choice. </p>
            <p><b>You will not see which animal you found, but try to get to the one that will give you the most treasure.</b></p>","","instructions","","","","","","","","","","","",""
"html-keyboard-response","256","1032343","0.0-4.0-6.0-0.0","spark_pilot_norest","8180","7","13","Male","","","","","","","null","<div style=""font-size:100px;color:red;"">Starting in...</div>","null","","","","","","","","","","","","",""
"html-keyboard-response","257","1033344","0.0-4.0-6.0-1.0","spark_pilot_norest","8180","7","13","Male","","","","","","","null","<div style=""font-size:200px;color:red;"">3</div>","null","","","","","","","","","","","","",""
"html-keyboard-response","258","1034345","0.0-4.0-6.0-2.0","spark_pilot_norest","8180","7","13","Male","","","","","","","null","<div style=""font-size:200px;color:red;"">2</div>","null","","","","","","","","","","","","",""
"html-keyboard-response","259","1035360","0.0-4.0-6.0-3.0","spark_pilot_norest","8180","7","13","Male","","","","","","","null","<div style=""font-size:200px;color:red;"">1</div>","null","","","","","","","","","","","","",""
"revaluation","260","1035420","0.0-4.0-7.0-0.0","spark_pilot_norest","8180","7","13","Male","","","false","","","","[58.299999952316284]","./assets/img/canyon/test/3.jpg","[""ArrowDown""]","first stage test","canyon","0","{""ArrowUp,ArrowLeft"":23,""ArrowUp,ArrowRight"":10,""ArrowDown,ArrowLeft"":8,""ArrowDown,ArrowRight"":30}","true","ArrowDown","false","original","1","","","",""
"html-keyboard-response","261","1035935","0.0-4.0-7.0-1.0","spark_pilot_norest","8180","7","13","Male","","","","","","","null","<div style=""font-size:60px;"">+</div>","null","fixation","","","","","","","","","","","",""
"revaluation","262","1036052","0.0-4.0-7.0-0.1","spark_pilot_norest","8180","7","13","Male","","","false","","","","[115.20000004768372]","./assets/img/canyon/test/2.jpg","[""ArrowDown""]","first stage test","canyon","0","{""ArrowUp,ArrowLeft"":23,""ArrowUp,ArrowRight"":10,""ArrowDown,ArrowLeft"":8,""ArrowDown,ArrowRight"":30}","true","ArrowDown","false","original","1","","","",""
"html-keyboard-response","263","1036560","0.0-4.0-7.0-1.1","spark_pilot_norest","8180","7","13","Male","","","","","","","null","<div style=""font-size:60px;"">+</div>","null","fixation","","","","","","","","","","","",""
"revaluation","264","1036980","0.0-4.0-7.0-0.2","spark_pilot_norest","8180","7","13","Male","","","false","","","","[418.5]","./assets/img/canyon/test/1.jpg","[""ArrowDown""]","first stage test","canyon","0","{""ArrowUp,ArrowLeft"":23,""ArrowUp,ArrowRight"":10,""ArrowDown,ArrowLeft"":8,""ArrowDown,ArrowRight"":30}","true","ArrowDown","false","original","1","","","",""
"html-keyboard-response","265","1037496","0.0-4.0-7.0-1.2","spark_pilot_norest","8180","7","13","Male","","","","","","","null","<div style=""font-size:60px;"">+</div>","null","fixation","","","","","","","","","","","",""
"revaluation","266","1037691","0.0-4.0-7.0-0.3","spark_pilot_norest","8180","7","13","Male","","","false","","","","[193.79999995231628]","./assets/img/canyon/test/0.jpg","[""ArrowDown""]","first stage test","canyon","0","{""ArrowUp,ArrowLeft"":23,""ArrowUp,ArrowRight"":10,""ArrowDown,ArrowLeft"":8,""ArrowDown,ArrowRight"":30}","true","ArrowDown","false","original","1","","","",""
"html-keyboard-response","267","1038197","0.0-4.0-7.0-1.3","spark_pilot_norest","8180","7","13","Male","","","","","","","null","<div style=""font-size:60px;"">+</div>","null","fixation","","","","","","","","","","","",""
"learning-instructions","268","1051534","0.0-4.0-8.0-0.0","spark_pilot_norest","8180","7","13","Male","","","","","","","null","<p> Now you will see the animals again and can search their chests for treasure. </p>
            <p> This time, you will not see how much treasure you earned, but you will earn more bonus money for making better choices. </p>","","instructions","","","","","","","","","","","",""
"html-keyboard-response","269","1052549","0.0-4.0-9.0-0.0","spark_pilot_norest","8180","7","13","Male","","","","","","","null","<div style=""font-size:100px;color:red;"">Starting in...</div>","null","","","","","","","","","","","","",""
"html-keyboard-response","270","1053562","0.0-4.0-9.0-1.0","spark_pilot_norest","8180","7","13","Male","","","","","","","null","<div style=""font-size:200px;color:red;"">3</div>","null","","","","","","","","","","","","",""
"html-keyboard-response","271","1054562","0.0-4.0-9.0-2.0","spark_pilot_norest","8180","7","13","Male","","","","","","","null","<div style=""font-size:200px;color:red;"">2</div>","null","","","","","","","","","","","","",""
"html-keyboard-response","272","1055576","0.0-4.0-9.0-3.0","spark_pilot_norest","8180","7","13","Male","","","","","","","null","<div style=""font-size:200px;color:red;"">1</div>","null","","","","","","","","","","","","",""
"revaluation","273","1055860","0.0-4.0-10.0-0.0","spark_pilot_norest","8180","7","13","Male","","","false","","","","[282.5]","./assets/img/canyon/animals/giraffe.jpg","[""ArrowRight""]","second stage test","canyon","0","{""ArrowUp,ArrowLeft"":23,""ArrowUp,ArrowRight"":10,""ArrowDown,ArrowLeft"":8,""ArrowDown,ArrowRight"":30}","false","ArrowUp,ArrowRight","","original","1","","","",""
"html-keyboard-response","274","1056368","0.0-4.0-10.0-1.0","spark_pilot_norest","8180","7","13","Male","","","","","","","null","<div style=""font-size:60px;"">+</div>","null","fixation","","","","","","","","","","","",""
"revaluation","275","1058020","0.0-4.0-10.0-0.1","spark_pilot_norest","8180","7","13","Male","","","false","","","","[1650.0999999046326]","./assets/img/canyon/animals/giraffe.jpg","[""ArrowLeft""]","second stage test","canyon","0","{""ArrowUp,ArrowLeft"":23,""ArrowUp,ArrowRight"":10,""ArrowDown,ArrowLeft"":8,""ArrowDown,ArrowRight"":30}","true","ArrowUp,ArrowLeft","","original","1","","","",""
"html-keyboard-response","276","1058523","0.0-4.0-10.0-1.1","spark_pilot_norest","8180","7","13","Male","","","","","","","null","<div style=""font-size:60px;"">+</div>","null","fixation","","","","","","","","","","","",""
"revaluation","277","1059060","0.0-4.0-10.0-0.2","spark_pilot_norest","8180","7","13","Male","","","false","","","","[535.3999998569489]","./assets/img/canyon/animals/giraffe.jpg","[""ArrowLeft""]","second stage test","canyon","0","{""ArrowUp,ArrowLeft"":23,""ArrowUp,ArrowRight"":10,""ArrowDown,ArrowLeft"":8,""ArrowDown,ArrowRight"":30}","true","ArrowUp,ArrowLeft","","original","1","","","",""
"html-keyboard-response","278","1059566","0.0-4.0-10.0-1.2","spark_pilot_norest","8180","7","13","Male","","","","","","","null","<div style=""font-size:60px;"">+</div>","null","fixation","","","","","","","","","","","",""
"revaluation","279","1060252","0.0-4.0-10.0-0.3","spark_pilot_norest","8180","7","13","Male","","","false","","","","[683.6000001430511]","./assets/img/canyon/animals/giraffe.jpg","[""ArrowLeft""]","second stage test","canyon","0","{""ArrowUp,ArrowLeft"":23,""ArrowUp,ArrowRight"":10,""ArrowDown,ArrowLeft"":8,""ArrowDown,ArrowRight"":30}","true","ArrowUp,ArrowLeft","","original","1","","","",""
"html-keyboard-response","280","1060767","0.0-4.0-10.0-1.3","spark_pilot_norest","8180","7","13","Male","","","","","","","null","<div style=""font-size:60px;"">+</div>","null","fixation","","","","","","","","","","","",""
"revaluation","281","1061372","0.0-4.0-10.0-0.4","spark_pilot_norest","8180","7","13","Male","","","false","","","","[603.2999999523163]","./assets/img/canyon/animals/lion.jpg","[""ArrowRight""]","second stage test","canyon","0","{""ArrowUp,ArrowLeft"":23,""ArrowUp,ArrowRight"":10,""ArrowDown,ArrowLeft"":8,""ArrowDown,ArrowRight"":30}","true","ArrowDown,ArrowRight","","original","1","","","",""
"html-keyboard-response","282","1061874","0.0-4.0-10.0-1.4","spark_pilot_norest","8180","7","13","Male","","","","","","","null","<div style=""font-size:60px;"">+</div>","null","fixation","","","","","","","","","","","",""
"revaluation","283","1062372","0.0-4.0-10.0-0.5","spark_pilot_norest","8180","7","13","Male","","","false","","","","[495.59999990463257]","./assets/img/canyon/animals/lion.jpg","[""ArrowRight""]","second stage test","canyon","0","{""ArrowUp,ArrowLeft"":23,""ArrowUp,ArrowRight"":10,""ArrowDown,ArrowLeft"":8,""ArrowDown,ArrowRight"":30}","true","ArrowDown,ArrowRight","","original","1","","","",""
"html-keyboard-response","284","1062873","0.0-4.0-10.0-1.5","spark_pilot_norest","8180","7","13","Male","","","","","","","null","<div style=""font-size:60px;"">+</div>","null","fixation","","","","","","","","","","","",""
"revaluation","285","1063300","0.0-4.0-10.0-0.6","spark_pilot_norest","8180","7","13","Male","","","false","","","","[425.59999990463257]","./assets/img/canyon/animals/lion.jpg","[""ArrowRight""]","second stage test","canyon","0","{""ArrowUp,ArrowLeft"":23,""ArrowUp,ArrowRight"":10,""ArrowDown,ArrowLeft"":8,""ArrowDown,ArrowRight"":30}","true","ArrowDown,ArrowRight","","original","1","","","",""
"html-keyboard-response","286","1063808","0.0-4.0-10.0-1.6","spark_pilot_norest","8180","7","13","Male","","","","","","","null","<div style=""font-size:60px;"">+</div>","null","fixation","","","","","","","","","","","",""
"revaluation","287","1064196","0.0-4.0-10.0-0.7","spark_pilot_norest","8180","7","13","Male","","","false","","","","[385.7000000476837]","./assets/img/canyon/animals/lion.jpg","[""ArrowRight""]","second stage test","canyon","0","{""ArrowUp,ArrowLeft"":23,""ArrowUp,ArrowRight"":10,""ArrowDown,ArrowLeft"":8,""ArrowDown,ArrowRight"":30}","true","ArrowDown,ArrowRight","","original","1","","","",""
"html-keyboard-response","288","1064697","0.0-4.0-10.0-1.7","spark_pilot_norest","8180","7","13","Male","","","","","","","null","<div style=""font-size:60px;"">+</div>","null","fixation","","","","","","","","","","","",""
"learning-instructions","289","1071115","0.0-4.0-0.1-0.2","spark_pilot_norest","8180","7","13","Male","","","","","","","3714.2000000476837","<p> This time you are searching for treasure in the <b>ocean</b>.</p>","","instructions","","","","","","","","","","","",""
"learning-instructions","290","1089487","0.0-4.0-0.1-0.3","spark_pilot_norest","8180","7","13","Male","","","","","","","1125.8999998569489","<p><b>New</b> animals with <b>new</b> treasure chests live here. You need to explore to discover where the animal with the best treasure chest is.</p>
                    <p> Like before, once you figure out which animal has the chest with the most treasure, you should try to get to that animal and select that chest! </p>","","instructions","","","","","","","","","","","",""
"learning-instructions","291","1107960","0.0-4.0-1.1-0.1","spark_pilot_norest","8180","7","13","Male","","","","","","","3748.5","<p> Remember, when you see a picture of the place, use the up and down keys to <b>find an animal</b>.</p>
            <p> When you encounter an animal, you should use the left and right keys to <b>select a treasure chest</b>.</p>
            <p> Don't forget to look out for the robber! </p>","","instructions","","","","","","","","","","","",""
"revaluation","292","1111978","0.0-4.0-2.1-0.50","spark_pilot_norest","8180","7","13","Male","","","true","","","","[]","./assets/img/ocean/memory/20.jpg","[]","value training","ocean","-5","{""ArrowUp,ArrowLeft"":26,""ArrowUp,ArrowRight"":10,""ArrowDown,ArrowLeft"":5,""ArrowDown,ArrowRight"":17}","false","","false","revaluation","2","0","","",""
"html-keyboard-response","293","1112479","0.0-4.0-2.1-1.50","spark_pilot_norest","8180","7","13","Male","","","","","","","null","<div style=""font-size:60px;"">+</div>","null","fixation","","","","","","","","","1","","",""
"revaluation","294","1118495","0.0-4.0-2.1-0.51","spark_pilot_norest","8180","7","13","Male","","","false","","","","[763,658.7999999523163]","./assets/img/ocean/memory/0.jpg","[""ArrowDown"",""ArrowRight""]","value training","ocean","17","{""ArrowUp,ArrowLeft"":26,""ArrowUp,ArrowRight"":10,""ArrowDown,ArrowLeft"":5,""ArrowDown,ArrowRight"":17}","false","ArrowDown,ArrowRight","false","revaluation","2","2","","",""
"html-keyboard-response","295","1119010","0.0-4.0-2.1-1.51","spark_pilot_norest","8180","7","13","Male","","","","","","","null","<div style=""font-size:60px;"">+</div>","null","fixation","","","","","","","","","3","","",""
"revaluation","296","1125035","0.0-4.0-2.1-0.52","spark_pilot_norest","8180","7","13","Male","","","false","","","","[152.40000009536743,292.69999980926514]","./assets/img/ocean/memory/0.jpg","[""ArrowDown"",""ArrowLeft""]","value training","ocean","5","{""ArrowUp,ArrowLeft"":26,""ArrowUp,ArrowRight"":10,""ArrowDown,ArrowLeft"":5,""ArrowDown,ArrowRight"":17}","false","ArrowDown,ArrowLeft","false","revaluation","2","4","","",""
"html-keyboard-response","297","1125542","0.0-4.0-2.1-1.52","spark_pilot_norest","8180","7","13","Male","","","","","","","null","<div style=""font-size:60px;"">+</div>","null","fixation","","","","","","","","","5","","",""
"revaluation","298","1129547","0.0-4.0-2.1-0.53","spark_pilot_norest","8180","7","13","Male","","","false","","","","[67.39999985694885]","./assets/img/ocean/catch/1.jpg","[""ArrowUp""]","value training","ocean","-10","{""ArrowUp,ArrowLeft"":26,""ArrowUp,ArrowRight"":10,""ArrowDown,ArrowLeft"":5,""ArrowDown,ArrowRight"":17}","false","ArrowUp","true","revaluation","2","6","","",""
"html-keyboard-response","299","1130048","0.0-4.0-2.1-1.53","spark_pilot_norest","8180","7","13","Male","","","","","","","null","<div style=""font-size:60px;"">+</div>","null","fixation","","","","","","","","","7","","",""
"revaluation","300","1136058","0.0-4.0-2.1-0.54","spark_pilot_norest","8180","7","13","Male","","","false","","","","[394.09999990463257,528.7999999523163]","./assets/img/ocean/memory/6.jpg","[""ArrowUp"",""ArrowRight""]","value training","ocean","10","{""ArrowUp,ArrowLeft"":26,""ArrowUp,ArrowRight"":10,""ArrowDown,ArrowLeft"":5,""ArrowDown,ArrowRight"":17}","false","ArrowUp,ArrowRight","false","revaluation","2","8","","",""
"html-keyboard-response","301","1136560","0.0-4.0-2.1-1.54","spark_pilot_norest","8180","7","13","Male","","","","","","","null","<div style=""font-size:60px;"">+</div>","null","fixation","","","","","","","","","9","","",""
"revaluation","302","1142565","0.0-4.0-2.1-0.55","spark_pilot_norest","8180","7","13","Male","","","false","","","","[681.2000000476837,328.7000000476837]","./assets/img/ocean/memory/34.jpg","[""ArrowUp"",""ArrowLeft""]","value training","ocean","26","{""ArrowUp,ArrowLeft"":26,""ArrowUp,ArrowRight"":10,""ArrowDown,ArrowLeft"":5,""ArrowDown,ArrowRight"":17}","true","ArrowUp,ArrowLeft","false","revaluation","2","10","","",""
"html-keyboard-response","303","1143066","0.0-4.0-2.1-1.55","spark_pilot_norest","8180","7","13","Male","","","","","","","null","<div style=""font-size:60px;"">+</div>","null","fixation","","","","","","","","","11","","",""
"revaluation","304","1149072","0.0-4.0-2.1-0.56","spark_pilot_norest","8180","7","13","Male","","","false","","","","[198.90000009536743,183.19999980926514]","./assets/img/ocean/memory/21.jpg","[""ArrowUp"",""ArrowLeft""]","value training","ocean","26","{""ArrowUp,ArrowLeft"":26,""ArrowUp,ArrowRight"":10,""ArrowDown,ArrowLeft"":5,""ArrowDown,ArrowRight"":17}","true","ArrowUp,ArrowLeft","false","revaluation","2","12","","",""
"html-keyboard-response","305","1149574","0.0-4.0-2.1-1.56","spark_pilot_norest","8180","7","13","Male","","","","","","","null","<div style=""font-size:60px;"">+</div>","null","fixation","","","","","","","","","13","","",""
"revaluation","306","1155577","0.0-4.0-2.1-0.57","spark_pilot_norest","8180","7","13","Male","","","false","","","","[460.7999999523163,12]","./assets/img/ocean/memory/35.jpg","[""ArrowUp"",""ArrowLeft""]","value training","ocean","26","{""ArrowUp,ArrowLeft"":26,""ArrowUp,ArrowRight"":10,""ArrowDown,ArrowLeft"":5,""ArrowDown,ArrowRight"":17}","true","ArrowUp,ArrowLeft","false","revaluation","2","14","","",""
"html-keyboard-response","307","1156079","0.0-4.0-2.1-1.57","spark_pilot_norest","8180","7","13","Male","","","","","","","null","<div style=""font-size:60px;"">+</div>","null","fixation","","","","","","","","","15","","",""
"revaluation","308","1162084","0.0-4.0-2.1-0.58","spark_pilot_norest","8180","7","13","Male","","","false","","","","[402.59999990463257,33.700000047683716]","./assets/img/ocean/memory/16.jpg","[""ArrowUp"",""ArrowLeft""]","value training","ocean","26","{""ArrowUp,ArrowLeft"":26,""ArrowUp,ArrowRight"":10,""ArrowDown,ArrowLeft"":5,""ArrowDown,ArrowRight"":17}","true","ArrowUp,ArrowLeft","false","revaluation","2","16","","",""
"html-keyboard-response","309","1162586","0.0-4.0-2.1-1.58","spark_pilot_norest","8180","7","13","Male","","","","","","","null","<div style=""font-size:60px;"">+</div>","null","fixation","","","","","","","","","17","","",""
"revaluation","310","1168604","0.0-4.0-2.1-0.59","spark_pilot_norest","8180","7","13","Male","","","false","","","","[423.59999990463257,31.700000047683716]","./assets/img/ocean/memory/15.jpg","[""ArrowUp"",""ArrowLeft""]","value training","ocean","26","{""ArrowUp,ArrowLeft"":26,""ArrowUp,ArrowRight"":10,""ArrowDown,ArrowLeft"":5,""ArrowDown,ArrowRight"":17}","true","ArrowUp,ArrowLeft","false","revaluation","2","18","","",""
"html-keyboard-response","311","1169106","0.0-4.0-2.1-1.59","spark_pilot_norest","8180","7","13","Male","","","","","","","null","<div style=""font-size:60px;"">+</div>","null","fixation","","","","","","","","","19","","",""
"revaluation","312","1175112","0.0-4.0-2.1-0.60","spark_pilot_norest","8180","7","13","Male","","","true","","","","[847.8999998569489]","./assets/img/ocean/memory/25.jpg","[""ArrowUp""]","value training","ocean","-5","{""ArrowUp,ArrowLeft"":26,""ArrowUp,ArrowRight"":10,""ArrowDown,ArrowLeft"":5,""ArrowDown,ArrowRight"":17}","false","ArrowUp","false","revaluation","2","20","","",""
"html-keyboard-response","313","1175613","0.0-4.0-2.1-1.60","spark_pilot_norest","8180","7","13","Male","","","","","","","null","<div style=""font-size:60px;"">+</div>","null","fixation","","","","","","","","","21","","",""
"revaluation","314","1181618","0.0-4.0-2.1-0.61","spark_pilot_norest","8180","7","13","Male","","","false","","","","[500.7999999523163,380.5]","./assets/img/ocean/memory/19.jpg","[""ArrowUp"",""ArrowLeft""]","value training","ocean","26","{""ArrowUp,ArrowLeft"":26,""ArrowUp,ArrowRight"":10,""ArrowDown,ArrowLeft"":5,""ArrowDown,ArrowRight"":17}","true","ArrowUp,ArrowLeft","false","revaluation","2","22","","",""
