"trial_type","trial_index","time_elapsed","internal_node_id","task_version","subject_id","assigned_condition","age","gender","success","timeout","failed_images","failed_audio","failed_video","browser_interaction","rt","stimulus","response","task_part","environment","score","rewardMap","correct","fullState","isCatch","condition","order","trial_num","key_press","ground_truth","bonus"
"pavlovia","0","2208","0.0-0.0","spark_pilot_norest","8205","6","20","Female","","","","","","","","","","","","","","","","","","","","","",""
"preload","1","11062","0.0-1.0","spark_pilot_norest","8205","6","20","Female","true","false","[]","[]","[]","[{""event"":""fullscreenenter"",""trial"":2,""time"":22953}]","","","","","","","","","","","","","","","",""
"fullscreen","2","23928","0.0-2.0","spark_pilot_norest","8205","6","20","Female","true","","","","","","","","","","","","","","","","","","","","",""
"audio-button-response","3","27843","0.0-3.0-0.0-0.0","spark_pilot_norest","8205","6","20","Female","","","","","","","3669","./assets/audio/audiotest/turtle.mp3","2","audio_test","","","","","","","","","","","",""
"learning-instructions","4","37133","0.0-3.0-1.0-0.0","spark_pilot_norest","8205","6","20","Female","","","","","","","2280.6999999284744","<p> Welcome! Please remember to stay in fullscreen mode and don't click away from the experiment. </p>","","instructions","","","","","","","","","","","",""
"learning-instructions","5","46350","0.0-3.0-1.0-0.1","spark_pilot_norest","8205","6","20","Female","","","","","","","798.6999999284744","<p> Today you will be playing a game to earn treasure. </p>
            <p> At the end of the experiment, you will earn a bonus based on how much treasure you find. </p>
            <img src='./assets/img/instructions/treasure.jpg' class='instructions-image'>","","instructions","","","","","","","","","","","",""
"learning-instructions","6","55837","0.0-3.0-1.0-0.2","spark_pilot_norest","8205","6","20","Female","","","","","","","1214.8999999761581","<p> Animals have hidden treasure in treasure chests. </p>
            <p> You need to first find an animal and then choose which of their treasure chests to search. </p>
            <img src='./assets/img/space/animals/cat.jpg' class='instructions-image'>","","instructions","","","","","","","","","","","",""
"learning-instructions","7","70085","0.0-3.0-1.0-0.3","spark_pilot_norest","8205","6","20","Female","","","","","","","1073.3999999761581","<p> In each round, you will search for treasure in a different place. In the real game, there will be two rounds. </p>
            <p> You will begin with a separate, practice round where you will search for treasure in outer space. </p>
            <img src='./assets/img/space/0.jpg' class='instructions-image'>","","instructions","","","","","","","","","","","",""
"learning-instructions","8","82856","0.0-3.0-1.0-0.4","spark_pilot_norest","8205","6","20","Female","","","","","","","1344.7999999523163","<p> On every turn, you will see a picture of the place that you are in, but the specific image may be different each time. </p>
            <p> For example, both of these images mean you are in outer space. </p>
            <img src='./assets/img/instructions/outerspace.jpg' class='instructions-image'>","","instructions","","","","","","","","","","","",""
"learning-instructions","9","93786","0.0-3.0-1.0-0.5","spark_pilot_norest","8205","6","20","Female","","","","","","","3093.3000000715256","<p> You need to decide which direction to travel in. </p>
            <p> You can choose between going <b>up or down</b> by using the arrow keys. </p>
            <img src='./assets/img/instructions/updown.jpg' class='instructions-image'>","","instructions","","","","","","","","","","","",""
"learning-instructions","10","103614","0.0-3.0-1.0-0.6","spark_pilot_norest","8205","6","20","Female","","","","","","","1002.3999999761581","<p> You will have <b>2 seconds</b> to make your choice. </p>
            <p> If you do not make a choice within 2 seconds, you will not find an animal or earn treasure. </p>
            <img src='./assets/img/instructions/2seconds.jpg' class='instructions-image'>","","instructions","","","","","","","","","","","",""
"learning-instructions","11","113848","0.0-3.0-1.0-0.7","spark_pilot_norest","8205","6","20","Female","","","","","","","3185.6999999284744","<p> Let’s try practicing that now! </p>
            <p> When you see a picture of the place you are in, press the <b>up</b> key to travel up. </p>
            <img src='./assets/img/instructions/pressUp.jpg' class='instructions-image'>","","instructions","","","","","","","","","","","",""
"revaluation","12","117880","0.0-3.0-2.0-0.0","spark_pilot_norest","8205","6","20","Female","","false","","","","","[1373.6999999284744]","./assets/img/space/0.jpg","[""ArrowUp""]","first stage practice","space","0","null","null","ArrowUp","false","","","","","",""
"html-keyboard-response","13","118393","0.0-3.0-2.0-1.0","spark_pilot_norest","8205","6","20","Female","","","","","","","null","<div style=""font-size:60px;"">+</div>","null","fixation","","","","","","","","","","","",""
"revaluation","14","122401","0.0-3.0-2.0-0.1","spark_pilot_norest","8205","6","20","Female","","true","","","","","[]","./assets/img/space/1.jpg","[]","first stage practice","space","-5","null","null","","false","","","","","",""
"html-keyboard-response","15","122917","0.0-3.0-2.0-1.1","spark_pilot_norest","8205","6","20","Female","","","","","","","null","<div style=""font-size:60px;"">+</div>","null","fixation","","","","","","","","","","","",""
"revaluation","16","126925","0.0-3.0-2.0-0.2","spark_pilot_norest","8205","6","20","Female","","true","","","","","[]","./assets/img/space/2.jpg","[]","first stage practice","space","-5","null","null","","false","","","","","",""
"html-keyboard-response","17","127427","0.0-3.0-2.0-1.2","spark_pilot_norest","8205","6","20","Female","","","","","","","null","<div style=""font-size:60px;"">+</div>","null","fixation","","","","","","","","","","","",""
"learning-instructions","18","134066","0.0-3.0-3.0-0.0","spark_pilot_norest","8205","6","20","Female","","","","","","","1933.4000000953674","<p> Great job! Now try pressing the <b>down</b> key to travel down. </p>
            <img src='./assets/img/instructions/pressDown.jpg' class='instructions-image'>","","instructions","","","","","","","","","","","",""
"revaluation","19","138075","0.0-3.0-4.0-0.0","spark_pilot_norest","8205","6","20","Female","","false","","","","","[624]","./assets/img/space/3.jpg","[""ArrowDown""]","first stage practice","space","0","null","null","ArrowDown","false","","","","","",""
"html-keyboard-response","20","138592","0.0-3.0-4.0-1.0","spark_pilot_norest","8205","6","20","Female","","","","","","","null","<div style=""font-size:60px;"">+</div>","null","fixation","","","","","","","","","","","",""
"revaluation","21","142605","0.0-3.0-4.0-0.1","spark_pilot_norest","8205","6","20","Female","","false","","","","","[1306.9000000953674]","./assets/img/space/4.jpg","[""ArrowDown""]","first stage practice","space","0","null","null","ArrowDown","false","","","","","",""
"html-keyboard-response","22","143115","0.0-3.0-4.0-1.1","spark_pilot_norest","8205","6","20","Female","","","","","","","null","<div style=""font-size:60px;"">+</div>","null","fixation","","","","","","","","","","","",""
"revaluation","23","147131","0.0-3.0-4.0-0.2","spark_pilot_norest","8205","6","20","Female","","false","","","","","[1364.3999999761581]","./assets/img/space/5.jpg","[""ArrowDown""]","first stage practice","space","0","null","null","ArrowDown","false","","","","","",""
"html-keyboard-response","24","147633","0.0-3.0-4.0-1.2","spark_pilot_norest","8205","6","20","Female","","","","","","","null","<div style=""font-size:60px;"">+</div>","null","fixation","","","","","","","","","","","",""
"learning-instructions","25","159550","0.0-3.0-5.0-0.0","spark_pilot_norest","8205","6","20","Female","","","","","","","2048.1999999284744","<p> The animals don’t move, so the animal in the upper part of a place will stay in the upper part of a place, and the animal in the lower part of a place will stay in the lower part of a place. </p>","","instructions","","","","","","","","","","","",""
"learning-instructions","26","170114","0.0-3.0-5.0-0.1","spark_pilot_norest","8205","6","20","Female","","","","","","","1411.8999999761581","<p> Each animal has two treasure chests for you to choose from. </p>
            <p> The amount of treasure in each chest can range from <b> 0 to 40 pieces.</b></p>","","instructions","","","","","","","","","","","",""
"learning-instructions","27","182372","0.0-3.0-5.0-0.2","spark_pilot_norest","8205","6","20","Female","","","","","","","1060.5999999046326","<p> You should decide which chest to search for treasure by using the <b>left</b> and <b>right</b> arrow keys. </p>
            <p><b> Pay attention to which animal is on the screen, as the animals have different treasure chests. </b></p>
            <img src='./assets/img/instructions/leftright.jpg' class='instructions-image'>","","instructions","","","","","","","","","","","",""
"learning-instructions","28","189886","0.0-3.0-5.0-0.3","spark_pilot_norest","8205","6","20","Female","","","","","","","1145.1000000238419","<p> Let’s try practicing that now. </p>
            <p> When you see an animal, choose which chest to search for treasure. </p>
            <img src='./assets/img/instructions/chooseChest.jpg' class='instructions-image'>","","instructions","","","","","","","","","","","",""
"revaluation","29","193903","0.0-3.0-6.0-0.0","spark_pilot_norest","8205","6","20","Female","","false","","","","","[954.5]","./assets/img/space/animals/rabbit.jpg","[""ArrowRight""]","second stage practice","space","23","{""ArrowUp,ArrowLeft"":3,""ArrowUp,ArrowRight"":36,""ArrowDown,ArrowLeft"":15,""ArrowDown,ArrowRight"":23}","true","ArrowDown,ArrowRight","","","","","","",""
"html-keyboard-response","30","194404","0.0-3.0-6.0-1.0","spark_pilot_norest","8205","6","20","Female","","","","","","","null","<div style=""font-size:60px;"">+</div>","null","fixation","","","","","","","","","","","",""
"revaluation","31","198417","0.0-3.0-6.0-0.1","spark_pilot_norest","8205","6","20","Female","","false","","","","","[836.7000000476837]","./assets/img/space/animals/rabbit.jpg","[""ArrowLeft""]","second stage practice","space","15","{""ArrowUp,ArrowLeft"":3,""ArrowUp,ArrowRight"":36,""ArrowDown,ArrowLeft"":15,""ArrowDown,ArrowRight"":23}","false","ArrowDown,ArrowLeft","","","","","","",""
"html-keyboard-response","32","198934","0.0-3.0-6.0-1.1","spark_pilot_norest","8205","6","20","Female","","","","","","","null","<div style=""font-size:60px;"">+</div>","null","fixation","","","","","","","","","","","",""
"revaluation","33","202951","0.0-3.0-6.0-0.2","spark_pilot_norest","8205","6","20","Female","","false","","","","","[785.8000000715256]","./assets/img/space/animals/cat.jpg","[""ArrowLeft""]","second stage practice","space","3","{""ArrowUp,ArrowLeft"":3,""ArrowUp,ArrowRight"":36,""ArrowDown,ArrowLeft"":15,""ArrowDown,ArrowRight"":23}","false","ArrowUp,ArrowLeft","","","","","","",""
"html-keyboard-response","34","203453","0.0-3.0-6.0-1.2","spark_pilot_norest","8205","6","20","Female","","","","","","","null","<div style=""font-size:60px;"">+</div>","null","fixation","","","","","","","","","","","",""
"revaluation","35","207461","0.0-3.0-6.0-0.3","spark_pilot_norest","8205","6","20","Female","","false","","","","","[887.5]","./assets/img/space/animals/cat.jpg","[""ArrowRight""]","second stage practice","space","36","{""ArrowUp,ArrowLeft"":3,""ArrowUp,ArrowRight"":36,""ArrowDown,ArrowLeft"":15,""ArrowDown,ArrowRight"":23}","true","ArrowUp,ArrowRight","","","","","","",""
"html-keyboard-response","36","207963","0.0-3.0-6.0-1.3","spark_pilot_norest","8205","6","20","Female","","","","","","","null","<div style=""font-size:60px;"">+</div>","null","fixation","","","","","","","","","","","",""
"learning-instructions","37","225880","0.0-3.0-7.0-0.0","spark_pilot_norest","8205","6","20","Female","","","","","","","1068.2999999523163","<p> Great job. Now let’s try putting it together. </p>
            <p> On each turn, you will first see a picture to remind you of the place you are in, and you need to choose whether to go up or down. </p>
            <p> Then you will see an animal and choose which of its chests to search for treasure. </p>","","instructions","","","","","","","","","","","",""
"learning-instructions","38","235338","0.0-3.0-7.0-0.1","spark_pilot_norest","8205","6","20","Female","","","","","","","1186.6000000238419","<p> When you choose whether to go up or down, try to go to the animal with the chest with the most treasure. </p>
            <p> Try practicing that now! </p>","","instructions","","","","","","","","","","","",""
"revaluation","39","241370","0.0-3.0-8.0-0.0","spark_pilot_norest","8205","6","20","Female","","false","","","","","[963.5,1250]","./assets/img/space/6.jpg","[""ArrowUp"",""ArrowRight""]","full practice","space","36","{""ArrowUp,ArrowLeft"":3,""ArrowUp,ArrowRight"":36,""ArrowDown,ArrowLeft"":15,""ArrowDown,ArrowRight"":23}","true","ArrowUp,ArrowRight","false","","","","","",""
"html-keyboard-response","40","241872","0.0-3.0-8.0-1.0","spark_pilot_norest","8205","6","20","Female","","","","","","","null","<div style=""font-size:60px;"">+</div>","null","fixation","","","","","","","","","","","",""
"revaluation","41","247892","0.0-3.0-8.0-0.1","spark_pilot_norest","8205","6","20","Female","","false","","","","","[1009.0999999046326,1187.6000000238419]","./assets/img/space/7.jpg","[""ArrowUp"",""ArrowRight""]","full practice","space","36","{""ArrowUp,ArrowLeft"":3,""ArrowUp,ArrowRight"":36,""ArrowDown,ArrowLeft"":15,""ArrowDown,ArrowRight"":23}","true","ArrowUp,ArrowRight","false","","","","","",""
"html-keyboard-response","42","248407","0.0-3.0-8.0-1.1","spark_pilot_norest","8205","6","20","Female","","","","","","","null","<div style=""font-size:60px;"">+</div>","null","fixation","","","","","","","","","","","",""
"revaluation","43","254432","0.0-3.0-8.0-0.2","spark_pilot_norest","8205","6","20","Female","","false","","","","","[963.6000000238419,986.1000000238419]","./assets/img/space/8.jpg","[""ArrowDown"",""ArrowLeft""]","full practice","space","15","{""ArrowUp,ArrowLeft"":3,""ArrowUp,ArrowRight"":36,""ArrowDown,ArrowLeft"":15,""ArrowDown,ArrowRight"":23}","false","ArrowDown,ArrowLeft","false","","","","","",""
"html-keyboard-response","44","254933","0.0-3.0-8.0-1.2","spark_pilot_norest","8205","6","20","Female","","","","","","","null","<div style=""font-size:60px;"">+</div>","null","fixation","","","","","","","","","","","",""
"revaluation","45","260962","0.0-3.0-8.0-0.3","spark_pilot_norest","8205","6","20","Female","","false","","","","","[796.1000000238419,878.8000000715256]","./assets/img/space/9.jpg","[""ArrowDown"",""ArrowRight""]","full practice","space","23","{""ArrowUp,ArrowLeft"":3,""ArrowUp,ArrowRight"":36,""ArrowDown,ArrowLeft"":15,""ArrowDown,ArrowRight"":23}","false","ArrowDown,ArrowRight","false","","","","","",""
"html-keyboard-response","46","261476","0.0-3.0-8.0-1.3","spark_pilot_norest","8205","6","20","Female","","","","","","","null","<div style=""font-size:60px;"">+</div>","null","fixation","","","","","","","","","","","",""
"revaluation","47","267485","0.0-3.0-8.0-0.4","spark_pilot_norest","8205","6","20","Female","","false","","","","","[904.7000000476837,861.1999999284744]","./assets/img/space/10.jpg","[""ArrowDown"",""ArrowLeft""]","full practice","space","15","{""ArrowUp,ArrowLeft"":3,""ArrowUp,ArrowRight"":36,""ArrowDown,ArrowLeft"":15,""ArrowDown,ArrowRight"":23}","false","ArrowDown,ArrowLeft","false","","","","","",""
"html-keyboard-response","48","267987","0.0-3.0-8.0-1.4","spark_pilot_norest","8205","6","20","Female","","","","","","","null","<div style=""font-size:60px;"">+</div>","null","fixation","","","","","","","","","","","",""
"learning-instructions","49","279863","0.0-3.0-9.0-0.0","spark_pilot_norest","8205","6","20","Female","","","","","","","1465.5","<p> One last thing: sometimes, you will see a robber. The robber can be anywhere in the picture. </p>
            <p> If you do not stop them, you will lose treasure. </p>
            <img src='./assets/img/instructions/robber.jpg' class='instructions-image'>","","instructions","","","","","","","","","","","",""
"learning-instructions","50","288009","0.0-3.0-9.0-0.1","spark_pilot_norest","8205","6","20","Female","","","","","","","962","<p> If you see the robber, you should <b>press the space bar</b> rather than using the arrow keys. </p>
            <p> Try practicing that now! </p>","","instructions","","","","","","","","","","","",""
"revaluation","51","292030","0.0-3.0-10.0-0.0","spark_pilot_norest","8205","6","20","Female","","false","","","","","[1332.5]","./assets/img/space/catch/0.jpg","[""spaceBar""]","catch practice","space","0","{""ArrowUp,ArrowLeft"":3,""ArrowUp,ArrowRight"":36,""ArrowDown,ArrowLeft"":15,""ArrowDown,ArrowRight"":23}","true","spaceBar","true","","","","","",""
"html-keyboard-response","52","292546","0.0-3.0-10.0-1.0","spark_pilot_norest","8205","6","20","Female","","","","","","","null","<div style=""font-size:60px;"">+</div>","null","fixation","","","","","","","","","","","",""
"revaluation","53","296572","0.0-3.0-10.0-0.1","spark_pilot_norest","8205","6","20","Female","","false","","","","","[694.7000000476837]","./assets/img/space/catch/1.jpg","[""spaceBar""]","catch practice","space","0","{""ArrowUp,ArrowLeft"":3,""ArrowUp,ArrowRight"":36,""ArrowDown,ArrowLeft"":15,""ArrowDown,ArrowRight"":23}","true","spaceBar","true","","","","","",""
"html-keyboard-response","54","297087","0.0-3.0-10.0-1.1","spark_pilot_norest","8205","6","20","Female","","","","","","","null","<div style=""font-size:60px;"">+</div>","null","fixation","","","","","","","","","","","",""
"revaluation","55","301119","0.0-3.0-10.0-0.2","spark_pilot_norest","8205","6","20","Female","","false","","","","","[904.4000000953674]","./assets/img/space/catch/2.jpg","[""spaceBar""]","catch practice","space","0","{""ArrowUp,ArrowLeft"":3,""ArrowUp,ArrowRight"":36,""ArrowDown,ArrowLeft"":15,""ArrowDown,ArrowRight"":23}","true","spaceBar","true","","","","","",""
"html-keyboard-response","56","301622","0.0-3.0-10.0-1.2","spark_pilot_norest","8205","6","20","Female","","","","","","","null","<div style=""font-size:60px;"">+</div>","null","fixation","","","","","","","","","","","",""
"learning-instructions","57","308252","0.0-3.0-11.0-0.0-0.0","spark_pilot_norest","8205","6","20","Female","","","","","","","1364.6000000238419","<p> Now, you will practice a shortened version of the game to get a sense of how it all fits together. </p>","","instructions","","","","","","","","","","","",""
"learning-instructions","58","313102","0.0-3.0-11.0-0.0-0.1","spark_pilot_norest","8205","6","20","Female","","","","","","","1655.5","<p>This time you are searching for treasure in outer space.</p>","","instructions","","","","","","","","","","","",""
"learning-instructions","59","329395","0.0-3.0-11.0-1.0-0.0","spark_pilot_norest","8205","6","20","Female","","","","","","","1495.5","<p> Remember, when you see a picture of the place, use the up and down keys to <b>find an animal</b>.</p>
            <p> When you encounter an animal, you should use the left and right keys to <b>select a treasure chest</b>.</p>
            <p> Don't forget to look out for the robber! </p>","","instructions","","","","","","","","","","","",""
"revaluation","60","335411","0.0-3.0-11.0-2.0-0.0","spark_pilot_norest","8205","6","20","Female","","false","","","","","[1437,1124.5]","./assets/img/space/11.jpg","[""ArrowUp"",""ArrowRight""]","practice block","space","36","{""ArrowUp,ArrowLeft"":3,""ArrowUp,ArrowRight"":36,""ArrowDown,ArrowLeft"":15,""ArrowDown,ArrowRight"":23}","true","ArrowUp,ArrowRight","false","","","","","",""
"html-keyboard-response","61","335926","0.0-3.0-11.0-2.0-1.0","spark_pilot_norest","8205","6","20","Female","","","","","","","null","<div style=""font-size:60px;"">+</div>","null","fixation","","","","","","","","","","","",""
"revaluation","62","341959","0.0-3.0-11.0-2.0-0.1","spark_pilot_norest","8205","6","20","Female","","false","","","","","[1464.8999999761581,1153.6000000238419]","./assets/img/space/12.jpg","[""ArrowDown"",""ArrowRight""]","practice block","space","23","{""ArrowUp,ArrowLeft"":3,""ArrowUp,ArrowRight"":36,""ArrowDown,ArrowLeft"":15,""ArrowDown,ArrowRight"":23}","false","ArrowDown,ArrowRight","false","","","","","",""
"html-keyboard-response","63","342461","0.0-3.0-11.0-2.0-1.1","spark_pilot_norest","8205","6","20","Female","","","","","","","null","<div style=""font-size:60px;"">+</div>","null","fixation","","","","","","","","","","","",""
"revaluation","64","346488","0.0-3.0-11.0-2.0-0.2","spark_pilot_norest","8205","6","20","Female","","true","","","","","[]","./assets/img/space/13.jpg","[]","practice block","space","-5","{""ArrowUp,ArrowLeft"":3,""ArrowUp,ArrowRight"":36,""ArrowDown,ArrowLeft"":15,""ArrowDown,ArrowRight"":23}","false","","false","","","","","",""
"html-keyboard-response","65","347003","0.0-3.0-11.0-2.0-1.2","spark_pilot_norest","8205","6","20","Female","","","","","","","null","<div style=""font-size:60px;"">+</div>","null","fixation","","","","","","","","","","","",""
"revaluation","66","353033","0.0-3.0-11.0-2.0-0.3","spark_pilot_norest","8205","6","20","Female","","true","","","","","[779.6999999284744]","./assets/img/space/14.jpg","[""ArrowUp""]","practice block","space","-5","{""ArrowUp,ArrowLeft"":3,""ArrowUp,ArrowRight"":36,""ArrowDown,ArrowLeft"":15,""ArrowDown,ArrowRight"":23}","false","ArrowUp","false","","","","","",""
"html-keyboard-response","67","353540","0.0-3.0-11.0-2.0-1.3","spark_pilot_norest","8205","6","20","Female","","","","","","","null","<div style=""font-size:60px;"">+</div>","null","fixation","","","","","","","","","","","",""
"revaluation","68","359563","0.0-3.0-11.0-2.0-0.4","spark_pilot_norest","8205","6","20","Female","","false","","","","","[1670.2999999523163,590.1999999284744]","./assets/img/space/11.jpg","[""ArrowDown"",""ArrowRight""]","practice block","space","23","{""ArrowUp,ArrowLeft"":3,""ArrowUp,ArrowRight"":36,""ArrowDown,ArrowLeft"":15,""ArrowDown,ArrowRight"":23}","false","ArrowDown,ArrowRight","false","","","","","",""
"html-keyboard-response","69","360066","0.0-3.0-11.0-2.0-1.4","spark_pilot_norest","8205","6","20","Female","","","","","","","null","<div style=""font-size:60px;"">+</div>","null","fixation","","","","","","","","","","","",""
"revaluation","70","366071","0.0-3.0-11.0-2.0-0.5","spark_pilot_norest","8205","6","20","Female","","false","","","","","[986.8999999761581,655.2999999523163]","./assets/img/space/12.jpg","[""ArrowDown"",""ArrowRight""]","practice block","space","23","{""ArrowUp,ArrowLeft"":3,""ArrowUp,ArrowRight"":36,""ArrowDown,ArrowLeft"":15,""ArrowDown,ArrowRight"":23}","false","ArrowDown,ArrowRight","false","","","","","",""
"html-keyboard-response","71","366575","0.0-3.0-11.0-2.0-1.5","spark_pilot_norest","8205","6","20","Female","","","","","","","null","<div style=""font-size:60px;"">+</div>","null","fixation","","","","","","","","","","","",""
"revaluation","72","372580","0.0-3.0-11.0-2.0-0.6","spark_pilot_norest","8205","6","20","Female","","true","","","","","[1217]","./assets/img/space/13.jpg","[""ArrowDown""]","practice block","space","-5","{""ArrowUp,ArrowLeft"":3,""ArrowUp,ArrowRight"":36,""ArrowDown,ArrowLeft"":15,""ArrowDown,ArrowRight"":23}","false","ArrowDown","false","","","","","",""
"html-keyboard-response","73","373082","0.0-3.0-11.0-2.0-1.6","spark_pilot_norest","8205","6","20","Female","","","","","","","null","<div style=""font-size:60px;"">+</div>","null","fixation","","","","","","","","","","","",""
"revaluation","74","379088","0.0-3.0-11.0-2.0-0.7","spark_pilot_norest","8205","6","20","Female","","false","","","","","[1309.5,618.9000000953674]","./assets/img/space/14.jpg","[""ArrowDown"",""ArrowRight""]","practice block","space","23","{""ArrowUp,ArrowLeft"":3,""ArrowUp,ArrowRight"":36,""ArrowDown,ArrowLeft"":15,""ArrowDown,ArrowRight"":23}","false","ArrowDown,ArrowRight","false","","","","","",""
"html-keyboard-response","75","379590","0.0-3.0-11.0-2.0-1.7","spark_pilot_norest","8205","6","20","Female","","","","","","","null","<div style=""font-size:60px;"">+</div>","null","fixation","","","","","","","","","","","",""
"revaluation","76","383596","0.0-3.0-11.0-2.0-0.8","spark_pilot_norest","8205","6","20","Female","","false","","","","","[1021.2000000476837]","./assets/img/space/catch/3.jpg","[""spaceBar""]","practice block","space","0","{""ArrowUp,ArrowLeft"":3,""ArrowUp,ArrowRight"":36,""ArrowDown,ArrowLeft"":15,""ArrowDown,ArrowRight"":23}","true","spaceBar","true","","","","","",""
"html-keyboard-response","77","384104","0.0-3.0-11.0-2.0-1.8","spark_pilot_norest","8205","6","20","Female","","","","","","","null","<div style=""font-size:60px;"">+</div>","null","fixation","","","","","","","","","","","",""
"learning-instructions","78","405945","0.0-3.0-11.0-3.0-0.0","spark_pilot_norest","8205","6","20","Female","","","","","","","8498.5","<p> Now, you will travel with a friend who will choose whether you go up or down first. </p>
            <p> On these turns, you will just see the animal that they found. You will still get to choose which chest to search for treasure.</p>","","instructions","","","","","","","","","","","",""
"revaluation","79","409956","0.0-3.0-11.0-4.0-0.0","spark_pilot_norest","8205","6","20","Female","","false","","","","","[1116.2000000476837]","./assets/img/space/animals/rabbit.jpg","[""ArrowRight""]","practice block","space","23","{""ArrowUp,ArrowLeft"":3,""ArrowUp,ArrowRight"":36,""ArrowDown,ArrowLeft"":15,""ArrowDown,ArrowRight"":23}","true","ArrowDown,ArrowRight","","","","","","",""
"html-keyboard-response","80","410469","0.0-3.0-11.0-4.0-1.0","spark_pilot_norest","8205","6","20","Female","","","","","","","null","<div style=""font-size:60px;"">+</div>","null","fixation","","","","","","","","","","","",""
"revaluation","81","414493","0.0-3.0-11.0-4.0-0.1","spark_pilot_norest","8205","6","20","Female","","false","","","","","[701.2000000476837]","./assets/img/space/animals/rabbit.jpg","[""ArrowLeft""]","practice block","space","15","{""ArrowUp,ArrowLeft"":3,""ArrowUp,ArrowRight"":36,""ArrowDown,ArrowLeft"":15,""ArrowDown,ArrowRight"":23}","false","ArrowDown,ArrowLeft","","","","","","",""
"html-keyboard-response","82","414996","0.0-3.0-11.0-4.0-1.1","spark_pilot_norest","8205","6","20","Female","","","","","","","null","<div style=""font-size:60px;"">+</div>","null","fixation","","","","","","","","","","","",""
"revaluation","83","419020","0.0-3.0-11.0-4.0-0.2","spark_pilot_norest","8205","6","20","Female","","false","","","","","[776.4000000953674]","./assets/img/space/animals/cat.jpg","[""ArrowRight""]","practice block","space","36","{""ArrowUp,ArrowLeft"":3,""ArrowUp,ArrowRight"":36,""ArrowDown,ArrowLeft"":15,""ArrowDown,ArrowRight"":23}","true","ArrowUp,ArrowRight","","","","","","",""
"html-keyboard-response","84","419522","0.0-3.0-11.0-4.0-1.2","spark_pilot_norest","8205","6","20","Female","","","","","","","null","<div style=""font-size:60px;"">+</div>","null","fixation","","","","","","","","","","","",""
"revaluation","85","423545","0.0-3.0-11.0-4.0-0.3","spark_pilot_norest","8205","6","20","Female","","false","","","","","[639.6000000238419]","./assets/img/space/animals/cat.jpg","[""ArrowRight""]","practice block","space","36","{""ArrowUp,ArrowLeft"":3,""ArrowUp,ArrowRight"":36,""ArrowDown,ArrowLeft"":15,""ArrowDown,ArrowRight"":23}","true","ArrowUp,ArrowRight","","","","","","",""
"html-keyboard-response","86","424060","0.0-3.0-11.0-4.0-1.3","spark_pilot_norest","8205","6","20","Female","","","","","","","null","<div style=""font-size:60px;"">+</div>","null","fixation","","","","","","","","","","","",""
"learning-instructions","87","432208","0.0-3.0-11.0-5.0-0.0","spark_pilot_norest","8205","6","20","Female","","","","","","","null","<p> You have almost finished this part of the game! </p>
            <p> We are going to ask you to make a few more choices. </p>","","instructions","","","","","","","","","","","",""
"learning-instructions","88","448255","0.0-3.0-11.0-5.0-0.1","spark_pilot_norest","8205","6","20","Female","","","","","","","null","<p> First, you need to decide whether to go up or down. When you see each picture, use the arrow keys to make your choice. </p>
            <p><b>You will not see which animal you found, but try to get to the one that will give you the most treasure.</b></p>","","instructions","","","","","","","","","","","",""
"html-keyboard-response","89","449257","0.0-3.0-11.0-6.0-0.0","spark_pilot_norest","8205","6","20","Female","","","","","","","null","<div style=""font-size:100px;color:red;"">Starting in...</div>","null","","","","","","","","","","","","",""
"html-keyboard-response","90","450270","0.0-3.0-11.0-6.0-1.0","spark_pilot_norest","8205","6","20","Female","","","","","","","null","<div style=""font-size:200px;color:red;"">3</div>","null","","","","","","","","","","","","",""
"html-keyboard-response","91","451286","0.0-3.0-11.0-6.0-2.0","spark_pilot_norest","8205","6","20","Female","","","","","","","null","<div style=""font-size:200px;color:red;"">2</div>","null","","","","","","","","","","","","",""
"html-keyboard-response","92","452300","0.0-3.0-11.0-6.0-3.0","spark_pilot_norest","8205","6","20","Female","","","","","","","null","<div style=""font-size:200px;color:red;"">1</div>","null","","","","","","","","","","","","",""
"revaluation","93","452816","0.0-3.0-11.0-7.0","spark_pilot_norest","8205","6","20","Female","","false","","","","","[512.4000000953674]","./assets/img/space/15.jpg","[""ArrowUp""]","practice block","space","0","{""ArrowUp,ArrowLeft"":3,""ArrowUp,ArrowRight"":36,""ArrowDown,ArrowLeft"":15,""ArrowDown,ArrowRight"":23}","true","ArrowUp","false","","","","","",""
"html-keyboard-response","94","453329","0.0-3.0-11.0-8.0","spark_pilot_norest","8205","6","20","Female","","","","","","","null","<div style=""font-size:60px;"">+</div>","null","fixation","","","","","","","","","","","",""
"learning-instructions","95","466735","0.0-3.0-11.0-9.0-0.0","spark_pilot_norest","8205","6","20","Female","","","","","","","null","<p> Now you will see the animals again and can search their chests for treasure. </p>
            <p> This time, you will not see how much treasure you earned, but you will earn more bonus money for making better choices. </p>","","instructions","","","","","","","","","","","",""
"html-keyboard-response","96","467737","0.0-3.0-11.0-10.0-0.0","spark_pilot_norest","8205","6","20","Female","","","","","","","null","<div style=""font-size:100px;color:red;"">Starting in...</div>","null","","","","","","","","","","","","",""
"html-keyboard-response","97","468739","0.0-3.0-11.0-10.0-1.0","spark_pilot_norest","8205","6","20","Female","","","","","","","null","<div style=""font-size:200px;color:red;"">3</div>","null","","","","","","","","","","","","",""
"html-keyboard-response","98","469748","0.0-3.0-11.0-10.0-2.0","spark_pilot_norest","8205","6","20","Female","","","","","","","null","<div style=""font-size:200px;color:red;"">2</div>","null","","","","","","","","","","","","",""
"html-keyboard-response","99","470764","0.0-3.0-11.0-10.0-3.0","spark_pilot_norest","8205","6","20","Female","","","","","","","null","<div style=""font-size:200px;color:red;"">1</div>","null","","","","","","","","","","","","",""
"revaluation","100","471236","0.0-3.0-11.0-11.0-0.0","spark_pilot_norest","8205","6","20","Female","","false","","","","","[464.3000000715256]","./assets/img/space/animals/cat.jpg","[""ArrowRight""]","practice block","space","0","{""ArrowUp,ArrowLeft"":3,""ArrowUp,ArrowRight"":36,""ArrowDown,ArrowLeft"":15,""ArrowDown,ArrowRight"":23}","true","ArrowUp,ArrowRight","","","","","","",""
"html-keyboard-response","101","471747","0.0-3.0-11.0-11.0-1.0","spark_pilot_norest","8205","6","20","Female","","","","","","","null","<div style=""font-size:60px;"">+</div>","null","fixation","","","","","","","","","","","",""
"revaluation","102","472455","0.0-3.0-11.0-11.0-0.1","spark_pilot_norest","8205","6","20","Female","","false","","","","","[705.6999999284744]","./assets/img/space/animals/rabbit.jpg","[""ArrowRight""]","practice block","space","0","{""ArrowUp,ArrowLeft"":3,""ArrowUp,ArrowRight"":36,""ArrowDown,ArrowLeft"":15,""ArrowDown,ArrowRight"":23}","true","ArrowDown,ArrowRight","","","","","","",""
"html-keyboard-response","103","472968","0.0-3.0-11.0-11.0-1.1","spark_pilot_norest","8205","6","20","Female","","","","","","","null","<div style=""font-size:60px;"">+</div>","null","fixation","","","","","","","","","","","",""
"learning-instructions","104","478586","0.0-3.0-12.0-0.0","spark_pilot_norest","8205","6","20","Female","","","","","","","1028.3999999761581","<p> Before you start, we're going to ask you a few questions about how the game works. </p>","","instructions","","","","","","","","","","","",""
"comp-q","105","490595","0.0-3.0-13.0-0.0-0.0","spark_pilot_norest","8205","6","20","Female","","","","","","","6412.699999928474","<p> <b> True or False? </b> </p>
            <p> There can be 50 pieces of treasure in a given animal's chest. </p>","0","comp_question","","","","false","","","","","","","",""
"comp-q","106","498721","0.0-3.0-13.0-0.0-1.0","spark_pilot_norest","8205","6","20","Female","","","","","","","1584.1000000238419","<p> <b>Incorrect.</b> The amount of treasure in each chest can range from 0 to 40 pieces. </p>","0","comp_answer","","","","","","","","","","","",""
"comp-q","107","505864","0.0-3.0-13.0-0.1-0.1","spark_pilot_norest","8205","6","20","Female","","","","","","","1577.6000000238419","<p> <b> True or False? </b> </p>
            <p> There can be 50 pieces of treasure in a given animal's chest. </p>","1","comp_question","","","","true","","","","","","","",""
"comp-q","108","515007","0.0-3.0-13.0-0.1-1.1","spark_pilot_norest","8205","6","20","Female","","","","","","","2470.2999999523163","<p> <b> That's right! </b> The amount of treasure in each chest can range from 0 to 40 pieces. </p>","0","comp_answer","","","","","","","","","","","",""
"comp-q","109","523365","0.0-3.0-13.0-0.2-0.2","spark_pilot_norest","8205","6","20","Female","","","","","","","1238.5","<p> <b> True or False? </b> </p><p> In this game, all animals have the same amount of treasure in their left and right chests. </p>","1","comp_question","","","","true","","","","","","","",""
"comp-q","110","530401","0.0-3.0-13.0-0.2-1.2","spark_pilot_norest","8205","6","20","Female","","","","","","","1794.5","<p> <b> That's right! </b> Animals have different amounts of treasure in their treasure chests. </p>","0","comp_answer","","","","","","","","","","","",""
"comp-q","111","537133","0.0-3.0-13.0-0.3-0.3","spark_pilot_norest","8205","6","20","Female","","","","","","","876.8000000715256","<p> <b> True or False? </b> </p><p> The same animal will always be there if you go up in the same place. </p>","1","comp_question","","","","false","","","","","","","",""
"comp-q","112","545303","0.0-3.0-13.0-0.3-1.3","spark_pilot_norest","8205","6","20","Female","","","","","","","1866.6000000238419","<p> <b>Incorrect.</b> One animal lives in the upper part and one lives in the lower part of every place. </p>","0","comp_answer","","","","","","","","","","","",""
"comp-q","113","551953","0.0-3.0-13.0-0.4-0.4","spark_pilot_norest","8205","6","20","Female","","","","","","","825.8000000715256","<p> <b> True or False? </b> </p><p> The same animal will always be there if you go up in the same place. </p>","0","comp_question","","","","true","","","","","","","",""
"comp-q","114","561557","0.0-3.0-13.0-0.4-1.4","spark_pilot_norest","8205","6","20","Female","","","","","","","3139.8000000715256","<p> <b> That's right! </b> One animal lives in the upper part and one lives in the lower part of every place. </p>","0","comp_answer","","","","","","","","","","","",""
"comp-q","115","570619","0.0-3.0-13.0-0.5-0.5","spark_pilot_norest","8205","6","20","Female","","","","","","","3522.399999976158","<p> <b> True or False? </b> </p><p> If you see a different picture, it means you are in a new place. </p>","1","comp_question","","","","true","","","","","","","",""
"comp-q","116","583966","0.0-3.0-13.0-0.5-1.5","spark_pilot_norest","8205","6","20","Female","","","","","","","2098.8000000715256","<p> <b> That's right! </b> Lots of different images may show the same place. For example,  you may see three different images that all remind you that you are in outer space. </p>","0","comp_answer","","","","","","","","","","","",""
"learning-instructions","117","596464","0.0-3.0-14.0-0.0","spark_pilot_norest","8205","6","20","Female","","","","","","","2637.2999999523163","<p> Good job. Remember to do your best because the amount of treasure you earn will be converted into bonus money. </p>
            <p> It’s time to start the real game! </p>","","instructions","","","","","","","","","","","",""
"learning-instructions","118","600939","0.0-4.0-0.0-0.0","spark_pilot_norest","8205","6","20","Female","","","","","","","1712.6999999284744","<p> This time you are searching for treasure in the <b>canyon</b>.</p>","","instructions","","","","","","","","","","","",""
"learning-instructions","119","619872","0.0-4.0-0.0-0.1","spark_pilot_norest","8205","6","20","Female","","","","","","","1606.1000000238419","<p><b>New</b> animals with <b>new</b> treasure chests live here. You need to explore to discover where the animal with the best treasure chest is.</p>
                    <p> Like before, once you figure out which animal has the chest with the most treasure, you should try to get to that animal and select that chest! </p>","","instructions","","","","","","","","","","","",""
"learning-instructions","120","637044","0.0-4.0-1.0-0.0","spark_pilot_norest","8205","6","20","Female","","","","","","","2438","<p> Remember, when you see a picture of the place, use the up and down keys to <b>find an animal</b>.</p>
            <p> When you encounter an animal, you should use the left and right keys to <b>select a treasure chest</b>.</p>
            <p> Don't forget to look out for the robber! </p>","","instructions","","","","","","","","","","","",""
"revaluation","121","643084","0.0-4.0-2.0-0.0","spark_pilot_norest","8205","6","20","Female","","false","","","","","[1057.7999999523163,694.7000000476837]","./assets/img/canyon/memory/0.jpg","[""ArrowDown"",""ArrowRight""]","value training","canyon","30","{""ArrowUp,ArrowLeft"":23,""ArrowUp,ArrowRight"":10,""ArrowDown,ArrowLeft"":8,""ArrowDown,ArrowRight"":30}","true","ArrowDown,ArrowRight","false","revaluation","1","0","","",""
"html-keyboard-response","122","643599","0.0-4.0-2.0-1.0","spark_pilot_norest","8205","6","20","Female","","","","","","","null","<div style=""font-size:60px;"">+</div>","null","fixation","","","","","","","","","1","","",""
"revaluation","123","649631","0.0-4.0-2.0-0.1","spark_pilot_norest","8205","6","20","Female","","false","","","","","[652.2999999523163,725.1000000238419]","./assets/img/canyon/memory/23.jpg","[""ArrowDown"",""ArrowRight""]","value training","canyon","30","{""ArrowUp,ArrowLeft"":23,""ArrowUp,ArrowRight"":10,""ArrowDown,ArrowLeft"":8,""ArrowDown,ArrowRight"":30}","true","ArrowDown,ArrowRight","false","revaluation","1","2","","",""
"html-keyboard-response","124","650136","0.0-4.0-2.0-1.1","spark_pilot_norest","8205","6","20","Female","","","","","","","null","<div style=""font-size:60px;"">+</div>","null","fixation","","","","","","","","","3","","",""
"revaluation","125","656170","0.0-4.0-2.0-0.2","spark_pilot_norest","8205","6","20","Female","","false","","","","","[688,499.89999997615814]","./assets/img/canyon/memory/11.jpg","[""ArrowUp"",""ArrowLeft""]","value training","canyon","23","{""ArrowUp,ArrowLeft"":23,""ArrowUp,ArrowRight"":10,""ArrowDown,ArrowLeft"":8,""ArrowDown,ArrowRight"":30}","false","ArrowUp,ArrowLeft","false","revaluation","1","4","","",""
"html-keyboard-response","126","656687","0.0-4.0-2.0-1.2","spark_pilot_norest","8205","6","20","Female","","","","","","","null","<div style=""font-size:60px;"">+</div>","null","fixation","","","","","","","","","5","","",""
"revaluation","127","662714","0.0-4.0-2.0-0.3","spark_pilot_norest","8205","6","20","Female","","false","","","","","[483.89999997615814,481.8000000715256]","./assets/img/canyon/memory/37.jpg","[""ArrowUp"",""ArrowRight""]","value training","canyon","10","{""ArrowUp,ArrowLeft"":23,""ArrowUp,ArrowRight"":10,""ArrowDown,ArrowLeft"":8,""ArrowDown,ArrowRight"":30}","false","ArrowUp,ArrowRight","false","revaluation","1","6","","",""
"html-keyboard-response","128","663227","0.0-4.0-2.0-1.3","spark_pilot_norest","8205","6","20","Female","","","","","","","null","<div style=""font-size:60px;"">+</div>","null","fixation","","","","","","","","","7","","",""
"revaluation","129","669232","0.0-4.0-2.0-0.4","spark_pilot_norest","8205","6","20","Female","","false","","","","","[656.1000000238419,535]","./assets/img/canyon/memory/14.jpg","[""ArrowDown"",""ArrowRight""]","value training","canyon","30","{""ArrowUp,ArrowLeft"":23,""ArrowUp,ArrowRight"":10,""ArrowDown,ArrowLeft"":8,""ArrowDown,ArrowRight"":30}","true","ArrowDown,ArrowRight","false","revaluation","1","8","","",""
"html-keyboard-response","130","669734","0.0-4.0-2.0-1.4","spark_pilot_norest","8205","6","20","Female","","","","","","","null","<div style=""font-size:60px;"">+</div>","null","fixation","","","","","","","","","9","","",""
"revaluation","131","675742","0.0-4.0-2.0-0.5","spark_pilot_norest","8205","6","20","Female","","false","","","","","[637.0999999046326,565.7999999523163]","./assets/img/canyon/memory/22.jpg","[""ArrowDown"",""ArrowLeft""]","value training","canyon","8","{""ArrowUp,ArrowLeft"":23,""ArrowUp,ArrowRight"":10,""ArrowDown,ArrowLeft"":8,""ArrowDown,ArrowRight"":30}","false","ArrowDown,ArrowLeft","false","revaluation","1","10","","",""
"html-keyboard-response","132","676243","0.0-4.0-2.0-1.5","spark_pilot_norest","8205","6","20","Female","","","","","","","null","<div style=""font-size:60px;"">+</div>","null","fixation","","","","","","","","","11","","",""
"revaluation","133","682251","0.0-4.0-2.0-0.6","spark_pilot_norest","8205","6","20","Female","","false","","","","","[558.7999999523163,578]","./assets/img/canyon/memory/21.jpg","[""ArrowDown"",""ArrowRight""]","value training","canyon","30","{""ArrowUp,ArrowLeft"":23,""ArrowUp,ArrowRight"":10,""ArrowDown,ArrowLeft"":8,""ArrowDown,ArrowRight"":30}","true","ArrowDown,ArrowRight","false","revaluation","1","12","","",""
"html-keyboard-response","134","682753","0.0-4.0-2.0-1.6","spark_pilot_norest","8205","6","20","Female","","","","","","","null","<div style=""font-size:60px;"">+</div>","null","fixation","","","","","","","","","13","","",""
"revaluation","135","688757","0.0-4.0-2.0-0.7","spark_pilot_norest","8205","6","20","Female","","false","","","","","[690.5,579.8999999761581]","./assets/img/canyon/memory/12.jpg","[""ArrowDown"",""ArrowRight""]","value training","canyon","30","{""ArrowUp,ArrowLeft"":23,""ArrowUp,ArrowRight"":10,""ArrowDown,ArrowLeft"":8,""ArrowDown,ArrowRight"":30}","true","ArrowDown,ArrowRight","false","revaluation","1","14","","",""
"html-keyboard-response","136","689258","0.0-4.0-2.0-1.7","spark_pilot_norest","8205","6","20","Female","","","","","","","null","<div style=""font-size:60px;"">+</div>","null","fixation","","","","","","","","","15","","",""
"revaluation","137","695265","0.0-4.0-2.0-0.8","spark_pilot_norest","8205","6","20","Female","","false","","","","","[553.5,502.10000002384186]","./assets/img/canyon/memory/29.jpg","[""ArrowDown"",""ArrowRight""]","value training","canyon","30","{""ArrowUp,ArrowLeft"":23,""ArrowUp,ArrowRight"":10,""ArrowDown,ArrowLeft"":8,""ArrowDown,ArrowRight"":30}","true","ArrowDown,ArrowRight","false","revaluation","1","16","","",""
"html-keyboard-response","138","695766","0.0-4.0-2.0-1.8","spark_pilot_norest","8205","6","20","Female","","","","","","","null","<div style=""font-size:60px;"">+</div>","null","fixation","","","","","","","","","17","","",""
"revaluation","139","699773","0.0-4.0-2.0-0.9","spark_pilot_norest","8205","6","20","Female","","false","","","","","[745.2999999523163]","./assets/img/canyon/catch/3.jpg","[""spaceBar""]","value training","canyon","0","{""ArrowUp,ArrowLeft"":23,""ArrowUp,ArrowRight"":10,""ArrowDown,ArrowLeft"":8,""ArrowDown,ArrowRight"":30}","true","spaceBar","true","revaluation","1","18","","",""
"html-keyboard-response","140","700274","0.0-4.0-2.0-1.9","spark_pilot_norest","8205","6","20","Female","","","","","","","null","<div style=""font-size:60px;"">+</div>","null","fixation","","","","","","","","","19","","",""
"revaluation","141","706281","0.0-4.0-2.0-0.10","spark_pilot_norest","8205","6","20","Female","","false","","","","","[567,466.40000009536743]","./assets/img/canyon/memory/17.jpg","[""ArrowDown"",""ArrowRight""]","value training","canyon","30","{""ArrowUp,ArrowLeft"":23,""ArrowUp,ArrowRight"":10,""ArrowDown,ArrowLeft"":8,""ArrowDown,ArrowRight"":30}","true","ArrowDown,ArrowRight","false","revaluation","1","20","","",""
"html-keyboard-response","142","706783","0.0-4.0-2.0-1.10","spark_pilot_norest","8205","6","20","Female","","","","","","","null","<div style=""font-size:60px;"">+</div>","null","fixation","","","","","","","","","21","","",""
"revaluation","143","712789","0.0-4.0-2.0-0.11","spark_pilot_norest","8205","6","20","Female","","false","","","","","[610.3999999761581,588.8000000715256]","./assets/img/canyon/memory/19.jpg","[""ArrowDown"",""ArrowRight""]","value training","canyon","30","{""ArrowUp,ArrowLeft"":23,""ArrowUp,ArrowRight"":10,""ArrowDown,ArrowLeft"":8,""ArrowDown,ArrowRight"":30}","true","ArrowDown,ArrowRight","false","revaluation","1","22","","",""
"html-keyboard-response","144","713292","0.0-4.0-2.0-1.11","spark_pilot_norest","8205","6","20","Female","","","","","","","null","<div style=""font-size:60px;"">+</div>","null","fixation","","","","","","","","","23","","",""
"revaluation","145","719296","0.0-4.0-2.0-0.12","spark_pilot_norest","8205","6","20","Female","","false","","","","","[632.7999999523163,541.7000000476837]","./assets/img/canyon/memory/10.jpg","[""ArrowDown"",""ArrowRight""]","value training","canyon","30","{""ArrowUp,ArrowLeft"":23,""ArrowUp,ArrowRight"":10,""ArrowDown,ArrowLeft"":8,""ArrowDown,ArrowRight"":30}","true","ArrowDown,ArrowRight","false","revaluation","1","24","","",""
"html-keyboard-response","146","719798","0.0-4.0-2.0-1.12","spark_pilot_norest","8205","6","20","Female","","","","","","","null","<div style=""font-size:60px;"">+</div>","null","fixation","","","","","","","","","25","","",""
"revaluation","147","723802","0.0-4.0-2.0-0.13","spark_pilot_norest","8205","6","20","Female","","false","","","","","[746.8000000715256]","./assets/img/canyon/catch/6.jpg","[""spaceBar""]","value training","canyon","0","{""ArrowUp,ArrowLeft"":23,""ArrowUp,ArrowRight"":10,""ArrowDown,ArrowLeft"":8,""ArrowDown,ArrowRight"":30}","true","spaceBar","true","revaluation","1","26","","",""
"html-keyboard-response","148","724303","0.0-4.0-2.0-1.13","spark_pilot_norest","8205","6","20","Female","","","","","","","null","<div style=""font-size:60px;"">+</div>","null","fixation","","","","","","","","","27","","",""
"revaluation","149","730308","0.0-4.0-2.0-0.14","spark_pilot_norest","8205","6","20","Female","","false","","","","","[601.5,399.60000002384186]","./assets/img/canyon/memory/34.jpg","[""ArrowDown"",""ArrowRight""]","value training","canyon","30","{""ArrowUp,ArrowLeft"":23,""ArrowUp,ArrowRight"":10,""ArrowDown,ArrowLeft"":8,""ArrowDown,ArrowRight"":30}","true","ArrowDown,ArrowRight","false","revaluation","1","28","","",""
"html-keyboard-response","150","730810","0.0-4.0-2.0-1.14","spark_pilot_norest","8205","6","20","Female","","","","","","","null","<div style=""font-size:60px;"">+</div>","null","fixation","","","","","","","","","29","","",""
"revaluation","151","736816","0.0-4.0-2.0-0.15","spark_pilot_norest","8205","6","20","Female","","false","","","","","[483.3000000715256,472.40000009536743]","./assets/img/canyon/memory/13.jpg","[""ArrowDown"",""ArrowRight""]","value training","canyon","30","{""ArrowUp,ArrowLeft"":23,""ArrowUp,ArrowRight"":10,""ArrowDown,ArrowLeft"":8,""ArrowDown,ArrowRight"":30}","true","ArrowDown,ArrowRight","false","revaluation","1","30","","",""
"html-keyboard-response","152","737318","0.0-4.0-2.0-1.15","spark_pilot_norest","8205","6","20","Female","","","","","","","null","<div style=""font-size:60px;"">+</div>","null","fixation","","","","","","","","","31","","",""
"revaluation","153","743325","0.0-4.0-2.0-0.16","spark_pilot_norest","8205","6","20","Female","","false","","","","","[565.3999999761581,504.2000000476837]","./assets/img/canyon/memory/0.jpg","[""ArrowDown"",""ArrowRight""]","value training","canyon","30","{""ArrowUp,ArrowLeft"":23,""ArrowUp,ArrowRight"":10,""ArrowDown,ArrowLeft"":8,""ArrowDown,ArrowRight"":30}","true","ArrowDown,ArrowRight","false","revaluation","1","32","","",""
"html-keyboard-response","154","743826","0.0-4.0-2.0-1.16","spark_pilot_norest","8205","6","20","Female","","","","","","","null","<div style=""font-size:60px;"">+</div>","null","fixation","","","","","","","","","33","","",""
"revaluation","155","749833","0.0-4.0-2.0-0.17","spark_pilot_norest","8205","6","20","Female","","false","","","","","[686.1999999284744,615.2000000476837]","./assets/img/canyon/memory/17.jpg","[""ArrowDown"",""ArrowRight""]","value training","canyon","30","{""ArrowUp,ArrowLeft"":23,""ArrowUp,ArrowRight"":10,""ArrowDown,ArrowLeft"":8,""ArrowDown,ArrowRight"":30}","true","ArrowDown,ArrowRight","false","revaluation","1","34","","",""
"html-keyboard-response","156","750334","0.0-4.0-2.0-1.17","spark_pilot_norest","8205","6","20","Female","","","","","","","null","<div style=""font-size:60px;"">+</div>","null","fixation","","","","","","","","","35","","",""
"revaluation","157","756339","0.0-4.0-2.0-0.18","spark_pilot_norest","8205","6","20","Female","","false","","","","","[509.89999997615814,418.90000009536743]","./assets/img/canyon/memory/20.jpg","[""ArrowDown"",""ArrowRight""]","value training","canyon","30","{""ArrowUp,ArrowLeft"":23,""ArrowUp,ArrowRight"":10,""ArrowDown,ArrowLeft"":8,""ArrowDown,ArrowRight"":30}","true","ArrowDown,ArrowRight","false","revaluation","1","36","","",""
"html-keyboard-response","158","756841","0.0-4.0-2.0-1.18","spark_pilot_norest","8205","6","20","Female","","","","","","","null","<div style=""font-size:60px;"">+</div>","null","fixation","","","","","","","","","37","","",""
"revaluation","159","762846","0.0-4.0-2.0-0.19","spark_pilot_norest","8205","6","20","Female","","false","","","","","[542.5,542.1000000238419]","./assets/img/canyon/memory/1.jpg","[""ArrowDown"",""ArrowRight""]","value training","canyon","30","{""ArrowUp,ArrowLeft"":23,""ArrowUp,ArrowRight"":10,""ArrowDown,ArrowLeft"":8,""ArrowDown,ArrowRight"":30}","true","ArrowDown,ArrowRight","false","revaluation","1","38","","",""
"html-keyboard-response","160","763348","0.0-4.0-2.0-1.19","spark_pilot_norest","8205","6","20","Female","","","","","","","null","<div style=""font-size:60px;"">+</div>","null","fixation","","","","","","","","","39","","",""
"revaluation","161","769354","0.0-4.0-2.0-0.20","spark_pilot_norest","8205","6","20","Female","","false","","","","","[614.2000000476837,533.3999999761581]","./assets/img/canyon/memory/14.jpg","[""ArrowDown"",""ArrowRight""]","value training","canyon","30","{""ArrowUp,ArrowLeft"":23,""ArrowUp,ArrowRight"":10,""ArrowDown,ArrowLeft"":8,""ArrowDown,ArrowRight"":30}","true","ArrowDown,ArrowRight","false","revaluation","1","40","","",""
"html-keyboard-response","162","769857","0.0-4.0-2.0-1.20","spark_pilot_norest","8205","6","20","Female","","","","","","","null","<div style=""font-size:60px;"">+</div>","null","fixation","","","","","","","","","41","","",""
"revaluation","163","775862","0.0-4.0-2.0-0.21","spark_pilot_norest","8205","6","20","Female","","false","","","","","[587,576.6000000238419]","./assets/img/canyon/memory/11.jpg","[""ArrowDown"",""ArrowRight""]","value training","canyon","30","{""ArrowUp,ArrowLeft"":23,""ArrowUp,ArrowRight"":10,""ArrowDown,ArrowLeft"":8,""ArrowDown,ArrowRight"":30}","true","ArrowDown,ArrowRight","false","revaluation","1","42","","",""
"html-keyboard-response","164","776363","0.0-4.0-2.0-1.21","spark_pilot_norest","8205","6","20","Female","","","","","","","null","<div style=""font-size:60px;"">+</div>","null","fixation","","","","","","","","","43","","",""
"revaluation","165","782369","0.0-4.0-2.0-0.22","spark_pilot_norest","8205","6","20","Female","","false","","","","","[660.5,539.7000000476837]","./assets/img/canyon/memory/22.jpg","[""ArrowDown"",""ArrowRight""]","value training","canyon","30","{""ArrowUp,ArrowLeft"":23,""ArrowUp,ArrowRight"":10,""ArrowDown,ArrowLeft"":8,""ArrowDown,ArrowRight"":30}","true","ArrowDown,ArrowRight","false","revaluation","1","44","","",""
"html-keyboard-response","166","782871","0.0-4.0-2.0-1.22","spark_pilot_norest","8205","6","20","Female","","","","","","","null","<div style=""font-size:60px;"">+</div>","null","fixation","","","","","","","","","45","","",""
"revaluation","167","788879","0.0-4.0-2.0-0.23","spark_pilot_norest","8205","6","20","Female","","false","","","","","[521.1000000238419,428.7999999523163]","./assets/img/canyon/memory/31.jpg","[""ArrowDown"",""ArrowRight""]","value training","canyon","30","{""ArrowUp,ArrowLeft"":23,""ArrowUp,ArrowRight"":10,""ArrowDown,ArrowLeft"":8,""ArrowDown,ArrowRight"":30}","true","ArrowDown,ArrowRight","false","revaluation","1","46","","",""
"html-keyboard-response","168","789380","0.0-4.0-2.0-1.23","spark_pilot_norest","8205","6","20","Female","","","","","","","null","<div style=""font-size:60px;"">+</div>","null","fixation","","","","","","","","","47","","",""
"revaluation","169","795386","0.0-4.0-2.0-0.24","spark_pilot_norest","8205","6","20","Female","","false","","","","","[543.6000000238419,562.3000000715256]","./assets/img/canyon/memory/20.jpg","[""ArrowDown"",""ArrowRight""]","value training","canyon","30","{""ArrowUp,ArrowLeft"":23,""ArrowUp,ArrowRight"":10,""ArrowDown,ArrowLeft"":8,""ArrowDown,ArrowRight"":30}","true","ArrowDown,ArrowRight","false","revaluation","1","48","","",""
"html-keyboard-response","170","795889","0.0-4.0-2.0-1.24","spark_pilot_norest","8205","6","20","Female","","","","","","","null","<div style=""font-size:60px;"">+</div>","null","fixation","","","","","","","","","49","","",""
"revaluation","171","801895","0.0-4.0-2.0-0.25","spark_pilot_norest","8205","6","20","Female","","false","","","","","[524.4000000953674,783.2999999523163]","./assets/img/canyon/memory/12.jpg","[""ArrowDown"",""ArrowRight""]","value training","canyon","30","{""ArrowUp,ArrowLeft"":23,""ArrowUp,ArrowRight"":10,""ArrowDown,ArrowLeft"":8,""ArrowDown,ArrowRight"":30}","true","ArrowDown,ArrowRight","false","revaluation","1","50","","",""
"html-keyboard-response","172","802396","0.0-4.0-2.0-1.25","spark_pilot_norest","8205","6","20","Female","","","","","","","null","<div style=""font-size:60px;"">+</div>","null","fixation","","","","","","","","","51","","",""
"revaluation","173","808402","0.0-4.0-2.0-0.26","spark_pilot_norest","8205","6","20","Female","","false","","","","","[628.1999999284744,525.5]","./assets/img/canyon/memory/24.jpg","[""ArrowDown"",""ArrowRight""]","value training","canyon","30","{""ArrowUp,ArrowLeft"":23,""ArrowUp,ArrowRight"":10,""ArrowDown,ArrowLeft"":8,""ArrowDown,ArrowRight"":30}","true","ArrowDown,ArrowRight","false","revaluation","1","52","","",""
"html-keyboard-response","174","808903","0.0-4.0-2.0-1.26","spark_pilot_norest","8205","6","20","Female","","","","","","","null","<div style=""font-size:60px;"">+</div>","null","fixation","","","","","","","","","53","","",""
"revaluation","175","814910","0.0-4.0-2.0-0.27","spark_pilot_norest","8205","6","20","Female","","false","","","","","[610.3000000715256,500.3000000715256]","./assets/img/canyon/memory/24.jpg","[""ArrowDown"",""ArrowRight""]","value training","canyon","30","{""ArrowUp,ArrowLeft"":23,""ArrowUp,ArrowRight"":10,""ArrowDown,ArrowLeft"":8,""ArrowDown,ArrowRight"":30}","true","ArrowDown,ArrowRight","false","revaluation","1","54","","",""
"html-keyboard-response","176","815412","0.0-4.0-2.0-1.27","spark_pilot_norest","8205","6","20","Female","","","","","","","null","<div style=""font-size:60px;"">+</div>","null","fixation","","","","","","","","","55","","",""
"revaluation","177","821418","0.0-4.0-2.0-0.28","spark_pilot_norest","8205","6","20","Female","","false","","","","","[512.1000000238419,521]","./assets/img/canyon/memory/13.jpg","[""ArrowDown"",""ArrowRight""]","value training","canyon","30","{""ArrowUp,ArrowLeft"":23,""ArrowUp,ArrowRight"":10,""ArrowDown,ArrowLeft"":8,""ArrowDown,ArrowRight"":30}","true","ArrowDown,ArrowRight","false","revaluation","1","56","","",""
"html-keyboard-response","178","821920","0.0-4.0-2.0-1.28","spark_pilot_norest","8205","6","20","Female","","","","","","","null","<div style=""font-size:60px;"">+</div>","null","fixation","","","","","","","","","57","","",""
"revaluation","179","827925","0.0-4.0-2.0-0.29","spark_pilot_norest","8205","6","20","Female","","false","","","","","[623.8000000715256,483.2000000476837]","./assets/img/canyon/memory/1.jpg","[""ArrowDown"",""ArrowRight""]","value training","canyon","30","{""ArrowUp,ArrowLeft"":23,""ArrowUp,ArrowRight"":10,""ArrowDown,ArrowLeft"":8,""ArrowDown,ArrowRight"":30}","true","ArrowDown,ArrowRight","false","revaluation","1","58","","",""
"html-keyboard-response","180","828427","0.0-4.0-2.0-1.29","spark_pilot_norest","8205","6","20","Female","","","","","","","null","<div style=""font-size:60px;"">+</div>","null","fixation","","","","","","","","","59","","",""
"revaluation","181","834434","0.0-4.0-2.0-0.30","spark_pilot_norest","8205","6","20","Female","","false","","","","","[537.1999999284744,505.10000002384186]","./assets/img/canyon/memory/29.jpg","[""ArrowDown"",""ArrowRight""]","value training","canyon","30","{""ArrowUp,ArrowLeft"":23,""ArrowUp,ArrowRight"":10,""ArrowDown,ArrowLeft"":8,""ArrowDown,ArrowRight"":30}","true","ArrowDown,ArrowRight","false","revaluation","1","60","","",""
"html-keyboard-response","182","834936","0.0-4.0-2.0-1.30","spark_pilot_norest","8205","6","20","Female","","","","","","","null","<div style=""font-size:60px;"">+</div>","null","fixation","","","","","","","","","61","","",""
"revaluation","183","840944","0.0-4.0-2.0-0.31","spark_pilot_norest","8205","6","20","Female","","false","","","","","[536.6000000238419,556.2000000476837]","./assets/img/canyon/memory/23.jpg","[""ArrowDown"",""ArrowRight""]","value training","canyon","30","{""ArrowUp,ArrowLeft"":23,""ArrowUp,ArrowRight"":10,""ArrowDown,ArrowLeft"":8,""ArrowDown,ArrowRight"":30}","true","ArrowDown,ArrowRight","false","revaluation","1","62","","",""
"html-keyboard-response","184","841446","0.0-4.0-2.0-1.31","spark_pilot_norest","8205","6","20","Female","","","","","","","null","<div style=""font-size:60px;"">+</div>","null","fixation","","","","","","","","","63","","",""
"revaluation","185","847454","0.0-4.0-2.0-0.32","spark_pilot_norest","8205","6","20","Female","","false","","","","","[687,605.3999999761581]","./assets/img/canyon/memory/34.jpg","[""ArrowDown"",""ArrowRight""]","value training","canyon","30","{""ArrowUp,ArrowLeft"":23,""ArrowUp,ArrowRight"":10,""ArrowDown,ArrowLeft"":8,""ArrowDown,ArrowRight"":30}","true","ArrowDown,ArrowRight","false","revaluation","1","64","","",""
"html-keyboard-response","186","847956","0.0-4.0-2.0-1.32","spark_pilot_norest","8205","6","20","Female","","","","","","","null","<div style=""font-size:60px;"">+</div>","null","fixation","","","","","","","","","65","","",""
"revaluation","187","851962","0.0-4.0-2.0-0.33","spark_pilot_norest","8205","6","20","Female","","false","","","","","[571]","./assets/img/canyon/catch/5.jpg","[""spaceBar""]","value training","canyon","0","{""ArrowUp,ArrowLeft"":23,""ArrowUp,ArrowRight"":10,""ArrowDown,ArrowLeft"":8,""ArrowDown,ArrowRight"":30}","true","spaceBar","true","revaluation","1","66","","",""
"html-keyboard-response","188","852464","0.0-4.0-2.0-1.33","spark_pilot_norest","8205","6","20","Female","","","","","","","null","<div style=""font-size:60px;"">+</div>","null","fixation","","","","","","","","","67","","",""
"revaluation","189","858470","0.0-4.0-2.0-0.34","spark_pilot_norest","8205","6","20","Female","","false","","","","","[600.7999999523163,529.6000000238419]","./assets/img/canyon/memory/37.jpg","[""ArrowDown"",""ArrowRight""]","value training","canyon","30","{""ArrowUp,ArrowLeft"":23,""ArrowUp,ArrowRight"":10,""ArrowDown,ArrowLeft"":8,""ArrowDown,ArrowRight"":30}","true","ArrowDown,ArrowRight","false","revaluation","1","68","","",""
"html-keyboard-response","190","858971","0.0-4.0-2.0-1.34","spark_pilot_norest","8205","6","20","Female","","","","","","","null","<div style=""font-size:60px;"">+</div>","null","fixation","","","","","","","","","69","","",""
"revaluation","191","864978","0.0-4.0-2.0-0.35","spark_pilot_norest","8205","6","20","Female","","false","","","","","[512.6000000238419,521.9000000953674]","./assets/img/canyon/memory/27.jpg","[""ArrowDown"",""ArrowRight""]","value training","canyon","30","{""ArrowUp,ArrowLeft"":23,""ArrowUp,ArrowRight"":10,""ArrowDown,ArrowLeft"":8,""ArrowDown,ArrowRight"":30}","true","ArrowDown,ArrowRight","false","revaluation","1","70","","",""
"html-keyboard-response","192","865481","0.0-4.0-2.0-1.35","spark_pilot_norest","8205","6","20","Female","","","","","","","null","<div style=""font-size:60px;"">+</div>","null","fixation","","","","","","","","","71","","",""
"revaluation","193","869486","0.0-4.0-2.0-0.36","spark_pilot_norest","8205","6","20","Female","","false","","","","","[563]","./assets/img/canyon/catch/1.jpg","[""spaceBar""]","value training","canyon","0","{""ArrowUp,ArrowLeft"":23,""ArrowUp,ArrowRight"":10,""ArrowDown,ArrowLeft"":8,""ArrowDown,ArrowRight"":30}","true","spaceBar","true","revaluation","1","72","","",""
"html-keyboard-response","194","869989","0.0-4.0-2.0-1.36","spark_pilot_norest","8205","6","20","Female","","","","","","","null","<div style=""font-size:60px;"">+</div>","null","fixation","","","","","","","","","73","","",""
"revaluation","195","875996","0.0-4.0-2.0-0.37","spark_pilot_norest","8205","6","20","Female","","false","","","","","[615,553.8999999761581]","./assets/img/canyon/memory/25.jpg","[""ArrowDown"",""ArrowRight""]","value training","canyon","30","{""ArrowUp,ArrowLeft"":23,""ArrowUp,ArrowRight"":10,""ArrowDown,ArrowLeft"":8,""ArrowDown,ArrowRight"":30}","true","ArrowDown,ArrowRight","false","revaluation","1","74","","",""
"html-keyboard-response","196","876503","0.0-4.0-2.0-1.37","spark_pilot_norest","8205","6","20","Female","","","","","","","null","<div style=""font-size:60px;"">+</div>","null","fixation","","","","","","","","","75","","",""
"revaluation","197","880510","0.0-4.0-2.0-0.38","spark_pilot_norest","8205","6","20","Female","","false","","","","","[580.3999999761581]","./assets/img/canyon/catch/0.jpg","[""spaceBar""]","value training","canyon","0","{""ArrowUp,ArrowLeft"":23,""ArrowUp,ArrowRight"":10,""ArrowDown,ArrowLeft"":8,""ArrowDown,ArrowRight"":30}","true","spaceBar","true","revaluation","1","76","","",""
"html-keyboard-response","198","881012","0.0-4.0-2.0-1.38","spark_pilot_norest","8205","6","20","Female","","","","","","","null","<div style=""font-size:60px;"">+</div>","null","fixation","","","","","","","","","77","","",""
"revaluation","199","887018","0.0-4.0-2.0-0.39","spark_pilot_norest","8205","6","20","Female","","false","","","","","[521.2000000476837,520.7999999523163]","./assets/img/canyon/memory/27.jpg","[""ArrowDown"",""ArrowRight""]","value training","canyon","30","{""ArrowUp,ArrowLeft"":23,""ArrowUp,ArrowRight"":10,""ArrowDown,ArrowLeft"":8,""ArrowDown,ArrowRight"":30}","true","ArrowDown,ArrowRight","false","revaluation","1","78","","",""
"html-keyboard-response","200","887521","0.0-4.0-2.0-1.39","spark_pilot_norest","8205","6","20","Female","","","","","","","null","<div style=""font-size:60px;"">+</div>","null","fixation","","","","","","","","","79","","",""
"revaluation","201","891526","0.0-4.0-2.0-0.40","spark_pilot_norest","8205","6","20","Female","","false","","","","","[573.1000000238419]","./assets/img/canyon/catch/4.jpg","[""spaceBar""]","value training","canyon","0","{""ArrowUp,ArrowLeft"":23,""ArrowUp,ArrowRight"":10,""ArrowDown,ArrowLeft"":8,""ArrowDown,ArrowRight"":30}","true","spaceBar","true","revaluation","1","80","","",""
"html-keyboard-response","202","892027","0.0-4.0-2.0-1.40","spark_pilot_norest","8205","6","20","Female","","","","","","","null","<div style=""font-size:60px;"">+</div>","null","fixation","","","","","","","","","81","","",""
"revaluation","203","898031","0.0-4.0-2.0-0.41","spark_pilot_norest","8205","6","20","Female","","false","","","","","[658,526.7999999523163]","./assets/img/canyon/memory/28.jpg","[""ArrowDown"",""ArrowRight""]","value training","canyon","30","{""ArrowUp,ArrowLeft"":23,""ArrowUp,ArrowRight"":10,""ArrowDown,ArrowLeft"":8,""ArrowDown,ArrowRight"":30}","true","ArrowDown,ArrowRight","false","revaluation","1","82","","",""
"html-keyboard-response","204","898533","0.0-4.0-2.0-1.41","spark_pilot_norest","8205","6","20","Female","","","","","","","null","<div style=""font-size:60px;"">+</div>","null","fixation","","","","","","","","","83","","",""
"revaluation","205","902537","0.0-4.0-2.0-0.42","spark_pilot_norest","8205","6","20","Female","","false","","","","","[680.8999999761581]","./assets/img/canyon/catch/2.jpg","[""spaceBar""]","value training","canyon","0","{""ArrowUp,ArrowLeft"":23,""ArrowUp,ArrowRight"":10,""ArrowDown,ArrowLeft"":8,""ArrowDown,ArrowRight"":30}","true","spaceBar","true","revaluation","1","84","","",""
"html-keyboard-response","206","903039","0.0-4.0-2.0-1.42","spark_pilot_norest","8205","6","20","Female","","","","","","","null","<div style=""font-size:60px;"">+</div>","null","fixation","","","","","","","","","85","","",""
"revaluation","207","907045","0.0-4.0-2.0-0.43","spark_pilot_norest","8205","6","20","Female","","false","","","","","[633.7000000476837]","./assets/img/canyon/catch/7.jpg","[""ArrowDown""]","value training","canyon","-10","{""ArrowUp,ArrowLeft"":23,""ArrowUp,ArrowRight"":10,""ArrowDown,ArrowLeft"":8,""ArrowDown,ArrowRight"":30}","false","ArrowDown","true","revaluation","1","86","","",""
"html-keyboard-response","208","907546","0.0-4.0-2.0-1.43","spark_pilot_norest","8205","6","20","Female","","","","","","","null","<div style=""font-size:60px;"">+</div>","null","fixation","","","","","","","","","87","","",""
"revaluation","209","913554","0.0-4.0-2.0-0.44","spark_pilot_norest","8205","6","20","Female","","false","","","","","[746.6000000238419,514.7000000476837]","./assets/img/canyon/memory/25.jpg","[""ArrowDown"",""ArrowRight""]","value training","canyon","30","{""ArrowUp,ArrowLeft"":23,""ArrowUp,ArrowRight"":10,""ArrowDown,ArrowLeft"":8,""ArrowDown,ArrowRight"":30}","true","ArrowDown,ArrowRight","false","revaluation","1","88","","",""
"html-keyboard-response","210","914056","0.0-4.0-2.0-1.44","spark_pilot_norest","8205","6","20","Female","","","","","","","null","<div style=""font-size:60px;"">+</div>","null","fixation","","","","","","","","","89","","",""
"revaluation","211","920063","0.0-4.0-2.0-0.45","spark_pilot_norest","8205","6","20","Female","","false","","","","","[666.0999999046326,395.40000009536743]","./assets/img/canyon/memory/10.jpg","[""ArrowDown"",""ArrowRight""]","value training","canyon","30","{""ArrowUp,ArrowLeft"":23,""ArrowUp,ArrowRight"":10,""ArrowDown,ArrowLeft"":8,""ArrowDown,ArrowRight"":30}","true","ArrowDown,ArrowRight","false","revaluation","1","90","","",""
"html-keyboard-response","212","920565","0.0-4.0-2.0-1.45","spark_pilot_norest","8205","6","20","Female","","","","","","","null","<div style=""font-size:60px;"">+</div>","null","fixation","","","","","","","","","91","","",""
"revaluation","213","926571","0.0-4.0-2.0-0.46","spark_pilot_norest","8205","6","20","Female","","false","","","","","[637.8999999761581,676.6999999284744]","./assets/img/canyon/memory/19.jpg","[""ArrowDown"",""ArrowRight""]","value training","canyon","30","{""ArrowUp,ArrowLeft"":23,""ArrowUp,ArrowRight"":10,""ArrowDown,ArrowLeft"":8,""ArrowDown,ArrowRight"":30}","true","ArrowDown,ArrowRight","false","revaluation","1","92","","",""
"html-keyboard-response","214","927073","0.0-4.0-2.0-1.46","spark_pilot_norest","8205","6","20","Female","","","","","","","null","<div style=""font-size:60px;"">+</div>","null","fixation","","","","","","","","","93","","",""
"revaluation","215","933087","0.0-4.0-2.0-0.47","spark_pilot_norest","8205","6","20","Female","","false","","","","","[620.7000000476837,399.7999999523163]","./assets/img/canyon/memory/21.jpg","[""ArrowDown"",""ArrowRight""]","value training","canyon","30","{""ArrowUp,ArrowLeft"":23,""ArrowUp,ArrowRight"":10,""ArrowDown,ArrowLeft"":8,""ArrowDown,ArrowRight"":30}","true","ArrowDown,ArrowRight","false","revaluation","1","94","","",""
"html-keyboard-response","216","933589","0.0-4.0-2.0-1.47","spark_pilot_norest","8205","6","20","Female","","","","","","","null","<div style=""font-size:60px;"">+</div>","null","fixation","","","","","","","","","95","","",""
"revaluation","217","939595","0.0-4.0-2.0-0.48","spark_pilot_norest","8205","6","20","Female","","false","","","","","[536.1000000238419,553.5]","./assets/img/canyon/memory/28.jpg","[""ArrowDown"",""ArrowRight""]","value training","canyon","30","{""ArrowUp,ArrowLeft"":23,""ArrowUp,ArrowRight"":10,""ArrowDown,ArrowLeft"":8,""ArrowDown,ArrowRight"":30}","true","ArrowDown,ArrowRight","false","revaluation","1","96","","",""
"html-keyboard-response","218","940097","0.0-4.0-2.0-1.48","spark_pilot_norest","8205","6","20","Female","","","","","","","null","<div style=""font-size:60px;"">+</div>","null","fixation","","","","","","","","","97","","",""
"revaluation","219","946105","0.0-4.0-2.0-0.49","spark_pilot_norest","8205","6","20","Female","","false","","","","","[545.3999999761581,433.7000000476837]","./assets/img/canyon/memory/31.jpg","[""ArrowDown"",""ArrowRight""]","value training","canyon","30","{""ArrowUp,ArrowLeft"":23,""ArrowUp,ArrowRight"":10,""ArrowDown,ArrowLeft"":8,""ArrowDown,ArrowRight"":30}","true","ArrowDown,ArrowRight","false","revaluation","1","98","","",""
"html-keyboard-response","220","946608","0.0-4.0-2.0-1.49","spark_pilot_norest","8205","6","20","Female","","","","","","","null","<div style=""font-size:60px;"">+</div>","null","fixation","","","","","","","","","99","","",""
"learning-instructions","221","961359","0.0-4.0-3.0-0.0","spark_pilot_norest","8205","6","20","Female","","","","","","","1471.7999999523163","<p> Now, you will travel with a friend who will choose whether you go up or down first. </p>
            <p> On these turns, you will just see the animal that they found. You will still get to choose which chest to search for treasure.</p>","","instructions","","","","","","","","","","","",""
"revaluation","222","965376","0.0-4.0-4.0-0.0","spark_pilot_norest","8205","6","20","Female","","false","","","","","[1103.2999999523163]","./assets/img/canyon/animals/giraffe.jpg","[""ArrowRight""]","revaluation","canyon","15","{""ArrowUp,ArrowLeft"":27,""ArrowUp,ArrowRight"":15,""ArrowDown,ArrowLeft"":21,""ArrowDown,ArrowRight"":7}","false","ArrowUp,ArrowRight","","revaluation","1","0","","",""
"html-keyboard-response","223","965892","0.0-4.0-4.0-1.0","spark_pilot_norest","8205","6","20","Female","","","","","","","null","<div style=""font-size:60px;"">+</div>","null","fixation","","","","","","","","","1","","",""
"revaluation","224","969898","0.0-4.0-4.0-0.1","spark_pilot_norest","8205","6","20","Female","","false","","","","","[829.7999999523163]","./assets/img/canyon/animals/lion.jpg","[""ArrowRight""]","revaluation","canyon","7","{""ArrowUp,ArrowLeft"":27,""ArrowUp,ArrowRight"":15,""ArrowDown,ArrowLeft"":21,""ArrowDown,ArrowRight"":7}","false","ArrowDown,ArrowRight","","revaluation","1","2","","",""
"html-keyboard-response","225","970415","0.0-4.0-4.0-1.1","spark_pilot_norest","8205","6","20","Female","","","","","","","null","<div style=""font-size:60px;"">+</div>","null","fixation","","","","","","","","","3","","",""
"revaluation","226","974441","0.0-4.0-4.0-0.2","spark_pilot_norest","8205","6","20","Female","","false","","","","","[668.3999999761581]","./assets/img/canyon/animals/giraffe.jpg","[""ArrowLeft""]","revaluation","canyon","27","{""ArrowUp,ArrowLeft"":27,""ArrowUp,ArrowRight"":15,""ArrowDown,ArrowLeft"":21,""ArrowDown,ArrowRight"":7}","true","ArrowUp,ArrowLeft","","revaluation","1","4","","",""
"html-keyboard-response","227","974957","0.0-4.0-4.0-1.2","spark_pilot_norest","8205","6","20","Female","","","","","","","null","<div style=""font-size:60px;"">+</div>","null","fixation","","","","","","","","","5","","",""
"revaluation","228","978974","0.0-4.0-4.0-0.3","spark_pilot_norest","8205","6","20","Female","","false","","","","","[627.9000000953674]","./assets/img/canyon/animals/lion.jpg","[""ArrowLeft""]","revaluation","canyon","21","{""ArrowUp,ArrowLeft"":27,""ArrowUp,ArrowRight"":15,""ArrowDown,ArrowLeft"":21,""ArrowDown,ArrowRight"":7}","true","ArrowDown,ArrowLeft","","revaluation","1","6","","",""
"html-keyboard-response","229","979475","0.0-4.0-4.0-1.3","spark_pilot_norest","8205","6","20","Female","","","","","","","null","<div style=""font-size:60px;"">+</div>","null","fixation","","","","","","","","","7","","",""
"revaluation","230","983499","0.0-4.0-4.0-0.4","spark_pilot_norest","8205","6","20","Female","","false","","","","","[748.6000000238419]","./assets/img/canyon/animals/lion.jpg","[""ArrowLeft""]","revaluation","canyon","21","{""ArrowUp,ArrowLeft"":27,""ArrowUp,ArrowRight"":15,""ArrowDown,ArrowLeft"":21,""ArrowDown,ArrowRight"":7}","true","ArrowDown,ArrowLeft","","revaluation","1","8","","",""
"html-keyboard-response","231","984015","0.0-4.0-4.0-1.4","spark_pilot_norest","8205","6","20","Female","","","","","","","null","<div style=""font-size:60px;"">+</div>","null","fixation","","","","","","","","","9","","",""
"revaluation","232","988046","0.0-4.0-4.0-0.5","spark_pilot_norest","8205","6","20","Female","","false","","","","","[669.3999999761581]","./assets/img/canyon/animals/giraffe.jpg","[""ArrowLeft""]","revaluation","canyon","27","{""ArrowUp,ArrowLeft"":27,""ArrowUp,ArrowRight"":15,""ArrowDown,ArrowLeft"":21,""ArrowDown,ArrowRight"":7}","true","ArrowUp,ArrowLeft","","revaluation","1","10","","",""
"html-keyboard-response","233","988562","0.0-4.0-4.0-1.5","spark_pilot_norest","8205","6","20","Female","","","","","","","null","<div style=""font-size:60px;"">+</div>","null","fixation","","","","","","","","","11","","",""
"revaluation","234","992567","0.0-4.0-4.0-0.6","spark_pilot_norest","8205","6","20","Female","","false","","","","","[834.1999999284744]","./assets/img/canyon/animals/lion.jpg","[""ArrowLeft""]","revaluation","canyon","21","{""ArrowUp,ArrowLeft"":27,""ArrowUp,ArrowRight"":15,""ArrowDown,ArrowLeft"":21,""ArrowDown,ArrowRight"":7}","true","ArrowDown,ArrowLeft","","revaluation","1","12","","",""
"html-keyboard-response","235","993069","0.0-4.0-4.0-1.6","spark_pilot_norest","8205","6","20","Female","","","","","","","null","<div style=""font-size:60px;"">+</div>","null","fixation","","","","","","","","","13","","",""
"revaluation","236","997075","0.0-4.0-4.0-0.7","spark_pilot_norest","8205","6","20","Female","","false","","","","","[764.6000000238419]","./assets/img/canyon/animals/giraffe.jpg","[""ArrowLeft""]","revaluation","canyon","27","{""ArrowUp,ArrowLeft"":27,""ArrowUp,ArrowRight"":15,""ArrowDown,ArrowLeft"":21,""ArrowDown,ArrowRight"":7}","true","ArrowUp,ArrowLeft","","revaluation","1","14","","",""
"html-keyboard-response","237","997578","0.0-4.0-4.0-1.7","spark_pilot_norest","8205","6","20","Female","","","","","","","null","<div style=""font-size:60px;"">+</div>","null","fixation","","","","","","","","","15","","",""
"revaluation","238","1001590","0.0-4.0-4.0-0.8","spark_pilot_norest","8205","6","20","Female","","false","","","","","[597.6000000238419]","./assets/img/canyon/animals/lion.jpg","[""ArrowRight""]","revaluation","canyon","7","{""ArrowUp,ArrowLeft"":27,""ArrowUp,ArrowRight"":15,""ArrowDown,ArrowLeft"":21,""ArrowDown,ArrowRight"":7}","false","ArrowDown,ArrowRight","","revaluation","1","16","","",""
"html-keyboard-response","239","1002091","0.0-4.0-4.0-1.8","spark_pilot_norest","8205","6","20","Female","","","","","","","null","<div style=""font-size:60px;"">+</div>","null","fixation","","","","","","","","","17","","",""
"revaluation","240","1006096","0.0-4.0-4.0-0.9","spark_pilot_norest","8205","6","20","Female","","false","","","","","[974.2999999523163]","./assets/img/canyon/animals/lion.jpg","[""ArrowLeft""]","revaluation","canyon","21","{""ArrowUp,ArrowLeft"":27,""ArrowUp,ArrowRight"":15,""ArrowDown,ArrowLeft"":21,""ArrowDown,ArrowRight"":7}","true","ArrowDown,ArrowLeft","","revaluation","1","18","","",""
"html-keyboard-response","241","1006598","0.0-4.0-4.0-1.9","spark_pilot_norest","8205","6","20","Female","","","","","","","null","<div style=""font-size:60px;"">+</div>","null","fixation","","","","","","","","","19","","",""
"revaluation","242","1010602","0.0-4.0-4.0-0.10","spark_pilot_norest","8205","6","20","Female","","false","","","","","[787]","./assets/img/canyon/animals/giraffe.jpg","[""ArrowLeft""]","revaluation","canyon","27","{""ArrowUp,ArrowLeft"":27,""ArrowUp,ArrowRight"":15,""ArrowDown,ArrowLeft"":21,""ArrowDown,ArrowRight"":7}","true","ArrowUp,ArrowLeft","","revaluation","1","20","","",""
"html-keyboard-response","243","1011106","0.0-4.0-4.0-1.10","spark_pilot_norest","8205","6","20","Female","","","","","","","null","<div style=""font-size:60px;"">+</div>","null","fixation","","","","","","","","","21","","",""
"revaluation","244","1015112","0.0-4.0-4.0-0.11","spark_pilot_norest","8205","6","20","Female","","false","","","","","[848]","./assets/img/canyon/animals/lion.jpg","[""ArrowLeft""]","revaluation","canyon","21","{""ArrowUp,ArrowLeft"":27,""ArrowUp,ArrowRight"":15,""ArrowDown,ArrowLeft"":21,""ArrowDown,ArrowRight"":7}","true","ArrowDown,ArrowLeft","","revaluation","1","22","","",""
"html-keyboard-response","245","1015613","0.0-4.0-4.0-1.11","spark_pilot_norest","8205","6","20","Female","","","","","","","null","<div style=""font-size:60px;"">+</div>","null","fixation","","","","","","","","","23","","",""
"revaluation","246","1019619","0.0-4.0-4.0-0.12","spark_pilot_norest","8205","6","20","Female","","false","","","","","[912.1999999284744]","./assets/img/canyon/animals/giraffe.jpg","[""ArrowLeft""]","revaluation","canyon","27","{""ArrowUp,ArrowLeft"":27,""ArrowUp,ArrowRight"":15,""ArrowDown,ArrowLeft"":21,""ArrowDown,ArrowRight"":7}","true","ArrowUp,ArrowLeft","","revaluation","1","24","","",""
"html-keyboard-response","247","1020120","0.0-4.0-4.0-1.12","spark_pilot_norest","8205","6","20","Female","","","","","","","null","<div style=""font-size:60px;"">+</div>","null","fixation","","","","","","","","","25","","",""
"revaluation","248","1024125","0.0-4.0-4.0-0.13","spark_pilot_norest","8205","6","20","Female","","false","","","","","[925.3000000715256]","./assets/img/canyon/animals/giraffe.jpg","[""ArrowLeft""]","revaluation","canyon","27","{""ArrowUp,ArrowLeft"":27,""ArrowUp,ArrowRight"":15,""ArrowDown,ArrowLeft"":21,""ArrowDown,ArrowRight"":7}","true","ArrowUp,ArrowLeft","","revaluation","1","26","","",""
"html-keyboard-response","249","1024627","0.0-4.0-4.0-1.13","spark_pilot_norest","8205","6","20","Female","","","","","","","null","<div style=""font-size:60px;"">+</div>","null","fixation","","","","","","","","","27","","",""
"revaluation","250","1028631","0.0-4.0-4.0-0.14","spark_pilot_norest","8205","6","20","Female","","false","","","","","[1008.5]","./assets/img/canyon/animals/giraffe.jpg","[""ArrowLeft""]","revaluation","canyon","27","{""ArrowUp,ArrowLeft"":27,""ArrowUp,ArrowRight"":15,""ArrowDown,ArrowLeft"":21,""ArrowDown,ArrowRight"":7}","true","ArrowUp,ArrowLeft","","revaluation","1","28","","",""
"html-keyboard-response","251","1029133","0.0-4.0-4.0-1.14","spark_pilot_norest","8205","6","20","Female","","","","","","","null","<div style=""font-size:60px;"">+</div>","null","fixation","","","","","","","","","29","","",""
"revaluation","252","1033139","0.0-4.0-4.0-0.15","spark_pilot_norest","8205","6","20","Female","","false","","","","","[1191.5]","./assets/img/canyon/animals/lion.jpg","[""ArrowLeft""]","revaluation","canyon","21","{""ArrowUp,ArrowLeft"":27,""ArrowUp,ArrowRight"":15,""ArrowDown,ArrowLeft"":21,""ArrowDown,ArrowRight"":7}","true","ArrowDown,ArrowLeft","","revaluation","1","30","","",""
"html-keyboard-response","253","1033640","0.0-4.0-4.0-1.15","spark_pilot_norest","8205","6","20","Female","","","","","","","null","<div style=""font-size:60px;"">+</div>","null","fixation","","","","","","","","","31","","",""
"revaluation","254","1037646","0.0-4.0-4.0-0.16","spark_pilot_norest","8205","6","20","Female","","false","","","","","[1063.8999999761581]","./assets/img/canyon/animals/giraffe.jpg","[""ArrowLeft""]","revaluation","canyon","27","{""ArrowUp,ArrowLeft"":27,""ArrowUp,ArrowRight"":15,""ArrowDown,ArrowLeft"":21,""ArrowDown,ArrowRight"":7}","true","ArrowUp,ArrowLeft","","revaluation","1","32","","",""
"html-keyboard-response","255","1038148","0.0-4.0-4.0-1.16","spark_pilot_norest","8205","6","20","Female","","","","","","","null","<div style=""font-size:60px;"">+</div>","null","fixation","","","","","","","","","33","","",""
"revaluation","256","1042155","0.0-4.0-4.0-0.17","spark_pilot_norest","8205","6","20","Female","","false","","","","","[1145]","./assets/img/canyon/animals/lion.jpg","[""ArrowLeft""]","revaluation","canyon","21","{""ArrowUp,ArrowLeft"":27,""ArrowUp,ArrowRight"":15,""ArrowDown,ArrowLeft"":21,""ArrowDown,ArrowRight"":7}","true","ArrowDown,ArrowLeft","","revaluation","1","34","","",""
"html-keyboard-response","257","1042658","0.0-4.0-4.0-1.17","spark_pilot_norest","8205","6","20","Female","","","","","","","null","<div style=""font-size:60px;"">+</div>","null","fixation","","","","","","","","","35","","",""
"learning-instructions","258","1051172","0.0-4.0-5.0-0.0","spark_pilot_norest","8205","6","20","Female","","","","","","","null","<p> You have almost finished this part of the game! </p>
            <p> We are going to ask you to make a few more choices. </p>","","instructions","","","","","","","","","","","",""
"learning-instructions","259","1067152","0.0-4.0-5.0-0.1","spark_pilot_norest","8205","6","20","Female","","","","","","","null","<p> First, you need to decide whether to go up or down. When you see each picture, use the arrow keys to make your choice. </p>
            <p><b>You will not see which animal you found, but try to get to the one that will give you the most treasure.</b></p>","","instructions","","","","","","","","","","","",""
"html-keyboard-response","260","1068165","0.0-4.0-6.0-0.0","spark_pilot_norest","8205","6","20","Female","","","","","","","null","<div style=""font-size:100px;color:red;"">Starting in...</div>","null","","","","","","","","","","","","",""
"html-keyboard-response","261","1069166","0.0-4.0-6.0-1.0","spark_pilot_norest","8205","6","20","Female","","","","","","","null","<div style=""font-size:200px;color:red;"">3</div>","null","","","","","","","","","","","","",""
"html-keyboard-response","262","1070180","0.0-4.0-6.0-2.0","spark_pilot_norest","8205","6","20","Female","","","","","","","null","<div style=""font-size:200px;color:red;"">2</div>","null","","","","","","","","","","","","",""
"html-keyboard-response","263","1071194","0.0-4.0-6.0-3.0","spark_pilot_norest","8205","6","20","Female","","","","","","","null","<div style=""font-size:200px;color:red;"">1</div>","null","","","","","","","","","","","","",""
"revaluation","264","1071639","0.0-4.0-7.0-0.0","spark_pilot_norest","8205","6","20","Female","","false","","","","","[440.6999999284744]","./assets/img/canyon/test/1.jpg","[""ArrowUp""]","first stage test","canyon","0","{""ArrowUp,ArrowLeft"":27,""ArrowUp,ArrowRight"":15,""ArrowDown,ArrowLeft"":21,""ArrowDown,ArrowRight"":7}","true","ArrowUp","false","revaluation","1","","","",""
"html-keyboard-response","265","1072147","0.0-4.0-7.0-1.0","spark_pilot_norest","8205","6","20","Female","","","","","","","null","<div style=""font-size:60px;"">+</div>","null","fixation","","","","","","","","","","","",""
"revaluation","266","1072648","0.0-4.0-7.0-0.1","spark_pilot_norest","8205","6","20","Female","","false","","","","","[497.09999990463257]","./assets/img/canyon/test/3.jpg","[""ArrowUp""]","first stage test","canyon","0","{""ArrowUp,ArrowLeft"":27,""ArrowUp,ArrowRight"":15,""ArrowDown,ArrowLeft"":21,""ArrowDown,ArrowRight"":7}","true","ArrowUp","false","revaluation","1","","","",""
"html-keyboard-response","267","1073160","0.0-4.0-7.0-1.1","spark_pilot_norest","8205","6","20","Female","","","","","","","null","<div style=""font-size:60px;"">+</div>","null","fixation","","","","","","","","","","","",""
"revaluation","268","1073618","0.0-4.0-7.0-0.2","spark_pilot_norest","8205","6","20","Female","","false","","","","","[453.2999999523163]","./assets/img/canyon/test/2.jpg","[""ArrowDown""]","first stage test","canyon","0","{""ArrowUp,ArrowLeft"":27,""ArrowUp,ArrowRight"":15,""ArrowDown,ArrowLeft"":21,""ArrowDown,ArrowRight"":7}","false","ArrowDown","false","revaluation","1","","","",""
"html-keyboard-response","269","1074129","0.0-4.0-7.0-1.2","spark_pilot_norest","8205","6","20","Female","","","","","","","null","<div style=""font-size:60px;"">+</div>","null","fixation","","","","","","","","","","","",""
"revaluation","270","1074658","0.0-4.0-7.0-0.3","spark_pilot_norest","8205","6","20","Female","","false","","","","","[525.2000000476837]","./assets/img/canyon/test/0.jpg","[""ArrowDown""]","first stage test","canyon","0","{""ArrowUp,ArrowLeft"":27,""ArrowUp,ArrowRight"":15,""ArrowDown,ArrowLeft"":21,""ArrowDown,ArrowRight"":7}","false","ArrowDown","false","revaluation","1","","","",""
"html-keyboard-response","271","1075172","0.0-4.0-7.0-1.3","spark_pilot_norest","8205","6","20","Female","","","","","","","null","<div style=""font-size:60px;"">+</div>","null","fixation","","","","","","","","","","","",""
"learning-instructions","272","1088523","0.0-4.0-8.0-0.0","spark_pilot_norest","8205","6","20","Female","","","","","","","null","<p> Now you will see the animals again and can search their chests for treasure. </p>
            <p> This time, you will not see how much treasure you earned, but you will earn more bonus money for making better choices. </p>","","instructions","","","","","","","","","","","",""
"html-keyboard-response","273","1089537","0.0-4.0-9.0-0.0","spark_pilot_norest","8205","6","20","Female","","","","","","","null","<div style=""font-size:100px;color:red;"">Starting in...</div>","null","","","","","","","","","","","","",""
"html-keyboard-response","274","1090538","0.0-4.0-9.0-1.0","spark_pilot_norest","8205","6","20","Female","","","","","","","null","<div style=""font-size:200px;color:red;"">3</div>","null","","","","","","","","","","","","",""
"html-keyboard-response","275","1091552","0.0-4.0-9.0-2.0","spark_pilot_norest","8205","6","20","Female","","","","","","","null","<div style=""font-size:200px;color:red;"">2</div>","null","","","","","","","","","","","","",""
"html-keyboard-response","276","1092564","0.0-4.0-9.0-3.0","spark_pilot_norest","8205","6","20","Female","","","","","","","null","<div style=""font-size:200px;color:red;"">1</div>","null","","","","","","","","","","","","",""
"revaluation","277","1092968","0.0-4.0-10.0-0.0","spark_pilot_norest","8205","6","20","Female","","false","","","","","[399.6999999284744]","./assets/img/canyon/animals/giraffe.jpg","[""ArrowLeft""]","second stage test","canyon","0","{""ArrowUp,ArrowLeft"":27,""ArrowUp,ArrowRight"":15,""ArrowDown,ArrowLeft"":21,""ArrowDown,ArrowRight"":7}","true","ArrowUp,ArrowLeft","","revaluation","1","","","",""
"html-keyboard-response","278","1093472","0.0-4.0-10.0-1.0","spark_pilot_norest","8205","6","20","Female","","","","","","","null","<div style=""font-size:60px;"">+</div>","null","fixation","","","","","","","","","","","",""
"revaluation","279","1093878","0.0-4.0-10.0-0.1","spark_pilot_norest","8205","6","20","Female","","false","","","","","[402.60000002384186]","./assets/img/canyon/animals/giraffe.jpg","[""ArrowRight""]","second stage test","canyon","0","{""ArrowUp,ArrowLeft"":27,""ArrowUp,ArrowRight"":15,""ArrowDown,ArrowLeft"":21,""ArrowDown,ArrowRight"":7}","false","ArrowUp,ArrowRight","","revaluation","1","","","",""
"html-keyboard-response","280","1094380","0.0-4.0-10.0-1.1","spark_pilot_norest","8205","6","20","Female","","","","","","","null","<div style=""font-size:60px;"">+</div>","null","fixation","","","","","","","","","","","",""
"revaluation","281","1094838","0.0-4.0-10.0-0.2","spark_pilot_norest","8205","6","20","Female","","false","","","","","[454.5]","./assets/img/canyon/animals/giraffe.jpg","[""ArrowLeft""]","second stage test","canyon","0","{""ArrowUp,ArrowLeft"":27,""ArrowUp,ArrowRight"":15,""ArrowDown,ArrowLeft"":21,""ArrowDown,ArrowRight"":7}","true","ArrowUp,ArrowLeft","","revaluation","1","","","",""
"html-keyboard-response","282","1095348","0.0-4.0-10.0-1.2","spark_pilot_norest","8205","6","20","Female","","","","","","","null","<div style=""font-size:60px;"">+</div>","null","fixation","","","","","","","","","","","",""
"revaluation","283","1095837","0.0-4.0-10.0-0.3","spark_pilot_norest","8205","6","20","Female","","false","","","","","[484.89999997615814]","./assets/img/canyon/animals/giraffe.jpg","[""ArrowLeft""]","second stage test","canyon","0","{""ArrowUp,ArrowLeft"":27,""ArrowUp,ArrowRight"":15,""ArrowDown,ArrowLeft"":21,""ArrowDown,ArrowRight"":7}","true","ArrowUp,ArrowLeft","","revaluation","1","","","",""
"html-keyboard-response","284","1096346","0.0-4.0-10.0-1.3","spark_pilot_norest","8205","6","20","Female","","","","","","","null","<div style=""font-size:60px;"">+</div>","null","fixation","","","","","","","","","","","",""
"revaluation","285","1096888","0.0-4.0-10.0-0.4","spark_pilot_norest","8205","6","20","Female","","false","","","","","[537.6000000238419]","./assets/img/canyon/animals/lion.jpg","[""ArrowLeft""]","second stage test","canyon","0","{""ArrowUp,ArrowLeft"":27,""ArrowUp,ArrowRight"":15,""ArrowDown,ArrowLeft"":21,""ArrowDown,ArrowRight"":7}","true","ArrowDown,ArrowLeft","","revaluation","1","","","",""
"html-keyboard-response","286","1097391","0.0-4.0-10.0-1.4","spark_pilot_norest","8205","6","20","Female","","","","","","","null","<div style=""font-size:60px;"">+</div>","null","fixation","","","","","","","","","","","",""
"revaluation","287","1097888","0.0-4.0-10.0-0.5","spark_pilot_norest","8205","6","20","Female","","false","","","","","[494]","./assets/img/canyon/animals/lion.jpg","[""ArrowLeft""]","second stage test","canyon","0","{""ArrowUp,ArrowLeft"":27,""ArrowUp,ArrowRight"":15,""ArrowDown,ArrowLeft"":21,""ArrowDown,ArrowRight"":7}","true","ArrowDown,ArrowLeft","","revaluation","1","","","",""
"html-keyboard-response","288","1098400","0.0-4.0-10.0-1.5","spark_pilot_norest","8205","6","20","Female","","","","","","","null","<div style=""font-size:60px;"">+</div>","null","fixation","","","","","","","","","","","",""
"revaluation","289","1098848","0.0-4.0-10.0-0.6","spark_pilot_norest","8205","6","20","Female","","false","","","","","[444.7999999523163]","./assets/img/canyon/animals/lion.jpg","[""ArrowLeft""]","second stage test","canyon","0","{""ArrowUp,ArrowLeft"":27,""ArrowUp,ArrowRight"":15,""ArrowDown,ArrowLeft"":21,""ArrowDown,ArrowRight"":7}","true","ArrowDown,ArrowLeft","","revaluation","1","","","",""
"html-keyboard-response","290","1099353","0.0-4.0-10.0-1.6","spark_pilot_norest","8205","6","20","Female","","","","","","","null","<div style=""font-size:60px;"">+</div>","null","fixation","","","","","","","","","","","",""
"revaluation","291","1099917","0.0-4.0-10.0-0.7","spark_pilot_norest","8205","6","20","Female","","false","","","","","[559.9000000953674]","./assets/img/canyon/animals/lion.jpg","[""ArrowLeft""]","second stage test","canyon","0","{""ArrowUp,ArrowLeft"":27,""ArrowUp,ArrowRight"":15,""ArrowDown,ArrowLeft"":21,""ArrowDown,ArrowRight"":7}","true","ArrowDown,ArrowLeft","","revaluation","1","","","",""
"html-keyboard-response","292","1100427","0.0-4.0-10.0-1.7","spark_pilot_norest","8205","6","20","Female","","","","","","","null","<div style=""font-size:60px;"">+</div>","null","fixation","","","","","","","","","","","",""
"learning-instructions","293","1104159","0.0-4.0-0.1-0.2","spark_pilot_norest","8205","6","20","Female","","","","","","","1019.6999999284744","<p> This time you are searching for treasure in the <b>ocean</b>.</p>","","instructions","","","","","","","","","","","",""
"learning-instructions","294","1122380","0.0-4.0-0.1-0.3","spark_pilot_norest","8205","6","20","Female","","","","","","","970.6000000238419","<p><b>New</b> animals with <b>new</b> treasure chests live here. You need to explore to discover where the animal with the best treasure chest is.</p>
                    <p> Like before, once you figure out which animal has the chest with the most treasure, you should try to get to that animal and select that chest! </p>","","instructions","","","","","","","","","","","",""
"learning-instructions","295","1138818","0.0-4.0-1.1-0.1","spark_pilot_norest","8205","6","20","Female","","","","","","","1698","<p> Remember, when you see a picture of the place, use the up and down keys to <b>find an animal</b>.</p>
            <p> When you encounter an animal, you should use the left and right keys to <b>select a treasure chest</b>.</p>
            <p> Don't forget to look out for the robber! </p>","","instructions","","","","","","","","","","","",""
"revaluation","296","1144834","0.0-4.0-2.1-0.50","spark_pilot_norest","8205","6","20","Female","","false","","","","","[437.89999997615814,677.7000000476837]","./assets/img/ocean/memory/29.jpg","[""ArrowUp"",""ArrowRight""]","value training","ocean","10","{""ArrowUp,ArrowLeft"":26,""ArrowUp,ArrowRight"":10,""ArrowDown,ArrowLeft"":5,""ArrowDown,ArrowRight"":17}","false","ArrowUp,ArrowRight","false","original","2","0","","",""
"html-keyboard-response","297","1145347","0.0-4.0-2.1-1.50","spark_pilot_norest","8205","6","20","Female","","","","","","","null","<div style=""font-size:60px;"">+</div>","null","fixation","","","","","","","","","1","","",""
"revaluation","298","1151376","0.0-4.0-2.1-0.51","spark_pilot_norest","8205","6","20","Female","","false","","","","","[518.3999999761581,566.2000000476837]","./assets/img/ocean/memory/0.jpg","[""ArrowDown"",""ArrowRight""]","value training","ocean","17","{""ArrowUp,ArrowLeft"":26,""ArrowUp,ArrowRight"":10,""ArrowDown,ArrowLeft"":5,""ArrowDown,ArrowRight"":17}","false","ArrowDown,ArrowRight","false","original","2","2","","",""
"html-keyboard-response","299","1151891","0.0-4.0-2.1-1.51","spark_pilot_norest","8205","6","20","Female","","","","","","","null","<div style=""font-size:60px;"">+</div>","null","fixation","","","","","","","","","3","","",""
"revaluation","300","1157909","0.0-4.0-2.1-0.52","spark_pilot_norest","8205","6","20","Female","","false","","","","","[564.6000000238419,972.4000000953674]","./assets/img/ocean/memory/31.jpg","[""ArrowDown"",""ArrowLeft""]","value training","ocean","5","{""ArrowUp,ArrowLeft"":26,""ArrowUp,ArrowRight"":10,""ArrowDown,ArrowLeft"":5,""ArrowDown,ArrowRight"":17}","false","ArrowDown,ArrowLeft","false","original","2","4","","",""
"html-keyboard-response","301","1158412","0.0-4.0-2.1-1.52","spark_pilot_norest","8205","6","20","Female","","","","","","","null","<div style=""font-size:60px;"">+</div>","null","fixation","","","","","","","","","5","","",""
"revaluation","302","1164445","0.0-4.0-2.1-0.53","spark_pilot_norest","8205","6","20","Female","","false","","","","","[583.7999999523163,559.9000000953674]","./assets/img/ocean/memory/10.jpg","[""ArrowUp"",""ArrowRight""]","value training","ocean","10","{""ArrowUp,ArrowLeft"":26,""ArrowUp,ArrowRight"":10,""ArrowDown,ArrowLeft"":5,""ArrowDown,ArrowRight"":17}","false","ArrowUp,ArrowRight","false","original","2","6","","",""
"html-keyboard-response","303","1164959","0.0-4.0-2.1-1.53","spark_pilot_norest","8205","6","20","Female","","","","","","","null","<div style=""font-size:60px;"">+</div>","null","fixation","","","","","","","","","7","","",""
"revaluation","304","1170974","0.0-4.0-2.1-0.54","spark_pilot_norest","8205","6","20","Female","","false","","","","","[677.5999999046326,376.39999997615814]","./assets/img/ocean/memory/21.jpg","[""ArrowDown"",""ArrowRight""]","value training","ocean","17","{""ArrowUp,ArrowLeft"":26,""ArrowUp,ArrowRight"":10,""ArrowDown,ArrowLeft"":5,""ArrowDown,ArrowRight"":17}","false","ArrowDown,ArrowRight","false","original","2","8","","",""
"html-keyboard-response","305","1171476","0.0-4.0-2.1-1.54","spark_pilot_norest","8205","6","20","Female","","","","","","","null","<div style=""font-size:60px;"">+</div>","null","fixation","","","","","","","","","9","","",""
"revaluation","306","1177483","0.0-4.0-2.1-0.55","spark_pilot_norest","8205","6","20","Female","","false","","","","","[578.5,397.89999997615814]","./assets/img/ocean/memory/25.jpg","[""ArrowDown"",""ArrowRight""]","value training","ocean","17","{""ArrowUp,ArrowLeft"":26,""ArrowUp,ArrowRight"":10,""ArrowDown,ArrowLeft"":5,""ArrowDown,ArrowRight"":17}","false","ArrowDown,ArrowRight","false","original","2","10","","",""
"html-keyboard-response","307","1177984","0.0-4.0-2.1-1.55","spark_pilot_norest","8205","6","20","Female","","","","","","","null","<div style=""font-size:60px;"">+</div>","null","fixation","","","","","","","","","11","","",""
"revaluation","308","1183990","0.0-4.0-2.1-0.56","spark_pilot_norest","8205","6","20","Female","","false","","","","","[722.0999999046326,490.7999999523163]","./assets/img/ocean/memory/19.jpg","[""ArrowUp"",""ArrowRight""]","value training","ocean","10","{""ArrowUp,ArrowLeft"":26,""ArrowUp,ArrowRight"":10,""ArrowDown,ArrowLeft"":5,""ArrowDown,ArrowRight"":17}","false","ArrowUp,ArrowRight","false","original","2","12","","",""
"html-keyboard-response","309","1184492","0.0-4.0-2.1-1.56","spark_pilot_norest","8205","6","20","Female","","","","","","","null","<div style=""font-size:60px;"">+</div>","null","fixation","","","","","","","","","13","","",""
"revaluation","310","1190500","0.0-4.0-2.1-0.57","spark_pilot_norest","8205","6","20","Female","","false","","","","","[633.3000000715256,792.3000000715256]","./assets/img/ocean/memory/10.jpg","[""ArrowDown"",""ArrowRight""]","value training","ocean","17","{""ArrowUp,ArrowLeft"":26,""ArrowUp,ArrowRight"":10,""ArrowDown,ArrowLeft"":5,""ArrowDown,ArrowRight"":17}","false","ArrowDown,ArrowRight","false","original","2","14","","",""
"html-keyboard-response","311","1191002","0.0-4.0-2.1-1.57","spark_pilot_norest","8205","6","20","Female","","","","","","","null","<div style=""font-size:60px;"">+</div>","null","fixation","","","","","","","","","15","","",""
