"trial_type","trial_index","time_elapsed","internal_node_id","task_version","subject_id","assigned_condition","age","gender","browser_interaction","success","timeout","failed_images","failed_audio","failed_video","rt","stimulus","response","task_part","environment","score","rewardMap","correct","fullState","isCatch","condition","order","trial_num","key_press","ground_truth","bonus"
"pavlovia","0","1246","0.0-0.0","spark_pilot_norest","8322","1","12","Male","[{""event"":""blur"",""trial"":1,""time"":6853},{""event"":""focus"",""trial"":1,""time"":10702},{""event"":""fullscreenenter"",""trial"":2,""time"":15294},{""event"":""blur"",""trial"":479,""time"":1609330},{""event"":""focus"",""trial"":479,""time"":1610923},{""event"":""blur"",""trial"":479,""time"":1611927},{""event"":""focus"",""trial"":479,""time"":1612605}]","","","","","","","","","","","","","","","","","","","","",""
"preload","1","13727","0.0-1.0","spark_pilot_norest","8322","1","12","Male","[{""event"":""blur"",""trial"":1,""time"":6853},{""event"":""focus"",""trial"":1,""time"":10702},{""event"":""fullscreenenter"",""trial"":2,""time"":15294},{""event"":""blur"",""trial"":479,""time"":1609330},{""event"":""focus"",""trial"":479,""time"":1610923},{""event"":""blur"",""trial"":479,""time"":1611927},{""event"":""focus"",""trial"":479,""time"":1612605}]","true","false","[]","[]","[]","","","","","","","","","","","","","","","",""
"fullscreen","2","16288","0.0-2.0","spark_pilot_norest","8322","1","12","Male","","true","","","","","","","","","","","","","","","","","","","",""
"audio-button-response","3","18128","0.0-3.0-0.0-0.0","spark_pilot_norest","8322","1","12","Male","","","","","","","1829","./assets/audio/audiotest/turtle.mp3","2","audio_test","","","","","","","","","","","",""
"learning-instructions","4","27672","0.0-3.0-1.0-0.0","spark_pilot_norest","8322","1","12","Male","","","","","","","2568.4000000059605","<p> Welcome! Please remember to stay in fullscreen mode and don't click away from the experiment. </p>","","instructions","","","","","","","","","","","",""
"learning-instructions","5","37390","0.0-3.0-1.0-0.1","spark_pilot_norest","8322","1","12","Male","","","","","","","1295.9000000059605","<p> Today you will be playing a game to earn treasure. </p>
            <p> At the end of the experiment, you will earn a bonus based on how much treasure you find. </p>
            <img src='./assets/img/instructions/treasure.jpg' class='instructions-image'>","","instructions","","","","","","","","","","","",""
"learning-instructions","6","47293","0.0-3.0-1.0-0.2","spark_pilot_norest","8322","1","12","Male","","","","","","","1648.2000000178814","<p> Animals have hidden treasure in treasure chests. </p>
            <p> You need to first find an animal and then choose which of their treasure chests to search. </p>
            <img src='./assets/img/space/animals/cat.jpg' class='instructions-image'>","","instructions","","","","","","","","","","","",""
"learning-instructions","7","61805","0.0-3.0-1.0-0.3","spark_pilot_norest","8322","1","12","Male","","","","","","","1360.300000011921","<p> In each round, you will search for treasure in a different place. In the real game, there will be two rounds. </p>
            <p> You will begin with a separate, practice round where you will search for treasure in outer space. </p>
            <img src='./assets/img/space/0.jpg' class='instructions-image'>","","instructions","","","","","","","","","","","",""
"learning-instructions","8","74458","0.0-3.0-1.0-0.4","spark_pilot_norest","8322","1","12","Male","","","","","","","1233.9000000059605","<p> On every turn, you will see a picture of the place that you are in, but the specific image may be different each time. </p>
            <p> For example, both of these images mean you are in outer space. </p>
            <img src='./assets/img/instructions/outerspace.jpg' class='instructions-image'>","","instructions","","","","","","","","","","","",""
"learning-instructions","9","84701","0.0-3.0-1.0-0.5","spark_pilot_norest","8322","1","12","Male","","","","","","","2415.5","<p> You need to decide which direction to travel in. </p>
            <p> You can choose between going <b>up or down</b> by using the arrow keys. </p>
            <img src='./assets/img/instructions/updown.jpg' class='instructions-image'>","","instructions","","","","","","","","","","","",""
"learning-instructions","10","96032","0.0-3.0-1.0-0.6","spark_pilot_norest","8322","1","12","Male","","","","","","","2516.5999999940395","<p> You will have <b>2 seconds</b> to make your choice. </p>
            <p> If you do not make a choice within 2 seconds, you will not find an animal or earn treasure. </p>
            <img src='./assets/img/instructions/2seconds.jpg' class='instructions-image'>","","instructions","","","","","","","","","","","",""
"learning-instructions","11","105945","0.0-3.0-1.0-0.7","spark_pilot_norest","8322","1","12","Male","","","","","","","2869.9000000059605","<p> Let’s try practicing that now! </p>
            <p> When you see a picture of the place you are in, press the <b>up</b> key to travel up. </p>
            <img src='./assets/img/instructions/pressUp.jpg' class='instructions-image'>","","instructions","","","","","","","","","","","",""
"revaluation","12","109975","0.0-3.0-2.0-0.0","spark_pilot_norest","8322","1","12","Male","","","false","","","","[372.19999998807907]","./assets/img/space/0.jpg","[""ArrowUp""]","first stage practice","space","0","null","null","ArrowUp","false","","","","","",""
"html-keyboard-response","13","110487","0.0-3.0-2.0-1.0","spark_pilot_norest","8322","1","12","Male","","","","","","","null","<div style=""font-size:60px;"">+</div>","null","fixation","","","","","","","","","","","",""
"revaluation","14","114517","0.0-3.0-2.0-0.1","spark_pilot_norest","8322","1","12","Male","","","false","","","","[445.09999999403954]","./assets/img/space/1.jpg","[""ArrowUp""]","first stage practice","space","0","null","null","ArrowUp","false","","","","","",""
"html-keyboard-response","15","115033","0.0-3.0-2.0-1.1","spark_pilot_norest","8322","1","12","Male","","","","","","","null","<div style=""font-size:60px;"">+</div>","null","fixation","","","","","","","","","","","",""
"revaluation","16","119056","0.0-3.0-2.0-0.2","spark_pilot_norest","8322","1","12","Male","","","false","","","","[466.90000000596046]","./assets/img/space/2.jpg","[""ArrowUp""]","first stage practice","space","0","null","null","ArrowUp","false","","","","","",""
"html-keyboard-response","17","119568","0.0-3.0-2.0-1.2","spark_pilot_norest","8322","1","12","Male","","","","","","","null","<div style=""font-size:60px;"">+</div>","null","fixation","","","","","","","","","","","",""
"learning-instructions","18","125742","0.0-3.0-3.0-0.0","spark_pilot_norest","8322","1","12","Male","","","","","","","1466.5999999940395","<p> Great job! Now try pressing the <b>down</b> key to travel down. </p>
            <img src='./assets/img/instructions/pressDown.jpg' class='instructions-image'>","","instructions","","","","","","","","","","","",""
"revaluation","19","129749","0.0-3.0-4.0-0.0","spark_pilot_norest","8322","1","12","Male","","","false","","","","[505.59999999403954]","./assets/img/space/3.jpg","[""ArrowDown""]","first stage practice","space","0","null","null","ArrowDown","false","","","","","",""
"html-keyboard-response","20","130263","0.0-3.0-4.0-1.0","spark_pilot_norest","8322","1","12","Male","","","","","","","null","<div style=""font-size:60px;"">+</div>","null","fixation","","","","","","","","","","","",""
"revaluation","21","134280","0.0-3.0-4.0-0.1","spark_pilot_norest","8322","1","12","Male","","","false","","","","[398.59999999403954]","./assets/img/space/4.jpg","[""ArrowDown""]","first stage practice","space","0","null","null","ArrowDown","false","","","","","",""
"html-keyboard-response","22","134796","0.0-3.0-4.0-1.1","spark_pilot_norest","8322","1","12","Male","","","","","","","null","<div style=""font-size:60px;"">+</div>","null","fixation","","","","","","","","","","","",""
"revaluation","23","138816","0.0-3.0-4.0-0.2","spark_pilot_norest","8322","1","12","Male","","","false","","","","[333.09999999403954]","./assets/img/space/5.jpg","[""ArrowDown""]","first stage practice","space","0","null","null","ArrowDown","false","","","","","",""
"html-keyboard-response","24","139331","0.0-3.0-4.0-1.2","spark_pilot_norest","8322","1","12","Male","","","","","","","null","<div style=""font-size:60px;"">+</div>","null","fixation","","","","","","","","","","","",""
"learning-instructions","25","150557","0.0-3.0-5.0-0.0","spark_pilot_norest","8322","1","12","Male","","","","","","","1372.5","<p> The animals don’t move, so the animal in the upper part of a place will stay in the upper part of a place, and the animal in the lower part of a place will stay in the lower part of a place. </p>","","instructions","","","","","","","","","","","",""
"learning-instructions","26","160051","0.0-3.0-5.0-0.1","spark_pilot_norest","8322","1","12","Male","","","","","","","356.7999999821186","<p> Each animal has two treasure chests for you to choose from. </p>
            <p> The amount of treasure in each chest can range from <b> 0 to 40 pieces.</b></p>","","instructions","","","","","","","","","","","",""
"learning-instructions","27","172397","0.0-3.0-5.0-0.2","spark_pilot_norest","8322","1","12","Male","","","","","","","1162.5","<p> You should decide which chest to search for treasure by using the <b>left</b> and <b>right</b> arrow keys. </p>
            <p><b> Pay attention to which animal is on the screen, as the animals have different treasure chests. </b></p>
            <img src='./assets/img/instructions/leftright.jpg' class='instructions-image'>","","instructions","","","","","","","","","","","",""
"learning-instructions","28","179340","0.0-3.0-5.0-0.3","spark_pilot_norest","8322","1","12","Male","","","","","","","575.5","<p> Let’s try practicing that now. </p>
            <p> When you see an animal, choose which chest to search for treasure. </p>
            <img src='./assets/img/instructions/chooseChest.jpg' class='instructions-image'>","","instructions","","","","","","","","","","","",""
"revaluation","29","183349","0.0-3.0-6.0-0.0","spark_pilot_norest","8322","1","12","Male","","","false","","","","[1814.800000011921]","./assets/img/space/animals/cat.jpg","[""ArrowRight""]","second stage practice","space","36","{""ArrowUp,ArrowLeft"":3,""ArrowUp,ArrowRight"":36,""ArrowDown,ArrowLeft"":15,""ArrowDown,ArrowRight"":23}","true","ArrowUp,ArrowRight","","","","","","",""
"html-keyboard-response","30","183863","0.0-3.0-6.0-1.0","spark_pilot_norest","8322","1","12","Male","","","","","","","null","<div style=""font-size:60px;"">+</div>","null","fixation","","","","","","","","","","","",""
"revaluation","31","187880","0.0-3.0-6.0-0.1","spark_pilot_norest","8322","1","12","Male","","","false","","","","[753.1999999880791]","./assets/img/space/animals/rabbit.jpg","[""ArrowLeft""]","second stage practice","space","15","{""ArrowUp,ArrowLeft"":3,""ArrowUp,ArrowRight"":36,""ArrowDown,ArrowLeft"":15,""ArrowDown,ArrowRight"":23}","false","ArrowDown,ArrowLeft","","","","","","",""
"html-keyboard-response","32","188396","0.0-3.0-6.0-1.1","spark_pilot_norest","8322","1","12","Male","","","","","","","null","<div style=""font-size:60px;"">+</div>","null","fixation","","","","","","","","","","","",""
"revaluation","33","192415","0.0-3.0-6.0-0.2","spark_pilot_norest","8322","1","12","Male","","","false","","","","[620.2000000178814]","./assets/img/space/animals/cat.jpg","[""ArrowRight""]","second stage practice","space","36","{""ArrowUp,ArrowLeft"":3,""ArrowUp,ArrowRight"":36,""ArrowDown,ArrowLeft"":15,""ArrowDown,ArrowRight"":23}","true","ArrowUp,ArrowRight","","","","","","",""
"html-keyboard-response","34","192916","0.0-3.0-6.0-1.2","spark_pilot_norest","8322","1","12","Male","","","","","","","null","<div style=""font-size:60px;"">+</div>","null","fixation","","","","","","","","","","","",""
"revaluation","35","196935","0.0-3.0-6.0-0.3","spark_pilot_norest","8322","1","12","Male","","","false","","","","[482.5]","./assets/img/space/animals/rabbit.jpg","[""ArrowRight""]","second stage practice","space","23","{""ArrowUp,ArrowLeft"":3,""ArrowUp,ArrowRight"":36,""ArrowDown,ArrowLeft"":15,""ArrowDown,ArrowRight"":23}","true","ArrowDown,ArrowRight","","","","","","",""
"html-keyboard-response","36","197441","0.0-3.0-6.0-1.3","spark_pilot_norest","8322","1","12","Male","","","","","","","null","<div style=""font-size:60px;"">+</div>","null","fixation","","","","","","","","","","","",""
"learning-instructions","37","215176","0.0-3.0-7.0-0.0","spark_pilot_norest","8322","1","12","Male","","","","","","","911.1999999880791","<p> Great job. Now let’s try putting it together. </p>
            <p> On each turn, you will first see a picture to remind you of the place you are in, and you need to choose whether to go up or down. </p>
            <p> Then you will see an animal and choose which of its chests to search for treasure. </p>","","instructions","","","","","","","","","","","",""
"learning-instructions","38","224172","0.0-3.0-7.0-0.1","spark_pilot_norest","8322","1","12","Male","","","","","","","727.5999999940395","<p> When you choose whether to go up or down, try to go to the animal with the chest with the most treasure. </p>
            <p> Try practicing that now! </p>","","instructions","","","","","","","","","","","",""
"revaluation","39","230202","0.0-3.0-8.0-0.0","spark_pilot_norest","8322","1","12","Male","","","false","","","","[456.90000000596046,1029.5999999940395]","./assets/img/space/6.jpg","[""ArrowUp"",""ArrowRight""]","full practice","space","36","{""ArrowUp,ArrowLeft"":3,""ArrowUp,ArrowRight"":36,""ArrowDown,ArrowLeft"":15,""ArrowDown,ArrowRight"":23}","true","ArrowUp,ArrowRight","false","","","","","",""
"html-keyboard-response","40","230704","0.0-3.0-8.0-1.0","spark_pilot_norest","8322","1","12","Male","","","","","","","null","<div style=""font-size:60px;"">+</div>","null","fixation","","","","","","","","","","","",""
"revaluation","41","236732","0.0-3.0-8.0-0.1","spark_pilot_norest","8322","1","12","Male","","","false","","","","[346.09999999403954,199]","./assets/img/space/7.jpg","[""ArrowUp"",""ArrowRight""]","full practice","space","36","{""ArrowUp,ArrowLeft"":3,""ArrowUp,ArrowRight"":36,""ArrowDown,ArrowLeft"":15,""ArrowDown,ArrowRight"":23}","true","ArrowUp,ArrowRight","false","","","","","",""
"html-keyboard-response","42","237235","0.0-3.0-8.0-1.1","spark_pilot_norest","8322","1","12","Male","","","","","","","null","<div style=""font-size:60px;"">+</div>","null","fixation","","","","","","","","","","","",""
"revaluation","43","243243","0.0-3.0-8.0-0.2","spark_pilot_norest","8322","1","12","Male","","","false","","","","[249.09999999403954,314.89999997615814]","./assets/img/space/8.jpg","[""ArrowUp"",""ArrowRight""]","full practice","space","36","{""ArrowUp,ArrowLeft"":3,""ArrowUp,ArrowRight"":36,""ArrowDown,ArrowLeft"":15,""ArrowDown,ArrowRight"":23}","true","ArrowUp,ArrowRight","false","","","","","",""
"html-keyboard-response","44","243745","0.0-3.0-8.0-1.2","spark_pilot_norest","8322","1","12","Male","","","","","","","null","<div style=""font-size:60px;"">+</div>","null","fixation","","","","","","","","","","","",""
"revaluation","45","249780","0.0-3.0-8.0-0.3","spark_pilot_norest","8322","1","12","Male","","","false","","","","[400.59999999403954,391.90000000596046]","./assets/img/space/9.jpg","[""ArrowUp"",""ArrowRight""]","full practice","space","36","{""ArrowUp,ArrowLeft"":3,""ArrowUp,ArrowRight"":36,""ArrowDown,ArrowLeft"":15,""ArrowDown,ArrowRight"":23}","true","ArrowUp,ArrowRight","false","","","","","",""
"html-keyboard-response","46","250296","0.0-3.0-8.0-1.3","spark_pilot_norest","8322","1","12","Male","","","","","","","null","<div style=""font-size:60px;"">+</div>","null","fixation","","","","","","","","","","","",""
"revaluation","47","256304","0.0-3.0-8.0-0.4","spark_pilot_norest","8322","1","12","Male","","","false","","","","[520.7999999821186,472.80000001192093]","./assets/img/space/10.jpg","[""ArrowUp"",""ArrowRight""]","full practice","space","36","{""ArrowUp,ArrowLeft"":3,""ArrowUp,ArrowRight"":36,""ArrowDown,ArrowLeft"":15,""ArrowDown,ArrowRight"":23}","true","ArrowUp,ArrowRight","false","","","","","",""
"html-keyboard-response","48","256806","0.0-3.0-8.0-1.4","spark_pilot_norest","8322","1","12","Male","","","","","","","null","<div style=""font-size:60px;"">+</div>","null","fixation","","","","","","","","","","","",""
"learning-instructions","49","268196","0.0-3.0-9.0-0.0","spark_pilot_norest","8322","1","12","Male","","","","","","","1081.5999999940395","<p> One last thing: sometimes, you will see a robber. The robber can be anywhere in the picture. </p>
            <p> If you do not stop them, you will lose treasure. </p>
            <img src='./assets/img/instructions/robber.jpg' class='instructions-image'>","","instructions","","","","","","","","","","","",""
"learning-instructions","50","276763","0.0-3.0-9.0-0.1","spark_pilot_norest","8322","1","12","Male","","","","","","","1408.9000000059605","<p> If you see the robber, you should <b>press the space bar</b> rather than using the arrow keys. </p>
            <p> Try practicing that now! </p>","","instructions","","","","","","","","","","","",""
"revaluation","51","280772","0.0-3.0-10.0-0.0","spark_pilot_norest","8322","1","12","Male","","","false","","","","[831.5999999940395]","./assets/img/space/catch/0.jpg","[""ArrowUp""]","catch practice","space","-10","{""ArrowUp,ArrowLeft"":3,""ArrowUp,ArrowRight"":36,""ArrowDown,ArrowLeft"":15,""ArrowDown,ArrowRight"":23}","false","ArrowUp","true","","","","","",""
"html-keyboard-response","52","281273","0.0-3.0-10.0-1.0","spark_pilot_norest","8322","1","12","Male","","","","","","","null","<div style=""font-size:60px;"">+</div>","null","fixation","","","","","","","","","","","",""
"revaluation","53","285293","0.0-3.0-10.0-0.1","spark_pilot_norest","8322","1","12","Male","","","false","","","","[460.59999999403954]","./assets/img/space/catch/1.jpg","[""spaceBar""]","catch practice","space","0","{""ArrowUp,ArrowLeft"":3,""ArrowUp,ArrowRight"":36,""ArrowDown,ArrowLeft"":15,""ArrowDown,ArrowRight"":23}","true","spaceBar","true","","","","","",""
"html-keyboard-response","54","285795","0.0-3.0-10.0-1.1","spark_pilot_norest","8322","1","12","Male","","","","","","","null","<div style=""font-size:60px;"">+</div>","null","fixation","","","","","","","","","","","",""
"revaluation","55","289815","0.0-3.0-10.0-0.2","spark_pilot_norest","8322","1","12","Male","","","false","","","","[553.5999999940395]","./assets/img/space/catch/2.jpg","[""spaceBar""]","catch practice","space","0","{""ArrowUp,ArrowLeft"":3,""ArrowUp,ArrowRight"":36,""ArrowDown,ArrowLeft"":15,""ArrowDown,ArrowRight"":23}","true","spaceBar","true","","","","","",""
"html-keyboard-response","56","290332","0.0-3.0-10.0-1.2","spark_pilot_norest","8322","1","12","Male","","","","","","","null","<div style=""font-size:60px;"">+</div>","null","fixation","","","","","","","","","","","",""
"learning-instructions","57","297396","0.0-3.0-11.0-0.0-0.0","spark_pilot_norest","8322","1","12","Male","","","","","","","1831.699999988079","<p> Now, you will practice a shortened version of the game to get a sense of how it all fits together. </p>","","instructions","","","","","","","","","","","",""
"learning-instructions","58","302262","0.0-3.0-11.0-0.0-0.1","spark_pilot_norest","8322","1","12","Male","","","","","","","1677.4000000059605","<p>This time you are searching for treasure in outer space.</p>","","instructions","","","","","","","","","","","",""
"learning-instructions","59","318159","0.0-3.0-11.0-1.0-0.0","spark_pilot_norest","8322","1","12","Male","","","","","","","1124.5999999940395","<p> Remember, when you see a picture of the place, use the up and down keys to <b>find an animal</b>.</p>
            <p> When you encounter an animal, you should use the left and right keys to <b>select a treasure chest</b>.</p>
            <p> Don't forget to look out for the robber! </p>","","instructions","","","","","","","","","","","",""
"revaluation","60","324184","0.0-3.0-11.0-2.0-0.0","spark_pilot_norest","8322","1","12","Male","","","false","","","","[1144,502.59999999403954]","./assets/img/space/11.jpg","[""ArrowUp"",""ArrowRight""]","practice block","space","36","{""ArrowUp,ArrowLeft"":3,""ArrowUp,ArrowRight"":36,""ArrowDown,ArrowLeft"":15,""ArrowDown,ArrowRight"":23}","true","ArrowUp,ArrowRight","false","","","","","",""
"html-keyboard-response","61","324688","0.0-3.0-11.0-2.0-1.0","spark_pilot_norest","8322","1","12","Male","","","","","","","null","<div style=""font-size:60px;"">+</div>","null","fixation","","","","","","","","","","","",""
"revaluation","62","330715","0.0-3.0-11.0-2.0-0.1","spark_pilot_norest","8322","1","12","Male","","","false","","","","[934.0999999940395,415.40000000596046]","./assets/img/space/12.jpg","[""ArrowUp"",""ArrowRight""]","practice block","space","36","{""ArrowUp,ArrowLeft"":3,""ArrowUp,ArrowRight"":36,""ArrowDown,ArrowLeft"":15,""ArrowDown,ArrowRight"":23}","true","ArrowUp,ArrowRight","false","","","","","",""
"html-keyboard-response","63","331218","0.0-3.0-11.0-2.0-1.1","spark_pilot_norest","8322","1","12","Male","","","","","","","null","<div style=""font-size:60px;"">+</div>","null","fixation","","","","","","","","","","","",""
"revaluation","64","337240","0.0-3.0-11.0-2.0-0.2","spark_pilot_norest","8322","1","12","Male","","","false","","","","[799.4000000059605,304.7000000178814]","./assets/img/space/13.jpg","[""ArrowUp"",""ArrowRight""]","practice block","space","36","{""ArrowUp,ArrowLeft"":3,""ArrowUp,ArrowRight"":36,""ArrowDown,ArrowLeft"":15,""ArrowDown,ArrowRight"":23}","true","ArrowUp,ArrowRight","false","","","","","",""
"html-keyboard-response","65","337745","0.0-3.0-11.0-2.0-1.2","spark_pilot_norest","8322","1","12","Male","","","","","","","null","<div style=""font-size:60px;"">+</div>","null","fixation","","","","","","","","","","","",""
"revaluation","66","343760","0.0-3.0-11.0-2.0-0.3","spark_pilot_norest","8322","1","12","Male","","","false","","","","[656.0999999940395,237.59999999403954]","./assets/img/space/14.jpg","[""ArrowUp"",""ArrowRight""]","practice block","space","36","{""ArrowUp,ArrowLeft"":3,""ArrowUp,ArrowRight"":36,""ArrowDown,ArrowLeft"":15,""ArrowDown,ArrowRight"":23}","true","ArrowUp,ArrowRight","false","","","","","",""
"html-keyboard-response","67","344276","0.0-3.0-11.0-2.0-1.3","spark_pilot_norest","8322","1","12","Male","","","","","","","null","<div style=""font-size:60px;"">+</div>","null","fixation","","","","","","","","","","","",""
"revaluation","68","350290","0.0-3.0-11.0-2.0-0.4","spark_pilot_norest","8322","1","12","Male","","","false","","","","[614.9000000059605,330.80000001192093]","./assets/img/space/11.jpg","[""ArrowUp"",""ArrowRight""]","practice block","space","36","{""ArrowUp,ArrowLeft"":3,""ArrowUp,ArrowRight"":36,""ArrowDown,ArrowLeft"":15,""ArrowDown,ArrowRight"":23}","true","ArrowUp,ArrowRight","false","","","","","",""
"html-keyboard-response","69","350790","0.0-3.0-11.0-2.0-1.4","spark_pilot_norest","8322","1","12","Male","","","","","","","null","<div style=""font-size:60px;"">+</div>","null","fixation","","","","","","","","","","","",""
"revaluation","70","356793","0.0-3.0-11.0-2.0-0.5","spark_pilot_norest","8322","1","12","Male","","","false","","","","[565.8000000119209,250.40000000596046]","./assets/img/space/12.jpg","[""ArrowUp"",""ArrowRight""]","practice block","space","36","{""ArrowUp,ArrowLeft"":3,""ArrowUp,ArrowRight"":36,""ArrowDown,ArrowLeft"":15,""ArrowDown,ArrowRight"":23}","true","ArrowUp,ArrowRight","false","","","","","",""
"html-keyboard-response","71","357295","0.0-3.0-11.0-2.0-1.5","spark_pilot_norest","8322","1","12","Male","","","","","","","null","<div style=""font-size:60px;"">+</div>","null","fixation","","","","","","","","","","","",""
"revaluation","72","363300","0.0-3.0-11.0-2.0-0.6","spark_pilot_norest","8322","1","12","Male","","","false","","","","[453.69999998807907,194]","./assets/img/space/13.jpg","[""ArrowUp"",""ArrowRight""]","practice block","space","36","{""ArrowUp,ArrowLeft"":3,""ArrowUp,ArrowRight"":36,""ArrowDown,ArrowLeft"":15,""ArrowDown,ArrowRight"":23}","true","ArrowUp,ArrowRight","false","","","","","",""
"html-keyboard-response","73","363802","0.0-3.0-11.0-2.0-1.6","spark_pilot_norest","8322","1","12","Male","","","","","","","null","<div style=""font-size:60px;"">+</div>","null","fixation","","","","","","","","","","","",""
"revaluation","74","369807","0.0-3.0-11.0-2.0-0.7","spark_pilot_norest","8322","1","12","Male","","","false","","","","[594.8000000119209,318.5]","./assets/img/space/14.jpg","[""ArrowUp"",""ArrowRight""]","practice block","space","36","{""ArrowUp,ArrowLeft"":3,""ArrowUp,ArrowRight"":36,""ArrowDown,ArrowLeft"":15,""ArrowDown,ArrowRight"":23}","true","ArrowUp,ArrowRight","false","","","","","",""
"html-keyboard-response","75","370308","0.0-3.0-11.0-2.0-1.7","spark_pilot_norest","8322","1","12","Male","","","","","","","null","<div style=""font-size:60px;"">+</div>","null","fixation","","","","","","","","","","","",""
"revaluation","76","374310","0.0-3.0-11.0-2.0-0.8","spark_pilot_norest","8322","1","12","Male","","","false","","","","[774.3999999761581]","./assets/img/space/catch/3.jpg","[""spaceBar""]","practice block","space","0","{""ArrowUp,ArrowLeft"":3,""ArrowUp,ArrowRight"":36,""ArrowDown,ArrowLeft"":15,""ArrowDown,ArrowRight"":23}","true","spaceBar","true","","","","","",""
"html-keyboard-response","77","374811","0.0-3.0-11.0-2.0-1.8","spark_pilot_norest","8322","1","12","Male","","","","","","","null","<div style=""font-size:60px;"">+</div>","null","fixation","","","","","","","","","","","",""
"learning-instructions","78","388325","0.0-3.0-11.0-3.0-0.0","spark_pilot_norest","8322","1","12","Male","","","","","","","590.5","<p> Now, you will travel with a friend who will choose whether you go up or down first. </p>
            <p> On these turns, you will just see the animal that they found. You will still get to choose which chest to search for treasure.</p>","","instructions","","","","","","","","","","","",""
"revaluation","79","392351","0.0-3.0-11.0-4.0-0.0","spark_pilot_norest","8322","1","12","Male","","","false","","","","[1139.7000000178814]","./assets/img/space/animals/rabbit.jpg","[""ArrowRight""]","practice block","space","23","{""ArrowUp,ArrowLeft"":3,""ArrowUp,ArrowRight"":36,""ArrowDown,ArrowLeft"":15,""ArrowDown,ArrowRight"":23}","true","ArrowDown,ArrowRight","","","","","","",""
"html-keyboard-response","80","392854","0.0-3.0-11.0-4.0-1.0","spark_pilot_norest","8322","1","12","Male","","","","","","","null","<div style=""font-size:60px;"">+</div>","null","fixation","","","","","","","","","","","",""
"revaluation","81","396876","0.0-3.0-11.0-4.0-0.1","spark_pilot_norest","8322","1","12","Male","","","false","","","","[404.90000000596046]","./assets/img/space/animals/cat.jpg","[""ArrowLeft""]","practice block","space","3","{""ArrowUp,ArrowLeft"":3,""ArrowUp,ArrowRight"":36,""ArrowDown,ArrowLeft"":15,""ArrowDown,ArrowRight"":23}","false","ArrowUp,ArrowLeft","","","","","","",""
"html-keyboard-response","82","397379","0.0-3.0-11.0-4.0-1.1","spark_pilot_norest","8322","1","12","Male","","","","","","","null","<div style=""font-size:60px;"">+</div>","null","fixation","","","","","","","","","","","",""
"revaluation","83","401392","0.0-3.0-11.0-4.0-0.2","spark_pilot_norest","8322","1","12","Male","","","false","","","","[405.2999999821186]","./assets/img/space/animals/rabbit.jpg","[""ArrowLeft""]","practice block","space","15","{""ArrowUp,ArrowLeft"":3,""ArrowUp,ArrowRight"":36,""ArrowDown,ArrowLeft"":15,""ArrowDown,ArrowRight"":23}","false","ArrowDown,ArrowLeft","","","","","","",""
"html-keyboard-response","84","401908","0.0-3.0-11.0-4.0-1.2","spark_pilot_norest","8322","1","12","Male","","","","","","","null","<div style=""font-size:60px;"">+</div>","null","fixation","","","","","","","","","","","",""
"revaluation","85","405921","0.0-3.0-11.0-4.0-0.3","spark_pilot_norest","8322","1","12","Male","","","false","","","","[409]","./assets/img/space/animals/cat.jpg","[""ArrowRight""]","practice block","space","36","{""ArrowUp,ArrowLeft"":3,""ArrowUp,ArrowRight"":36,""ArrowDown,ArrowLeft"":15,""ArrowDown,ArrowRight"":23}","true","ArrowUp,ArrowRight","","","","","","",""
"html-keyboard-response","86","406429","0.0-3.0-11.0-4.0-1.3","spark_pilot_norest","8322","1","12","Male","","","","","","","null","<div style=""font-size:60px;"">+</div>","null","fixation","","","","","","","","","","","",""
"learning-instructions","87","414556","0.0-3.0-11.0-5.0-0.0","spark_pilot_norest","8322","1","12","Male","","","","","","","null","<p> You have almost finished this part of the game! </p>
            <p> We are going to ask you to make a few more choices. </p>","","instructions","","","","","","","","","","","",""
"learning-instructions","88","430581","0.0-3.0-11.0-5.0-0.1","spark_pilot_norest","8322","1","12","Male","","","","","","","null","<p> First, you need to decide whether to go up or down. When you see each picture, use the arrow keys to make your choice. </p>
            <p><b>You will not see which animal you found, but try to get to the one that will give you the most treasure.</b></p>","","instructions","","","","","","","","","","","",""
"html-keyboard-response","89","431595","0.0-3.0-11.0-6.0-0.0","spark_pilot_norest","8322","1","12","Male","","","","","","","null","<div style=""font-size:100px;color:red;"">Starting in...</div>","null","","","","","","","","","","","","",""
"html-keyboard-response","90","432597","0.0-3.0-11.0-6.0-1.0","spark_pilot_norest","8322","1","12","Male","","","","","","","null","<div style=""font-size:200px;color:red;"">3</div>","null","","","","","","","","","","","","",""
"html-keyboard-response","91","433598","0.0-3.0-11.0-6.0-2.0","spark_pilot_norest","8322","1","12","Male","","","","","","","null","<div style=""font-size:200px;color:red;"">2</div>","null","","","","","","","","","","","","",""
"html-keyboard-response","92","434600","0.0-3.0-11.0-6.0-3.0","spark_pilot_norest","8322","1","12","Male","","","","","","","null","<div style=""font-size:200px;color:red;"">1</div>","null","","","","","","","","","","","","",""
"revaluation","93","435357","0.0-3.0-11.0-7.0","spark_pilot_norest","8322","1","12","Male","","","false","","","","[756]","./assets/img/space/15.jpg","[""ArrowUp""]","practice block","space","0","{""ArrowUp,ArrowLeft"":3,""ArrowUp,ArrowRight"":36,""ArrowDown,ArrowLeft"":15,""ArrowDown,ArrowRight"":23}","true","ArrowUp","false","","","","","",""
"html-keyboard-response","94","435870","0.0-3.0-11.0-8.0","spark_pilot_norest","8322","1","12","Male","","","","","","","null","<div style=""font-size:60px;"">+</div>","null","fixation","","","","","","","","","","","",""
"learning-instructions","95","449251","0.0-3.0-11.0-9.0-0.0","spark_pilot_norest","8322","1","12","Male","","","","","","","null","<p> Now you will see the animals again and can search their chests for treasure. </p>
            <p> This time, you will not see how much treasure you earned, but you will earn more bonus money for making better choices. </p>","","instructions","","","","","","","","","","","",""
"html-keyboard-response","96","450263","0.0-3.0-11.0-10.0-0.0","spark_pilot_norest","8322","1","12","Male","","","","","","","null","<div style=""font-size:100px;color:red;"">Starting in...</div>","null","","","","","","","","","","","","",""
"html-keyboard-response","97","451270","0.0-3.0-11.0-10.0-1.0","spark_pilot_norest","8322","1","12","Male","","","","","","","null","<div style=""font-size:200px;color:red;"">3</div>","null","","","","","","","","","","","","",""
"html-keyboard-response","98","452271","0.0-3.0-11.0-10.0-2.0","spark_pilot_norest","8322","1","12","Male","","","","","","","null","<div style=""font-size:200px;color:red;"">2</div>","null","","","","","","","","","","","","",""
"html-keyboard-response","99","453273","0.0-3.0-11.0-10.0-3.0","spark_pilot_norest","8322","1","12","Male","","","","","","","null","<div style=""font-size:200px;color:red;"">1</div>","null","","","","","","","","","","","","",""
"revaluation","100","453952","0.0-3.0-11.0-11.0-0.0","spark_pilot_norest","8322","1","12","Male","","","false","","","","[678.2999999821186]","./assets/img/space/animals/cat.jpg","[""ArrowRight""]","practice block","space","0","{""ArrowUp,ArrowLeft"":3,""ArrowUp,ArrowRight"":36,""ArrowDown,ArrowLeft"":15,""ArrowDown,ArrowRight"":23}","true","ArrowUp,ArrowRight","","","","","","",""
"html-keyboard-response","101","454453","0.0-3.0-11.0-11.0-1.0","spark_pilot_norest","8322","1","12","Male","","","","","","","null","<div style=""font-size:60px;"">+</div>","null","fixation","","","","","","","","","","","",""
"revaluation","102","455373","0.0-3.0-11.0-11.0-0.1","spark_pilot_norest","8322","1","12","Male","","","false","","","","[918.6999999880791]","./assets/img/space/animals/rabbit.jpg","[""ArrowRight""]","practice block","space","0","{""ArrowUp,ArrowLeft"":3,""ArrowUp,ArrowRight"":36,""ArrowDown,ArrowLeft"":15,""ArrowDown,ArrowRight"":23}","true","ArrowDown,ArrowRight","","","","","","",""
"html-keyboard-response","103","455888","0.0-3.0-11.0-11.0-1.1","spark_pilot_norest","8322","1","12","Male","","","","","","","null","<div style=""font-size:60px;"">+</div>","null","fixation","","","","","","","","","","","",""
"learning-instructions","104","462672","0.0-3.0-12.0-0.0","spark_pilot_norest","8322","1","12","Male","","","","","","","2197.5999999940395","<p> Before you start, we're going to ask you a few questions about how the game works. </p>","","instructions","","","","","","","","","","","",""
"comp-q","105","469210","0.0-3.0-13.0-0.0-0.0","spark_pilot_norest","8322","1","12","Male","","","","","","","944.2999999821186","<p> <b> True or False? </b> </p>
            <p> There can be 50 pieces of treasure in a given animal's chest. </p>","1","comp_question","","","","true","","","","","","","",""
"comp-q","106","477552","0.0-3.0-13.0-0.0-1.0","spark_pilot_norest","8322","1","12","Male","","","","","","","1677.8999999761581","<p> <b> That's right! </b> The amount of treasure in each chest can range from 0 to 40 pieces. </p>","0","comp_answer","","","","","","","","","","","",""
"comp-q","107","485328","0.0-3.0-13.0-0.1-0.1","spark_pilot_norest","8322","1","12","Male","","","","","","","663.5999999940395","<p> <b> True or False? </b> </p><p> In this game, all animals have the same amount of treasure in their left and right chests. </p>","1","comp_question","","","","true","","","","","","","",""
"comp-q","108","491642","0.0-3.0-13.0-0.1-1.1","spark_pilot_norest","8322","1","12","Male","","","","","","","1087.9000000059605","<p> <b> That's right! </b> Animals have different amounts of treasure in their treasure chests. </p>","0","comp_answer","","","","","","","","","","","",""
"comp-q","109","498060","0.0-3.0-13.0-0.2-0.2","spark_pilot_norest","8322","1","12","Male","","","","","","","565.0999999940395","<p> <b> True or False? </b> </p><p> The same animal will always be there if you go up in the same place. </p>","0","comp_question","","","","true","","","","","","","",""
"comp-q","110","505042","0.0-3.0-13.0-0.2-1.2","spark_pilot_norest","8322","1","12","Male","","","","","","","527.7999999821186","<p> <b> That's right! </b> One animal lives in the upper part and one lives in the lower part of every place. </p>","0","comp_answer","","","","","","","","","","","",""
"comp-q","111","512376","0.0-3.0-13.0-0.3-0.3","spark_pilot_norest","8322","1","12","Male","","","","","","","1811.7999999821186","<p> <b> True or False? </b> </p><p> If you see a different picture, it means you are in a new place. </p>","1","comp_question","","","","true","","","","","","","",""
"comp-q","112","525016","0.0-3.0-13.0-0.3-1.3","spark_pilot_norest","8322","1","12","Male","","","","","","","1401.699999988079","<p> <b> That's right! </b> Lots of different images may show the same place. For example,  you may see three different images that all remind you that you are in outer space. </p>","0","comp_answer","","","","","","","","","","","",""
"learning-instructions","113","535775","0.0-3.0-14.0-0.0","spark_pilot_norest","8322","1","12","Male","","","","","","","900.5","<p> Good job. Remember to do your best because the amount of treasure you earn will be converted into bonus money. </p>
            <p> It’s time to start the real game! </p>","","instructions","","","","","","","","","","","",""
"learning-instructions","114","539074","0.0-4.0-0.0-0.0","spark_pilot_norest","8322","1","12","Male","","","","","","","599.6999999880791","<p> This time you are searching for treasure in the <b>ocean</b>.</p>","","instructions","","","","","","","","","","","",""
"learning-instructions","115","556901","0.0-4.0-0.0-0.1","spark_pilot_norest","8322","1","12","Male","","","","","","","516.4000000059605","<p><b>New</b> animals with <b>new</b> treasure chests live here. You need to explore to discover where the animal with the best treasure chest is.</p>
                    <p> Like before, once you figure out which animal has the chest with the most treasure, you should try to get to that animal and select that chest! </p>","","instructions","","","","","","","","","","","",""
"learning-instructions","116","572851","0.0-4.0-1.0-0.0","spark_pilot_norest","8322","1","12","Male","","","","","","","1226.5999999940395","<p> Remember, when you see a picture of the place, use the up and down keys to <b>find an animal</b>.</p>
            <p> When you encounter an animal, you should use the left and right keys to <b>select a treasure chest</b>.</p>
            <p> Don't forget to look out for the robber! </p>","","instructions","","","","","","","","","","","",""
"revaluation","117","578884","0.0-4.0-2.0-0.0","spark_pilot_norest","8322","1","12","Male","","","false","","","","[1301.5999999940395,769.6999999880791]","./assets/img/ocean/memory/35.jpg","[""ArrowUp"",""ArrowRight""]","value training","ocean","10","{""ArrowUp,ArrowLeft"":26,""ArrowUp,ArrowRight"":10,""ArrowDown,ArrowLeft"":5,""ArrowDown,ArrowRight"":17}","false","ArrowUp,ArrowRight","false","original","1","0","","",""
"html-keyboard-response","118","579390","0.0-4.0-2.0-1.0","spark_pilot_norest","8322","1","12","Male","","","","","","","null","<div style=""font-size:60px;"">+</div>","null","fixation","","","","","","","","","1","","",""
"revaluation","119","585423","0.0-4.0-2.0-0.1","spark_pilot_norest","8322","1","12","Male","","","false","","","","[583.5999999940395,291.59999999403954]","./assets/img/ocean/memory/36.jpg","[""ArrowUp"",""ArrowLeft""]","value training","ocean","26","{""ArrowUp,ArrowLeft"":26,""ArrowUp,ArrowRight"":10,""ArrowDown,ArrowLeft"":5,""ArrowDown,ArrowRight"":17}","true","ArrowUp,ArrowLeft","false","original","1","2","","",""
"html-keyboard-response","120","585939","0.0-4.0-2.0-1.1","spark_pilot_norest","8322","1","12","Male","","","","","","","null","<div style=""font-size:60px;"">+</div>","null","fixation","","","","","","","","","3","","",""
"revaluation","121","591978","0.0-4.0-2.0-0.2","spark_pilot_norest","8322","1","12","Male","","","false","","","","[405.7000000178814,354.60000002384186]","./assets/img/ocean/memory/29.jpg","[""ArrowDown"",""ArrowRight""]","value training","ocean","17","{""ArrowUp,ArrowLeft"":26,""ArrowUp,ArrowRight"":10,""ArrowDown,ArrowLeft"":5,""ArrowDown,ArrowRight"":17}","false","ArrowDown,ArrowRight","false","original","1","4","","",""
"html-keyboard-response","122","592483","0.0-4.0-2.0-1.2","spark_pilot_norest","8322","1","12","Male","","","","","","","null","<div style=""font-size:60px;"">+</div>","null","fixation","","","","","","","","","5","","",""
"revaluation","123","598513","0.0-4.0-2.0-0.3","spark_pilot_norest","8322","1","12","Male","","","false","","","","[255.59999999403954,297.59999999403954]","./assets/img/ocean/memory/39.jpg","[""ArrowDown"",""ArrowLeft""]","value training","ocean","5","{""ArrowUp,ArrowLeft"":26,""ArrowUp,ArrowRight"":10,""ArrowDown,ArrowLeft"":5,""ArrowDown,ArrowRight"":17}","false","ArrowDown,ArrowLeft","false","original","1","6","","",""
"html-keyboard-response","124","599018","0.0-4.0-2.0-1.3","spark_pilot_norest","8322","1","12","Male","","","","","","","null","<div style=""font-size:60px;"">+</div>","null","fixation","","","","","","","","","7","","",""
"revaluation","125","605031","0.0-4.0-2.0-0.4","spark_pilot_norest","8322","1","12","Male","","","false","","","","[350.89999997615814,348.59999999403954]","./assets/img/ocean/memory/10.jpg","[""ArrowUp"",""ArrowLeft""]","value training","ocean","26","{""ArrowUp,ArrowLeft"":26,""ArrowUp,ArrowRight"":10,""ArrowDown,ArrowLeft"":5,""ArrowDown,ArrowRight"":17}","true","ArrowUp,ArrowLeft","false","original","1","8","","",""
"html-keyboard-response","126","605532","0.0-4.0-2.0-1.4","spark_pilot_norest","8322","1","12","Male","","","","","","","null","<div style=""font-size:60px;"">+</div>","null","fixation","","","","","","","","","9","","",""
"revaluation","127","609542","0.0-4.0-2.0-0.5","spark_pilot_norest","8322","1","12","Male","","","false","","","","[680.4000000059605]","./assets/img/ocean/catch/0.jpg","[""spaceBar""]","value training","ocean","0","{""ArrowUp,ArrowLeft"":26,""ArrowUp,ArrowRight"":10,""ArrowDown,ArrowLeft"":5,""ArrowDown,ArrowRight"":17}","true","spaceBar","true","original","1","10","","",""
"html-keyboard-response","128","610044","0.0-4.0-2.0-1.5","spark_pilot_norest","8322","1","12","Male","","","","","","","null","<div style=""font-size:60px;"">+</div>","null","fixation","","","","","","","","","11","","",""
"revaluation","129","616049","0.0-4.0-2.0-0.6","spark_pilot_norest","8322","1","12","Male","","","false","","","","[616.8999999761581,229.40000000596046]","./assets/img/ocean/memory/37.jpg","[""ArrowUp"",""ArrowLeft""]","value training","ocean","26","{""ArrowUp,ArrowLeft"":26,""ArrowUp,ArrowRight"":10,""ArrowDown,ArrowLeft"":5,""ArrowDown,ArrowRight"":17}","true","ArrowUp,ArrowLeft","false","original","1","12","","",""
"html-keyboard-response","130","616551","0.0-4.0-2.0-1.6","spark_pilot_norest","8322","1","12","Male","","","","","","","null","<div style=""font-size:60px;"">+</div>","null","fixation","","","","","","","","","13","","",""
"revaluation","131","622556","0.0-4.0-2.0-0.7","spark_pilot_norest","8322","1","12","Male","","","false","","","","[475.90000000596046,506.5]","./assets/img/ocean/memory/10.jpg","[""ArrowUp"",""ArrowLeft""]","value training","ocean","26","{""ArrowUp,ArrowLeft"":26,""ArrowUp,ArrowRight"":10,""ArrowDown,ArrowLeft"":5,""ArrowDown,ArrowRight"":17}","true","ArrowUp,ArrowLeft","false","original","1","14","","",""
"html-keyboard-response","132","623057","0.0-4.0-2.0-1.7","spark_pilot_norest","8322","1","12","Male","","","","","","","null","<div style=""font-size:60px;"">+</div>","null","fixation","","","","","","","","","15","","",""
"revaluation","133","629061","0.0-4.0-2.0-0.8","spark_pilot_norest","8322","1","12","Male","","","false","","","","[440.90000000596046,304]","./assets/img/ocean/memory/3.jpg","[""ArrowUp"",""ArrowLeft""]","value training","ocean","26","{""ArrowUp,ArrowLeft"":26,""ArrowUp,ArrowRight"":10,""ArrowDown,ArrowLeft"":5,""ArrowDown,ArrowRight"":17}","true","ArrowUp,ArrowLeft","false","original","1","16","","",""
"html-keyboard-response","134","629562","0.0-4.0-2.0-1.8","spark_pilot_norest","8322","1","12","Male","","","","","","","null","<div style=""font-size:60px;"">+</div>","null","fixation","","","","","","","","","17","","",""
"revaluation","135","635567","0.0-4.0-2.0-0.9","spark_pilot_norest","8322","1","12","Male","","","false","","","","[383.40000000596046,301.5]","./assets/img/ocean/memory/39.jpg","[""ArrowUp"",""ArrowLeft""]","value training","ocean","26","{""ArrowUp,ArrowLeft"":26,""ArrowUp,ArrowRight"":10,""ArrowDown,ArrowLeft"":5,""ArrowDown,ArrowRight"":17}","true","ArrowUp,ArrowLeft","false","original","1","18","","",""
"html-keyboard-response","136","636067","0.0-4.0-2.0-1.9","spark_pilot_norest","8322","1","12","Male","","","","","","","null","<div style=""font-size:60px;"">+</div>","null","fixation","","","","","","","","","19","","",""
"revaluation","137","642071","0.0-4.0-2.0-0.10","spark_pilot_norest","8322","1","12","Male","","","false","","","","[607.5,258.90000000596046]","./assets/img/ocean/memory/35.jpg","[""ArrowUp"",""ArrowLeft""]","value training","ocean","26","{""ArrowUp,ArrowLeft"":26,""ArrowUp,ArrowRight"":10,""ArrowDown,ArrowLeft"":5,""ArrowDown,ArrowRight"":17}","true","ArrowUp,ArrowLeft","false","original","1","20","","",""
"html-keyboard-response","138","642572","0.0-4.0-2.0-1.10","spark_pilot_norest","8322","1","12","Male","","","","","","","null","<div style=""font-size:60px;"">+</div>","null","fixation","","","","","","","","","21","","",""
"revaluation","139","648576","0.0-4.0-2.0-0.11","spark_pilot_norest","8322","1","12","Male","","","false","","","","[541.6999999880791,225.89999997615814]","./assets/img/ocean/memory/41.jpg","[""ArrowUp"",""ArrowLeft""]","value training","ocean","26","{""ArrowUp,ArrowLeft"":26,""ArrowUp,ArrowRight"":10,""ArrowDown,ArrowLeft"":5,""ArrowDown,ArrowRight"":17}","true","ArrowUp,ArrowLeft","false","original","1","22","","",""
"html-keyboard-response","140","649077","0.0-4.0-2.0-1.11","spark_pilot_norest","8322","1","12","Male","","","","","","","null","<div style=""font-size:60px;"">+</div>","null","fixation","","","","","","","","","23","","",""
"revaluation","141","653080","0.0-4.0-2.0-0.12","spark_pilot_norest","8322","1","12","Male","","","false","","","","[736.9000000059605]","./assets/img/ocean/catch/1.jpg","[""spaceBar""]","value training","ocean","0","{""ArrowUp,ArrowLeft"":26,""ArrowUp,ArrowRight"":10,""ArrowDown,ArrowLeft"":5,""ArrowDown,ArrowRight"":17}","true","spaceBar","true","original","1","24","","",""
"html-keyboard-response","142","653581","0.0-4.0-2.0-1.12","spark_pilot_norest","8322","1","12","Male","","","","","","","null","<div style=""font-size:60px;"">+</div>","null","fixation","","","","","","","","","25","","",""
"revaluation","143","657586","0.0-4.0-2.0-0.13","spark_pilot_norest","8322","1","12","Male","","","false","","","","[639.6999999880791]","./assets/img/ocean/catch/6.jpg","[""spaceBar""]","value training","ocean","0","{""ArrowUp,ArrowLeft"":26,""ArrowUp,ArrowRight"":10,""ArrowDown,ArrowLeft"":5,""ArrowDown,ArrowRight"":17}","true","spaceBar","true","original","1","26","","",""
"html-keyboard-response","144","658088","0.0-4.0-2.0-1.13","spark_pilot_norest","8322","1","12","Male","","","","","","","null","<div style=""font-size:60px;"">+</div>","null","fixation","","","","","","","","","27","","",""
"revaluation","145","664091","0.0-4.0-2.0-0.14","spark_pilot_norest","8322","1","12","Male","","","false","","","","[728.0999999940395,281]","./assets/img/ocean/memory/20.jpg","[""ArrowUp"",""ArrowLeft""]","value training","ocean","26","{""ArrowUp,ArrowLeft"":26,""ArrowUp,ArrowRight"":10,""ArrowDown,ArrowLeft"":5,""ArrowDown,ArrowRight"":17}","true","ArrowUp,ArrowLeft","false","original","1","28","","",""
"html-keyboard-response","146","664592","0.0-4.0-2.0-1.14","spark_pilot_norest","8322","1","12","Male","","","","","","","null","<div style=""font-size:60px;"">+</div>","null","fixation","","","","","","","","","29","","",""
"revaluation","147","670597","0.0-4.0-2.0-0.15","spark_pilot_norest","8322","1","12","Male","","","false","","","","[676.4000000059605,544.7000000178814]","./assets/img/ocean/memory/22.jpg","[""ArrowUp"",""ArrowLeft""]","value training","ocean","26","{""ArrowUp,ArrowLeft"":26,""ArrowUp,ArrowRight"":10,""ArrowDown,ArrowLeft"":5,""ArrowDown,ArrowRight"":17}","true","ArrowUp,ArrowLeft","false","original","1","30","","",""
"html-keyboard-response","148","671099","0.0-4.0-2.0-1.15","spark_pilot_norest","8322","1","12","Male","","","","","","","null","<div style=""font-size:60px;"">+</div>","null","fixation","","","","","","","","","31","","",""
"revaluation","149","677104","0.0-4.0-2.0-0.16","spark_pilot_norest","8322","1","12","Male","","","false","","","","[1042.5,274.40000000596046]","./assets/img/ocean/memory/25.jpg","[""ArrowUp"",""ArrowLeft""]","value training","ocean","26","{""ArrowUp,ArrowLeft"":26,""ArrowUp,ArrowRight"":10,""ArrowDown,ArrowLeft"":5,""ArrowDown,ArrowRight"":17}","true","ArrowUp,ArrowLeft","false","original","1","32","","",""
"html-keyboard-response","150","677619","0.0-4.0-2.0-1.16","spark_pilot_norest","8322","1","12","Male","","","","","","","null","<div style=""font-size:60px;"">+</div>","null","fixation","","","","","","","","","33","","",""
"revaluation","151","683636","0.0-4.0-2.0-0.17","spark_pilot_norest","8322","1","12","Male","","","false","","","","[526.2000000178814,59.19999998807907]","./assets/img/ocean/memory/40.jpg","[""ArrowUp"",""ArrowLeft""]","value training","ocean","26","{""ArrowUp,ArrowLeft"":26,""ArrowUp,ArrowRight"":10,""ArrowDown,ArrowLeft"":5,""ArrowDown,ArrowRight"":17}","true","ArrowUp,ArrowLeft","false","original","1","34","","",""
"html-keyboard-response","152","684137","0.0-4.0-2.0-1.17","spark_pilot_norest","8322","1","12","Male","","","","","","","null","<div style=""font-size:60px;"">+</div>","null","fixation","","","","","","","","","35","","",""
"revaluation","153","690141","0.0-4.0-2.0-0.18","spark_pilot_norest","8322","1","12","Male","","","false","","","","[460.90000000596046,256.7999999821186]","./assets/img/ocean/memory/25.jpg","[""ArrowUp"",""ArrowLeft""]","value training","ocean","26","{""ArrowUp,ArrowLeft"":26,""ArrowUp,ArrowRight"":10,""ArrowDown,ArrowLeft"":5,""ArrowDown,ArrowRight"":17}","true","ArrowUp,ArrowLeft","false","original","1","36","","",""
"html-keyboard-response","154","690643","0.0-4.0-2.0-1.18","spark_pilot_norest","8322","1","12","Male","","","","","","","null","<div style=""font-size:60px;"">+</div>","null","fixation","","","","","","","","","37","","",""
"revaluation","155","696646","0.0-4.0-2.0-0.19","spark_pilot_norest","8322","1","12","Male","","","false","","","","[500.19999998807907,220.7000000178814]","./assets/img/ocean/memory/30.jpg","[""ArrowUp"",""ArrowLeft""]","value training","ocean","26","{""ArrowUp,ArrowLeft"":26,""ArrowUp,ArrowRight"":10,""ArrowDown,ArrowLeft"":5,""ArrowDown,ArrowRight"":17}","true","ArrowUp,ArrowLeft","false","original","1","38","","",""
"html-keyboard-response","156","697147","0.0-4.0-2.0-1.19","spark_pilot_norest","8322","1","12","Male","","","","","","","null","<div style=""font-size:60px;"">+</div>","null","fixation","","","","","","","","","39","","",""
"revaluation","157","703151","0.0-4.0-2.0-0.20","spark_pilot_norest","8322","1","12","Male","","","false","","","","[455.39999997615814,283.59999999403954]","./assets/img/ocean/memory/4.jpg","[""ArrowUp"",""ArrowLeft""]","value training","ocean","26","{""ArrowUp,ArrowLeft"":26,""ArrowUp,ArrowRight"":10,""ArrowDown,ArrowLeft"":5,""ArrowDown,ArrowRight"":17}","true","ArrowUp,ArrowLeft","false","original","1","40","","",""
"html-keyboard-response","158","703652","0.0-4.0-2.0-1.20","spark_pilot_norest","8322","1","12","Male","","","","","","","null","<div style=""font-size:60px;"">+</div>","null","fixation","","","","","","","","","41","","",""
"revaluation","159","707655","0.0-4.0-2.0-0.21","spark_pilot_norest","8322","1","12","Male","","","false","","","","[646.6999999880791]","./assets/img/ocean/catch/3.jpg","[""spaceBar""]","value training","ocean","0","{""ArrowUp,ArrowLeft"":26,""ArrowUp,ArrowRight"":10,""ArrowDown,ArrowLeft"":5,""ArrowDown,ArrowRight"":17}","true","spaceBar","true","original","1","42","","",""
"html-keyboard-response","160","708156","0.0-4.0-2.0-1.21","spark_pilot_norest","8322","1","12","Male","","","","","","","null","<div style=""font-size:60px;"">+</div>","null","fixation","","","","","","","","","43","","",""
"revaluation","161","714161","0.0-4.0-2.0-0.22","spark_pilot_norest","8322","1","12","Male","","","false","","","","[491.59999999403954,280.80000001192093]","./assets/img/ocean/memory/18.jpg","[""ArrowUp"",""ArrowLeft""]","value training","ocean","26","{""ArrowUp,ArrowLeft"":26,""ArrowUp,ArrowRight"":10,""ArrowDown,ArrowLeft"":5,""ArrowDown,ArrowRight"":17}","true","ArrowUp,ArrowLeft","false","original","1","44","","",""
"html-keyboard-response","162","714663","0.0-4.0-2.0-1.22","spark_pilot_norest","8322","1","12","Male","","","","","","","null","<div style=""font-size:60px;"">+</div>","null","fixation","","","","","","","","","45","","",""
"revaluation","163","720668","0.0-4.0-2.0-0.23","spark_pilot_norest","8322","1","12","Male","","","false","","","","[614,205.90000000596046]","./assets/img/ocean/memory/41.jpg","[""ArrowUp"",""ArrowLeft""]","value training","ocean","26","{""ArrowUp,ArrowLeft"":26,""ArrowUp,ArrowRight"":10,""ArrowDown,ArrowLeft"":5,""ArrowDown,ArrowRight"":17}","true","ArrowUp,ArrowLeft","false","original","1","46","","",""
"html-keyboard-response","164","721169","0.0-4.0-2.0-1.23","spark_pilot_norest","8322","1","12","Male","","","","","","","null","<div style=""font-size:60px;"">+</div>","null","fixation","","","","","","","","","47","","",""
"revaluation","165","727174","0.0-4.0-2.0-0.24","spark_pilot_norest","8322","1","12","Male","","","false","","","","[489.69999998807907,361.90000000596046]","./assets/img/ocean/memory/30.jpg","[""ArrowUp"",""ArrowLeft""]","value training","ocean","26","{""ArrowUp,ArrowLeft"":26,""ArrowUp,ArrowRight"":10,""ArrowDown,ArrowLeft"":5,""ArrowDown,ArrowRight"":17}","true","ArrowUp,ArrowLeft","false","original","1","48","","",""
"html-keyboard-response","166","727675","0.0-4.0-2.0-1.24","spark_pilot_norest","8322","1","12","Male","","","","","","","null","<div style=""font-size:60px;"">+</div>","null","fixation","","","","","","","","","49","","",""
"revaluation","167","731680","0.0-4.0-2.0-0.25","spark_pilot_norest","8322","1","12","Male","","","false","","","","[634.8000000119209]","./assets/img/ocean/catch/7.jpg","[""ArrowUp""]","value training","ocean","-10","{""ArrowUp,ArrowLeft"":26,""ArrowUp,ArrowRight"":10,""ArrowDown,ArrowLeft"":5,""ArrowDown,ArrowRight"":17}","false","ArrowUp","true","original","1","50","","",""
"html-keyboard-response","168","732181","0.0-4.0-2.0-1.25","spark_pilot_norest","8322","1","12","Male","","","","","","","null","<div style=""font-size:60px;"">+</div>","null","fixation","","","","","","","","","51","","",""
"revaluation","169","738194","0.0-4.0-2.0-0.26","spark_pilot_norest","8322","1","12","Male","","","false","","","","[427.39999997615814,356.30000001192093]","./assets/img/ocean/memory/22.jpg","[""ArrowUp"",""ArrowLeft""]","value training","ocean","26","{""ArrowUp,ArrowLeft"":26,""ArrowUp,ArrowRight"":10,""ArrowDown,ArrowLeft"":5,""ArrowDown,ArrowRight"":17}","true","ArrowUp,ArrowLeft","false","original","1","52","","",""
"html-keyboard-response","170","738695","0.0-4.0-2.0-1.26","spark_pilot_norest","8322","1","12","Male","","","","","","","null","<div style=""font-size:60px;"">+</div>","null","fixation","","","","","","","","","53","","",""
"revaluation","171","744702","0.0-4.0-2.0-0.27","spark_pilot_norest","8322","1","12","Male","","","false","","","","[507.69999998807907,243.90000000596046]","./assets/img/ocean/memory/7.jpg","[""ArrowUp"",""ArrowLeft""]","value training","ocean","26","{""ArrowUp,ArrowLeft"":26,""ArrowUp,ArrowRight"":10,""ArrowDown,ArrowLeft"":5,""ArrowDown,ArrowRight"":17}","true","ArrowUp,ArrowLeft","false","original","1","54","","",""
"html-keyboard-response","172","745204","0.0-4.0-2.0-1.27","spark_pilot_norest","8322","1","12","Male","","","","","","","null","<div style=""font-size:60px;"">+</div>","null","fixation","","","","","","","","","55","","",""
"revaluation","173","751209","0.0-4.0-2.0-0.28","spark_pilot_norest","8322","1","12","Male","","","false","","","","[532,161.90000000596046]","./assets/img/ocean/memory/31.jpg","[""ArrowUp"",""ArrowLeft""]","value training","ocean","26","{""ArrowUp,ArrowLeft"":26,""ArrowUp,ArrowRight"":10,""ArrowDown,ArrowLeft"":5,""ArrowDown,ArrowRight"":17}","true","ArrowUp,ArrowLeft","false","original","1","56","","",""
"html-keyboard-response","174","751710","0.0-4.0-2.0-1.28","spark_pilot_norest","8322","1","12","Male","","","","","","","null","<div style=""font-size:60px;"">+</div>","null","fixation","","","","","","","","","57","","",""
"revaluation","175","755713","0.0-4.0-2.0-0.29","spark_pilot_norest","8322","1","12","Male","","","false","","","","[641.5]","./assets/img/ocean/catch/4.jpg","[""spaceBar""]","value training","ocean","0","{""ArrowUp,ArrowLeft"":26,""ArrowUp,ArrowRight"":10,""ArrowDown,ArrowLeft"":5,""ArrowDown,ArrowRight"":17}","true","spaceBar","true","original","1","58","","",""
"html-keyboard-response","176","756214","0.0-4.0-2.0-1.29","spark_pilot_norest","8322","1","12","Male","","","","","","","null","<div style=""font-size:60px;"">+</div>","null","fixation","","","","","","","","","59","","",""
"revaluation","177","762218","0.0-4.0-2.0-0.30","spark_pilot_norest","8322","1","12","Male","","","false","","","","[461.59999999403954,237.09999999403954]","./assets/img/ocean/memory/36.jpg","[""ArrowUp"",""ArrowLeft""]","value training","ocean","26","{""ArrowUp,ArrowLeft"":26,""ArrowUp,ArrowRight"":10,""ArrowDown,ArrowLeft"":5,""ArrowDown,ArrowRight"":17}","true","ArrowUp,ArrowLeft","false","original","1","60","","",""
"html-keyboard-response","178","762720","0.0-4.0-2.0-1.30","spark_pilot_norest","8322","1","12","Male","","","","","","","null","<div style=""font-size:60px;"">+</div>","null","fixation","","","","","","","","","61","","",""
"revaluation","179","768725","0.0-4.0-2.0-0.31","spark_pilot_norest","8322","1","12","Male","","","false","","","","[449,296.5]","./assets/img/ocean/memory/29.jpg","[""ArrowUp"",""ArrowLeft""]","value training","ocean","26","{""ArrowUp,ArrowLeft"":26,""ArrowUp,ArrowRight"":10,""ArrowDown,ArrowLeft"":5,""ArrowDown,ArrowRight"":17}","true","ArrowUp,ArrowLeft","false","original","1","62","","",""
"html-keyboard-response","180","769227","0.0-4.0-2.0-1.31","spark_pilot_norest","8322","1","12","Male","","","","","","","null","<div style=""font-size:60px;"">+</div>","null","fixation","","","","","","","","","63","","",""
"revaluation","181","775231","0.0-4.0-2.0-0.32","spark_pilot_norest","8322","1","12","Male","","","false","","","","[1171.699999988079,1104.9000000059605]","./assets/img/ocean/memory/37.jpg","[""ArrowUp"",""ArrowLeft""]","value training","ocean","26","{""ArrowUp,ArrowLeft"":26,""ArrowUp,ArrowRight"":10,""ArrowDown,ArrowLeft"":5,""ArrowDown,ArrowRight"":17}","true","ArrowUp,ArrowLeft","false","original","1","64","","",""
"html-keyboard-response","182","775733","0.0-4.0-2.0-1.32","spark_pilot_norest","8322","1","12","Male","","","","","","","null","<div style=""font-size:60px;"">+</div>","null","fixation","","","","","","","","","65","","",""
"revaluation","183","781738","0.0-4.0-2.0-0.33","spark_pilot_norest","8322","1","12","Male","","","false","","","","[478.90000000596046,314.59999999403954]","./assets/img/ocean/memory/18.jpg","[""ArrowUp"",""ArrowLeft""]","value training","ocean","26","{""ArrowUp,ArrowLeft"":26,""ArrowUp,ArrowRight"":10,""ArrowDown,ArrowLeft"":5,""ArrowDown,ArrowRight"":17}","true","ArrowUp,ArrowLeft","false","original","1","66","","",""
"html-keyboard-response","184","782240","0.0-4.0-2.0-1.33","spark_pilot_norest","8322","1","12","Male","","","","","","","null","<div style=""font-size:60px;"">+</div>","null","fixation","","","","","","","","","67","","",""
"revaluation","185","788245","0.0-4.0-2.0-0.34","spark_pilot_norest","8322","1","12","Male","","","false","","","","[629.7999999821186,583.1999999880791]","./assets/img/ocean/memory/9.jpg","[""ArrowUp"",""ArrowLeft""]","value training","ocean","26","{""ArrowUp,ArrowLeft"":26,""ArrowUp,ArrowRight"":10,""ArrowDown,ArrowLeft"":5,""ArrowDown,ArrowRight"":17}","true","ArrowUp,ArrowLeft","false","original","1","68","","",""
"html-keyboard-response","186","788746","0.0-4.0-2.0-1.34","spark_pilot_norest","8322","1","12","Male","","","","","","","null","<div style=""font-size:60px;"">+</div>","null","fixation","","","","","","","","","69","","",""
"revaluation","187","794753","0.0-4.0-2.0-0.35","spark_pilot_norest","8322","1","12","Male","","","false","","","","[636.3000000119209,251.5]","./assets/img/ocean/memory/20.jpg","[""ArrowUp"",""ArrowLeft""]","value training","ocean","26","{""ArrowUp,ArrowLeft"":26,""ArrowUp,ArrowRight"":10,""ArrowDown,ArrowLeft"":5,""ArrowDown,ArrowRight"":17}","true","ArrowUp,ArrowLeft","false","original","1","70","","",""
"html-keyboard-response","188","795254","0.0-4.0-2.0-1.35","spark_pilot_norest","8322","1","12","Male","","","","","","","null","<div style=""font-size:60px;"">+</div>","null","fixation","","","","","","","","","71","","",""
"revaluation","189","801259","0.0-4.0-2.0-0.36","spark_pilot_norest","8322","1","12","Male","","","false","","","","[473.7999999821186,262.09999999403954]","./assets/img/ocean/memory/40.jpg","[""ArrowUp"",""ArrowLeft""]","value training","ocean","26","{""ArrowUp,ArrowLeft"":26,""ArrowUp,ArrowRight"":10,""ArrowDown,ArrowLeft"":5,""ArrowDown,ArrowRight"":17}","true","ArrowUp,ArrowLeft","false","original","1","72","","",""
"html-keyboard-response","190","801760","0.0-4.0-2.0-1.36","spark_pilot_norest","8322","1","12","Male","","","","","","","null","<div style=""font-size:60px;"">+</div>","null","fixation","","","","","","","","","73","","",""
"revaluation","191","807770","0.0-4.0-2.0-0.37","spark_pilot_norest","8322","1","12","Male","","","false","","","","[409.40000000596046,286.7000000178814]","./assets/img/ocean/memory/31.jpg","[""ArrowUp"",""ArrowLeft""]","value training","ocean","26","{""ArrowUp,ArrowLeft"":26,""ArrowUp,ArrowRight"":10,""ArrowDown,ArrowLeft"":5,""ArrowDown,ArrowRight"":17}","true","ArrowUp,ArrowLeft","false","original","1","74","","",""
"html-keyboard-response","192","808272","0.0-4.0-2.0-1.37","spark_pilot_norest","8322","1","12","Male","","","","","","","null","<div style=""font-size:60px;"">+</div>","null","fixation","","","","","","","","","75","","",""
"revaluation","193","814276","0.0-4.0-2.0-0.38","spark_pilot_norest","8322","1","12","Male","","","false","","","","[652.3999999761581,247.80000001192093]","./assets/img/ocean/memory/11.jpg","[""ArrowUp"",""ArrowLeft""]","value training","ocean","26","{""ArrowUp,ArrowLeft"":26,""ArrowUp,ArrowRight"":10,""ArrowDown,ArrowLeft"":5,""ArrowDown,ArrowRight"":17}","true","ArrowUp,ArrowLeft","false","original","1","76","","",""
"html-keyboard-response","194","814777","0.0-4.0-2.0-1.38","spark_pilot_norest","8322","1","12","Male","","","","","","","null","<div style=""font-size:60px;"">+</div>","null","fixation","","","","","","","","","77","","",""
"revaluation","195","820782","0.0-4.0-2.0-0.39","spark_pilot_norest","8322","1","12","Male","","","false","","","","[567.3000000119209,316.7000000178814]","./assets/img/ocean/memory/11.jpg","[""ArrowUp"",""ArrowLeft""]","value training","ocean","26","{""ArrowUp,ArrowLeft"":26,""ArrowUp,ArrowRight"":10,""ArrowDown,ArrowLeft"":5,""ArrowDown,ArrowRight"":17}","true","ArrowUp,ArrowLeft","false","original","1","78","","",""
"html-keyboard-response","196","821284","0.0-4.0-2.0-1.39","spark_pilot_norest","8322","1","12","Male","","","","","","","null","<div style=""font-size:60px;"">+</div>","null","fixation","","","","","","","","","79","","",""
"revaluation","197","827290","0.0-4.0-2.0-0.40","spark_pilot_norest","8322","1","12","Male","","","false","","","","[404.2999999821186,216.09999999403954]","./assets/img/ocean/memory/19.jpg","[""ArrowUp"",""ArrowLeft""]","value training","ocean","26","{""ArrowUp,ArrowLeft"":26,""ArrowUp,ArrowRight"":10,""ArrowDown,ArrowLeft"":5,""ArrowDown,ArrowRight"":17}","true","ArrowUp,ArrowLeft","false","original","1","80","","",""
"html-keyboard-response","198","827792","0.0-4.0-2.0-1.40","spark_pilot_norest","8322","1","12","Male","","","","","","","null","<div style=""font-size:60px;"">+</div>","null","fixation","","","","","","","","","81","","",""
"revaluation","199","833798","0.0-4.0-2.0-0.41","spark_pilot_norest","8322","1","12","Male","","","false","","","","[384.7000000178814,76.90000000596046]","./assets/img/ocean/memory/3.jpg","[""ArrowUp"",""ArrowLeft""]","value training","ocean","26","{""ArrowUp,ArrowLeft"":26,""ArrowUp,ArrowRight"":10,""ArrowDown,ArrowLeft"":5,""ArrowDown,ArrowRight"":17}","true","ArrowUp,ArrowLeft","false","original","1","82","","",""
"html-keyboard-response","200","834300","0.0-4.0-2.0-1.41","spark_pilot_norest","8322","1","12","Male","","","","","","","null","<div style=""font-size:60px;"">+</div>","null","fixation","","","","","","","","","83","","",""
"revaluation","201","840305","0.0-4.0-2.0-0.42","spark_pilot_norest","8322","1","12","Male","","","false","","","","[548.1999999880791,237.80000001192093]","./assets/img/ocean/memory/4.jpg","[""ArrowUp"",""ArrowLeft""]","value training","ocean","26","{""ArrowUp,ArrowLeft"":26,""ArrowUp,ArrowRight"":10,""ArrowDown,ArrowLeft"":5,""ArrowDown,ArrowRight"":17}","true","ArrowUp,ArrowLeft","false","original","1","84","","",""
"html-keyboard-response","202","840813","0.0-4.0-2.0-1.42","spark_pilot_norest","8322","1","12","Male","","","","","","","null","<div style=""font-size:60px;"">+</div>","null","fixation","","","","","","","","","85","","",""
"revaluation","203","846817","0.0-4.0-2.0-0.43","spark_pilot_norest","8322","1","12","Male","","","false","","","","[452.5,389.59999999403954]","./assets/img/ocean/memory/2.jpg","[""ArrowUp"",""ArrowLeft""]","value training","ocean","26","{""ArrowUp,ArrowLeft"":26,""ArrowUp,ArrowRight"":10,""ArrowDown,ArrowLeft"":5,""ArrowDown,ArrowRight"":17}","true","ArrowUp,ArrowLeft","false","original","1","86","","",""
"html-keyboard-response","204","847319","0.0-4.0-2.0-1.43","spark_pilot_norest","8322","1","12","Male","","","","","","","null","<div style=""font-size:60px;"">+</div>","null","fixation","","","","","","","","","87","","",""
"revaluation","205","851322","0.0-4.0-2.0-0.44","spark_pilot_norest","8322","1","12","Male","","","false","","","","[548.8000000119209]","./assets/img/ocean/catch/5.jpg","[""ArrowUp""]","value training","ocean","-10","{""ArrowUp,ArrowLeft"":26,""ArrowUp,ArrowRight"":10,""ArrowDown,ArrowLeft"":5,""ArrowDown,ArrowRight"":17}","false","ArrowUp","true","original","1","88","","",""
"html-keyboard-response","206","851823","0.0-4.0-2.0-1.44","spark_pilot_norest","8322","1","12","Male","","","","","","","null","<div style=""font-size:60px;"">+</div>","null","fixation","","","","","","","","","89","","",""
"revaluation","207","857839","0.0-4.0-2.0-0.45","spark_pilot_norest","8322","1","12","Male","","","false","","","","[508.40000000596046,232]","./assets/img/ocean/memory/19.jpg","[""ArrowUp"",""ArrowLeft""]","value training","ocean","26","{""ArrowUp,ArrowLeft"":26,""ArrowUp,ArrowRight"":10,""ArrowDown,ArrowLeft"":5,""ArrowDown,ArrowRight"":17}","true","ArrowUp,ArrowLeft","false","original","1","90","","",""
"html-keyboard-response","208","858341","0.0-4.0-2.0-1.45","spark_pilot_norest","8322","1","12","Male","","","","","","","null","<div style=""font-size:60px;"">+</div>","null","fixation","","","","","","","","","91","","",""
"revaluation","209","864345","0.0-4.0-2.0-0.46","spark_pilot_norest","8322","1","12","Male","","","false","","","","[632.6000000238419,245.59999999403954]","./assets/img/ocean/memory/7.jpg","[""ArrowUp"",""ArrowLeft""]","value training","ocean","26","{""ArrowUp,ArrowLeft"":26,""ArrowUp,ArrowRight"":10,""ArrowDown,ArrowLeft"":5,""ArrowDown,ArrowRight"":17}","true","ArrowUp,ArrowLeft","false","original","1","92","","",""
"html-keyboard-response","210","864845","0.0-4.0-2.0-1.46","spark_pilot_norest","8322","1","12","Male","","","","","","","null","<div style=""font-size:60px;"">+</div>","null","fixation","","","","","","","","","93","","",""
"revaluation","211","870850","0.0-4.0-2.0-0.47","spark_pilot_norest","8322","1","12","Male","","","false","","","","[458.60000002384186,235.7000000178814]","./assets/img/ocean/memory/2.jpg","[""ArrowUp"",""ArrowLeft""]","value training","ocean","26","{""ArrowUp,ArrowLeft"":26,""ArrowUp,ArrowRight"":10,""ArrowDown,ArrowLeft"":5,""ArrowDown,ArrowRight"":17}","true","ArrowUp,ArrowLeft","false","original","1","94","","",""
"html-keyboard-response","212","871351","0.0-4.0-2.0-1.47","spark_pilot_norest","8322","1","12","Male","","","","","","","null","<div style=""font-size:60px;"">+</div>","null","fixation","","","","","","","","","95","","",""
"revaluation","213","877361","0.0-4.0-2.0-0.48","spark_pilot_norest","8322","1","12","Male","","","false","","","","[639.6999999880791,342.90000000596046]","./assets/img/ocean/memory/9.jpg","[""ArrowUp"",""ArrowLeft""]","value training","ocean","26","{""ArrowUp,ArrowLeft"":26,""ArrowUp,ArrowRight"":10,""ArrowDown,ArrowLeft"":5,""ArrowDown,ArrowRight"":17}","true","ArrowUp,ArrowLeft","false","original","1","96","","",""
"html-keyboard-response","214","877863","0.0-4.0-2.0-1.48","spark_pilot_norest","8322","1","12","Male","","","","","","","null","<div style=""font-size:60px;"">+</div>","null","fixation","","","","","","","","","97","","",""
"revaluation","215","881868","0.0-4.0-2.0-0.49","spark_pilot_norest","8322","1","12","Male","","","false","","","","[567.9000000059605]","./assets/img/ocean/catch/2.jpg","[""spaceBar""]","value training","ocean","0","{""ArrowUp,ArrowLeft"":26,""ArrowUp,ArrowRight"":10,""ArrowDown,ArrowLeft"":5,""ArrowDown,ArrowRight"":17}","true","spaceBar","true","original","1","98","","",""
"html-keyboard-response","216","882370","0.0-4.0-2.0-1.49","spark_pilot_norest","8322","1","12","Male","","","","","","","null","<div style=""font-size:60px;"">+</div>","null","fixation","","","","","","","","","99","","",""
"learning-instructions","217","898131","0.0-4.0-3.0-0.0","spark_pilot_norest","8322","1","12","Male","","","","","","","2876.5","<p> Now, you will travel with a friend who will choose whether you go up or down first. </p>
            <p> On these turns, you will just see the animal that they found. You will still get to choose which chest to search for treasure.</p>","","instructions","","","","","","","","","","","",""
"revaluation","218","902147","0.0-4.0-4.0-0.0","spark_pilot_norest","8322","1","12","Male","","","false","","","","[736.5999999940395]","./assets/img/ocean/animals/octopus.jpg","[""ArrowLeft""]","revaluation","ocean","26","{""ArrowUp,ArrowLeft"":26,""ArrowUp,ArrowRight"":10,""ArrowDown,ArrowLeft"":5,""ArrowDown,ArrowRight"":17}","true","ArrowUp,ArrowLeft","","original","1","0","","",""
"html-keyboard-response","219","902653","0.0-4.0-4.0-1.0","spark_pilot_norest","8322","1","12","Male","","","","","","","null","<div style=""font-size:60px;"">+</div>","null","fixation","","","","","","","","","1","","",""
"revaluation","220","906673","0.0-4.0-4.0-0.1","spark_pilot_norest","8322","1","12","Male","","","false","","","","[205.59999999403954]","./assets/img/ocean/animals/seahorse.jpg","[""ArrowLeft""]","revaluation","ocean","5","{""ArrowUp,ArrowLeft"":26,""ArrowUp,ArrowRight"":10,""ArrowDown,ArrowLeft"":5,""ArrowDown,ArrowRight"":17}","false","ArrowDown,ArrowLeft","","original","1","2","","",""
"html-keyboard-response","221","907178","0.0-4.0-4.0-1.1","spark_pilot_norest","8322","1","12","Male","","","","","","","null","<div style=""font-size:60px;"">+</div>","null","fixation","","","","","","","","","3","","",""
"revaluation","222","911199","0.0-4.0-4.0-0.2","spark_pilot_norest","8322","1","12","Male","","","false","","","","[601.5]","./assets/img/ocean/animals/seahorse.jpg","[""ArrowRight""]","revaluation","ocean","17","{""ArrowUp,ArrowLeft"":26,""ArrowUp,ArrowRight"":10,""ArrowDown,ArrowLeft"":5,""ArrowDown,ArrowRight"":17}","true","ArrowDown,ArrowRight","","original","1","4","","",""
"html-keyboard-response","223","911704","0.0-4.0-4.0-1.2","spark_pilot_norest","8322","1","12","Male","","","","","","","null","<div style=""font-size:60px;"">+</div>","null","fixation","","","","","","","","","5","","",""
"revaluation","224","915719","0.0-4.0-4.0-0.3","spark_pilot_norest","8322","1","12","Male","","","false","","","","[863.5]","./assets/img/ocean/animals/seahorse.jpg","[""ArrowRight""]","revaluation","ocean","17","{""ArrowUp,ArrowLeft"":26,""ArrowUp,ArrowRight"":10,""ArrowDown,ArrowLeft"":5,""ArrowDown,ArrowRight"":17}","true","ArrowDown,ArrowRight","","original","1","6","","",""
"html-keyboard-response","225","916221","0.0-4.0-4.0-1.3","spark_pilot_norest","8322","1","12","Male","","","","","","","null","<div style=""font-size:60px;"">+</div>","null","fixation","","","","","","","","","7","","",""
"revaluation","226","920227","0.0-4.0-4.0-0.4","spark_pilot_norest","8322","1","12","Male","","","false","","","","[562.5]","./assets/img/ocean/animals/octopus.jpg","[""ArrowLeft""]","revaluation","ocean","26","{""ArrowUp,ArrowLeft"":26,""ArrowUp,ArrowRight"":10,""ArrowDown,ArrowLeft"":5,""ArrowDown,ArrowRight"":17}","true","ArrowUp,ArrowLeft","","original","1","8","","",""
"html-keyboard-response","227","920731","0.0-4.0-4.0-1.4","spark_pilot_norest","8322","1","12","Male","","","","","","","null","<div style=""font-size:60px;"">+</div>","null","fixation","","","","","","","","","9","","",""
"revaluation","228","924742","0.0-4.0-4.0-0.5","spark_pilot_norest","8322","1","12","Male","","","false","","","","[407.69999998807907]","./assets/img/ocean/animals/octopus.jpg","[""ArrowLeft""]","revaluation","ocean","26","{""ArrowUp,ArrowLeft"":26,""ArrowUp,ArrowRight"":10,""ArrowDown,ArrowLeft"":5,""ArrowDown,ArrowRight"":17}","true","ArrowUp,ArrowLeft","","original","1","10","","",""
"html-keyboard-response","229","925245","0.0-4.0-4.0-1.5","spark_pilot_norest","8322","1","12","Male","","","","","","","null","<div style=""font-size:60px;"">+</div>","null","fixation","","","","","","","","","11","","",""
"revaluation","230","929249","0.0-4.0-4.0-0.6","spark_pilot_norest","8322","1","12","Male","","","false","","","","[404.40000000596046]","./assets/img/ocean/animals/seahorse.jpg","[""ArrowRight""]","revaluation","ocean","17","{""ArrowUp,ArrowLeft"":26,""ArrowUp,ArrowRight"":10,""ArrowDown,ArrowLeft"":5,""ArrowDown,ArrowRight"":17}","true","ArrowDown,ArrowRight","","original","1","12","","",""
"html-keyboard-response","231","929751","0.0-4.0-4.0-1.6","spark_pilot_norest","8322","1","12","Male","","","","","","","null","<div style=""font-size:60px;"">+</div>","null","fixation","","","","","","","","","13","","",""
"revaluation","232","933754","0.0-4.0-4.0-0.7","spark_pilot_norest","8322","1","12","Male","","","false","","","","[686.8000000119209]","./assets/img/ocean/animals/seahorse.jpg","[""ArrowRight""]","revaluation","ocean","17","{""ArrowUp,ArrowLeft"":26,""ArrowUp,ArrowRight"":10,""ArrowDown,ArrowLeft"":5,""ArrowDown,ArrowRight"":17}","true","ArrowDown,ArrowRight","","original","1","14","","",""
"html-keyboard-response","233","934256","0.0-4.0-4.0-1.7","spark_pilot_norest","8322","1","12","Male","","","","","","","null","<div style=""font-size:60px;"">+</div>","null","fixation","","","","","","","","","15","","",""
"revaluation","234","938261","0.0-4.0-4.0-0.8","spark_pilot_norest","8322","1","12","Male","","","false","","","","[648.3000000119209]","./assets/img/ocean/animals/seahorse.jpg","[""ArrowRight""]","revaluation","ocean","17","{""ArrowUp,ArrowLeft"":26,""ArrowUp,ArrowRight"":10,""ArrowDown,ArrowLeft"":5,""ArrowDown,ArrowRight"":17}","true","ArrowDown,ArrowRight","","original","1","16","","",""
"html-keyboard-response","235","938762","0.0-4.0-4.0-1.8","spark_pilot_norest","8322","1","12","Male","","","","","","","null","<div style=""font-size:60px;"">+</div>","null","fixation","","","","","","","","","17","","",""
"revaluation","236","942765","0.0-4.0-4.0-0.9","spark_pilot_norest","8322","1","12","Male","","","false","","","","[653]","./assets/img/ocean/animals/seahorse.jpg","[""ArrowRight""]","revaluation","ocean","17","{""ArrowUp,ArrowLeft"":26,""ArrowUp,ArrowRight"":10,""ArrowDown,ArrowLeft"":5,""ArrowDown,ArrowRight"":17}","true","ArrowDown,ArrowRight","","original","1","18","","",""
"html-keyboard-response","237","943266","0.0-4.0-4.0-1.9","spark_pilot_norest","8322","1","12","Male","","","","","","","null","<div style=""font-size:60px;"">+</div>","null","fixation","","","","","","","","","19","","",""
"revaluation","238","947269","0.0-4.0-4.0-0.10","spark_pilot_norest","8322","1","12","Male","","","false","","","","[928.4000000059605]","./assets/img/ocean/animals/octopus.jpg","[""ArrowLeft""]","revaluation","ocean","26","{""ArrowUp,ArrowLeft"":26,""ArrowUp,ArrowRight"":10,""ArrowDown,ArrowLeft"":5,""ArrowDown,ArrowRight"":17}","true","ArrowUp,ArrowLeft","","original","1","20","","",""
"html-keyboard-response","239","947771","0.0-4.0-4.0-1.10","spark_pilot_norest","8322","1","12","Male","","","","","","","null","<div style=""font-size:60px;"">+</div>","null","fixation","","","","","","","","","21","","",""
"revaluation","240","951775","0.0-4.0-4.0-0.11","spark_pilot_norest","8322","1","12","Male","","","false","","","","[474.59999999403954]","./assets/img/ocean/animals/seahorse.jpg","[""ArrowRight""]","revaluation","ocean","17","{""ArrowUp,ArrowLeft"":26,""ArrowUp,ArrowRight"":10,""ArrowDown,ArrowLeft"":5,""ArrowDown,ArrowRight"":17}","true","ArrowDown,ArrowRight","","original","1","22","","",""
"html-keyboard-response","241","952277","0.0-4.0-4.0-1.11","spark_pilot_norest","8322","1","12","Male","","","","","","","null","<div style=""font-size:60px;"">+</div>","null","fixation","","","","","","","","","23","","",""
"revaluation","242","956282","0.0-4.0-4.0-0.12","spark_pilot_norest","8322","1","12","Male","","","false","","","","[514.4000000059605]","./assets/img/ocean/animals/octopus.jpg","[""ArrowLeft""]","revaluation","ocean","26","{""ArrowUp,ArrowLeft"":26,""ArrowUp,ArrowRight"":10,""ArrowDown,ArrowLeft"":5,""ArrowDown,ArrowRight"":17}","true","ArrowUp,ArrowLeft","","original","1","24","","",""
"html-keyboard-response","243","956783","0.0-4.0-4.0-1.12","spark_pilot_norest","8322","1","12","Male","","","","","","","null","<div style=""font-size:60px;"">+</div>","null","fixation","","","","","","","","","25","","",""
"revaluation","244","960786","0.0-4.0-4.0-0.13","spark_pilot_norest","8322","1","12","Male","","","false","","","","[934.8000000119209]","./assets/img/ocean/animals/octopus.jpg","[""ArrowLeft""]","revaluation","ocean","26","{""ArrowUp,ArrowLeft"":26,""ArrowUp,ArrowRight"":10,""ArrowDown,ArrowLeft"":5,""ArrowDown,ArrowRight"":17}","true","ArrowUp,ArrowLeft","","original","1","26","","",""
"html-keyboard-response","245","961287","0.0-4.0-4.0-1.13","spark_pilot_norest","8322","1","12","Male","","","","","","","null","<div style=""font-size:60px;"">+</div>","null","fixation","","","","","","","","","27","","",""
"revaluation","246","965291","0.0-4.0-4.0-0.14","spark_pilot_norest","8322","1","12","Male","","","false","","","","[1382.5999999940395]","./assets/img/ocean/animals/octopus.jpg","[""ArrowLeft""]","revaluation","ocean","26","{""ArrowUp,ArrowLeft"":26,""ArrowUp,ArrowRight"":10,""ArrowDown,ArrowLeft"":5,""ArrowDown,ArrowRight"":17}","true","ArrowUp,ArrowLeft","","original","1","28","","",""
"html-keyboard-response","247","965792","0.0-4.0-4.0-1.14","spark_pilot_norest","8322","1","12","Male","","","","","","","null","<div style=""font-size:60px;"">+</div>","null","fixation","","","","","","","","","29","","",""
"revaluation","248","969796","0.0-4.0-4.0-0.15","spark_pilot_norest","8322","1","12","Male","","","false","","","","[528.7000000178814]","./assets/img/ocean/animals/seahorse.jpg","[""ArrowRight""]","revaluation","ocean","17","{""ArrowUp,ArrowLeft"":26,""ArrowUp,ArrowRight"":10,""ArrowDown,ArrowLeft"":5,""ArrowDown,ArrowRight"":17}","true","ArrowDown,ArrowRight","","original","1","30","","",""
"html-keyboard-response","249","970297","0.0-4.0-4.0-1.15","spark_pilot_norest","8322","1","12","Male","","","","","","","null","<div style=""font-size:60px;"">+</div>","null","fixation","","","","","","","","","31","","",""
"revaluation","250","974300","0.0-4.0-4.0-0.16","spark_pilot_norest","8322","1","12","Male","","","false","","","","[514.5]","./assets/img/ocean/animals/octopus.jpg","[""ArrowLeft""]","revaluation","ocean","26","{""ArrowUp,ArrowLeft"":26,""ArrowUp,ArrowRight"":10,""ArrowDown,ArrowLeft"":5,""ArrowDown,ArrowRight"":17}","true","ArrowUp,ArrowLeft","","original","1","32","","",""
"html-keyboard-response","251","974801","0.0-4.0-4.0-1.16","spark_pilot_norest","8322","1","12","Male","","","","","","","null","<div style=""font-size:60px;"">+</div>","null","fixation","","","","","","","","","33","","",""
"revaluation","252","978814","0.0-4.0-4.0-0.17","spark_pilot_norest","8322","1","12","Male","","","false","","","","[643.1000000238419]","./assets/img/ocean/animals/octopus.jpg","[""ArrowLeft""]","revaluation","ocean","26","{""ArrowUp,ArrowLeft"":26,""ArrowUp,ArrowRight"":10,""ArrowDown,ArrowLeft"":5,""ArrowDown,ArrowRight"":17}","true","ArrowUp,ArrowLeft","","original","1","34","","",""
"html-keyboard-response","253","979316","0.0-4.0-4.0-1.17","spark_pilot_norest","8322","1","12","Male","","","","","","","null","<div style=""font-size:60px;"">+</div>","null","fixation","","","","","","","","","35","","",""
"learning-instructions","254","987426","0.0-4.0-5.0-0.0","spark_pilot_norest","8322","1","12","Male","","","","","","","null","<p> You have almost finished this part of the game! </p>
            <p> We are going to ask you to make a few more choices. </p>","","instructions","","","","","","","","","","","",""
"learning-instructions","255","1003417","0.0-4.0-5.0-0.1","spark_pilot_norest","8322","1","12","Male","","","","","","","null","<p> First, you need to decide whether to go up or down. When you see each picture, use the arrow keys to make your choice. </p>
            <p><b>You will not see which animal you found, but try to get to the one that will give you the most treasure.</b></p>","","instructions","","","","","","","","","","","",""
"html-keyboard-response","256","1004426","0.0-4.0-6.0-0.0","spark_pilot_norest","8322","1","12","Male","","","","","","","null","<div style=""font-size:100px;color:red;"">Starting in...</div>","null","","","","","","","","","","","","",""
"html-keyboard-response","257","1005431","0.0-4.0-6.0-1.0","spark_pilot_norest","8322","1","12","Male","","","","","","","null","<div style=""font-size:200px;color:red;"">3</div>","null","","","","","","","","","","","","",""
"html-keyboard-response","258","1006447","0.0-4.0-6.0-2.0","spark_pilot_norest","8322","1","12","Male","","","","","","","null","<div style=""font-size:200px;color:red;"">2</div>","null","","","","","","","","","","","","",""
"html-keyboard-response","259","1007448","0.0-4.0-6.0-3.0","spark_pilot_norest","8322","1","12","Male","","","","","","","null","<div style=""font-size:200px;color:red;"">1</div>","null","","","","","","","","","","","","",""
"revaluation","260","1008107","0.0-4.0-7.0-0.0","spark_pilot_norest","8322","1","12","Male","","","false","","","","[657.5999999940395]","./assets/img/ocean/test/0.jpg","[""ArrowUp""]","first stage test","ocean","0","{""ArrowUp,ArrowLeft"":26,""ArrowUp,ArrowRight"":10,""ArrowDown,ArrowLeft"":5,""ArrowDown,ArrowRight"":17}","true","ArrowUp","false","original","1","","","",""
"html-keyboard-response","261","1008617","0.0-4.0-7.0-1.0","spark_pilot_norest","8322","1","12","Male","","","","","","","null","<div style=""font-size:60px;"">+</div>","null","fixation","","","","","","","","","","","",""
"revaluation","262","1009280","0.0-4.0-7.0-0.1","spark_pilot_norest","8322","1","12","Male","","","false","","","","[662.2000000178814]","./assets/img/ocean/test/3.jpg","[""ArrowUp""]","first stage test","ocean","0","{""ArrowUp,ArrowLeft"":26,""ArrowUp,ArrowRight"":10,""ArrowDown,ArrowLeft"":5,""ArrowDown,ArrowRight"":17}","true","ArrowUp","false","original","1","","","",""
"html-keyboard-response","263","1009787","0.0-4.0-7.0-1.1","spark_pilot_norest","8322","1","12","Male","","","","","","","null","<div style=""font-size:60px;"">+</div>","null","fixation","","","","","","","","","","","",""
"revaluation","264","1010188","0.0-4.0-7.0-0.2","spark_pilot_norest","8322","1","12","Male","","","false","","","","[400.19999998807907]","./assets/img/ocean/test/2.jpg","[""ArrowUp""]","first stage test","ocean","0","{""ArrowUp,ArrowLeft"":26,""ArrowUp,ArrowRight"":10,""ArrowDown,ArrowLeft"":5,""ArrowDown,ArrowRight"":17}","true","ArrowUp","false","original","1","","","",""
"html-keyboard-response","265","1010700","0.0-4.0-7.0-1.2","spark_pilot_norest","8322","1","12","Male","","","","","","","null","<div style=""font-size:60px;"">+</div>","null","fixation","","","","","","","","","","","",""
"revaluation","266","1011097","0.0-4.0-7.0-0.3","spark_pilot_norest","8322","1","12","Male","","","false","","","","[396]","./assets/img/ocean/test/1.jpg","[""ArrowUp""]","first stage test","ocean","0","{""ArrowUp,ArrowLeft"":26,""ArrowUp,ArrowRight"":10,""ArrowDown,ArrowLeft"":5,""ArrowDown,ArrowRight"":17}","true","ArrowUp","false","original","1","","","",""
"html-keyboard-response","267","1011612","0.0-4.0-7.0-1.3","spark_pilot_norest","8322","1","12","Male","","","","","","","null","<div style=""font-size:60px;"">+</div>","null","fixation","","","","","","","","","","","",""
"learning-instructions","268","1024957","0.0-4.0-8.0-0.0","spark_pilot_norest","8322","1","12","Male","","","","","","","null","<p> Now you will see the animals again and can search their chests for treasure. </p>
            <p> This time, you will not see how much treasure you earned, but you will earn more bonus money for making better choices. </p>","","instructions","","","","","","","","","","","",""
"html-keyboard-response","269","1025967","0.0-4.0-9.0-0.0","spark_pilot_norest","8322","1","12","Male","","","","","","","null","<div style=""font-size:100px;color:red;"">Starting in...</div>","null","","","","","","","","","","","","",""
"html-keyboard-response","270","1026979","0.0-4.0-9.0-1.0","spark_pilot_norest","8322","1","12","Male","","","","","","","null","<div style=""font-size:200px;color:red;"">3</div>","null","","","","","","","","","","","","",""
"html-keyboard-response","271","1027993","0.0-4.0-9.0-2.0","spark_pilot_norest","8322","1","12","Male","","","","","","","null","<div style=""font-size:200px;color:red;"">2</div>","null","","","","","","","","","","","","",""
"html-keyboard-response","272","1028994","0.0-4.0-9.0-3.0","spark_pilot_norest","8322","1","12","Male","","","","","","","null","<div style=""font-size:200px;color:red;"">1</div>","null","","","","","","","","","","","","",""
"revaluation","273","1029702","0.0-4.0-10.0-0.0","spark_pilot_norest","8322","1","12","Male","","","false","","","","[706.7999999821186]","./assets/img/ocean/animals/octopus.jpg","[""ArrowLeft""]","second stage test","ocean","0","{""ArrowUp,ArrowLeft"":26,""ArrowUp,ArrowRight"":10,""ArrowDown,ArrowLeft"":5,""ArrowDown,ArrowRight"":17}","true","ArrowUp,ArrowLeft","","original","1","","","",""
"html-keyboard-response","274","1030206","0.0-4.0-10.0-1.0","spark_pilot_norest","8322","1","12","Male","","","","","","","null","<div style=""font-size:60px;"">+</div>","null","fixation","","","","","","","","","","","",""
"revaluation","275","1030852","0.0-4.0-10.0-0.1","spark_pilot_norest","8322","1","12","Male","","","false","","","","[644.4000000059605]","./assets/img/ocean/animals/octopus.jpg","[""ArrowLeft""]","second stage test","ocean","0","{""ArrowUp,ArrowLeft"":26,""ArrowUp,ArrowRight"":10,""ArrowDown,ArrowLeft"":5,""ArrowDown,ArrowRight"":17}","true","ArrowUp,ArrowLeft","","original","1","","","",""
"html-keyboard-response","276","1031353","0.0-4.0-10.0-1.1","spark_pilot_norest","8322","1","12","Male","","","","","","","null","<div style=""font-size:60px;"">+</div>","null","fixation","","","","","","","","","","","",""
"revaluation","277","1031876","0.0-4.0-10.0-0.2","spark_pilot_norest","8322","1","12","Male","","","false","","","","[521.3000000119209]","./assets/img/ocean/animals/octopus.jpg","[""ArrowLeft""]","second stage test","ocean","0","{""ArrowUp,ArrowLeft"":26,""ArrowUp,ArrowRight"":10,""ArrowDown,ArrowLeft"":5,""ArrowDown,ArrowRight"":17}","true","ArrowUp,ArrowLeft","","original","1","","","",""
"html-keyboard-response","278","1032389","0.0-4.0-10.0-1.2","spark_pilot_norest","8322","1","12","Male","","","","","","","null","<div style=""font-size:60px;"">+</div>","null","fixation","","","","","","","","","","","",""
"revaluation","279","1032805","0.0-4.0-10.0-0.3","spark_pilot_norest","8322","1","12","Male","","","false","","","","[414.5]","./assets/img/ocean/animals/octopus.jpg","[""ArrowLeft""]","second stage test","ocean","0","{""ArrowUp,ArrowLeft"":26,""ArrowUp,ArrowRight"":10,""ArrowDown,ArrowLeft"":5,""ArrowDown,ArrowRight"":17}","true","ArrowUp,ArrowLeft","","original","1","","","",""
"html-keyboard-response","280","1033310","0.0-4.0-10.0-1.3","spark_pilot_norest","8322","1","12","Male","","","","","","","null","<div style=""font-size:60px;"">+</div>","null","fixation","","","","","","","","","","","",""
"revaluation","281","1033970","0.0-4.0-10.0-0.4","spark_pilot_norest","8322","1","12","Male","","","false","","","","[658.5]","./assets/img/ocean/animals/seahorse.jpg","[""ArrowRight""]","second stage test","ocean","0","{""ArrowUp,ArrowLeft"":26,""ArrowUp,ArrowRight"":10,""ArrowDown,ArrowLeft"":5,""ArrowDown,ArrowRight"":17}","true","ArrowDown,ArrowRight","","original","1","","","",""
"html-keyboard-response","282","1034482","0.0-4.0-10.0-1.4","spark_pilot_norest","8322","1","12","Male","","","","","","","null","<div style=""font-size:60px;"">+</div>","null","fixation","","","","","","","","","","","",""
"revaluation","283","1034895","0.0-4.0-10.0-0.5","spark_pilot_norest","8322","1","12","Male","","","false","","","","[411.7000000178814]","./assets/img/ocean/animals/seahorse.jpg","[""ArrowRight""]","second stage test","ocean","0","{""ArrowUp,ArrowLeft"":26,""ArrowUp,ArrowRight"":10,""ArrowDown,ArrowLeft"":5,""ArrowDown,ArrowRight"":17}","true","ArrowDown,ArrowRight","","original","1","","","",""
"html-keyboard-response","284","1035407","0.0-4.0-10.0-1.5","spark_pilot_norest","8322","1","12","Male","","","","","","","null","<div style=""font-size:60px;"">+</div>","null","fixation","","","","","","","","","","","",""
"revaluation","285","1035751","0.0-4.0-10.0-0.6","spark_pilot_norest","8322","1","12","Male","","","false","","","","[342.69999998807907]","./assets/img/ocean/animals/seahorse.jpg","[""ArrowRight""]","second stage test","ocean","0","{""ArrowUp,ArrowLeft"":26,""ArrowUp,ArrowRight"":10,""ArrowDown,ArrowLeft"":5,""ArrowDown,ArrowRight"":17}","true","ArrowDown,ArrowRight","","original","1","","","",""
"html-keyboard-response","286","1036256","0.0-4.0-10.0-1.6","spark_pilot_norest","8322","1","12","Male","","","","","","","null","<div style=""font-size:60px;"">+</div>","null","fixation","","","","","","","","","","","",""
"revaluation","287","1036673","0.0-4.0-10.0-0.7","spark_pilot_norest","8322","1","12","Male","","","false","","","","[416.2000000178814]","./assets/img/ocean/animals/seahorse.jpg","[""ArrowRight""]","second stage test","ocean","0","{""ArrowUp,ArrowLeft"":26,""ArrowUp,ArrowRight"":10,""ArrowDown,ArrowLeft"":5,""ArrowDown,ArrowRight"":17}","true","ArrowDown,ArrowRight","","original","1","","","",""
"html-keyboard-response","288","1037184","0.0-4.0-10.0-1.7","spark_pilot_norest","8322","1","12","Male","","","","","","","null","<div style=""font-size:60px;"">+</div>","null","fixation","","","","","","","","","","","",""
"learning-instructions","289","1042498","0.0-4.0-0.1-0.2","spark_pilot_norest","8322","1","12","Male","","","","","","","2553.699999988079","<p> This time you are searching for treasure in the <b>canyon</b>.</p>","","instructions","","","","","","","","","","","",""
"learning-instructions","290","1061589","0.0-4.0-0.1-0.3","spark_pilot_norest","8322","1","12","Male","","","","","","","1834.699999988079","<p><b>New</b> animals with <b>new</b> treasure chests live here. You need to explore to discover where the animal with the best treasure chest is.</p>
                    <p> Like before, once you figure out which animal has the chest with the most treasure, you should try to get to that animal and select that chest! </p>","","instructions","","","","","","","","","","","",""
"learning-instructions","291","1076865","0.0-4.0-1.1-0.1","spark_pilot_norest","8322","1","12","Male","","","","","","","550.5999999940395","<p> Remember, when you see a picture of the place, use the up and down keys to <b>find an animal</b>.</p>
            <p> When you encounter an animal, you should use the left and right keys to <b>select a treasure chest</b>.</p>
            <p> Don't forget to look out for the robber! </p>","","instructions","","","","","","","","","","","",""
"revaluation","292","1080875","0.0-4.0-2.1-0.50","spark_pilot_norest","8322","1","12","Male","","","false","","","","[1110.9000000059605]","./assets/img/canyon/catch/6.jpg","[""spaceBar""]","value training","canyon","0","{""ArrowUp,ArrowLeft"":23,""ArrowUp,ArrowRight"":10,""ArrowDown,ArrowLeft"":8,""ArrowDown,ArrowRight"":30}","true","spaceBar","true","revaluation","2","0","","",""
"html-keyboard-response","293","1081377","0.0-4.0-2.1-1.50","spark_pilot_norest","8322","1","12","Male","","","","","","","null","<div style=""font-size:60px;"">+</div>","null","fixation","","","","","","","","","1","","",""
"revaluation","294","1087401","0.0-4.0-2.1-0.51","spark_pilot_norest","8322","1","12","Male","","","false","","","","[437.90000000596046,396.09999999403954]","./assets/img/canyon/memory/10.jpg","[""ArrowUp"",""ArrowLeft""]","value training","canyon","23","{""ArrowUp,ArrowLeft"":23,""ArrowUp,ArrowRight"":10,""ArrowDown,ArrowLeft"":8,""ArrowDown,ArrowRight"":30}","false","ArrowUp,ArrowLeft","false","revaluation","2","2","","",""
"html-keyboard-response","295","1087916","0.0-4.0-2.1-1.51","spark_pilot_norest","8322","1","12","Male","","","","","","","null","<div style=""font-size:60px;"">+</div>","null","fixation","","","","","","","","","3","","",""
"revaluation","296","1093941","0.0-4.0-2.1-0.52","spark_pilot_norest","8322","1","12","Male","","","false","","","","[709.9000000059605,238.59999999403954]","./assets/img/canyon/memory/25.jpg","[""ArrowUp"",""ArrowRight""]","value training","canyon","10","{""ArrowUp,ArrowLeft"":23,""ArrowUp,ArrowRight"":10,""ArrowDown,ArrowLeft"":8,""ArrowDown,ArrowRight"":30}","false","ArrowUp,ArrowRight","false","revaluation","2","4","","",""
"html-keyboard-response","297","1094456","0.0-4.0-2.1-1.52","spark_pilot_norest","8322","1","12","Male","","","","","","","null","<div style=""font-size:60px;"">+</div>","null","fixation","","","","","","","","","5","","",""
"revaluation","298","1100493","0.0-4.0-2.1-0.53","spark_pilot_norest","8322","1","12","Male","","","false","","","","[345.09999999403954,369.09999999403954]","./assets/img/canyon/memory/20.jpg","[""ArrowDown"",""ArrowLeft""]","value training","canyon","8","{""ArrowUp,ArrowLeft"":23,""ArrowUp,ArrowRight"":10,""ArrowDown,ArrowLeft"":8,""ArrowDown,ArrowRight"":30}","false","ArrowDown,ArrowLeft","false","revaluation","2","6","","",""
"html-keyboard-response","299","1101000","0.0-4.0-2.1-1.53","spark_pilot_norest","8322","1","12","Male","","","","","","","null","<div style=""font-size:60px;"">+</div>","null","fixation","","","","","","","","","7","","",""
"revaluation","300","1107010","0.0-4.0-2.1-0.54","spark_pilot_norest","8322","1","12","Male","","","false","","","","[235.2000000178814,314.7999999821186]","./assets/img/canyon/memory/3.jpg","[""ArrowDown"",""ArrowRight""]","value training","canyon","30","{""ArrowUp,ArrowLeft"":23,""ArrowUp,ArrowRight"":10,""ArrowDown,ArrowLeft"":8,""ArrowDown,ArrowRight"":30}","true","ArrowDown,ArrowRight","false","revaluation","2","8","","",""
"html-keyboard-response","301","1107512","0.0-4.0-2.1-1.54","spark_pilot_norest","8322","1","12","Male","","","","","","","null","<div style=""font-size:60px;"">+</div>","null","fixation","","","","","","","","","9","","",""
"revaluation","302","1113516","0.0-4.0-2.1-0.55","spark_pilot_norest","8322","1","12","Male","","","false","","","","[831.7000000178814,718.9000000059605]","./assets/img/canyon/memory/36.jpg","[""ArrowDown"",""ArrowRight""]","value training","canyon","30","{""ArrowUp,ArrowLeft"":23,""ArrowUp,ArrowRight"":10,""ArrowDown,ArrowLeft"":8,""ArrowDown,ArrowRight"":30}","true","ArrowDown,ArrowRight","false","revaluation","2","10","","",""
"html-keyboard-response","303","1114017","0.0-4.0-2.1-1.55","spark_pilot_norest","8322","1","12","Male","","","","","","","null","<div style=""font-size:60px;"">+</div>","null","fixation","","","","","","","","","11","","",""
"revaluation","304","1118021","0.0-4.0-2.1-0.56","spark_pilot_norest","8322","1","12","Male","","","false","","","","[513.6999999880791]","./assets/img/canyon/catch/3.jpg","[""spaceBar""]","value training","canyon","0","{""ArrowUp,ArrowLeft"":23,""ArrowUp,ArrowRight"":10,""ArrowDown,ArrowLeft"":8,""ArrowDown,ArrowRight"":30}","true","spaceBar","true","revaluation","2","12","","",""
"html-keyboard-response","305","1118522","0.0-4.0-2.1-1.56","spark_pilot_norest","8322","1","12","Male","","","","","","","null","<div style=""font-size:60px;"">+</div>","null","fixation","","","","","","","","","13","","",""
"revaluation","306","1124526","0.0-4.0-2.1-0.57","spark_pilot_norest","8322","1","12","Male","","","false","","","","[351.30000001192093,397.80000001192093]","./assets/img/canyon/memory/20.jpg","[""ArrowDown"",""ArrowRight""]","value training","canyon","30","{""ArrowUp,ArrowLeft"":23,""ArrowUp,ArrowRight"":10,""ArrowDown,ArrowLeft"":8,""ArrowDown,ArrowRight"":30}","true","ArrowDown,ArrowRight","false","revaluation","2","14","","",""
"html-keyboard-response","307","1125028","0.0-4.0-2.1-1.57","spark_pilot_norest","8322","1","12","Male","","","","","","","null","<div style=""font-size:60px;"">+</div>","null","fixation","","","","","","","","","15","","",""
"revaluation","308","1131033","0.0-4.0-2.1-0.58","spark_pilot_norest","8322","1","12","Male","","","false","","","","[834.6000000238419,841.9000000059605]","./assets/img/canyon/memory/31.jpg","[""ArrowDown"",""ArrowRight""]","value training","canyon","30","{""ArrowUp,ArrowLeft"":23,""ArrowUp,ArrowRight"":10,""ArrowDown,ArrowLeft"":8,""ArrowDown,ArrowRight"":30}","true","ArrowDown,ArrowRight","false","revaluation","2","16","","",""
"html-keyboard-response","309","1131534","0.0-4.0-2.1-1.58","spark_pilot_norest","8322","1","12","Male","","","","","","","null","<div style=""font-size:60px;"">+</div>","null","fixation","","","","","","","","","17","","",""
"revaluation","310","1137539","0.0-4.0-2.1-0.59","spark_pilot_norest","8322","1","12","Male","","","false","","","","[555.5,253]","./assets/img/canyon/memory/11.jpg","[""ArrowDown"",""ArrowRight""]","value training","canyon","30","{""ArrowUp,ArrowLeft"":23,""ArrowUp,ArrowRight"":10,""ArrowDown,ArrowLeft"":8,""ArrowDown,ArrowRight"":30}","true","ArrowDown,ArrowRight","false","revaluation","2","18","","",""
"html-keyboard-response","311","1138040","0.0-4.0-2.1-1.59","spark_pilot_norest","8322","1","12","Male","","","","","","","null","<div style=""font-size:60px;"">+</div>","null","fixation","","","","","","","","","19","","",""
