"trial_type","trial_index","time_elapsed","internal_node_id","task_version","subject_id","assigned_condition","age","gender","success","timeout","failed_images","failed_audio","failed_video","browser_interaction","rt","stimulus","response","task_part","environment","score","rewardMap","correct","fullState","isCatch","condition","order","trial_num","key_press","ground_truth","bonus"
"pavlovia","0","1390","0.0-0.0","spark_pilot_norest","8719","5","21","Female","","","","","","","","","","","","","","","","","","","","","",""
"preload","1","20815","0.0-1.0","spark_pilot_norest","8719","5","21","Female","true","false","[]","[]","[]","[{""event"":""fullscreenenter"",""trial"":2,""time"":23319}]","","","","","","","","","","","","","","","",""
"fullscreen","2","24306","0.0-2.0","spark_pilot_norest","8719","5","21","Female","true","","","","","","","","","","","","","","","","","","","","",""
"audio-button-response","3","26062","0.0-3.0-0.0-0.0","spark_pilot_norest","8719","5","21","Female","","","","","","","1744","./assets/audio/audiotest/turtle.mp3","2","audio_test","","","","","","","","","","","",""
"learning-instructions","4","44377","0.0-3.0-1.0-0.0","spark_pilot_norest","8719","5","21","Female","","","","","","","11340.200000047684","<p> Welcome! Please remember to stay in fullscreen mode and don't click away from the experiment. </p>","","instructions","","","","","","","","","","","",""
"learning-instructions","5","54570","0.0-3.0-1.0-0.1","spark_pilot_norest","8719","5","21","Female","","","","","","","1763.5","<p> Today you will be playing a game to earn treasure. </p>
            <p> At the end of the experiment, you will earn a bonus based on how much treasure you find. </p>
            <img src='./assets/img/instructions/treasure.jpg' class='instructions-image'>","","instructions","","","","","","","","","","","",""
"learning-instructions","6","66039","0.0-3.0-1.0-0.2","spark_pilot_norest","8719","5","21","Female","","","","","","","3190.399999856949","<p> Animals have hidden treasure in treasure chests. </p>
            <p> You need to first find an animal and then choose which of their treasure chests to search. </p>
            <img src='./assets/img/space/animals/cat.jpg' class='instructions-image'>","","instructions","","","","","","","","","","","",""
"learning-instructions","7","82044","0.0-3.0-1.0-0.3","spark_pilot_norest","8719","5","21","Female","","","","","","","2833.4000000953674","<p> In each round, you will search for treasure in a different place. In the real game, there will be two rounds. </p>
            <p> You will begin with a separate, practice round where you will search for treasure in outer space. </p>
            <img src='./assets/img/space/0.jpg' class='instructions-image'>","","instructions","","","","","","","","","","","",""
"learning-instructions","8","100996","0.0-3.0-1.0-0.4","spark_pilot_norest","8719","5","21","Female","","","","","","","7519.200000047684","<p> On every turn, you will see a picture of the place that you are in, but the specific image may be different each time. </p>
            <p> For example, both of these images mean you are in outer space. </p>
            <img src='./assets/img/instructions/outerspace.jpg' class='instructions-image'>","","instructions","","","","","","","","","","","",""
"learning-instructions","9","110715","0.0-3.0-1.0-0.5","spark_pilot_norest","8719","5","21","Female","","","","","","","1878.6999998092651","<p> You need to decide which direction to travel in. </p>
            <p> You can choose between going <b>up or down</b> by using the arrow keys. </p>
            <img src='./assets/img/instructions/updown.jpg' class='instructions-image'>","","instructions","","","","","","","","","","","",""
"learning-instructions","10","120247","0.0-3.0-1.0-0.6","spark_pilot_norest","8719","5","21","Female","","","","","","","707.2999999523163","<p> You will have <b>2 seconds</b> to make your choice. </p>
            <p> If you do not make a choice within 2 seconds, you will not find an animal or earn treasure. </p>
            <img src='./assets/img/instructions/2seconds.jpg' class='instructions-image'>","","instructions","","","","","","","","","","","",""
"learning-instructions","11","128382","0.0-3.0-1.0-0.7","spark_pilot_norest","8719","5","21","Female","","","","","","","1077.7000000476837","<p> Let’s try practicing that now! </p>
            <p> When you see a picture of the place you are in, press the <b>up</b> key to travel up. </p>
            <img src='./assets/img/instructions/pressUp.jpg' class='instructions-image'>","","instructions","","","","","","","","","","","",""
"revaluation","12","132404","0.0-3.0-2.0-0.0","spark_pilot_norest","8719","5","21","Female","","false","","","","","[526.9000000953674]","./assets/img/space/0.jpg","[""ArrowUp""]","first stage practice","space","0","null","null","ArrowUp","false","","","","","",""
"html-keyboard-response","13","132914","0.0-3.0-2.0-1.0","spark_pilot_norest","8719","5","21","Female","","","","","","","null","<div style=""font-size:60px;"">+</div>","null","fixation","","","","","","","","","","","",""
"revaluation","14","136935","0.0-3.0-2.0-0.1","spark_pilot_norest","8719","5","21","Female","","false","","","","","[467.7999999523163]","./assets/img/space/1.jpg","[""ArrowUp""]","first stage practice","space","0","null","null","ArrowUp","false","","","","","",""
"html-keyboard-response","15","137442","0.0-3.0-2.0-1.1","spark_pilot_norest","8719","5","21","Female","","","","","","","null","<div style=""font-size:60px;"">+</div>","null","fixation","","","","","","","","","","","",""
"revaluation","16","141463","0.0-3.0-2.0-0.2","spark_pilot_norest","8719","5","21","Female","","false","","","","","[564.9000000953674]","./assets/img/space/2.jpg","[""ArrowUp""]","first stage practice","space","0","null","null","ArrowUp","false","","","","","",""
"html-keyboard-response","17","141966","0.0-3.0-2.0-1.2","spark_pilot_norest","8719","5","21","Female","","","","","","","null","<div style=""font-size:60px;"">+</div>","null","fixation","","","","","","","","","","","",""
"learning-instructions","18","147935","0.0-3.0-3.0-0.0","spark_pilot_norest","8719","5","21","Female","","","","","","","1259.7000000476837","<p> Great job! Now try pressing the <b>down</b> key to travel down. </p>
            <img src='./assets/img/instructions/pressDown.jpg' class='instructions-image'>","","instructions","","","","","","","","","","","",""
"revaluation","19","151954","0.0-3.0-4.0-0.0","spark_pilot_norest","8719","5","21","Female","","false","","","","","[922]","./assets/img/space/3.jpg","[""ArrowDown""]","first stage practice","space","0","null","null","ArrowDown","false","","","","","",""
"html-keyboard-response","20","152466","0.0-3.0-4.0-1.0","spark_pilot_norest","8719","5","21","Female","","","","","","","null","<div style=""font-size:60px;"">+</div>","null","fixation","","","","","","","","","","","",""
"revaluation","21","156487","0.0-3.0-4.0-0.1","spark_pilot_norest","8719","5","21","Female","","false","","","","","[10.400000095367432]","./assets/img/space/4.jpg","[""ArrowDown""]","first stage practice","space","0","null","null","ArrowDown","false","","","","","",""
"html-keyboard-response","22","156993","0.0-3.0-4.0-1.1","spark_pilot_norest","8719","5","21","Female","","","","","","","null","<div style=""font-size:60px;"">+</div>","null","fixation","","","","","","","","","","","",""
"revaluation","23","161015","0.0-3.0-4.0-0.2","spark_pilot_norest","8719","5","21","Female","","false","","","","","[359.5]","./assets/img/space/5.jpg","[""ArrowDown""]","first stage practice","space","0","null","null","ArrowDown","false","","","","","",""
"html-keyboard-response","24","161521","0.0-3.0-4.0-1.2","spark_pilot_norest","8719","5","21","Female","","","","","","","null","<div style=""font-size:60px;"">+</div>","null","fixation","","","","","","","","","","","",""
"learning-instructions","25","172648","0.0-3.0-5.0-0.0","spark_pilot_norest","8719","5","21","Female","","","","","","","1254.4000000953674","<p> The animals don’t move, so the animal in the upper part of a place will stay in the upper part of a place, and the animal in the lower part of a place will stay in the lower part of a place. </p>","","instructions","","","","","","","","","","","",""
"learning-instructions","26","204884","0.0-3.0-5.0-0.1","spark_pilot_norest","8719","5","21","Female","","","","","","","23092","<p> Each animal has two treasure chests for you to choose from. </p>
            <p> The amount of treasure in each chest can range from <b> 0 to 40 pieces.</b></p>","","instructions","","","","","","","","","","","",""
"learning-instructions","27","225374","0.0-3.0-5.0-0.2","spark_pilot_norest","8719","5","21","Female","","","","","","","9283.600000143051","<p> You should decide which chest to search for treasure by using the <b>left</b> and <b>right</b> arrow keys. </p>
            <p><b> Pay attention to which animal is on the screen, as the animals have different treasure chests. </b></p>
            <img src='./assets/img/instructions/leftright.jpg' class='instructions-image'>","","instructions","","","","","","","","","","","",""
"learning-instructions","28","233843","0.0-3.0-5.0-0.3","spark_pilot_norest","8719","5","21","Female","","","","","","","2094.5","<p> Let’s try practicing that now. </p>
            <p> When you see an animal, choose which chest to search for treasure. </p>
            <img src='./assets/img/instructions/chooseChest.jpg' class='instructions-image'>","","instructions","","","","","","","","","","","",""
"revaluation","29","237860","0.0-3.0-6.0-0.0","spark_pilot_norest","8719","5","21","Female","","false","","","","","[644.8000001907349]","./assets/img/space/animals/cat.jpg","[""ArrowRight""]","second stage practice","space","36","{""ArrowUp,ArrowLeft"":3,""ArrowUp,ArrowRight"":36,""ArrowDown,ArrowLeft"":15,""ArrowDown,ArrowRight"":23}","true","ArrowUp,ArrowRight","","","","","","",""
"html-keyboard-response","30","238363","0.0-3.0-6.0-1.0","spark_pilot_norest","8719","5","21","Female","","","","","","","null","<div style=""font-size:60px;"">+</div>","null","fixation","","","","","","","","","","","",""
"revaluation","31","242379","0.0-3.0-6.0-0.1","spark_pilot_norest","8719","5","21","Female","","false","","","","","[595.7000000476837]","./assets/img/space/animals/rabbit.jpg","[""ArrowRight""]","second stage practice","space","23","{""ArrowUp,ArrowLeft"":3,""ArrowUp,ArrowRight"":36,""ArrowDown,ArrowLeft"":15,""ArrowDown,ArrowRight"":23}","true","ArrowDown,ArrowRight","","","","","","",""
"html-keyboard-response","32","242883","0.0-3.0-6.0-1.1","spark_pilot_norest","8719","5","21","Female","","","","","","","null","<div style=""font-size:60px;"">+</div>","null","fixation","","","","","","","","","","","",""
"revaluation","33","246900","0.0-3.0-6.0-0.2","spark_pilot_norest","8719","5","21","Female","","false","","","","","[311.39999985694885]","./assets/img/space/animals/cat.jpg","[""ArrowLeft""]","second stage practice","space","3","{""ArrowUp,ArrowLeft"":3,""ArrowUp,ArrowRight"":36,""ArrowDown,ArrowLeft"":15,""ArrowDown,ArrowRight"":23}","false","ArrowUp,ArrowLeft","","","","","","",""
"html-keyboard-response","34","247405","0.0-3.0-6.0-1.2","spark_pilot_norest","8719","5","21","Female","","","","","","","null","<div style=""font-size:60px;"">+</div>","null","fixation","","","","","","","","","","","",""
"revaluation","35","251421","0.0-3.0-6.0-0.3","spark_pilot_norest","8719","5","21","Female","","false","","","","","[376.2000000476837]","./assets/img/space/animals/rabbit.jpg","[""ArrowLeft""]","second stage practice","space","15","{""ArrowUp,ArrowLeft"":3,""ArrowUp,ArrowRight"":36,""ArrowDown,ArrowLeft"":15,""ArrowDown,ArrowRight"":23}","false","ArrowDown,ArrowLeft","","","","","","",""
"html-keyboard-response","36","251933","0.0-3.0-6.0-1.3","spark_pilot_norest","8719","5","21","Female","","","","","","","null","<div style=""font-size:60px;"">+</div>","null","fixation","","","","","","","","","","","",""
"learning-instructions","37","269604","0.0-3.0-7.0-0.0","spark_pilot_norest","8719","5","21","Female","","","","","","","828.2000000476837","<p> Great job. Now let’s try putting it together. </p>
            <p> On each turn, you will first see a picture to remind you of the place you are in, and you need to choose whether to go up or down. </p>
            <p> Then you will see an animal and choose which of its chests to search for treasure. </p>","","instructions","","","","","","","","","","","",""
"learning-instructions","38","278728","0.0-3.0-7.0-0.1","spark_pilot_norest","8719","5","21","Female","","","","","","","853.5","<p> When you choose whether to go up or down, try to go to the animal with the chest with the most treasure. </p>
            <p> Try practicing that now! </p>","","instructions","","","","","","","","","","","",""
"revaluation","39","284753","0.0-3.0-8.0-0.0","spark_pilot_norest","8719","5","21","Female","","false","","","","","[615.4000000953674,698.7999999523163]","./assets/img/space/6.jpg","[""ArrowUp"",""ArrowRight""]","full practice","space","36","{""ArrowUp,ArrowLeft"":3,""ArrowUp,ArrowRight"":36,""ArrowDown,ArrowLeft"":15,""ArrowDown,ArrowRight"":23}","true","ArrowUp,ArrowRight","false","","","","","",""
"html-keyboard-response","40","285258","0.0-3.0-8.0-1.0","spark_pilot_norest","8719","5","21","Female","","","","","","","null","<div style=""font-size:60px;"">+</div>","null","fixation","","","","","","","","","","","",""
"revaluation","41","291281","0.0-3.0-8.0-0.1","spark_pilot_norest","8719","5","21","Female","","false","","","","","[1173.3999998569489,583.8999998569489]","./assets/img/space/7.jpg","[""ArrowDown"",""ArrowRight""]","full practice","space","23","{""ArrowUp,ArrowLeft"":3,""ArrowUp,ArrowRight"":36,""ArrowDown,ArrowLeft"":15,""ArrowDown,ArrowRight"":23}","false","ArrowDown,ArrowRight","false","","","","","",""
"html-keyboard-response","42","291786","0.0-3.0-8.0-1.1","spark_pilot_norest","8719","5","21","Female","","","","","","","null","<div style=""font-size:60px;"">+</div>","null","fixation","","","","","","","","","","","",""
"revaluation","43","297814","0.0-3.0-8.0-0.2","spark_pilot_norest","8719","5","21","Female","","false","","","","","[1233,928.0999999046326]","./assets/img/space/8.jpg","[""ArrowUp"",""ArrowLeft""]","full practice","space","3","{""ArrowUp,ArrowLeft"":3,""ArrowUp,ArrowRight"":36,""ArrowDown,ArrowLeft"":15,""ArrowDown,ArrowRight"":23}","false","ArrowUp,ArrowLeft","false","","","","","",""
"html-keyboard-response","44","298320","0.0-3.0-8.0-1.2","spark_pilot_norest","8719","5","21","Female","","","","","","","null","<div style=""font-size:60px;"">+</div>","null","fixation","","","","","","","","","","","",""
"revaluation","45","304347","0.0-3.0-8.0-0.3","spark_pilot_norest","8719","5","21","Female","","false","","","","","[843.7999999523163,423.5]","./assets/img/space/9.jpg","[""ArrowDown"",""ArrowRight""]","full practice","space","23","{""ArrowUp,ArrowLeft"":3,""ArrowUp,ArrowRight"":36,""ArrowDown,ArrowLeft"":15,""ArrowDown,ArrowRight"":23}","false","ArrowDown,ArrowRight","false","","","","","",""
"html-keyboard-response","46","304857","0.0-3.0-8.0-1.3","spark_pilot_norest","8719","5","21","Female","","","","","","","null","<div style=""font-size:60px;"">+</div>","null","fixation","","","","","","","","","","","",""
"revaluation","47","310882","0.0-3.0-8.0-0.4","spark_pilot_norest","8719","5","21","Female","","false","","","","","[452.09999990463257,328.10000014305115]","./assets/img/space/10.jpg","[""ArrowUp"",""ArrowRight""]","full practice","space","36","{""ArrowUp,ArrowLeft"":3,""ArrowUp,ArrowRight"":36,""ArrowDown,ArrowLeft"":15,""ArrowDown,ArrowRight"":23}","true","ArrowUp,ArrowRight","false","","","","","",""
"html-keyboard-response","48","311384","0.0-3.0-8.0-1.4","spark_pilot_norest","8719","5","21","Female","","","","","","","null","<div style=""font-size:60px;"">+</div>","null","fixation","","","","","","","","","","","",""
"learning-instructions","49","322658","0.0-3.0-9.0-0.0","spark_pilot_norest","8719","5","21","Female","","","","","","","915.7000000476837","<p> One last thing: sometimes, you will see a robber. The robber can be anywhere in the picture. </p>
            <p> If you do not stop them, you will lose treasure. </p>
            <img src='./assets/img/instructions/robber.jpg' class='instructions-image'>","","instructions","","","","","","","","","","","",""
"learning-instructions","50","330858","0.0-3.0-9.0-0.1","spark_pilot_norest","8719","5","21","Female","","","","","","","1021.2999999523163","<p> If you see the robber, you should <b>press the space bar</b> rather than using the arrow keys. </p>
            <p> Try practicing that now! </p>","","instructions","","","","","","","","","","","",""
"revaluation","51","334873","0.0-3.0-10.0-0.0","spark_pilot_norest","8719","5","21","Female","","false","","","","","[923]","./assets/img/space/catch/0.jpg","[""ArrowUp""]","catch practice","space","-10","{""ArrowUp,ArrowLeft"":3,""ArrowUp,ArrowRight"":36,""ArrowDown,ArrowLeft"":15,""ArrowDown,ArrowRight"":23}","false","ArrowUp","true","","","","","",""
"html-keyboard-response","52","335377","0.0-3.0-10.0-1.0","spark_pilot_norest","8719","5","21","Female","","","","","","","null","<div style=""font-size:60px;"">+</div>","null","fixation","","","","","","","","","","","",""
"revaluation","53","339393","0.0-3.0-10.0-0.1","spark_pilot_norest","8719","5","21","Female","","false","","","","","[546.2999999523163]","./assets/img/space/catch/1.jpg","[""spaceBar""]","catch practice","space","0","{""ArrowUp,ArrowLeft"":3,""ArrowUp,ArrowRight"":36,""ArrowDown,ArrowLeft"":15,""ArrowDown,ArrowRight"":23}","true","spaceBar","true","","","","","",""
"html-keyboard-response","54","339897","0.0-3.0-10.0-1.1","spark_pilot_norest","8719","5","21","Female","","","","","","","null","<div style=""font-size:60px;"">+</div>","null","fixation","","","","","","","","","","","",""
"revaluation","55","343912","0.0-3.0-10.0-0.2","spark_pilot_norest","8719","5","21","Female","","false","","","","","[451.2999999523163]","./assets/img/space/catch/2.jpg","[""spaceBar""]","catch practice","space","0","{""ArrowUp,ArrowLeft"":3,""ArrowUp,ArrowRight"":36,""ArrowDown,ArrowLeft"":15,""ArrowDown,ArrowRight"":23}","true","spaceBar","true","","","","","",""
"html-keyboard-response","56","344416","0.0-3.0-10.0-1.2","spark_pilot_norest","8719","5","21","Female","","","","","","","null","<div style=""font-size:60px;"">+</div>","null","fixation","","","","","","","","","","","",""
"learning-instructions","57","350758","0.0-3.0-11.0-0.0-0.0","spark_pilot_norest","8719","5","21","Female","","","","","","","1071.5","<p> Now, you will practice a shortened version of the game to get a sense of how it all fits together. </p>","","instructions","","","","","","","","","","","",""
"learning-instructions","58","356876","0.0-3.0-11.0-0.0-0.1","spark_pilot_norest","8719","5","21","Female","","","","","","","2922.5999999046326","<p>This time you are searching for treasure in outer space.</p>","","instructions","","","","","","","","","","","",""
"learning-instructions","59","373086","0.0-3.0-11.0-1.0-0.0","spark_pilot_norest","8719","5","21","Female","","","","","","","1422.1000001430511","<p> Remember, when you see a picture of the place, use the up and down keys to <b>find an animal</b>.</p>
            <p> When you encounter an animal, you should use the left and right keys to <b>select a treasure chest</b>.</p>
            <p> Don't forget to look out for the robber! </p>","","instructions","","","","","","","","","","","",""
"revaluation","60","379112","0.0-3.0-11.0-2.0-0.0","spark_pilot_norest","8719","5","21","Female","","false","","","","","[861.6999998092651,499.19999980926514]","./assets/img/space/11.jpg","[""ArrowUp"",""ArrowRight""]","practice block","space","36","{""ArrowUp,ArrowLeft"":3,""ArrowUp,ArrowRight"":36,""ArrowDown,ArrowLeft"":15,""ArrowDown,ArrowRight"":23}","true","ArrowUp,ArrowRight","false","","","","","",""
"html-keyboard-response","61","379615","0.0-3.0-11.0-2.0-1.0","spark_pilot_norest","8719","5","21","Female","","","","","","","null","<div style=""font-size:60px;"">+</div>","null","fixation","","","","","","","","","","","",""
"revaluation","62","385640","0.0-3.0-11.0-2.0-0.1","spark_pilot_norest","8719","5","21","Female","","false","","","","","[836.7999999523163,728.7999999523163]","./assets/img/space/12.jpg","[""ArrowUp"",""ArrowRight""]","practice block","space","36","{""ArrowUp,ArrowLeft"":3,""ArrowUp,ArrowRight"":36,""ArrowDown,ArrowLeft"":15,""ArrowDown,ArrowRight"":23}","true","ArrowUp,ArrowRight","false","","","","","",""
"html-keyboard-response","63","386143","0.0-3.0-11.0-2.0-1.1","spark_pilot_norest","8719","5","21","Female","","","","","","","null","<div style=""font-size:60px;"">+</div>","null","fixation","","","","","","","","","","","",""
"revaluation","64","392170","0.0-3.0-11.0-2.0-0.2","spark_pilot_norest","8719","5","21","Female","","false","","","","","[771.1999998092651,551.6000001430511]","./assets/img/space/13.jpg","[""ArrowUp"",""ArrowRight""]","practice block","space","36","{""ArrowUp,ArrowLeft"":3,""ArrowUp,ArrowRight"":36,""ArrowDown,ArrowLeft"":15,""ArrowDown,ArrowRight"":23}","true","ArrowUp,ArrowRight","false","","","","","",""
"html-keyboard-response","65","392681","0.0-3.0-11.0-2.0-1.2","spark_pilot_norest","8719","5","21","Female","","","","","","","null","<div style=""font-size:60px;"">+</div>","null","fixation","","","","","","","","","","","",""
"revaluation","66","398713","0.0-3.0-11.0-2.0-0.3","spark_pilot_norest","8719","5","21","Female","","false","","","","","[596.6000001430511,368.2000000476837]","./assets/img/space/14.jpg","[""ArrowUp"",""ArrowRight""]","practice block","space","36","{""ArrowUp,ArrowLeft"":3,""ArrowUp,ArrowRight"":36,""ArrowDown,ArrowLeft"":15,""ArrowDown,ArrowRight"":23}","true","ArrowUp,ArrowRight","false","","","","","",""
"html-keyboard-response","67","399225","0.0-3.0-11.0-2.0-1.3","spark_pilot_norest","8719","5","21","Female","","","","","","","null","<div style=""font-size:60px;"">+</div>","null","fixation","","","","","","","","","","","",""
"revaluation","68","405248","0.0-3.0-11.0-2.0-0.4","spark_pilot_norest","8719","5","21","Female","","false","","","","","[709.3999998569489,462.7999999523163]","./assets/img/space/11.jpg","[""ArrowUp"",""ArrowRight""]","practice block","space","36","{""ArrowUp,ArrowLeft"":3,""ArrowUp,ArrowRight"":36,""ArrowDown,ArrowLeft"":15,""ArrowDown,ArrowRight"":23}","true","ArrowUp,ArrowRight","false","","","","","",""
"html-keyboard-response","69","405759","0.0-3.0-11.0-2.0-1.4","spark_pilot_norest","8719","5","21","Female","","","","","","","null","<div style=""font-size:60px;"">+</div>","null","fixation","","","","","","","","","","","",""
"revaluation","70","411783","0.0-3.0-11.0-2.0-0.5","spark_pilot_norest","8719","5","21","Female","","false","","","","","[729.2000000476837,387.40000009536743]","./assets/img/space/12.jpg","[""ArrowUp"",""ArrowRight""]","practice block","space","36","{""ArrowUp,ArrowLeft"":3,""ArrowUp,ArrowRight"":36,""ArrowDown,ArrowLeft"":15,""ArrowDown,ArrowRight"":23}","true","ArrowUp,ArrowRight","false","","","","","",""
"html-keyboard-response","71","412289","0.0-3.0-11.0-2.0-1.5","spark_pilot_norest","8719","5","21","Female","","","","","","","null","<div style=""font-size:60px;"">+</div>","null","fixation","","","","","","","","","","","",""
"revaluation","72","418319","0.0-3.0-11.0-2.0-0.6","spark_pilot_norest","8719","5","21","Female","","false","","","","","[918.7999999523163,469.09999990463257]","./assets/img/space/13.jpg","[""ArrowUp"",""ArrowRight""]","practice block","space","36","{""ArrowUp,ArrowLeft"":3,""ArrowUp,ArrowRight"":36,""ArrowDown,ArrowLeft"":15,""ArrowDown,ArrowRight"":23}","true","ArrowUp,ArrowRight","false","","","","","",""
"html-keyboard-response","73","418830","0.0-3.0-11.0-2.0-1.6","spark_pilot_norest","8719","5","21","Female","","","","","","","null","<div style=""font-size:60px;"">+</div>","null","fixation","","","","","","","","","","","",""
"revaluation","74","424853","0.0-3.0-11.0-2.0-0.7","spark_pilot_norest","8719","5","21","Female","","false","","","","","[639.7000000476837,463.10000014305115]","./assets/img/space/14.jpg","[""ArrowUp"",""ArrowRight""]","practice block","space","36","{""ArrowUp,ArrowLeft"":3,""ArrowUp,ArrowRight"":36,""ArrowDown,ArrowLeft"":15,""ArrowDown,ArrowRight"":23}","true","ArrowUp,ArrowRight","false","","","","","",""
"html-keyboard-response","75","425359","0.0-3.0-11.0-2.0-1.7","spark_pilot_norest","8719","5","21","Female","","","","","","","null","<div style=""font-size:60px;"">+</div>","null","fixation","","","","","","","","","","","",""
"revaluation","76","429375","0.0-3.0-11.0-2.0-0.8","spark_pilot_norest","8719","5","21","Female","","false","","","","","[702.8000001907349]","./assets/img/space/catch/3.jpg","[""spaceBar""]","practice block","space","0","{""ArrowUp,ArrowLeft"":3,""ArrowUp,ArrowRight"":36,""ArrowDown,ArrowLeft"":15,""ArrowDown,ArrowRight"":23}","true","spaceBar","true","","","","","",""
"html-keyboard-response","77","429887","0.0-3.0-11.0-2.0-1.8","spark_pilot_norest","8719","5","21","Female","","","","","","","null","<div style=""font-size:60px;"">+</div>","null","fixation","","","","","","","","","","","",""
"learning-instructions","78","444129","0.0-3.0-11.0-3.0-0.0","spark_pilot_norest","8719","5","21","Female","","","","","","","1270.2999999523163","<p> Now, you will travel with a friend who will choose whether you go up or down first. </p>
            <p> On these turns, you will just see the animal that they found. You will still get to choose which chest to search for treasure.</p>","","instructions","","","","","","","","","","","",""
"revaluation","79","448143","0.0-3.0-11.0-4.0-0.0","spark_pilot_norest","8719","5","21","Female","","false","","","","","[1033.2999999523163]","./assets/img/space/animals/rabbit.jpg","[""ArrowRight""]","practice block","space","23","{""ArrowUp,ArrowLeft"":3,""ArrowUp,ArrowRight"":36,""ArrowDown,ArrowLeft"":15,""ArrowDown,ArrowRight"":23}","true","ArrowDown,ArrowRight","","","","","","",""
"html-keyboard-response","80","448655","0.0-3.0-11.0-4.0-1.0","spark_pilot_norest","8719","5","21","Female","","","","","","","null","<div style=""font-size:60px;"">+</div>","null","fixation","","","","","","","","","","","",""
"revaluation","81","452671","0.0-3.0-11.0-4.0-0.1","spark_pilot_norest","8719","5","21","Female","","false","","","","","[393.90000009536743]","./assets/img/space/animals/cat.jpg","[""ArrowRight""]","practice block","space","36","{""ArrowUp,ArrowLeft"":3,""ArrowUp,ArrowRight"":36,""ArrowDown,ArrowLeft"":15,""ArrowDown,ArrowRight"":23}","true","ArrowUp,ArrowRight","","","","","","",""
"html-keyboard-response","82","453180","0.0-3.0-11.0-4.0-1.1","spark_pilot_norest","8719","5","21","Female","","","","","","","null","<div style=""font-size:60px;"">+</div>","null","fixation","","","","","","","","","","","",""
"revaluation","83","457198","0.0-3.0-11.0-4.0-0.2","spark_pilot_norest","8719","5","21","Female","","false","","","","","[625.8999998569489]","./assets/img/space/animals/cat.jpg","[""ArrowRight""]","practice block","space","36","{""ArrowUp,ArrowLeft"":3,""ArrowUp,ArrowRight"":36,""ArrowDown,ArrowLeft"":15,""ArrowDown,ArrowRight"":23}","true","ArrowUp,ArrowRight","","","","","","",""
"html-keyboard-response","84","457710","0.0-3.0-11.0-4.0-1.2","spark_pilot_norest","8719","5","21","Female","","","","","","","null","<div style=""font-size:60px;"">+</div>","null","fixation","","","","","","","","","","","",""
"revaluation","85","461725","0.0-3.0-11.0-4.0-0.3","spark_pilot_norest","8719","5","21","Female","","false","","","","","[399.89999985694885]","./assets/img/space/animals/rabbit.jpg","[""ArrowLeft""]","practice block","space","15","{""ArrowUp,ArrowLeft"":3,""ArrowUp,ArrowRight"":36,""ArrowDown,ArrowLeft"":15,""ArrowDown,ArrowRight"":23}","false","ArrowDown,ArrowLeft","","","","","","",""
"html-keyboard-response","86","462227","0.0-3.0-11.0-4.0-1.3","spark_pilot_norest","8719","5","21","Female","","","","","","","null","<div style=""font-size:60px;"">+</div>","null","fixation","","","","","","","","","","","",""
"learning-instructions","87","470366","0.0-3.0-11.0-5.0-0.0","spark_pilot_norest","8719","5","21","Female","","","","","","","null","<p> You have almost finished this part of the game! </p>
            <p> We are going to ask you to make a few more choices. </p>","","instructions","","","","","","","","","","","",""
"learning-instructions","88","486404","0.0-3.0-11.0-5.0-0.1","spark_pilot_norest","8719","5","21","Female","","","","","","","null","<p> First, you need to decide whether to go up or down. When you see each picture, use the arrow keys to make your choice. </p>
            <p><b>You will not see which animal you found, but try to get to the one that will give you the most treasure.</b></p>","","instructions","","","","","","","","","","","",""
"html-keyboard-response","89","487412","0.0-3.0-11.0-6.0-0.0","spark_pilot_norest","8719","5","21","Female","","","","","","","null","<div style=""font-size:100px;color:red;"">Starting in...</div>","null","","","","","","","","","","","","",""
"html-keyboard-response","90","488420","0.0-3.0-11.0-6.0-1.0","spark_pilot_norest","8719","5","21","Female","","","","","","","null","<div style=""font-size:200px;color:red;"">3</div>","null","","","","","","","","","","","","",""
"html-keyboard-response","91","489428","0.0-3.0-11.0-6.0-2.0","spark_pilot_norest","8719","5","21","Female","","","","","","","null","<div style=""font-size:200px;color:red;"">2</div>","null","","","","","","","","","","","","",""
"html-keyboard-response","92","490436","0.0-3.0-11.0-6.0-3.0","spark_pilot_norest","8719","5","21","Female","","","","","","","null","<div style=""font-size:200px;color:red;"">1</div>","null","","","","","","","","","","","","",""
"revaluation","93","491386","0.0-3.0-11.0-7.0","spark_pilot_norest","8719","5","21","Female","","false","","","","","[945.2000000476837]","./assets/img/space/15.jpg","[""ArrowUp""]","practice block","space","0","{""ArrowUp,ArrowLeft"":3,""ArrowUp,ArrowRight"":36,""ArrowDown,ArrowLeft"":15,""ArrowDown,ArrowRight"":23}","true","ArrowUp","false","","","","","",""
"html-keyboard-response","94","491895","0.0-3.0-11.0-8.0","spark_pilot_norest","8719","5","21","Female","","","","","","","null","<div style=""font-size:60px;"">+</div>","null","fixation","","","","","","","","","","","",""
"learning-instructions","95","505346","0.0-3.0-11.0-9.0-0.0","spark_pilot_norest","8719","5","21","Female","","","","","","","null","<p> Now you will see the animals again and can search their chests for treasure. </p>
            <p> This time, you will not see how much treasure you earned, but you will earn more bonus money for making better choices. </p>","","instructions","","","","","","","","","","","",""
"html-keyboard-response","96","506358","0.0-3.0-11.0-10.0-0.0","spark_pilot_norest","8719","5","21","Female","","","","","","","null","<div style=""font-size:100px;color:red;"">Starting in...</div>","null","","","","","","","","","","","","",""
"html-keyboard-response","97","507367","0.0-3.0-11.0-10.0-1.0","spark_pilot_norest","8719","5","21","Female","","","","","","","null","<div style=""font-size:200px;color:red;"">3</div>","null","","","","","","","","","","","","",""
"html-keyboard-response","98","508375","0.0-3.0-11.0-10.0-2.0","spark_pilot_norest","8719","5","21","Female","","","","","","","null","<div style=""font-size:200px;color:red;"">2</div>","null","","","","","","","","","","","","",""
"html-keyboard-response","99","509382","0.0-3.0-11.0-10.0-3.0","spark_pilot_norest","8719","5","21","Female","","","","","","","null","<div style=""font-size:200px;color:red;"">1</div>","null","","","","","","","","","","","","",""
"revaluation","100","509976","0.0-3.0-11.0-11.0-0.0","spark_pilot_norest","8719","5","21","Female","","false","","","","","[588.7999999523163]","./assets/img/space/animals/cat.jpg","[""ArrowRight""]","practice block","space","0","{""ArrowUp,ArrowLeft"":3,""ArrowUp,ArrowRight"":36,""ArrowDown,ArrowLeft"":15,""ArrowDown,ArrowRight"":23}","true","ArrowUp,ArrowRight","","","","","","",""
"html-keyboard-response","101","510486","0.0-3.0-11.0-11.0-1.0","spark_pilot_norest","8719","5","21","Female","","","","","","","null","<div style=""font-size:60px;"">+</div>","null","fixation","","","","","","","","","","","",""
"revaluation","102","511496","0.0-3.0-11.0-11.0-0.1","spark_pilot_norest","8719","5","21","Female","","false","","","","","[1005.7999999523163]","./assets/img/space/animals/rabbit.jpg","[""ArrowRight""]","practice block","space","0","{""ArrowUp,ArrowLeft"":3,""ArrowUp,ArrowRight"":36,""ArrowDown,ArrowLeft"":15,""ArrowDown,ArrowRight"":23}","true","ArrowDown,ArrowRight","","","","","","",""
"html-keyboard-response","103","512002","0.0-3.0-11.0-11.0-1.1","spark_pilot_norest","8719","5","21","Female","","","","","","","null","<div style=""font-size:60px;"">+</div>","null","fixation","","","","","","","","","","","",""
"learning-instructions","104","517960","0.0-3.0-12.0-0.0","spark_pilot_norest","8719","5","21","Female","","","","","","","1371.5999999046326","<p> Before you start, we're going to ask you a few questions about how the game works. </p>","","instructions","","","","","","","","","","","",""
"comp-q","105","524916","0.0-3.0-13.0-0.0-0.0","spark_pilot_norest","8719","5","21","Female","","","","","","","1350","<p> <b> True or False? </b> </p>
            <p> There can be 50 pieces of treasure in a given animal's chest. </p>","1","comp_question","","","","true","","","","","","","",""
"comp-q","106","532784","0.0-3.0-13.0-0.0-1.0","spark_pilot_norest","8719","5","21","Female","","","","","","","1198.7999999523163","<p> <b> That's right! </b> The amount of treasure in each chest can range from 0 to 40 pieces. </p>","0","comp_answer","","","","","","","","","","","",""
"comp-q","107","540377","0.0-3.0-13.0-0.1-0.1","spark_pilot_norest","8719","5","21","Female","","","","","","","476.80000019073486","<p> <b> True or False? </b> </p><p> In this game, all animals have the same amount of treasure in their left and right chests. </p>","1","comp_question","","","","true","","","","","","","",""
"comp-q","108","546499","0.0-3.0-13.0-0.1-1.1","spark_pilot_norest","8719","5","21","Female","","","","","","","882.5","<p> <b> That's right! </b> Animals have different amounts of treasure in their treasure chests. </p>","0","comp_answer","","","","","","","","","","","",""
"comp-q","109","552816","0.0-3.0-13.0-0.2-0.2","spark_pilot_norest","8719","5","21","Female","","","","","","","462.90000009536743","<p> <b> True or False? </b> </p><p> The same animal will always be there if you go up in the same place. </p>","0","comp_question","","","","true","","","","","","","",""
"comp-q","110","560032","0.0-3.0-13.0-0.2-1.2","spark_pilot_norest","8719","5","21","Female","","","","","","","756.7000000476837","<p> <b> That's right! </b> One animal lives in the upper part and one lives in the lower part of every place. </p>","0","comp_answer","","","","","","","","","","","",""
"comp-q","111","566159","0.0-3.0-13.0-0.3-0.3","spark_pilot_norest","8719","5","21","Female","","","","","","","590.7000000476837","<p> <b> True or False? </b> </p><p> If you see a different picture, it means you are in a new place. </p>","0","comp_question","","","","false","","","","","","","",""
"comp-q","112","578295","0.0-3.0-13.0-0.3-1.3","spark_pilot_norest","8719","5","21","Female","","","","","","","1026.0999999046326","<p> <b>Incorrect.</b> Lots of different images may show the same place. For example,  you may see three different images that all remind you that you are in outer space. </p>","0","comp_answer","","","","","","","","","","","",""
"comp-q","113","584528","0.0-3.0-13.0-0.4-0.4","spark_pilot_norest","8719","5","21","Female","","","","","","","731.5","<p> <b> True or False? </b> </p><p> If you see a different picture, it means you are in a new place. </p>","0","comp_question","","","","false","","","","","","","",""
"comp-q","114","596238","0.0-3.0-13.0-0.4-1.4","spark_pilot_norest","8719","5","21","Female","","","","","","","651","<p> <b>Incorrect.</b> Lots of different images may show the same place. For example,  you may see three different images that all remind you that you are in outer space. </p>","0","comp_answer","","","","","","","","","","","",""
"comp-q","115","602801","0.0-3.0-13.0-0.5-0.5","spark_pilot_norest","8719","5","21","Female","","","","","","","1058.7000000476837","<p> <b> True or False? </b> </p><p> If you see a different picture, it means you are in a new place. </p>","1","comp_question","","","","true","","","","","","","",""
"comp-q","116","619690","0.0-3.0-13.0-0.5-1.5","spark_pilot_norest","8719","5","21","Female","","","","","","","5644.699999809265","<p> <b> That's right! </b> Lots of different images may show the same place. For example,  you may see three different images that all remind you that you are in outer space. </p>","0","comp_answer","","","","","","","","","","","",""
"learning-instructions","117","630553","0.0-3.0-14.0-0.0","spark_pilot_norest","8719","5","21","Female","","","","","","","993.5","<p> Good job. Remember to do your best because the amount of treasure you earn will be converted into bonus money. </p>
            <p> It’s time to start the real game! </p>","","instructions","","","","","","","","","","","",""
"learning-instructions","118","634200","0.0-4.0-0.0-0.0","spark_pilot_norest","8719","5","21","Female","","","","","","","875.1000001430511","<p> This time you are searching for treasure in the <b>canyon</b>.</p>","","instructions","","","","","","","","","","","",""
"learning-instructions","119","652782","0.0-4.0-0.0-0.1","spark_pilot_norest","8719","5","21","Female","","","","","","","1266","<p><b>New</b> animals with <b>new</b> treasure chests live here. You need to explore to discover where the animal with the best treasure chest is.</p>
                    <p> Like before, once you figure out which animal has the chest with the most treasure, you should try to get to that animal and select that chest! </p>","","instructions","","","","","","","","","","","",""
"learning-instructions","120","668355","0.0-4.0-1.0-0.0","spark_pilot_norest","8719","5","21","Female","","","","","","","839.3999998569489","<p> Remember, when you see a picture of the place, use the up and down keys to <b>find an animal</b>.</p>
            <p> When you encounter an animal, you should use the left and right keys to <b>select a treasure chest</b>.</p>
            <p> Don't forget to look out for the robber! </p>","","instructions","","","","","","","","","","","",""
"revaluation","121","674382","0.0-4.0-2.0-0.0","spark_pilot_norest","8719","5","21","Female","","false","","","","","[1216.9000000953674,864]","./assets/img/canyon/memory/0.jpg","[""ArrowUp"",""ArrowRight""]","value training","canyon","10","{""ArrowUp,ArrowLeft"":26,""ArrowUp,ArrowRight"":10,""ArrowDown,ArrowLeft"":5,""ArrowDown,ArrowRight"":17}","false","ArrowUp,ArrowRight","false","original","1","0","","",""
"html-keyboard-response","122","674895","0.0-4.0-2.0-1.0","spark_pilot_norest","8719","5","21","Female","","","","","","","null","<div style=""font-size:60px;"">+</div>","null","fixation","","","","","","","","","1","","",""
"revaluation","123","680917","0.0-4.0-2.0-0.1","spark_pilot_norest","8719","5","21","Female","","false","","","","","[1239.8000001907349,438.7000000476837]","./assets/img/canyon/memory/20.jpg","[""ArrowUp"",""ArrowLeft""]","value training","canyon","26","{""ArrowUp,ArrowLeft"":26,""ArrowUp,ArrowRight"":10,""ArrowDown,ArrowLeft"":5,""ArrowDown,ArrowRight"":17}","true","ArrowUp,ArrowLeft","false","original","1","2","","",""
"html-keyboard-response","124","681423","0.0-4.0-2.0-1.1","spark_pilot_norest","8719","5","21","Female","","","","","","","null","<div style=""font-size:60px;"">+</div>","null","fixation","","","","","","","","","3","","",""
"revaluation","125","687445","0.0-4.0-2.0-0.2","spark_pilot_norest","8719","5","21","Female","","false","","","","","[931.7000000476837,936.5999999046326]","./assets/img/canyon/memory/16.jpg","[""ArrowDown"",""ArrowRight""]","value training","canyon","17","{""ArrowUp,ArrowLeft"":26,""ArrowUp,ArrowRight"":10,""ArrowDown,ArrowLeft"":5,""ArrowDown,ArrowRight"":17}","false","ArrowDown,ArrowRight","false","original","1","4","","",""
"html-keyboard-response","126","687951","0.0-4.0-2.0-1.2","spark_pilot_norest","8719","5","21","Female","","","","","","","null","<div style=""font-size:60px;"">+</div>","null","fixation","","","","","","","","","5","","",""
"revaluation","127","693978","0.0-4.0-2.0-0.3","spark_pilot_norest","8719","5","21","Female","","false","","","","","[543.5,364.10000014305115]","./assets/img/canyon/memory/31.jpg","[""ArrowDown"",""ArrowLeft""]","value training","canyon","5","{""ArrowUp,ArrowLeft"":26,""ArrowUp,ArrowRight"":10,""ArrowDown,ArrowLeft"":5,""ArrowDown,ArrowRight"":17}","false","ArrowDown,ArrowLeft","false","original","1","6","","",""
"html-keyboard-response","128","694489","0.0-4.0-2.0-1.3","spark_pilot_norest","8719","5","21","Female","","","","","","","null","<div style=""font-size:60px;"">+</div>","null","fixation","","","","","","","","","7","","",""
"revaluation","129","700517","0.0-4.0-2.0-0.4","spark_pilot_norest","8719","5","21","Female","","false","","","","","[551,401]","./assets/img/canyon/memory/36.jpg","[""ArrowUp"",""ArrowLeft""]","value training","canyon","26","{""ArrowUp,ArrowLeft"":26,""ArrowUp,ArrowRight"":10,""ArrowDown,ArrowLeft"":5,""ArrowDown,ArrowRight"":17}","true","ArrowUp,ArrowLeft","false","original","1","8","","",""
"html-keyboard-response","130","701024","0.0-4.0-2.0-1.4","spark_pilot_norest","8719","5","21","Female","","","","","","","null","<div style=""font-size:60px;"">+</div>","null","fixation","","","","","","","","","9","","",""
"revaluation","131","707056","0.0-4.0-2.0-0.5","spark_pilot_norest","8719","5","21","Female","","false","","","","","[1066.0999999046326,334.10000014305115]","./assets/img/canyon/memory/18.jpg","[""ArrowUp"",""ArrowLeft""]","value training","canyon","26","{""ArrowUp,ArrowLeft"":26,""ArrowUp,ArrowRight"":10,""ArrowDown,ArrowLeft"":5,""ArrowDown,ArrowRight"":17}","true","ArrowUp,ArrowLeft","false","original","1","10","","",""
"html-keyboard-response","132","707568","0.0-4.0-2.0-1.5","spark_pilot_norest","8719","5","21","Female","","","","","","","null","<div style=""font-size:60px;"">+</div>","null","fixation","","","","","","","","","11","","",""
"revaluation","133","713600","0.0-4.0-2.0-0.6","spark_pilot_norest","8719","5","21","Female","","false","","","","","[1037.4000000953674,448.09999990463257]","./assets/img/canyon/memory/14.jpg","[""ArrowUp"",""ArrowLeft""]","value training","canyon","26","{""ArrowUp,ArrowLeft"":26,""ArrowUp,ArrowRight"":10,""ArrowDown,ArrowLeft"":5,""ArrowDown,ArrowRight"":17}","true","ArrowUp,ArrowLeft","false","original","1","12","","",""
"html-keyboard-response","134","714111","0.0-4.0-2.0-1.6","spark_pilot_norest","8719","5","21","Female","","","","","","","null","<div style=""font-size:60px;"">+</div>","null","fixation","","","","","","","","","13","","",""
"revaluation","135","718133","0.0-4.0-2.0-0.7","spark_pilot_norest","8719","5","21","Female","","false","","","","","[1254.6000001430511]","./assets/img/canyon/catch/2.jpg","[""spaceBar""]","value training","canyon","0","{""ArrowUp,ArrowLeft"":26,""ArrowUp,ArrowRight"":10,""ArrowDown,ArrowLeft"":5,""ArrowDown,ArrowRight"":17}","true","spaceBar","true","original","1","14","","",""
"html-keyboard-response","136","718636","0.0-4.0-2.0-1.7","spark_pilot_norest","8719","5","21","Female","","","","","","","null","<div style=""font-size:60px;"">+</div>","null","fixation","","","","","","","","","15","","",""
"revaluation","137","724663","0.0-4.0-2.0-0.8","spark_pilot_norest","8719","5","21","Female","","false","","","","","[1002,430.2999999523163]","./assets/img/canyon/memory/14.jpg","[""ArrowUp"",""ArrowLeft""]","value training","canyon","26","{""ArrowUp,ArrowLeft"":26,""ArrowUp,ArrowRight"":10,""ArrowDown,ArrowLeft"":5,""ArrowDown,ArrowRight"":17}","true","ArrowUp,ArrowLeft","false","original","1","16","","",""
"html-keyboard-response","138","725172","0.0-4.0-2.0-1.8","spark_pilot_norest","8719","5","21","Female","","","","","","","null","<div style=""font-size:60px;"">+</div>","null","fixation","","","","","","","","","17","","",""
"revaluation","139","731200","0.0-4.0-2.0-0.9","spark_pilot_norest","8719","5","21","Female","","false","","","","","[975.2999999523163,379.5]","./assets/img/canyon/memory/5.jpg","[""ArrowUp"",""ArrowLeft""]","value training","canyon","26","{""ArrowUp,ArrowLeft"":26,""ArrowUp,ArrowRight"":10,""ArrowDown,ArrowLeft"":5,""ArrowDown,ArrowRight"":17}","true","ArrowUp,ArrowLeft","false","original","1","18","","",""
"html-keyboard-response","140","731711","0.0-4.0-2.0-1.9","spark_pilot_norest","8719","5","21","Female","","","","","","","null","<div style=""font-size:60px;"">+</div>","null","fixation","","","","","","","","","19","","",""
"revaluation","141","737743","0.0-4.0-2.0-0.10","spark_pilot_norest","8719","5","21","Female","","false","","","","","[636.3999998569489,564.0999999046326]","./assets/img/canyon/memory/15.jpg","[""ArrowUp"",""ArrowLeft""]","value training","canyon","26","{""ArrowUp,ArrowLeft"":26,""ArrowUp,ArrowRight"":10,""ArrowDown,ArrowLeft"":5,""ArrowDown,ArrowRight"":17}","true","ArrowUp,ArrowLeft","false","original","1","20","","",""
"html-keyboard-response","142","738255","0.0-4.0-2.0-1.10","spark_pilot_norest","8719","5","21","Female","","","","","","","null","<div style=""font-size:60px;"">+</div>","null","fixation","","","","","","","","","21","","",""
"revaluation","143","744287","0.0-4.0-2.0-0.11","spark_pilot_norest","8719","5","21","Female","","false","","","","","[897.5999999046326,781.4000000953674]","./assets/img/canyon/memory/23.jpg","[""ArrowUp"",""ArrowLeft""]","value training","canyon","26","{""ArrowUp,ArrowLeft"":26,""ArrowUp,ArrowRight"":10,""ArrowDown,ArrowLeft"":5,""ArrowDown,ArrowRight"":17}","true","ArrowUp,ArrowLeft","false","original","1","22","","",""
"html-keyboard-response","144","744798","0.0-4.0-2.0-1.11","spark_pilot_norest","8719","5","21","Female","","","","","","","null","<div style=""font-size:60px;"">+</div>","null","fixation","","","","","","","","","23","","",""
"revaluation","145","750831","0.0-4.0-2.0-0.12","spark_pilot_norest","8719","5","21","Female","","false","","","","","[728.9000000953674,469]","./assets/img/canyon/memory/15.jpg","[""ArrowUp"",""ArrowLeft""]","value training","canyon","26","{""ArrowUp,ArrowLeft"":26,""ArrowUp,ArrowRight"":10,""ArrowDown,ArrowLeft"":5,""ArrowDown,ArrowRight"":17}","true","ArrowUp,ArrowLeft","false","original","1","24","","",""
"html-keyboard-response","146","751342","0.0-4.0-2.0-1.12","spark_pilot_norest","8719","5","21","Female","","","","","","","null","<div style=""font-size:60px;"">+</div>","null","fixation","","","","","","","","","25","","",""
"revaluation","147","757374","0.0-4.0-2.0-0.13","spark_pilot_norest","8719","5","21","Female","","false","","","","","[1289,714.7999999523163]","./assets/img/canyon/memory/37.jpg","[""ArrowUp"",""ArrowLeft""]","value training","canyon","26","{""ArrowUp,ArrowLeft"":26,""ArrowUp,ArrowRight"":10,""ArrowDown,ArrowLeft"":5,""ArrowDown,ArrowRight"":17}","true","ArrowUp,ArrowLeft","false","original","1","26","","",""
"html-keyboard-response","148","757888","0.0-4.0-2.0-1.13","spark_pilot_norest","8719","5","21","Female","","","","","","","null","<div style=""font-size:60px;"">+</div>","null","fixation","","","","","","","","","27","","",""
"revaluation","149","761908","0.0-4.0-2.0-0.14","spark_pilot_norest","8719","5","21","Female","","false","","","","","[1002.0999999046326]","./assets/img/canyon/catch/7.jpg","[""spaceBar""]","value training","canyon","0","{""ArrowUp,ArrowLeft"":26,""ArrowUp,ArrowRight"":10,""ArrowDown,ArrowLeft"":5,""ArrowDown,ArrowRight"":17}","true","spaceBar","true","original","1","28","","",""
"html-keyboard-response","150","762414","0.0-4.0-2.0-1.14","spark_pilot_norest","8719","5","21","Female","","","","","","","null","<div style=""font-size:60px;"">+</div>","null","fixation","","","","","","","","","29","","",""
"revaluation","151","768448","0.0-4.0-2.0-0.15","spark_pilot_norest","8719","5","21","Female","","false","","","","","[580.5,368.40000009536743]","./assets/img/canyon/memory/31.jpg","[""ArrowUp"",""ArrowLeft""]","value training","canyon","26","{""ArrowUp,ArrowLeft"":26,""ArrowUp,ArrowRight"":10,""ArrowDown,ArrowLeft"":5,""ArrowDown,ArrowRight"":17}","true","ArrowUp,ArrowLeft","false","original","1","30","","",""
"html-keyboard-response","152","768958","0.0-4.0-2.0-1.15","spark_pilot_norest","8719","5","21","Female","","","","","","","null","<div style=""font-size:60px;"">+</div>","null","fixation","","","","","","","","","31","","",""
"revaluation","153","774987","0.0-4.0-2.0-0.16","spark_pilot_norest","8719","5","21","Female","","false","","","","","[764.7999999523163,652.7999999523163]","./assets/img/canyon/memory/5.jpg","[""ArrowUp"",""ArrowLeft""]","value training","canyon","26","{""ArrowUp,ArrowLeft"":26,""ArrowUp,ArrowRight"":10,""ArrowDown,ArrowLeft"":5,""ArrowDown,ArrowRight"":17}","true","ArrowUp,ArrowLeft","false","original","1","32","","",""
"html-keyboard-response","154","775491","0.0-4.0-2.0-1.16","spark_pilot_norest","8719","5","21","Female","","","","","","","null","<div style=""font-size:60px;"">+</div>","null","fixation","","","","","","","","","33","","",""
"revaluation","155","781520","0.0-4.0-2.0-0.17","spark_pilot_norest","8719","5","21","Female","","false","","","","","[1011.2000000476837,350.90000009536743]","./assets/img/canyon/memory/3.jpg","[""ArrowUp"",""ArrowLeft""]","value training","canyon","26","{""ArrowUp,ArrowLeft"":26,""ArrowUp,ArrowRight"":10,""ArrowDown,ArrowLeft"":5,""ArrowDown,ArrowRight"":17}","true","ArrowUp,ArrowLeft","false","original","1","34","","",""
"html-keyboard-response","156","782026","0.0-4.0-2.0-1.17","spark_pilot_norest","8719","5","21","Female","","","","","","","null","<div style=""font-size:60px;"">+</div>","null","fixation","","","","","","","","","35","","",""
"revaluation","157","788051","0.0-4.0-2.0-0.18","spark_pilot_norest","8719","5","21","Female","","false","","","","","[557.3999998569489,314.40000009536743]","./assets/img/canyon/memory/20.jpg","[""ArrowUp"",""ArrowLeft""]","value training","canyon","26","{""ArrowUp,ArrowLeft"":26,""ArrowUp,ArrowRight"":10,""ArrowDown,ArrowLeft"":5,""ArrowDown,ArrowRight"":17}","true","ArrowUp,ArrowLeft","false","original","1","36","","",""
"html-keyboard-response","158","788559","0.0-4.0-2.0-1.18","spark_pilot_norest","8719","5","21","Female","","","","","","","null","<div style=""font-size:60px;"">+</div>","null","fixation","","","","","","","","","37","","",""
"revaluation","159","794589","0.0-4.0-2.0-0.19","spark_pilot_norest","8719","5","21","Female","","false","","","","","[1386.1000001430511,415.2999999523163]","./assets/img/canyon/memory/22.jpg","[""ArrowUp"",""ArrowLeft""]","value training","canyon","26","{""ArrowUp,ArrowLeft"":26,""ArrowUp,ArrowRight"":10,""ArrowDown,ArrowLeft"":5,""ArrowDown,ArrowRight"":17}","true","ArrowUp,ArrowLeft","false","original","1","38","","",""
"html-keyboard-response","160","795101","0.0-4.0-2.0-1.19","spark_pilot_norest","8719","5","21","Female","","","","","","","null","<div style=""font-size:60px;"">+</div>","null","fixation","","","","","","","","","39","","",""
"revaluation","161","801133","0.0-4.0-2.0-0.20","spark_pilot_norest","8719","5","21","Female","","false","","","","","[1533.5999999046326,1096.4000000953674]","./assets/img/canyon/memory/37.jpg","[""ArrowUp"",""ArrowLeft""]","value training","canyon","26","{""ArrowUp,ArrowLeft"":26,""ArrowUp,ArrowRight"":10,""ArrowDown,ArrowLeft"":5,""ArrowDown,ArrowRight"":17}","true","ArrowUp,ArrowLeft","false","original","1","40","","",""
"html-keyboard-response","162","801645","0.0-4.0-2.0-1.20","spark_pilot_norest","8719","5","21","Female","","","","","","","null","<div style=""font-size:60px;"">+</div>","null","fixation","","","","","","","","","41","","",""
"revaluation","163","805666","0.0-4.0-2.0-0.21","spark_pilot_norest","8719","5","21","Female","","false","","","","","[996.2000000476837]","./assets/img/canyon/catch/1.jpg","[""spaceBar""]","value training","canyon","0","{""ArrowUp,ArrowLeft"":26,""ArrowUp,ArrowRight"":10,""ArrowDown,ArrowLeft"":5,""ArrowDown,ArrowRight"":17}","true","spaceBar","true","original","1","42","","",""
"html-keyboard-response","164","806172","0.0-4.0-2.0-1.21","spark_pilot_norest","8719","5","21","Female","","","","","","","null","<div style=""font-size:60px;"">+</div>","null","fixation","","","","","","","","","43","","",""
"revaluation","165","812194","0.0-4.0-2.0-0.22","spark_pilot_norest","8719","5","21","Female","","false","","","","","[1107.3999998569489,1022.0999999046326]","./assets/img/canyon/memory/18.jpg","[""ArrowUp"",""ArrowLeft""]","value training","canyon","26","{""ArrowUp,ArrowLeft"":26,""ArrowUp,ArrowRight"":10,""ArrowDown,ArrowLeft"":5,""ArrowDown,ArrowRight"":17}","true","ArrowUp,ArrowLeft","false","original","1","44","","",""
"html-keyboard-response","166","812700","0.0-4.0-2.0-1.22","spark_pilot_norest","8719","5","21","Female","","","","","","","null","<div style=""font-size:60px;"">+</div>","null","fixation","","","","","","","","","45","","",""
"revaluation","167","818735","0.0-4.0-2.0-0.23","spark_pilot_norest","8719","5","21","Female","","false","","","","","[1099.2999999523163,658.3999998569489]","./assets/img/canyon/memory/16.jpg","[""ArrowUp"",""ArrowLeft""]","value training","canyon","26","{""ArrowUp,ArrowLeft"":26,""ArrowUp,ArrowRight"":10,""ArrowDown,ArrowLeft"":5,""ArrowDown,ArrowRight"":17}","true","ArrowUp,ArrowLeft","false","original","1","46","","",""
"html-keyboard-response","168","819244","0.0-4.0-2.0-1.23","spark_pilot_norest","8719","5","21","Female","","","","","","","null","<div style=""font-size:60px;"">+</div>","null","fixation","","","","","","","","","47","","",""
"revaluation","169","825276","0.0-4.0-2.0-0.24","spark_pilot_norest","8719","5","21","Female","","false","","","","","[1031.7000000476837,668.5]","./assets/img/canyon/memory/39.jpg","[""ArrowUp"",""ArrowLeft""]","value training","canyon","26","{""ArrowUp,ArrowLeft"":26,""ArrowUp,ArrowRight"":10,""ArrowDown,ArrowLeft"":5,""ArrowDown,ArrowRight"":17}","true","ArrowUp,ArrowLeft","false","original","1","48","","",""
"html-keyboard-response","170","825788","0.0-4.0-2.0-1.24","spark_pilot_norest","8719","5","21","Female","","","","","","","null","<div style=""font-size:60px;"">+</div>","null","fixation","","","","","","","","","49","","",""
"revaluation","171","829809","0.0-4.0-2.0-0.25","spark_pilot_norest","8719","5","21","Female","","false","","","","","[998.5999999046326]","./assets/img/canyon/catch/4.jpg","[""spaceBar""]","value training","canyon","0","{""ArrowUp,ArrowLeft"":26,""ArrowUp,ArrowRight"":10,""ArrowDown,ArrowLeft"":5,""ArrowDown,ArrowRight"":17}","true","spaceBar","true","original","1","50","","",""
"html-keyboard-response","172","830316","0.0-4.0-2.0-1.25","spark_pilot_norest","8719","5","21","Female","","","","","","","null","<div style=""font-size:60px;"">+</div>","null","fixation","","","","","","","","","51","","",""
"revaluation","173","836350","0.0-4.0-2.0-0.26","spark_pilot_norest","8719","5","21","Female","","false","","","","","[944.1000001430511,415.5]","./assets/img/canyon/memory/27.jpg","[""ArrowUp"",""ArrowLeft""]","value training","canyon","26","{""ArrowUp,ArrowLeft"":26,""ArrowUp,ArrowRight"":10,""ArrowDown,ArrowLeft"":5,""ArrowDown,ArrowRight"":17}","true","ArrowUp,ArrowLeft","false","original","1","52","","",""
"html-keyboard-response","174","836856","0.0-4.0-2.0-1.26","spark_pilot_norest","8719","5","21","Female","","","","","","","null","<div style=""font-size:60px;"">+</div>","null","fixation","","","","","","","","","53","","",""
"revaluation","175","842881","0.0-4.0-2.0-0.27","spark_pilot_norest","8719","5","21","Female","","false","","","","","[1063.3999998569489,422.90000009536743]","./assets/img/canyon/memory/22.jpg","[""ArrowUp"",""ArrowLeft""]","value training","canyon","26","{""ArrowUp,ArrowLeft"":26,""ArrowUp,ArrowRight"":10,""ArrowDown,ArrowLeft"":5,""ArrowDown,ArrowRight"":17}","true","ArrowUp,ArrowLeft","false","original","1","54","","",""
"html-keyboard-response","176","843384","0.0-4.0-2.0-1.27","spark_pilot_norest","8719","5","21","Female","","","","","","","null","<div style=""font-size:60px;"">+</div>","null","fixation","","","","","","","","","55","","",""
"revaluation","177","849411","0.0-4.0-2.0-0.28","spark_pilot_norest","8719","5","21","Female","","false","","","","","[858.8000001907349,466.2000000476837]","./assets/img/canyon/memory/28.jpg","[""ArrowUp"",""ArrowLeft""]","value training","canyon","26","{""ArrowUp,ArrowLeft"":26,""ArrowUp,ArrowRight"":10,""ArrowDown,ArrowLeft"":5,""ArrowDown,ArrowRight"":17}","true","ArrowUp,ArrowLeft","false","original","1","56","","",""
"html-keyboard-response","178","849920","0.0-4.0-2.0-1.28","spark_pilot_norest","8719","5","21","Female","","","","","","","null","<div style=""font-size:60px;"">+</div>","null","fixation","","","","","","","","","57","","",""
"revaluation","179","855948","0.0-4.0-2.0-0.29","spark_pilot_norest","8719","5","21","Female","","false","","","","","[405.7000000476837,477.59999990463257]","./assets/img/canyon/memory/2.jpg","[""ArrowUp"",""ArrowLeft""]","value training","canyon","26","{""ArrowUp,ArrowLeft"":26,""ArrowUp,ArrowRight"":10,""ArrowDown,ArrowLeft"":5,""ArrowDown,ArrowRight"":17}","true","ArrowUp,ArrowLeft","false","original","1","58","","",""
"html-keyboard-response","180","856458","0.0-4.0-2.0-1.29","spark_pilot_norest","8719","5","21","Female","","","","","","","null","<div style=""font-size:60px;"">+</div>","null","fixation","","","","","","","","","59","","",""
"revaluation","181","862481","0.0-4.0-2.0-0.30","spark_pilot_norest","8719","5","21","Female","","false","","","","","[936.5999999046326,754.9000000953674]","./assets/img/canyon/memory/2.jpg","[""ArrowUp"",""ArrowLeft""]","value training","canyon","26","{""ArrowUp,ArrowLeft"":26,""ArrowUp,ArrowRight"":10,""ArrowDown,ArrowLeft"":5,""ArrowDown,ArrowRight"":17}","true","ArrowUp,ArrowLeft","false","original","1","60","","",""
"html-keyboard-response","182","862984","0.0-4.0-2.0-1.30","spark_pilot_norest","8719","5","21","Female","","","","","","","null","<div style=""font-size:60px;"">+</div>","null","fixation","","","","","","","","","61","","",""
"revaluation","183","869008","0.0-4.0-2.0-0.31","spark_pilot_norest","8719","5","21","Female","","false","","","","","[1496.5,800.2999999523163]","./assets/img/canyon/memory/38.jpg","[""ArrowUp"",""ArrowLeft""]","value training","canyon","26","{""ArrowUp,ArrowLeft"":26,""ArrowUp,ArrowRight"":10,""ArrowDown,ArrowLeft"":5,""ArrowDown,ArrowRight"":17}","true","ArrowUp,ArrowLeft","false","original","1","62","","",""
"html-keyboard-response","184","869515","0.0-4.0-2.0-1.31","spark_pilot_norest","8719","5","21","Female","","","","","","","null","<div style=""font-size:60px;"">+</div>","null","fixation","","","","","","","","","63","","",""
"revaluation","185","875547","0.0-4.0-2.0-0.32","spark_pilot_norest","8719","5","21","Female","","false","","","","","[1112.5999999046326,655]","./assets/img/canyon/memory/23.jpg","[""ArrowUp"",""ArrowLeft""]","value training","canyon","26","{""ArrowUp,ArrowLeft"":26,""ArrowUp,ArrowRight"":10,""ArrowDown,ArrowLeft"":5,""ArrowDown,ArrowRight"":17}","true","ArrowUp,ArrowLeft","false","original","1","64","","",""
"html-keyboard-response","186","876058","0.0-4.0-2.0-1.32","spark_pilot_norest","8719","5","21","Female","","","","","","","null","<div style=""font-size:60px;"">+</div>","null","fixation","","","","","","","","","65","","",""
"revaluation","187","880080","0.0-4.0-2.0-0.33","spark_pilot_norest","8719","5","21","Female","","false","","","","","[954.3999998569489]","./assets/img/canyon/catch/3.jpg","[""spaceBar""]","value training","canyon","0","{""ArrowUp,ArrowLeft"":26,""ArrowUp,ArrowRight"":10,""ArrowDown,ArrowLeft"":5,""ArrowDown,ArrowRight"":17}","true","spaceBar","true","original","1","66","","",""
"html-keyboard-response","188","880586","0.0-4.0-2.0-1.33","spark_pilot_norest","8719","5","21","Female","","","","","","","null","<div style=""font-size:60px;"">+</div>","null","fixation","","","","","","","","","67","","",""
"revaluation","189","884608","0.0-4.0-2.0-0.34","spark_pilot_norest","8719","5","21","Female","","true","","","","","[]","./assets/img/canyon/memory/36.jpg","[]","value training","canyon","-5","{""ArrowUp,ArrowLeft"":26,""ArrowUp,ArrowRight"":10,""ArrowDown,ArrowLeft"":5,""ArrowDown,ArrowRight"":17}","false","","false","original","1","68","","",""
"html-keyboard-response","190","885114","0.0-4.0-2.0-1.34","spark_pilot_norest","8719","5","21","Female","","","","","","","null","<div style=""font-size:60px;"">+</div>","null","fixation","","","","","","","","","69","","",""
"revaluation","191","891146","0.0-4.0-2.0-0.35","spark_pilot_norest","8719","5","21","Female","","false","","","","","[855,481.39999985694885]","./assets/img/canyon/memory/3.jpg","[""ArrowUp"",""ArrowLeft""]","value training","canyon","26","{""ArrowUp,ArrowLeft"":26,""ArrowUp,ArrowRight"":10,""ArrowDown,ArrowLeft"":5,""ArrowDown,ArrowRight"":17}","true","ArrowUp,ArrowLeft","false","original","1","70","","",""
"html-keyboard-response","192","891657","0.0-4.0-2.0-1.35","spark_pilot_norest","8719","5","21","Female","","","","","","","null","<div style=""font-size:60px;"">+</div>","null","fixation","","","","","","","","","71","","",""
"revaluation","193","897680","0.0-4.0-2.0-0.36","spark_pilot_norest","8719","5","21","Female","","false","","","","","[1179.8999998569489,463.09999990463257]","./assets/img/canyon/memory/27.jpg","[""ArrowUp"",""ArrowLeft""]","value training","canyon","26","{""ArrowUp,ArrowLeft"":26,""ArrowUp,ArrowRight"":10,""ArrowDown,ArrowLeft"":5,""ArrowDown,ArrowRight"":17}","true","ArrowUp,ArrowLeft","false","original","1","72","","",""
"html-keyboard-response","194","898185","0.0-4.0-2.0-1.36","spark_pilot_norest","8719","5","21","Female","","","","","","","null","<div style=""font-size:60px;"">+</div>","null","fixation","","","","","","","","","73","","",""
"revaluation","195","904218","0.0-4.0-2.0-0.37","spark_pilot_norest","8719","5","21","Female","","false","","","","","[519.8000001907349,313.30000019073486]","./assets/img/canyon/memory/7.jpg","[""ArrowUp"",""ArrowLeft""]","value training","canyon","26","{""ArrowUp,ArrowLeft"":26,""ArrowUp,ArrowRight"":10,""ArrowDown,ArrowLeft"":5,""ArrowDown,ArrowRight"":17}","true","ArrowUp,ArrowLeft","false","original","1","74","","",""
"html-keyboard-response","196","904730","0.0-4.0-2.0-1.37","spark_pilot_norest","8719","5","21","Female","","","","","","","null","<div style=""font-size:60px;"">+</div>","null","fixation","","","","","","","","","75","","",""
"revaluation","197","910761","0.0-4.0-2.0-0.38","spark_pilot_norest","8719","5","21","Female","","false","","","","","[742,387.09999990463257]","./assets/img/canyon/memory/0.jpg","[""ArrowUp"",""ArrowLeft""]","value training","canyon","26","{""ArrowUp,ArrowLeft"":26,""ArrowUp,ArrowRight"":10,""ArrowDown,ArrowLeft"":5,""ArrowDown,ArrowRight"":17}","true","ArrowUp,ArrowLeft","false","original","1","76","","",""
"html-keyboard-response","198","911273","0.0-4.0-2.0-1.38","spark_pilot_norest","8719","5","21","Female","","","","","","","null","<div style=""font-size:60px;"">+</div>","null","fixation","","","","","","","","","77","","",""
"revaluation","199","915295","0.0-4.0-2.0-0.39","spark_pilot_norest","8719","5","21","Female","","false","","","","","[930.5999999046326]","./assets/img/canyon/catch/0.jpg","[""spaceBar""]","value training","canyon","0","{""ArrowUp,ArrowLeft"":26,""ArrowUp,ArrowRight"":10,""ArrowDown,ArrowLeft"":5,""ArrowDown,ArrowRight"":17}","true","spaceBar","true","original","1","78","","",""
"html-keyboard-response","200","915801","0.0-4.0-2.0-1.39","spark_pilot_norest","8719","5","21","Female","","","","","","","null","<div style=""font-size:60px;"">+</div>","null","fixation","","","","","","","","","79","","",""
"revaluation","201","921834","0.0-4.0-2.0-0.40","spark_pilot_norest","8719","5","21","Female","","false","","","","","[724.2999999523163,383.60000014305115]","./assets/img/canyon/memory/38.jpg","[""ArrowUp"",""ArrowLeft""]","value training","canyon","26","{""ArrowUp,ArrowLeft"":26,""ArrowUp,ArrowRight"":10,""ArrowDown,ArrowLeft"":5,""ArrowDown,ArrowRight"":17}","true","ArrowUp,ArrowLeft","false","original","1","80","","",""
"html-keyboard-response","202","922345","0.0-4.0-2.0-1.40","spark_pilot_norest","8719","5","21","Female","","","","","","","null","<div style=""font-size:60px;"">+</div>","null","fixation","","","","","","","","","81","","",""
"revaluation","203","928377","0.0-4.0-2.0-0.41","spark_pilot_norest","8719","5","21","Female","","false","","","","","[593.7999999523163,481.10000014305115]","./assets/img/canyon/memory/39.jpg","[""ArrowUp"",""ArrowLeft""]","value training","canyon","26","{""ArrowUp,ArrowLeft"":26,""ArrowUp,ArrowRight"":10,""ArrowDown,ArrowLeft"":5,""ArrowDown,ArrowRight"":17}","true","ArrowUp,ArrowLeft","false","original","1","82","","",""
"html-keyboard-response","204","928889","0.0-4.0-2.0-1.41","spark_pilot_norest","8719","5","21","Female","","","","","","","null","<div style=""font-size:60px;"">+</div>","null","fixation","","","","","","","","","83","","",""
"revaluation","205","932910","0.0-4.0-2.0-0.42","spark_pilot_norest","8719","5","21","Female","","false","","","","","[913.2999999523163]","./assets/img/canyon/catch/6.jpg","[""spaceBar""]","value training","canyon","0","{""ArrowUp,ArrowLeft"":26,""ArrowUp,ArrowRight"":10,""ArrowDown,ArrowLeft"":5,""ArrowDown,ArrowRight"":17}","true","spaceBar","true","original","1","84","","",""
"html-keyboard-response","206","933417","0.0-4.0-2.0-1.42","spark_pilot_norest","8719","5","21","Female","","","","","","","null","<div style=""font-size:60px;"">+</div>","null","fixation","","","","","","","","","85","","",""
"revaluation","207","939448","0.0-4.0-2.0-0.43","spark_pilot_norest","8719","5","21","Female","","false","","","","","[649.5,478.2000000476837]","./assets/img/canyon/memory/40.jpg","[""ArrowUp"",""ArrowLeft""]","value training","canyon","26","{""ArrowUp,ArrowLeft"":26,""ArrowUp,ArrowRight"":10,""ArrowDown,ArrowLeft"":5,""ArrowDown,ArrowRight"":17}","true","ArrowUp,ArrowLeft","false","original","1","86","","",""
"html-keyboard-response","208","939961","0.0-4.0-2.0-1.43","spark_pilot_norest","8719","5","21","Female","","","","","","","null","<div style=""font-size:60px;"">+</div>","null","fixation","","","","","","","","","87","","",""
"revaluation","209","945993","0.0-4.0-2.0-0.44","spark_pilot_norest","8719","5","21","Female","","false","","","","","[891,501.2000000476837]","./assets/img/canyon/memory/25.jpg","[""ArrowUp"",""ArrowLeft""]","value training","canyon","26","{""ArrowUp,ArrowLeft"":26,""ArrowUp,ArrowRight"":10,""ArrowDown,ArrowLeft"":5,""ArrowDown,ArrowRight"":17}","true","ArrowUp,ArrowLeft","false","original","1","88","","",""
"html-keyboard-response","210","946504","0.0-4.0-2.0-1.44","spark_pilot_norest","8719","5","21","Female","","","","","","","null","<div style=""font-size:60px;"">+</div>","null","fixation","","","","","","","","","89","","",""
"revaluation","211","952536","0.0-4.0-2.0-0.45","spark_pilot_norest","8719","5","21","Female","","false","","","","","[811.1999998092651,996.5999999046326]","./assets/img/canyon/memory/25.jpg","[""ArrowUp"",""ArrowLeft""]","value training","canyon","26","{""ArrowUp,ArrowLeft"":26,""ArrowUp,ArrowRight"":10,""ArrowDown,ArrowLeft"":5,""ArrowDown,ArrowRight"":17}","true","ArrowUp,ArrowLeft","false","original","1","90","","",""
"html-keyboard-response","212","953048","0.0-4.0-2.0-1.45","spark_pilot_norest","8719","5","21","Female","","","","","","","null","<div style=""font-size:60px;"">+</div>","null","fixation","","","","","","","","","91","","",""
"revaluation","213","959079","0.0-4.0-2.0-0.46","spark_pilot_norest","8719","5","21","Female","","false","","","","","[765.7000000476837,895]","./assets/img/canyon/memory/40.jpg","[""ArrowUp"",""ArrowLeft""]","value training","canyon","26","{""ArrowUp,ArrowLeft"":26,""ArrowUp,ArrowRight"":10,""ArrowDown,ArrowLeft"":5,""ArrowDown,ArrowRight"":17}","true","ArrowUp,ArrowLeft","false","original","1","92","","",""
"html-keyboard-response","214","959591","0.0-4.0-2.0-1.46","spark_pilot_norest","8719","5","21","Female","","","","","","","null","<div style=""font-size:60px;"">+</div>","null","fixation","","","","","","","","","93","","",""
"revaluation","215","965613","0.0-4.0-2.0-0.47","spark_pilot_norest","8719","5","21","Female","","false","","","","","[1077.0999999046326,970.8999998569489]","./assets/img/canyon/memory/28.jpg","[""ArrowUp"",""ArrowLeft""]","value training","canyon","26","{""ArrowUp,ArrowLeft"":26,""ArrowUp,ArrowRight"":10,""ArrowDown,ArrowLeft"":5,""ArrowDown,ArrowRight"":17}","true","ArrowUp,ArrowLeft","false","original","1","94","","",""
"html-keyboard-response","216","966122","0.0-4.0-2.0-1.47","spark_pilot_norest","8719","5","21","Female","","","","","","","null","<div style=""font-size:60px;"">+</div>","null","fixation","","","","","","","","","95","","",""
"revaluation","217","972152","0.0-4.0-2.0-0.48","spark_pilot_norest","8719","5","21","Female","","false","","","","","[710.2000000476837,391]","./assets/img/canyon/memory/7.jpg","[""ArrowUp"",""ArrowLeft""]","value training","canyon","26","{""ArrowUp,ArrowLeft"":26,""ArrowUp,ArrowRight"":10,""ArrowDown,ArrowLeft"":5,""ArrowDown,ArrowRight"":17}","true","ArrowUp,ArrowLeft","false","original","1","96","","",""
"html-keyboard-response","218","972663","0.0-4.0-2.0-1.48","spark_pilot_norest","8719","5","21","Female","","","","","","","null","<div style=""font-size:60px;"">+</div>","null","fixation","","","","","","","","","97","","",""
"revaluation","219","976685","0.0-4.0-2.0-0.49","spark_pilot_norest","8719","5","21","Female","","false","","","","","[918.8999998569489]","./assets/img/canyon/catch/5.jpg","[""spaceBar""]","value training","canyon","0","{""ArrowUp,ArrowLeft"":26,""ArrowUp,ArrowRight"":10,""ArrowDown,ArrowLeft"":5,""ArrowDown,ArrowRight"":17}","true","spaceBar","true","original","1","98","","",""
"html-keyboard-response","220","977192","0.0-4.0-2.0-1.49","spark_pilot_norest","8719","5","21","Female","","","","","","","null","<div style=""font-size:60px;"">+</div>","null","fixation","","","","","","","","","99","","",""
"learning-instructions","221","992523","0.0-4.0-3.0-0.0","spark_pilot_norest","8719","5","21","Female","","","","","","","2409.9000000953674","<p> Now, you will travel with a friend who will choose whether you go up or down first. </p>
            <p> On these turns, you will just see the animal that they found. You will still get to choose which chest to search for treasure.</p>","","instructions","","","","","","","","","","","",""
"revaluation","222","996540","0.0-4.0-4.0-0.0","spark_pilot_norest","8719","5","21","Female","","false","","","","","[591.7000000476837]","./assets/img/canyon/animals/lion.jpg","[""ArrowLeft""]","revaluation","canyon","26","{""ArrowUp,ArrowLeft"":26,""ArrowUp,ArrowRight"":10,""ArrowDown,ArrowLeft"":5,""ArrowDown,ArrowRight"":17}","true","ArrowUp,ArrowLeft","","original","1","0","","",""
"html-keyboard-response","223","997056","0.0-4.0-4.0-1.0","spark_pilot_norest","8719","5","21","Female","","","","","","","null","<div style=""font-size:60px;"">+</div>","null","fixation","","","","","","","","","1","","",""
"revaluation","224","1001077","0.0-4.0-4.0-0.1","spark_pilot_norest","8719","5","21","Female","","false","","","","","[823.7999999523163]","./assets/img/canyon/animals/lion.jpg","[""ArrowLeft""]","revaluation","canyon","26","{""ArrowUp,ArrowLeft"":26,""ArrowUp,ArrowRight"":10,""ArrowDown,ArrowLeft"":5,""ArrowDown,ArrowRight"":17}","true","ArrowUp,ArrowLeft","","original","1","2","","",""
"html-keyboard-response","225","1001589","0.0-4.0-4.0-1.1","spark_pilot_norest","8719","5","21","Female","","","","","","","null","<div style=""font-size:60px;"">+</div>","null","fixation","","","","","","","","","3","","",""
"revaluation","226","1005604","0.0-4.0-4.0-0.2","spark_pilot_norest","8719","5","21","Female","","false","","","","","[587.5]","./assets/img/canyon/animals/giraffe.jpg","[""ArrowLeft""]","revaluation","canyon","5","{""ArrowUp,ArrowLeft"":26,""ArrowUp,ArrowRight"":10,""ArrowDown,ArrowLeft"":5,""ArrowDown,ArrowRight"":17}","false","ArrowDown,ArrowLeft","","original","1","4","","",""
"html-keyboard-response","227","1006111","0.0-4.0-4.0-1.2","spark_pilot_norest","8719","5","21","Female","","","","","","","null","<div style=""font-size:60px;"">+</div>","null","fixation","","","","","","","","","5","","",""
"revaluation","228","1010131","0.0-4.0-4.0-0.3","spark_pilot_norest","8719","5","21","Female","","false","","","","","[624.5999999046326]","./assets/img/canyon/animals/giraffe.jpg","[""ArrowRight""]","revaluation","canyon","17","{""ArrowUp,ArrowLeft"":26,""ArrowUp,ArrowRight"":10,""ArrowDown,ArrowLeft"":5,""ArrowDown,ArrowRight"":17}","true","ArrowDown,ArrowRight","","original","1","6","","",""
"html-keyboard-response","229","1010639","0.0-4.0-4.0-1.3","spark_pilot_norest","8719","5","21","Female","","","","","","","null","<div style=""font-size:60px;"">+</div>","null","fixation","","","","","","","","","7","","",""
"revaluation","230","1014661","0.0-4.0-4.0-0.4","spark_pilot_norest","8719","5","21","Female","","false","","","","","[789]","./assets/img/canyon/animals/giraffe.jpg","[""ArrowRight""]","revaluation","canyon","17","{""ArrowUp,ArrowLeft"":26,""ArrowUp,ArrowRight"":10,""ArrowDown,ArrowLeft"":5,""ArrowDown,ArrowRight"":17}","true","ArrowDown,ArrowRight","","original","1","8","","",""
"html-keyboard-response","231","1015165","0.0-4.0-4.0-1.4","spark_pilot_norest","8719","5","21","Female","","","","","","","null","<div style=""font-size:60px;"">+</div>","null","fixation","","","","","","","","","9","","",""
"revaluation","232","1019183","0.0-4.0-4.0-0.5","spark_pilot_norest","8719","5","21","Female","","false","","","","","[755.5999999046326]","./assets/img/canyon/animals/lion.jpg","[""ArrowLeft""]","revaluation","canyon","26","{""ArrowUp,ArrowLeft"":26,""ArrowUp,ArrowRight"":10,""ArrowDown,ArrowLeft"":5,""ArrowDown,ArrowRight"":17}","true","ArrowUp,ArrowLeft","","original","1","10","","",""
"html-keyboard-response","233","1019691","0.0-4.0-4.0-1.5","spark_pilot_norest","8719","5","21","Female","","","","","","","null","<div style=""font-size:60px;"">+</div>","null","fixation","","","","","","","","","11","","",""
"revaluation","234","1023707","0.0-4.0-4.0-0.6","spark_pilot_norest","8719","5","21","Female","","false","","","","","[819.4000000953674]","./assets/img/canyon/animals/lion.jpg","[""ArrowLeft""]","revaluation","canyon","26","{""ArrowUp,ArrowLeft"":26,""ArrowUp,ArrowRight"":10,""ArrowDown,ArrowLeft"":5,""ArrowDown,ArrowRight"":17}","true","ArrowUp,ArrowLeft","","original","1","12","","",""
"html-keyboard-response","235","1024213","0.0-4.0-4.0-1.6","spark_pilot_norest","8719","5","21","Female","","","","","","","null","<div style=""font-size:60px;"">+</div>","null","fixation","","","","","","","","","13","","",""
"revaluation","236","1028230","0.0-4.0-4.0-0.7","spark_pilot_norest","8719","5","21","Female","","false","","","","","[707.1000001430511]","./assets/img/canyon/animals/giraffe.jpg","[""ArrowRight""]","revaluation","canyon","17","{""ArrowUp,ArrowLeft"":26,""ArrowUp,ArrowRight"":10,""ArrowDown,ArrowLeft"":5,""ArrowDown,ArrowRight"":17}","true","ArrowDown,ArrowRight","","original","1","14","","",""
"html-keyboard-response","237","1028740","0.0-4.0-4.0-1.7","spark_pilot_norest","8719","5","21","Female","","","","","","","null","<div style=""font-size:60px;"">+</div>","null","fixation","","","","","","","","","15","","",""
"revaluation","238","1032758","0.0-4.0-4.0-0.8","spark_pilot_norest","8719","5","21","Female","","false","","","","","[827.7999999523163]","./assets/img/canyon/animals/giraffe.jpg","[""ArrowRight""]","revaluation","canyon","17","{""ArrowUp,ArrowLeft"":26,""ArrowUp,ArrowRight"":10,""ArrowDown,ArrowLeft"":5,""ArrowDown,ArrowRight"":17}","true","ArrowDown,ArrowRight","","original","1","16","","",""
"html-keyboard-response","239","1033269","0.0-4.0-4.0-1.8","spark_pilot_norest","8719","5","21","Female","","","","","","","null","<div style=""font-size:60px;"">+</div>","null","fixation","","","","","","","","","17","","",""
"revaluation","240","1037291","0.0-4.0-4.0-0.9","spark_pilot_norest","8719","5","21","Female","","false","","","","","[665.2000000476837]","./assets/img/canyon/animals/giraffe.jpg","[""ArrowRight""]","revaluation","canyon","17","{""ArrowUp,ArrowLeft"":26,""ArrowUp,ArrowRight"":10,""ArrowDown,ArrowLeft"":5,""ArrowDown,ArrowRight"":17}","true","ArrowDown,ArrowRight","","original","1","18","","",""
"html-keyboard-response","241","1037797","0.0-4.0-4.0-1.9","spark_pilot_norest","8719","5","21","Female","","","","","","","null","<div style=""font-size:60px;"">+</div>","null","fixation","","","","","","","","","19","","",""
"revaluation","242","1041819","0.0-4.0-4.0-0.10","spark_pilot_norest","8719","5","21","Female","","false","","","","","[918.7000000476837]","./assets/img/canyon/animals/lion.jpg","[""ArrowLeft""]","revaluation","canyon","26","{""ArrowUp,ArrowLeft"":26,""ArrowUp,ArrowRight"":10,""ArrowDown,ArrowLeft"":5,""ArrowDown,ArrowRight"":17}","true","ArrowUp,ArrowLeft","","original","1","20","","",""
"html-keyboard-response","243","1042325","0.0-4.0-4.0-1.10","spark_pilot_norest","8719","5","21","Female","","","","","","","null","<div style=""font-size:60px;"">+</div>","null","fixation","","","","","","","","","21","","",""
"revaluation","244","1046346","0.0-4.0-4.0-0.11","spark_pilot_norest","8719","5","21","Female","","false","","","","","[1307.7000000476837]","./assets/img/canyon/animals/lion.jpg","[""ArrowLeft""]","revaluation","canyon","26","{""ArrowUp,ArrowLeft"":26,""ArrowUp,ArrowRight"":10,""ArrowDown,ArrowLeft"":5,""ArrowDown,ArrowRight"":17}","true","ArrowUp,ArrowLeft","","original","1","22","","",""
"html-keyboard-response","245","1046852","0.0-4.0-4.0-1.11","spark_pilot_norest","8719","5","21","Female","","","","","","","null","<div style=""font-size:60px;"">+</div>","null","fixation","","","","","","","","","23","","",""
"revaluation","246","1050868","0.0-4.0-4.0-0.12","spark_pilot_norest","8719","5","21","Female","","false","","","","","[657.6000001430511]","./assets/img/canyon/animals/lion.jpg","[""ArrowLeft""]","revaluation","canyon","26","{""ArrowUp,ArrowLeft"":26,""ArrowUp,ArrowRight"":10,""ArrowDown,ArrowLeft"":5,""ArrowDown,ArrowRight"":17}","true","ArrowUp,ArrowLeft","","original","1","24","","",""
"html-keyboard-response","247","1051380","0.0-4.0-4.0-1.12","spark_pilot_norest","8719","5","21","Female","","","","","","","null","<div style=""font-size:60px;"">+</div>","null","fixation","","","","","","","","","25","","",""
"revaluation","248","1055402","0.0-4.0-4.0-0.13","spark_pilot_norest","8719","5","21","Female","","false","","","","","[797.8999998569489]","./assets/img/canyon/animals/giraffe.jpg","[""ArrowRight""]","revaluation","canyon","17","{""ArrowUp,ArrowLeft"":26,""ArrowUp,ArrowRight"":10,""ArrowDown,ArrowLeft"":5,""ArrowDown,ArrowRight"":17}","true","ArrowDown,ArrowRight","","original","1","26","","",""
"html-keyboard-response","249","1055908","0.0-4.0-4.0-1.13","spark_pilot_norest","8719","5","21","Female","","","","","","","null","<div style=""font-size:60px;"">+</div>","null","fixation","","","","","","","","","27","","",""
"revaluation","250","1059930","0.0-4.0-4.0-0.14","spark_pilot_norest","8719","5","21","Female","","false","","","","","[693]","./assets/img/canyon/animals/giraffe.jpg","[""ArrowRight""]","revaluation","canyon","17","{""ArrowUp,ArrowLeft"":26,""ArrowUp,ArrowRight"":10,""ArrowDown,ArrowLeft"":5,""ArrowDown,ArrowRight"":17}","true","ArrowDown,ArrowRight","","original","1","28","","",""
"html-keyboard-response","251","1060436","0.0-4.0-4.0-1.14","spark_pilot_norest","8719","5","21","Female","","","","","","","null","<div style=""font-size:60px;"">+</div>","null","fixation","","","","","","","","","29","","",""
"revaluation","252","1064453","0.0-4.0-4.0-0.15","spark_pilot_norest","8719","5","21","Female","","false","","","","","[815.7000000476837]","./assets/img/canyon/animals/lion.jpg","[""ArrowLeft""]","revaluation","canyon","26","{""ArrowUp,ArrowLeft"":26,""ArrowUp,ArrowRight"":10,""ArrowDown,ArrowLeft"":5,""ArrowDown,ArrowRight"":17}","true","ArrowUp,ArrowLeft","","original","1","30","","",""
"html-keyboard-response","253","1064964","0.0-4.0-4.0-1.15","spark_pilot_norest","8719","5","21","Female","","","","","","","null","<div style=""font-size:60px;"">+</div>","null","fixation","","","","","","","","","31","","",""
"revaluation","254","1068977","0.0-4.0-4.0-0.16","spark_pilot_norest","8719","5","21","Female","","true","","","","","[]","./assets/img/canyon/animals/giraffe.jpg","[]","revaluation","canyon","-5","{""ArrowUp,ArrowLeft"":26,""ArrowUp,ArrowRight"":10,""ArrowDown,ArrowLeft"":5,""ArrowDown,ArrowRight"":17}","false","ArrowDown","","original","1","32","","",""
"html-keyboard-response","255","1069481","0.0-4.0-4.0-1.16","spark_pilot_norest","8719","5","21","Female","","","","","","","null","<div style=""font-size:60px;"">+</div>","null","fixation","","","","","","","","","33","","",""
"revaluation","256","1073498","0.0-4.0-4.0-0.17","spark_pilot_norest","8719","5","21","Female","","false","","","","","[611.5]","./assets/img/canyon/animals/lion.jpg","[""ArrowLeft""]","revaluation","canyon","26","{""ArrowUp,ArrowLeft"":26,""ArrowUp,ArrowRight"":10,""ArrowDown,ArrowLeft"":5,""ArrowDown,ArrowRight"":17}","true","ArrowUp,ArrowLeft","","original","1","34","","",""
"html-keyboard-response","257","1074003","0.0-4.0-4.0-1.17","spark_pilot_norest","8719","5","21","Female","","","","","","","null","<div style=""font-size:60px;"">+</div>","null","fixation","","","","","","","","","35","","",""
"learning-instructions","258","1082153","0.0-4.0-5.0-0.0","spark_pilot_norest","8719","5","21","Female","","","","","","","null","<p> You have almost finished this part of the game! </p>
            <p> We are going to ask you to make a few more choices. </p>","","instructions","","","","","","","","","","","",""
"learning-instructions","259","1098130","0.0-4.0-5.0-0.1","spark_pilot_norest","8719","5","21","Female","","","","","","","null","<p> First, you need to decide whether to go up or down. When you see each picture, use the arrow keys to make your choice. </p>
            <p><b>You will not see which animal you found, but try to get to the one that will give you the most treasure.</b></p>","","instructions","","","","","","","","","","","",""
"html-keyboard-response","260","1099139","0.0-4.0-6.0-0.0","spark_pilot_norest","8719","5","21","Female","","","","","","","null","<div style=""font-size:100px;color:red;"">Starting in...</div>","null","","","","","","","","","","","","",""
"html-keyboard-response","261","1100146","0.0-4.0-6.0-1.0","spark_pilot_norest","8719","5","21","Female","","","","","","","null","<div style=""font-size:200px;color:red;"">3</div>","null","","","","","","","","","","","","",""
"html-keyboard-response","262","1101154","0.0-4.0-6.0-2.0","spark_pilot_norest","8719","5","21","Female","","","","","","","null","<div style=""font-size:200px;color:red;"">2</div>","null","","","","","","","","","","","","",""
"html-keyboard-response","263","1102162","0.0-4.0-6.0-3.0","spark_pilot_norest","8719","5","21","Female","","","","","","","null","<div style=""font-size:200px;color:red;"">1</div>","null","","","","","","","","","","","","",""
"revaluation","264","1102794","0.0-4.0-7.0-0.0","spark_pilot_norest","8719","5","21","Female","","false","","","","","[627.9000000953674]","./assets/img/canyon/test/2.jpg","[""ArrowUp""]","first stage test","canyon","0","{""ArrowUp,ArrowLeft"":26,""ArrowUp,ArrowRight"":10,""ArrowDown,ArrowLeft"":5,""ArrowDown,ArrowRight"":17}","true","ArrowUp","false","original","1","","","",""
"html-keyboard-response","265","1103298","0.0-4.0-7.0-1.0","spark_pilot_norest","8719","5","21","Female","","","","","","","null","<div style=""font-size:60px;"">+</div>","null","fixation","","","","","","","","","","","",""
"revaluation","266","1104040","0.0-4.0-7.0-0.1","spark_pilot_norest","8719","5","21","Female","","false","","","","","[737.3000001907349]","./assets/img/canyon/test/1.jpg","[""ArrowUp""]","first stage test","canyon","0","{""ArrowUp,ArrowLeft"":26,""ArrowUp,ArrowRight"":10,""ArrowDown,ArrowLeft"":5,""ArrowDown,ArrowRight"":17}","true","ArrowUp","false","original","1","","","",""
"html-keyboard-response","267","1104547","0.0-4.0-7.0-1.1","spark_pilot_norest","8719","5","21","Female","","","","","","","null","<div style=""font-size:60px;"">+</div>","null","fixation","","","","","","","","","","","",""
"revaluation","268","1104955","0.0-4.0-7.0-0.2","spark_pilot_norest","8719","5","21","Female","","false","","","","","[403.5]","./assets/img/canyon/test/3.jpg","[""ArrowUp""]","first stage test","canyon","0","{""ArrowUp,ArrowLeft"":26,""ArrowUp,ArrowRight"":10,""ArrowDown,ArrowLeft"":5,""ArrowDown,ArrowRight"":17}","true","ArrowUp","false","original","1","","","",""
"html-keyboard-response","269","1105458","0.0-4.0-7.0-1.2","spark_pilot_norest","8719","5","21","Female","","","","","","","null","<div style=""font-size:60px;"">+</div>","null","fixation","","","","","","","","","","","",""
"revaluation","270","1105809","0.0-4.0-7.0-0.3","spark_pilot_norest","8719","5","21","Female","","false","","","","","[346.90000009536743]","./assets/img/canyon/test/0.jpg","[""ArrowUp""]","first stage test","canyon","0","{""ArrowUp,ArrowLeft"":26,""ArrowUp,ArrowRight"":10,""ArrowDown,ArrowLeft"":5,""ArrowDown,ArrowRight"":17}","true","ArrowUp","false","original","1","","","",""
"html-keyboard-response","271","1106313","0.0-4.0-7.0-1.3","spark_pilot_norest","8719","5","21","Female","","","","","","","null","<div style=""font-size:60px;"">+</div>","null","fixation","","","","","","","","","","","",""
"learning-instructions","272","1119660","0.0-4.0-8.0-0.0","spark_pilot_norest","8719","5","21","Female","","","","","","","null","<p> Now you will see the animals again and can search their chests for treasure. </p>
            <p> This time, you will not see how much treasure you earned, but you will earn more bonus money for making better choices. </p>","","instructions","","","","","","","","","","","",""
"html-keyboard-response","273","1120664","0.0-4.0-9.0-0.0","spark_pilot_norest","8719","5","21","Female","","","","","","","null","<div style=""font-size:100px;color:red;"">Starting in...</div>","null","","","","","","","","","","","","",""
"html-keyboard-response","274","1121671","0.0-4.0-9.0-1.0","spark_pilot_norest","8719","5","21","Female","","","","","","","null","<div style=""font-size:200px;color:red;"">3</div>","null","","","","","","","","","","","","",""
"html-keyboard-response","275","1122680","0.0-4.0-9.0-2.0","spark_pilot_norest","8719","5","21","Female","","","","","","","null","<div style=""font-size:200px;color:red;"">2</div>","null","","","","","","","","","","","","",""
"html-keyboard-response","276","1123692","0.0-4.0-9.0-3.0","spark_pilot_norest","8719","5","21","Female","","","","","","","null","<div style=""font-size:200px;color:red;"">1</div>","null","","","","","","","","","","","","",""
"revaluation","277","1124432","0.0-4.0-10.0-0.0","spark_pilot_norest","8719","5","21","Female","","false","","","","","[735.7000000476837]","./assets/img/canyon/animals/lion.jpg","[""ArrowLeft""]","second stage test","canyon","0","{""ArrowUp,ArrowLeft"":26,""ArrowUp,ArrowRight"":10,""ArrowDown,ArrowLeft"":5,""ArrowDown,ArrowRight"":17}","true","ArrowUp,ArrowLeft","","original","1","","","",""
"html-keyboard-response","278","1124940","0.0-4.0-10.0-1.0","spark_pilot_norest","8719","5","21","Female","","","","","","","null","<div style=""font-size:60px;"">+</div>","null","fixation","","","","","","","","","","","",""
"revaluation","279","1125616","0.0-4.0-10.0-0.1","spark_pilot_norest","8719","5","21","Female","","false","","","","","[671.6999998092651]","./assets/img/canyon/animals/lion.jpg","[""ArrowLeft""]","second stage test","canyon","0","{""ArrowUp,ArrowLeft"":26,""ArrowUp,ArrowRight"":10,""ArrowDown,ArrowLeft"":5,""ArrowDown,ArrowRight"":17}","true","ArrowUp,ArrowLeft","","original","1","","","",""
"html-keyboard-response","280","1126121","0.0-4.0-10.0-1.1","spark_pilot_norest","8719","5","21","Female","","","","","","","null","<div style=""font-size:60px;"">+</div>","null","fixation","","","","","","","","","","","",""
"revaluation","281","1127905","0.0-4.0-10.0-0.2","spark_pilot_norest","8719","5","21","Female","","false","","","","","[1781.1000001430511]","./assets/img/canyon/animals/lion.jpg","[""ArrowLeft""]","second stage test","canyon","0","{""ArrowUp,ArrowLeft"":26,""ArrowUp,ArrowRight"":10,""ArrowDown,ArrowLeft"":5,""ArrowDown,ArrowRight"":17}","true","ArrowUp,ArrowLeft","","original","1","","","",""
"html-keyboard-response","282","1128409","0.0-4.0-10.0-1.2","spark_pilot_norest","8719","5","21","Female","","","","","","","null","<div style=""font-size:60px;"">+</div>","null","fixation","","","","","","","","","","","",""
"revaluation","283","1129098","0.0-4.0-10.0-0.3","spark_pilot_norest","8719","5","21","Female","","false","","","","","[685]","./assets/img/canyon/animals/lion.jpg","[""ArrowLeft""]","second stage test","canyon","0","{""ArrowUp,ArrowLeft"":26,""ArrowUp,ArrowRight"":10,""ArrowDown,ArrowLeft"":5,""ArrowDown,ArrowRight"":17}","true","ArrowUp,ArrowLeft","","original","1","","","",""
"html-keyboard-response","284","1129600","0.0-4.0-10.0-1.3","spark_pilot_norest","8719","5","21","Female","","","","","","","null","<div style=""font-size:60px;"">+</div>","null","fixation","","","","","","","","","","","",""
"revaluation","285","1130260","0.0-4.0-10.0-0.4","spark_pilot_norest","8719","5","21","Female","","false","","","","","[655.4000000953674]","./assets/img/canyon/animals/giraffe.jpg","[""ArrowRight""]","second stage test","canyon","0","{""ArrowUp,ArrowLeft"":26,""ArrowUp,ArrowRight"":10,""ArrowDown,ArrowLeft"":5,""ArrowDown,ArrowRight"":17}","true","ArrowDown,ArrowRight","","original","1","","","",""
"html-keyboard-response","286","1130768","0.0-4.0-10.0-1.4","spark_pilot_norest","8719","5","21","Female","","","","","","","null","<div style=""font-size:60px;"">+</div>","null","fixation","","","","","","","","","","","",""
"revaluation","287","1131428","0.0-4.0-10.0-0.5","spark_pilot_norest","8719","5","21","Female","","false","","","","","[655.3000001907349]","./assets/img/canyon/animals/giraffe.jpg","[""ArrowRight""]","second stage test","canyon","0","{""ArrowUp,ArrowLeft"":26,""ArrowUp,ArrowRight"":10,""ArrowDown,ArrowLeft"":5,""ArrowDown,ArrowRight"":17}","true","ArrowDown,ArrowRight","","original","1","","","",""
"html-keyboard-response","288","1131939","0.0-4.0-10.0-1.5","spark_pilot_norest","8719","5","21","Female","","","","","","","null","<div style=""font-size:60px;"">+</div>","null","fixation","","","","","","","","","","","",""
"revaluation","289","1132409","0.0-4.0-10.0-0.6","spark_pilot_norest","8719","5","21","Female","","false","","","","","[465.10000014305115]","./assets/img/canyon/animals/giraffe.jpg","[""ArrowRight""]","second stage test","canyon","0","{""ArrowUp,ArrowLeft"":26,""ArrowUp,ArrowRight"":10,""ArrowDown,ArrowLeft"":5,""ArrowDown,ArrowRight"":17}","true","ArrowDown,ArrowRight","","original","1","","","",""
"html-keyboard-response","290","1132912","0.0-4.0-10.0-1.6","spark_pilot_norest","8719","5","21","Female","","","","","","","null","<div style=""font-size:60px;"">+</div>","null","fixation","","","","","","","","","","","",""
"revaluation","291","1133335","0.0-4.0-10.0-0.7","spark_pilot_norest","8719","5","21","Female","","false","","","","","[417.89999985694885]","./assets/img/canyon/animals/giraffe.jpg","[""ArrowRight""]","second stage test","canyon","0","{""ArrowUp,ArrowLeft"":26,""ArrowUp,ArrowRight"":10,""ArrowDown,ArrowLeft"":5,""ArrowDown,ArrowRight"":17}","true","ArrowDown,ArrowRight","","original","1","","","",""
"html-keyboard-response","292","1133839","0.0-4.0-10.0-1.7","spark_pilot_norest","8719","5","21","Female","","","","","","","null","<div style=""font-size:60px;"">+</div>","null","fixation","","","","","","","","","","","",""
"learning-instructions","293","1139077","0.0-4.0-0.1-0.2","spark_pilot_norest","8719","5","21","Female","","","","","","","2521.0999999046326","<p> This time you are searching for treasure in the <b>ocean</b>.</p>","","instructions","","","","","","","","","","","",""
"learning-instructions","294","1291948","0.0-4.0-0.1-0.3","spark_pilot_norest","8719","5","21","Female","","","","","","","135620.59999990463","<p><b>New</b> animals with <b>new</b> treasure chests live here. You need to explore to discover where the animal with the best treasure chest is.</p>
                    <p> Like before, once you figure out which animal has the chest with the most treasure, you should try to get to that animal and select that chest! </p>","","instructions","","","","","","","","","","","",""
"learning-instructions","295","1307364","0.0-4.0-1.1-0.1","spark_pilot_norest","8719","5","21","Female","","","","","","","648.2999999523163","<p> Remember, when you see a picture of the place, use the up and down keys to <b>find an animal</b>.</p>
            <p> When you encounter an animal, you should use the left and right keys to <b>select a treasure chest</b>.</p>
            <p> Don't forget to look out for the robber! </p>","","instructions","","","","","","","","","","","",""
"revaluation","296","1313387","0.0-4.0-2.1-0.50","spark_pilot_norest","8719","5","21","Female","","false","","","","","[999.2999999523163,792]","./assets/img/ocean/memory/36.jpg","[""ArrowUp"",""ArrowRight""]","value training","ocean","10","{""ArrowUp,ArrowLeft"":23,""ArrowUp,ArrowRight"":10,""ArrowDown,ArrowLeft"":8,""ArrowDown,ArrowRight"":30}","false","ArrowUp,ArrowRight","false","revaluation","2","0","","",""
"html-keyboard-response","297","1313893","0.0-4.0-2.1-1.50","spark_pilot_norest","8719","5","21","Female","","","","","","","null","<div style=""font-size:60px;"">+</div>","null","fixation","","","","","","","","","1","","",""
"revaluation","298","1317914","0.0-4.0-2.1-0.51","spark_pilot_norest","8719","5","21","Female","","false","","","","","[322.7999999523163]","./assets/img/ocean/catch/0.jpg","[""ArrowUp""]","value training","ocean","-10","{""ArrowUp,ArrowLeft"":23,""ArrowUp,ArrowRight"":10,""ArrowDown,ArrowLeft"":8,""ArrowDown,ArrowRight"":30}","false","ArrowUp","true","revaluation","2","2","","",""
"html-keyboard-response","299","1318421","0.0-4.0-2.1-1.51","spark_pilot_norest","8719","5","21","Female","","","","","","","null","<div style=""font-size:60px;"">+</div>","null","fixation","","","","","","","","","3","","",""
"revaluation","300","1324443","0.0-4.0-2.1-0.52","spark_pilot_norest","8719","5","21","Female","","false","","","","","[569.5,367.2000000476837]","./assets/img/ocean/memory/16.jpg","[""ArrowUp"",""ArrowLeft""]","value training","ocean","23","{""ArrowUp,ArrowLeft"":23,""ArrowUp,ArrowRight"":10,""ArrowDown,ArrowLeft"":8,""ArrowDown,ArrowRight"":30}","false","ArrowUp,ArrowLeft","false","revaluation","2","4","","",""
"html-keyboard-response","301","1324945","0.0-4.0-2.1-1.52","spark_pilot_norest","8719","5","21","Female","","","","","","","null","<div style=""font-size:60px;"">+</div>","null","fixation","","","","","","","","","5","","",""
"revaluation","302","1330970","0.0-4.0-2.1-0.53","spark_pilot_norest","8719","5","21","Female","","false","","","","","[706.2999999523163,701.4000000953674]","./assets/img/ocean/memory/36.jpg","[""ArrowDown"",""ArrowRight""]","value training","ocean","30","{""ArrowUp,ArrowLeft"":23,""ArrowUp,ArrowRight"":10,""ArrowDown,ArrowLeft"":8,""ArrowDown,ArrowRight"":30}","true","ArrowDown,ArrowRight","false","revaluation","2","6","","",""
"html-keyboard-response","303","1331476","0.0-4.0-2.1-1.53","spark_pilot_norest","8719","5","21","Female","","","","","","","null","<div style=""font-size:60px;"">+</div>","null","fixation","","","","","","","","","7","","",""
"revaluation","304","1337499","0.0-4.0-2.1-0.54","spark_pilot_norest","8719","5","21","Female","","false","","","","","[544.2999999523163,677]","./assets/img/ocean/memory/14.jpg","[""ArrowDown"",""ArrowLeft""]","value training","ocean","8","{""ArrowUp,ArrowLeft"":23,""ArrowUp,ArrowRight"":10,""ArrowDown,ArrowLeft"":8,""ArrowDown,ArrowRight"":30}","false","ArrowDown,ArrowLeft","false","revaluation","2","8","","",""
"html-keyboard-response","305","1338011","0.0-4.0-2.1-1.54","spark_pilot_norest","8719","5","21","Female","","","","","","","null","<div style=""font-size:60px;"">+</div>","null","fixation","","","","","","","","","9","","",""
"revaluation","306","1344033","0.0-4.0-2.1-0.55","spark_pilot_norest","8719","5","21","Female","","false","","","","","[620,382.7000000476837]","./assets/img/ocean/memory/37.jpg","[""ArrowDown"",""ArrowRight""]","value training","ocean","30","{""ArrowUp,ArrowLeft"":23,""ArrowUp,ArrowRight"":10,""ArrowDown,ArrowLeft"":8,""ArrowDown,ArrowRight"":30}","true","ArrowDown,ArrowRight","false","revaluation","2","10","","",""
"html-keyboard-response","307","1344539","0.0-4.0-2.1-1.55","spark_pilot_norest","8719","5","21","Female","","","","","","","null","<div style=""font-size:60px;"">+</div>","null","fixation","","","","","","","","","11","","",""
"revaluation","308","1348555","0.0-4.0-2.1-0.56","spark_pilot_norest","8719","5","21","Female","","false","","","","","[1094]","./assets/img/ocean/catch/5.jpg","[""spaceBar""]","value training","ocean","0","{""ArrowUp,ArrowLeft"":23,""ArrowUp,ArrowRight"":10,""ArrowDown,ArrowLeft"":8,""ArrowDown,ArrowRight"":30}","true","spaceBar","true","revaluation","2","12","","",""
"html-keyboard-response","309","1349066","0.0-4.0-2.1-1.56","spark_pilot_norest","8719","5","21","Female","","","","","","","null","<div style=""font-size:60px;"">+</div>","null","fixation","","","","","","","","","13","","",""
"revaluation","310","1353083","0.0-4.0-2.1-0.57","spark_pilot_norest","8719","5","21","Female","","false","","","","","[876.5999999046326]","./assets/img/ocean/catch/4.jpg","[""spaceBar""]","value training","ocean","0","{""ArrowUp,ArrowLeft"":23,""ArrowUp,ArrowRight"":10,""ArrowDown,ArrowLeft"":8,""ArrowDown,ArrowRight"":30}","true","spaceBar","true","revaluation","2","14","","",""
"html-keyboard-response","311","1353593","0.0-4.0-2.1-1.57","spark_pilot_norest","8719","5","21","Female","","","","","","","null","<div style=""font-size:60px;"">+</div>","null","fixation","","","","","","","","","15","","",""
"revaluation","312","1359621","0.0-4.0-2.1-0.58","spark_pilot_norest","8719","5","21","Female","","false","","","","","[1079,1810.3999998569489]","./assets/img/ocean/memory/15.jpg","[""ArrowDown"",""ArrowRight""]","value training","ocean","30","{""ArrowUp,ArrowLeft"":23,""ArrowUp,ArrowRight"":10,""ArrowDown,ArrowLeft"":8,""ArrowDown,ArrowRight"":30}","true","ArrowDown,ArrowRight","false","revaluation","2","16","","",""
