"trial_type","trial_index","time_elapsed","internal_node_id","task_version","subject_id","assigned_condition","age","gender","success","timeout","failed_images","failed_audio","failed_video","browser_interaction","rt","stimulus","response","task_part","environment","score","rewardMap","correct","fullState","isCatch","condition","order","trial_num","key_press","ground_truth","bonus"
"pavlovia","0","926","0.0-0.0","spark_pilot_norest","13403","3","9","Female","","","","","","","","","","","","","","","","","","","","","",""
"preload","1","25309","0.0-1.0","spark_pilot_norest","13403","3","9","Female","true","false","[]","[]","[]","[{""event"":""fullscreenenter"",""trial"":2,""time"":34289}]","","","","","","","","","","","","","","","",""
"fullscreen","2","35255","0.0-2.0","spark_pilot_norest","13403","3","9","Female","true","","","","","","","","","","","","","","","","","","","","",""
"audio-button-response","3","38361","0.0-3.0-0.0-0.0","spark_pilot_norest","13403","3","9","Female","","","","","","","2784","./assets/audio/audiotest/turtle.mp3","2","audio_test","","","","","","","","","","","",""
"learning-instructions","4","58941","0.0-3.0-1.0-0.0","spark_pilot_norest","13403","3","9","Female","","","","","","","13605.199999988079","<p> Welcome! Please remember to stay in fullscreen mode and don't click away from the experiment. </p>","","instructions","","","","","","","","","","","",""
"learning-instructions","5","72217","0.0-3.0-1.0-0.1","spark_pilot_norest","13403","3","9","Female","","","","","","","4851.700000017881","<p> Today you will be playing a game to earn treasure. </p>
            <p> At the end of the experiment, you will earn a bonus based on how much treasure you find. </p>
            <img src='./assets/img/instructions/treasure.jpg' class='instructions-image'>","","instructions","","","","","","","","","","","",""
"learning-instructions","6","81845","0.0-3.0-1.0-0.2","spark_pilot_norest","13403","3","9","Female","","","","","","","1350.2999999821186","<p> Animals have hidden treasure in treasure chests. </p>
            <p> You need to first find an animal and then choose which of their treasure chests to search. </p>
            <img src='./assets/img/space/animals/cat.jpg' class='instructions-image'>","","instructions","","","","","","","","","","","",""
"learning-instructions","7","95820","0.0-3.0-1.0-0.3","spark_pilot_norest","13403","3","9","Female","","","","","","","818.1000000238419","<p> In each round, you will search for treasure in a different place. In the real game, there will be two rounds. </p>
            <p> You will begin with a separate, practice round where you will search for treasure in outer space. </p>
            <img src='./assets/img/space/0.jpg' class='instructions-image'>","","instructions","","","","","","","","","","","",""
"learning-instructions","8","107964","0.0-3.0-1.0-0.4","spark_pilot_norest","13403","3","9","Female","","","","","","","716.9000000059605","<p> On every turn, you will see a picture of the place that you are in, but the specific image may be different each time. </p>
            <p> For example, both of these images mean you are in outer space. </p>
            <img src='./assets/img/instructions/outerspace.jpg' class='instructions-image'>","","instructions","","","","","","","","","","","",""
"learning-instructions","9","117002","0.0-3.0-1.0-0.5","spark_pilot_norest","13403","3","9","Female","","","","","","","1200.3999999761581","<p> You need to decide which direction to travel in. </p>
            <p> You can choose between going <b>up or down</b> by using the arrow keys. </p>
            <img src='./assets/img/instructions/updown.jpg' class='instructions-image'>","","instructions","","","","","","","","","","","",""
"learning-instructions","10","127515","0.0-3.0-1.0-0.6","spark_pilot_norest","13403","3","9","Female","","","","","","","1697.5999999940395","<p> You will have <b>2 seconds</b> to make your choice. </p>
            <p> If you do not make a choice within 2 seconds, you will not find an animal or earn treasure. </p>
            <img src='./assets/img/instructions/2seconds.jpg' class='instructions-image'>","","instructions","","","","","","","","","","","",""
"learning-instructions","11","136799","0.0-3.0-1.0-0.7","spark_pilot_norest","13403","3","9","Female","","","","","","","2256.399999976158","<p> Let’s try practicing that now! </p>
            <p> When you see a picture of the place you are in, press the <b>up</b> key to travel up. </p>
            <img src='./assets/img/instructions/pressUp.jpg' class='instructions-image'>","","instructions","","","","","","","","","","","",""
"revaluation","12","140835","0.0-3.0-2.0-0.0","spark_pilot_norest","13403","3","9","Female","","false","","","","","[778.6999999880791]","./assets/img/space/0.jpg","[""ArrowUp""]","first stage practice","space","0","null","null","ArrowUp","false","","","","","",""
"html-keyboard-response","13","141350","0.0-3.0-2.0-1.0","spark_pilot_norest","13403","3","9","Female","","","","","","","null","<div style=""font-size:60px;"">+</div>","null","fixation","","","","","","","","","","","",""
"revaluation","14","145359","0.0-3.0-2.0-0.1","spark_pilot_norest","13403","3","9","Female","","false","","","","","[902.7999999821186]","./assets/img/space/1.jpg","[""ArrowUp""]","first stage practice","space","0","null","null","ArrowUp","false","","","","","",""
"html-keyboard-response","15","145871","0.0-3.0-2.0-1.1","spark_pilot_norest","13403","3","9","Female","","","","","","","null","<div style=""font-size:60px;"">+</div>","null","fixation","","","","","","","","","","","",""
"revaluation","16","149891","0.0-3.0-2.0-0.2","spark_pilot_norest","13403","3","9","Female","","true","","","","","[]","./assets/img/space/2.jpg","[]","first stage practice","space","-5","null","null","","false","","","","","",""
"html-keyboard-response","17","150397","0.0-3.0-2.0-1.2","spark_pilot_norest","13403","3","9","Female","","","","","","","null","<div style=""font-size:60px;"">+</div>","null","fixation","","","","","","","","","","","",""
"learning-instructions","18","157263","0.0-3.0-3.0-0.0","spark_pilot_norest","13403","3","9","Female","","","","","","","2166.5","<p> Great job! Now try pressing the <b>down</b> key to travel down. </p>
            <img src='./assets/img/instructions/pressDown.jpg' class='instructions-image'>","","instructions","","","","","","","","","","","",""
"revaluation","19","161272","0.0-3.0-4.0-0.0","spark_pilot_norest","13403","3","9","Female","","false","","","","","[183.2999999821186]","./assets/img/space/3.jpg","[""ArrowDown""]","first stage practice","space","0","null","null","ArrowDown","false","","","","","",""
"html-keyboard-response","20","161786","0.0-3.0-4.0-1.0","spark_pilot_norest","13403","3","9","Female","","","","","","","null","<div style=""font-size:60px;"">+</div>","null","fixation","","","","","","","","","","","",""
"revaluation","21","165806","0.0-3.0-4.0-0.1","spark_pilot_norest","13403","3","9","Female","","false","","","","","[868]","./assets/img/space/4.jpg","[""ArrowDown""]","first stage practice","space","0","null","null","ArrowDown","false","","","","","",""
"html-keyboard-response","22","166319","0.0-3.0-4.0-1.1","spark_pilot_norest","13403","3","9","Female","","","","","","","null","<div style=""font-size:60px;"">+</div>","null","fixation","","","","","","","","","","","",""
"revaluation","23","170350","0.0-3.0-4.0-0.2","spark_pilot_norest","13403","3","9","Female","","false","","","","","[637.3999999761581]","./assets/img/space/5.jpg","[""ArrowDown""]","first stage practice","space","0","null","null","ArrowDown","false","","","","","",""
"html-keyboard-response","24","170859","0.0-3.0-4.0-1.2","spark_pilot_norest","13403","3","9","Female","","","","","","","null","<div style=""font-size:60px;"">+</div>","null","fixation","","","","","","","","","","","",""
"learning-instructions","25","182655","0.0-3.0-5.0-0.0","spark_pilot_norest","13403","3","9","Female","","","","","","","1937.0999999940395","<p> The animals don’t move, so the animal in the upper part of a place will stay in the upper part of a place, and the animal in the lower part of a place will stay in the lower part of a place. </p>","","instructions","","","","","","","","","","","",""
"learning-instructions","26","192751","0.0-3.0-5.0-0.1","spark_pilot_norest","13403","3","9","Female","","","","","","","950.4000000059605","<p> Each animal has two treasure chests for you to choose from. </p>
            <p> The amount of treasure in each chest can range from <b> 0 to 40 pieces.</b></p>","","instructions","","","","","","","","","","","",""
"learning-instructions","27","206134","0.0-3.0-5.0-0.2","spark_pilot_norest","13403","3","9","Female","","","","","","","2184.199999988079","<p> You should decide which chest to search for treasure by using the <b>left</b> and <b>right</b> arrow keys. </p>
            <p><b> Pay attention to which animal is on the screen, as the animals have different treasure chests. </b></p>
            <img src='./assets/img/instructions/leftright.jpg' class='instructions-image'>","","instructions","","","","","","","","","","","",""
"learning-instructions","28","213507","0.0-3.0-5.0-0.3","spark_pilot_norest","13403","3","9","Female","","","","","","","1002.4000000059605","<p> Let’s try practicing that now. </p>
            <p> When you see an animal, choose which chest to search for treasure. </p>
            <img src='./assets/img/instructions/chooseChest.jpg' class='instructions-image'>","","instructions","","","","","","","","","","","",""
"revaluation","29","217532","0.0-3.0-6.0-0.0","spark_pilot_norest","13403","3","9","Female","","false","","","","","[1147.300000011921]","./assets/img/space/animals/cat.jpg","[""ArrowLeft""]","second stage practice","space","3","{""ArrowUp,ArrowLeft"":3,""ArrowUp,ArrowRight"":36,""ArrowDown,ArrowLeft"":15,""ArrowDown,ArrowRight"":23}","false","ArrowUp,ArrowLeft","","","","","","",""
"html-keyboard-response","30","218040","0.0-3.0-6.0-1.0","spark_pilot_norest","13403","3","9","Female","","","","","","","null","<div style=""font-size:60px;"">+</div>","null","fixation","","","","","","","","","","","",""
"revaluation","31","222065","0.0-3.0-6.0-0.1","spark_pilot_norest","13403","3","9","Female","","false","","","","","[788.1999999880791]","./assets/img/space/animals/rabbit.jpg","[""ArrowRight""]","second stage practice","space","23","{""ArrowUp,ArrowLeft"":3,""ArrowUp,ArrowRight"":36,""ArrowDown,ArrowLeft"":15,""ArrowDown,ArrowRight"":23}","true","ArrowDown,ArrowRight","","","","","","",""
"html-keyboard-response","32","222572","0.0-3.0-6.0-1.1","spark_pilot_norest","13403","3","9","Female","","","","","","","null","<div style=""font-size:60px;"">+</div>","null","fixation","","","","","","","","","","","",""
"revaluation","33","226631","0.0-3.0-6.0-0.2","spark_pilot_norest","13403","3","9","Female","","false","","","","","[465.59999999403954]","./assets/img/space/animals/cat.jpg","[""ArrowLeft""]","second stage practice","space","3","{""ArrowUp,ArrowLeft"":3,""ArrowUp,ArrowRight"":36,""ArrowDown,ArrowLeft"":15,""ArrowDown,ArrowRight"":23}","false","ArrowUp,ArrowLeft","","","","","","",""
"html-keyboard-response","34","227143","0.0-3.0-6.0-1.2","spark_pilot_norest","13403","3","9","Female","","","","","","","null","<div style=""font-size:60px;"">+</div>","null","fixation","","","","","","","","","","","",""
"revaluation","35","231164","0.0-3.0-6.0-0.3","spark_pilot_norest","13403","3","9","Female","","false","","","","","[1363.800000011921]","./assets/img/space/animals/rabbit.jpg","[""ArrowLeft""]","second stage practice","space","15","{""ArrowUp,ArrowLeft"":3,""ArrowUp,ArrowRight"":36,""ArrowDown,ArrowLeft"":15,""ArrowDown,ArrowRight"":23}","false","ArrowDown,ArrowLeft","","","","","","",""
"html-keyboard-response","36","231675","0.0-3.0-6.0-1.3","spark_pilot_norest","13403","3","9","Female","","","","","","","null","<div style=""font-size:60px;"">+</div>","null","fixation","","","","","","","","","","","",""
"learning-instructions","37","249559","0.0-3.0-7.0-0.0","spark_pilot_norest","13403","3","9","Female","","","","","","","1054.199999988079","<p> Great job. Now let’s try putting it together. </p>
            <p> On each turn, you will first see a picture to remind you of the place you are in, and you need to choose whether to go up or down. </p>
            <p> Then you will see an animal and choose which of its chests to search for treasure. </p>","","instructions","","","","","","","","","","","",""
"learning-instructions","38","259305","0.0-3.0-7.0-0.1","spark_pilot_norest","13403","3","9","Female","","","","","","","1477.5","<p> When you choose whether to go up or down, try to go to the animal with the chest with the most treasure. </p>
            <p> Try practicing that now! </p>","","instructions","","","","","","","","","","","",""
"revaluation","39","265337","0.0-3.0-8.0-0.0","spark_pilot_norest","13403","3","9","Female","","false","","","","","[473.2000000178814,1639.0999999940395]","./assets/img/space/6.jpg","[""ArrowUp"",""ArrowLeft""]","full practice","space","3","{""ArrowUp,ArrowLeft"":3,""ArrowUp,ArrowRight"":36,""ArrowDown,ArrowLeft"":15,""ArrowDown,ArrowRight"":23}","false","ArrowUp,ArrowLeft","false","","","","","",""
"html-keyboard-response","40","265842","0.0-3.0-8.0-1.0","spark_pilot_norest","13403","3","9","Female","","","","","","","null","<div style=""font-size:60px;"">+</div>","null","fixation","","","","","","","","","","","",""
"revaluation","41","271870","0.0-3.0-8.0-0.1","spark_pilot_norest","13403","3","9","Female","","false","","","","","[1702.2999999821186,797.1999999880791]","./assets/img/space/7.jpg","[""ArrowDown"",""ArrowRight""]","full practice","space","23","{""ArrowUp,ArrowLeft"":3,""ArrowUp,ArrowRight"":36,""ArrowDown,ArrowLeft"":15,""ArrowDown,ArrowRight"":23}","false","ArrowDown,ArrowRight","false","","","","","",""
"html-keyboard-response","42","272376","0.0-3.0-8.0-1.1","spark_pilot_norest","13403","3","9","Female","","","","","","","null","<div style=""font-size:60px;"">+</div>","null","fixation","","","","","","","","","","","",""
"revaluation","43","278412","0.0-3.0-8.0-0.2","spark_pilot_norest","13403","3","9","Female","","false","","","","","[1775.800000011921,730]","./assets/img/space/8.jpg","[""ArrowDown"",""ArrowRight""]","full practice","space","23","{""ArrowUp,ArrowLeft"":3,""ArrowUp,ArrowRight"":36,""ArrowDown,ArrowLeft"":15,""ArrowDown,ArrowRight"":23}","false","ArrowDown,ArrowRight","false","","","","","",""
"html-keyboard-response","44","278929","0.0-3.0-8.0-1.2","spark_pilot_norest","13403","3","9","Female","","","","","","","null","<div style=""font-size:60px;"">+</div>","null","fixation","","","","","","","","","","","",""
"revaluation","45","284963","0.0-3.0-8.0-0.3","spark_pilot_norest","13403","3","9","Female","","false","","","","","[984.2999999821186,494.39999997615814]","./assets/img/space/9.jpg","[""ArrowDown"",""ArrowRight""]","full practice","space","23","{""ArrowUp,ArrowLeft"":3,""ArrowUp,ArrowRight"":36,""ArrowDown,ArrowLeft"":15,""ArrowDown,ArrowRight"":23}","false","ArrowDown,ArrowRight","false","","","","","",""
"html-keyboard-response","46","285479","0.0-3.0-8.0-1.3","spark_pilot_norest","13403","3","9","Female","","","","","","","null","<div style=""font-size:60px;"">+</div>","null","fixation","","","","","","","","","","","",""
"revaluation","47","291501","0.0-3.0-8.0-0.4","spark_pilot_norest","13403","3","9","Female","","false","","","","","[1011.8000000119209,908]","./assets/img/space/10.jpg","[""ArrowUp"",""ArrowRight""]","full practice","space","36","{""ArrowUp,ArrowLeft"":3,""ArrowUp,ArrowRight"":36,""ArrowDown,ArrowLeft"":15,""ArrowDown,ArrowRight"":23}","true","ArrowUp,ArrowRight","false","","","","","",""
"html-keyboard-response","48","292007","0.0-3.0-8.0-1.4","spark_pilot_norest","13403","3","9","Female","","","","","","","null","<div style=""font-size:60px;"">+</div>","null","fixation","","","","","","","","","","","",""
"learning-instructions","49","303641","0.0-3.0-9.0-0.0","spark_pilot_norest","13403","3","9","Female","","","","","","","1146.9000000059605","<p> One last thing: sometimes, you will see a robber. The robber can be anywhere in the picture. </p>
            <p> If you do not stop them, you will lose treasure. </p>
            <img src='./assets/img/instructions/robber.jpg' class='instructions-image'>","","instructions","","","","","","","","","","","",""
"learning-instructions","50","313317","0.0-3.0-9.0-0.1","spark_pilot_norest","13403","3","9","Female","","","","","","","2493.199999988079","<p> If you see the robber, you should <b>press the space bar</b> rather than using the arrow keys. </p>
            <p> Try practicing that now! </p>","","instructions","","","","","","","","","","","",""
"revaluation","51","317350","0.0-3.0-10.0-0.0","spark_pilot_norest","13403","3","9","Female","","false","","","","","[1241.699999988079]","./assets/img/space/catch/0.jpg","[""ArrowDown""]","catch practice","space","-10","{""ArrowUp,ArrowLeft"":3,""ArrowUp,ArrowRight"":36,""ArrowDown,ArrowLeft"":15,""ArrowDown,ArrowRight"":23}","false","ArrowDown","true","","","","","",""
"html-keyboard-response","52","317867","0.0-3.0-10.0-1.0","spark_pilot_norest","13403","3","9","Female","","","","","","","null","<div style=""font-size:60px;"">+</div>","null","fixation","","","","","","","","","","","",""
"revaluation","53","321899","0.0-3.0-10.0-0.1","spark_pilot_norest","13403","3","9","Female","","false","","","","","[852.2999999821186]","./assets/img/space/catch/1.jpg","[""spaceBar""]","catch practice","space","0","{""ArrowUp,ArrowLeft"":3,""ArrowUp,ArrowRight"":36,""ArrowDown,ArrowLeft"":15,""ArrowDown,ArrowRight"":23}","true","spaceBar","true","","","","","",""
"html-keyboard-response","54","322410","0.0-3.0-10.0-1.1","spark_pilot_norest","13403","3","9","Female","","","","","","","null","<div style=""font-size:60px;"">+</div>","null","fixation","","","","","","","","","","","",""
"revaluation","55","326432","0.0-3.0-10.0-0.2","spark_pilot_norest","13403","3","9","Female","","false","","","","","[616.3000000119209]","./assets/img/space/catch/2.jpg","[""spaceBar""]","catch practice","space","0","{""ArrowUp,ArrowLeft"":3,""ArrowUp,ArrowRight"":36,""ArrowDown,ArrowLeft"":15,""ArrowDown,ArrowRight"":23}","true","spaceBar","true","","","","","",""
"html-keyboard-response","56","326949","0.0-3.0-10.0-1.2","spark_pilot_norest","13403","3","9","Female","","","","","","","null","<div style=""font-size:60px;"">+</div>","null","fixation","","","","","","","","","","","",""
"learning-instructions","57","333666","0.0-3.0-11.0-0.0-0.0","spark_pilot_norest","13403","3","9","Female","","","","","","","1445.1000000238419","<p> Now, you will practice a shortened version of the game to get a sense of how it all fits together. </p>","","instructions","","","","","","","","","","","",""
"learning-instructions","58","337739","0.0-3.0-11.0-0.0-0.1","spark_pilot_norest","13403","3","9","Female","","","","","","","877.8000000119209","<p>This time you are searching for treasure in outer space.</p>","","instructions","","","","","","","","","","","",""
"learning-instructions","59","354907","0.0-3.0-11.0-1.0-0.0","spark_pilot_norest","13403","3","9","Female","","","","","","","2398.199999988079","<p> Remember, when you see a picture of the place, use the up and down keys to <b>find an animal</b>.</p>
            <p> When you encounter an animal, you should use the left and right keys to <b>select a treasure chest</b>.</p>
            <p> Don't forget to look out for the robber! </p>","","instructions","","","","","","","","","","","",""
"revaluation","60","360949","0.0-3.0-11.0-2.0-0.0","spark_pilot_norest","13403","3","9","Female","","false","","","","","[1436.2000000178814,1112.800000011921]","./assets/img/space/11.jpg","[""ArrowDown"",""ArrowRight""]","practice block","space","23","{""ArrowUp,ArrowLeft"":3,""ArrowUp,ArrowRight"":36,""ArrowDown,ArrowLeft"":15,""ArrowDown,ArrowRight"":23}","false","ArrowDown,ArrowRight","false","","","","","",""
"html-keyboard-response","61","361457","0.0-3.0-11.0-2.0-1.0","spark_pilot_norest","13403","3","9","Female","","","","","","","null","<div style=""font-size:60px;"">+</div>","null","fixation","","","","","","","","","","","",""
"revaluation","62","367475","0.0-3.0-11.0-2.0-0.1","spark_pilot_norest","13403","3","9","Female","","false","","","","","[1359.300000011921,747.5]","./assets/img/space/12.jpg","[""ArrowDown"",""ArrowRight""]","practice block","space","23","{""ArrowUp,ArrowLeft"":3,""ArrowUp,ArrowRight"":36,""ArrowDown,ArrowLeft"":15,""ArrowDown,ArrowRight"":23}","false","ArrowDown,ArrowRight","false","","","","","",""
"html-keyboard-response","63","367986","0.0-3.0-11.0-2.0-1.1","spark_pilot_norest","13403","3","9","Female","","","","","","","null","<div style=""font-size:60px;"">+</div>","null","fixation","","","","","","","","","","","",""
"revaluation","64","374018","0.0-3.0-11.0-2.0-0.2","spark_pilot_norest","13403","3","9","Female","","false","","","","","[447.40000000596046,581.9000000059605]","./assets/img/space/13.jpg","[""ArrowDown"",""ArrowRight""]","practice block","space","23","{""ArrowUp,ArrowLeft"":3,""ArrowUp,ArrowRight"":36,""ArrowDown,ArrowLeft"":15,""ArrowDown,ArrowRight"":23}","false","ArrowDown,ArrowRight","false","","","","","",""
"html-keyboard-response","65","374523","0.0-3.0-11.0-2.0-1.2","spark_pilot_norest","13403","3","9","Female","","","","","","","null","<div style=""font-size:60px;"">+</div>","null","fixation","","","","","","","","","","","",""
"revaluation","66","380544","0.0-3.0-11.0-2.0-0.3","spark_pilot_norest","13403","3","9","Female","","false","","","","","[1247.7999999821186,704.5]","./assets/img/space/14.jpg","[""ArrowDown"",""ArrowRight""]","practice block","space","23","{""ArrowUp,ArrowLeft"":3,""ArrowUp,ArrowRight"":36,""ArrowDown,ArrowLeft"":15,""ArrowDown,ArrowRight"":23}","false","ArrowDown,ArrowRight","false","","","","","",""
"html-keyboard-response","67","381055","0.0-3.0-11.0-2.0-1.3","spark_pilot_norest","13403","3","9","Female","","","","","","","null","<div style=""font-size:60px;"">+</div>","null","fixation","","","","","","","","","","","",""
"revaluation","68","387079","0.0-3.0-11.0-2.0-0.4","spark_pilot_norest","13403","3","9","Female","","false","","","","","[1007.8000000119209,827.7000000178814]","./assets/img/space/11.jpg","[""ArrowDown"",""ArrowRight""]","practice block","space","23","{""ArrowUp,ArrowLeft"":3,""ArrowUp,ArrowRight"":36,""ArrowDown,ArrowLeft"":15,""ArrowDown,ArrowRight"":23}","false","ArrowDown,ArrowRight","false","","","","","",""
"html-keyboard-response","69","387590","0.0-3.0-11.0-2.0-1.4","spark_pilot_norest","13403","3","9","Female","","","","","","","null","<div style=""font-size:60px;"">+</div>","null","fixation","","","","","","","","","","","",""
"revaluation","70","393615","0.0-3.0-11.0-2.0-0.5","spark_pilot_norest","13403","3","9","Female","","false","","","","","[1065.7999999821186,874.0999999940395]","./assets/img/space/12.jpg","[""ArrowDown"",""ArrowRight""]","practice block","space","23","{""ArrowUp,ArrowLeft"":3,""ArrowUp,ArrowRight"":36,""ArrowDown,ArrowLeft"":15,""ArrowDown,ArrowRight"":23}","false","ArrowDown,ArrowRight","false","","","","","",""
"html-keyboard-response","71","394126","0.0-3.0-11.0-2.0-1.5","spark_pilot_norest","13403","3","9","Female","","","","","","","null","<div style=""font-size:60px;"">+</div>","null","fixation","","","","","","","","","","","",""
"revaluation","72","400148","0.0-3.0-11.0-2.0-0.6","spark_pilot_norest","13403","3","9","Female","","false","","","","","[950.5999999940395,445.80000001192093]","./assets/img/space/13.jpg","[""ArrowUp"",""ArrowRight""]","practice block","space","36","{""ArrowUp,ArrowLeft"":3,""ArrowUp,ArrowRight"":36,""ArrowDown,ArrowLeft"":15,""ArrowDown,ArrowRight"":23}","true","ArrowUp,ArrowRight","false","","","","","",""
"html-keyboard-response","73","400654","0.0-3.0-11.0-2.0-1.6","spark_pilot_norest","13403","3","9","Female","","","","","","","null","<div style=""font-size:60px;"">+</div>","null","fixation","","","","","","","","","","","",""
"revaluation","74","406673","0.0-3.0-11.0-2.0-0.7","spark_pilot_norest","13403","3","9","Female","","false","","","","","[707.0999999940395,342.30000001192093]","./assets/img/space/14.jpg","[""ArrowUp"",""ArrowRight""]","practice block","space","36","{""ArrowUp,ArrowLeft"":3,""ArrowUp,ArrowRight"":36,""ArrowDown,ArrowLeft"":15,""ArrowDown,ArrowRight"":23}","true","ArrowUp,ArrowRight","false","","","","","",""
"html-keyboard-response","75","407178","0.0-3.0-11.0-2.0-1.7","spark_pilot_norest","13403","3","9","Female","","","","","","","null","<div style=""font-size:60px;"">+</div>","null","fixation","","","","","","","","","","","",""
"revaluation","76","411192","0.0-3.0-11.0-2.0-0.8","spark_pilot_norest","13403","3","9","Female","","false","","","","","[967]","./assets/img/space/catch/3.jpg","[""spaceBar""]","practice block","space","0","{""ArrowUp,ArrowLeft"":3,""ArrowUp,ArrowRight"":36,""ArrowDown,ArrowLeft"":15,""ArrowDown,ArrowRight"":23}","true","spaceBar","true","","","","","",""
"html-keyboard-response","77","411700","0.0-3.0-11.0-2.0-1.8","spark_pilot_norest","13403","3","9","Female","","","","","","","null","<div style=""font-size:60px;"">+</div>","null","fixation","","","","","","","","","","","",""
"learning-instructions","78","426942","0.0-3.0-11.0-3.0-0.0","spark_pilot_norest","13403","3","9","Female","","","","","","","2007.699999988079","<p> Now, you will travel with a friend who will choose whether you go up or down first. </p>
            <p> On these turns, you will just see the animal that they found. You will still get to choose which chest to search for treasure.</p>","","instructions","","","","","","","","","","","",""
"revaluation","79","430965","0.0-3.0-11.0-4.0-0.0","spark_pilot_norest","13403","3","9","Female","","false","","","","","[1521.0999999940395]","./assets/img/space/animals/rabbit.jpg","[""ArrowRight""]","practice block","space","23","{""ArrowUp,ArrowLeft"":3,""ArrowUp,ArrowRight"":36,""ArrowDown,ArrowLeft"":15,""ArrowDown,ArrowRight"":23}","true","ArrowDown,ArrowRight","","","","","","",""
"html-keyboard-response","80","431472","0.0-3.0-11.0-4.0-1.0","spark_pilot_norest","13403","3","9","Female","","","","","","","null","<div style=""font-size:60px;"">+</div>","null","fixation","","","","","","","","","","","",""
"revaluation","81","435499","0.0-3.0-11.0-4.0-0.1","spark_pilot_norest","13403","3","9","Female","","false","","","","","[708.6000000238419]","./assets/img/space/animals/cat.jpg","[""ArrowRight""]","practice block","space","36","{""ArrowUp,ArrowLeft"":3,""ArrowUp,ArrowRight"":36,""ArrowDown,ArrowLeft"":15,""ArrowDown,ArrowRight"":23}","true","ArrowUp,ArrowRight","","","","","","",""
"html-keyboard-response","82","436005","0.0-3.0-11.0-4.0-1.1","spark_pilot_norest","13403","3","9","Female","","","","","","","null","<div style=""font-size:60px;"">+</div>","null","fixation","","","","","","","","","","","",""
"revaluation","83","440026","0.0-3.0-11.0-4.0-0.2","spark_pilot_norest","13403","3","9","Female","","false","","","","","[404.69999998807907]","./assets/img/space/animals/rabbit.jpg","[""ArrowRight""]","practice block","space","23","{""ArrowUp,ArrowLeft"":3,""ArrowUp,ArrowRight"":36,""ArrowDown,ArrowLeft"":15,""ArrowDown,ArrowRight"":23}","true","ArrowDown,ArrowRight","","","","","","",""
"html-keyboard-response","84","440538","0.0-3.0-11.0-4.0-1.2","spark_pilot_norest","13403","3","9","Female","","","","","","","null","<div style=""font-size:60px;"">+</div>","null","fixation","","","","","","","","","","","",""
"revaluation","85","444561","0.0-3.0-11.0-4.0-0.3","spark_pilot_norest","13403","3","9","Female","","false","","","","","[469.7999999821186]","./assets/img/space/animals/cat.jpg","[""ArrowRight""]","practice block","space","36","{""ArrowUp,ArrowLeft"":3,""ArrowUp,ArrowRight"":36,""ArrowDown,ArrowLeft"":15,""ArrowDown,ArrowRight"":23}","true","ArrowUp,ArrowRight","","","","","","",""
"html-keyboard-response","86","445072","0.0-3.0-11.0-4.0-1.3","spark_pilot_norest","13403","3","9","Female","","","","","","","null","<div style=""font-size:60px;"">+</div>","null","fixation","","","","","","","","","","","",""
"learning-instructions","87","453222","0.0-3.0-11.0-5.0-0.0","spark_pilot_norest","13403","3","9","Female","","","","","","","null","<p> You have almost finished this part of the game! </p>
            <p> We are going to ask you to make a few more choices. </p>","","instructions","","","","","","","","","","","",""
"learning-instructions","88","469248","0.0-3.0-11.0-5.0-0.1","spark_pilot_norest","13403","3","9","Female","","","","","","","null","<p> First, you need to decide whether to go up or down. When you see each picture, use the arrow keys to make your choice. </p>
            <p><b>You will not see which animal you found, but try to get to the one that will give you the most treasure.</b></p>","","instructions","","","","","","","","","","","",""
"html-keyboard-response","89","470258","0.0-3.0-11.0-6.0-0.0","spark_pilot_norest","13403","3","9","Female","","","","","","","null","<div style=""font-size:100px;color:red;"">Starting in...</div>","null","","","","","","","","","","","","",""
"html-keyboard-response","90","471263","0.0-3.0-11.0-6.0-1.0","spark_pilot_norest","13403","3","9","Female","","","","","","","null","<div style=""font-size:200px;color:red;"">3</div>","null","","","","","","","","","","","","",""
"html-keyboard-response","91","472277","0.0-3.0-11.0-6.0-2.0","spark_pilot_norest","13403","3","9","Female","","","","","","","null","<div style=""font-size:200px;color:red;"">2</div>","null","","","","","","","","","","","","",""
"html-keyboard-response","92","473285","0.0-3.0-11.0-6.0-3.0","spark_pilot_norest","13403","3","9","Female","","","","","","","null","<div style=""font-size:200px;color:red;"">1</div>","null","","","","","","","","","","","","",""
"revaluation","93","473712","0.0-3.0-11.0-7.0","spark_pilot_norest","13403","3","9","Female","","false","","","","","[423.7000000178814]","./assets/img/space/15.jpg","[""ArrowDown""]","practice block","space","0","{""ArrowUp,ArrowLeft"":3,""ArrowUp,ArrowRight"":36,""ArrowDown,ArrowLeft"":15,""ArrowDown,ArrowRight"":23}","false","ArrowDown","false","","","","","",""
"html-keyboard-response","94","474223","0.0-3.0-11.0-8.0","spark_pilot_norest","13403","3","9","Female","","","","","","","null","<div style=""font-size:60px;"">+</div>","null","fixation","","","","","","","","","","","",""
"learning-instructions","95","487620","0.0-3.0-11.0-9.0-0.0","spark_pilot_norest","13403","3","9","Female","","","","","","","null","<p> Now you will see the animals again and can search their chests for treasure. </p>
            <p> This time, you will not see how much treasure you earned, but you will earn more bonus money for making better choices. </p>","","instructions","","","","","","","","","","","",""
"html-keyboard-response","96","488622","0.0-3.0-11.0-10.0-0.0","spark_pilot_norest","13403","3","9","Female","","","","","","","null","<div style=""font-size:100px;color:red;"">Starting in...</div>","null","","","","","","","","","","","","",""
"html-keyboard-response","97","489626","0.0-3.0-11.0-10.0-1.0","spark_pilot_norest","13403","3","9","Female","","","","","","","null","<div style=""font-size:200px;color:red;"">3</div>","null","","","","","","","","","","","","",""
"html-keyboard-response","98","490634","0.0-3.0-11.0-10.0-2.0","spark_pilot_norest","13403","3","9","Female","","","","","","","null","<div style=""font-size:200px;color:red;"">2</div>","null","","","","","","","","","","","","",""
"html-keyboard-response","99","491636","0.0-3.0-11.0-10.0-3.0","spark_pilot_norest","13403","3","9","Female","","","","","","","null","<div style=""font-size:200px;color:red;"">1</div>","null","","","","","","","","","","","","",""
"revaluation","100","492330","0.0-3.0-11.0-11.0-0.0","spark_pilot_norest","13403","3","9","Female","","false","","","","","[689.5999999940395]","./assets/img/space/animals/cat.jpg","[""ArrowRight""]","practice block","space","0","{""ArrowUp,ArrowLeft"":3,""ArrowUp,ArrowRight"":36,""ArrowDown,ArrowLeft"":15,""ArrowDown,ArrowRight"":23}","true","ArrowUp,ArrowRight","","","","","","",""
"html-keyboard-response","101","492835","0.0-3.0-11.0-11.0-1.0","spark_pilot_norest","13403","3","9","Female","","","","","","","null","<div style=""font-size:60px;"">+</div>","null","fixation","","","","","","","","","","","",""
"revaluation","102","494093","0.0-3.0-11.0-11.0-0.1","spark_pilot_norest","13403","3","9","Female","","false","","","","","[1255.800000011921]","./assets/img/space/animals/rabbit.jpg","[""ArrowRight""]","practice block","space","0","{""ArrowUp,ArrowLeft"":3,""ArrowUp,ArrowRight"":36,""ArrowDown,ArrowLeft"":15,""ArrowDown,ArrowRight"":23}","true","ArrowDown,ArrowRight","","","","","","",""
"html-keyboard-response","103","494608","0.0-3.0-11.0-11.0-1.1","spark_pilot_norest","13403","3","9","Female","","","","","","","null","<div style=""font-size:60px;"">+</div>","null","fixation","","","","","","","","","","","",""
"learning-instructions","104","500324","0.0-3.0-12.0-0.0","spark_pilot_norest","13403","3","9","Female","","","","","","","1139.4000000059605","<p> Before you start, we're going to ask you a few questions about how the game works. </p>","","instructions","","","","","","","","","","","",""
"comp-q","105","507593","0.0-3.0-13.0-0.0-0.0","spark_pilot_norest","13403","3","9","Female","","","","","","","1672.6000000238419","<p> <b> True or False? </b> </p>
            <p> There can be 50 pieces of treasure in a given animal's chest. </p>","1","comp_question","","","","true","","","","","","","",""
"comp-q","106","518215","0.0-3.0-13.0-0.0-1.0","spark_pilot_norest","13403","3","9","Female","","","","","","","3962","<p> <b> That's right! </b> The amount of treasure in each chest can range from 0 to 40 pieces. </p>","0","comp_answer","","","","","","","","","","","",""
"comp-q","107","526819","0.0-3.0-13.0-0.1-0.1","spark_pilot_norest","13403","3","9","Female","","","","","","","1479.5","<p> <b> True or False? </b> </p><p> In this game, all animals have the same amount of treasure in their left and right chests. </p>","1","comp_question","","","","true","","","","","","","",""
"comp-q","108","534529","0.0-3.0-13.0-0.1-1.1","spark_pilot_norest","13403","3","9","Female","","","","","","","2469.399999976158","<p> <b> That's right! </b> Animals have different amounts of treasure in their treasure chests. </p>","0","comp_answer","","","","","","","","","","","",""
"comp-q","109","541613","0.0-3.0-13.0-0.2-0.2","spark_pilot_norest","13403","3","9","Female","","","","","","","1232.5999999940395","<p> <b> True or False? </b> </p><p> The same animal will always be there if you go up in the same place. </p>","0","comp_question","","","","true","","","","","","","",""
"comp-q","110","550499","0.0-3.0-13.0-0.2-1.2","spark_pilot_norest","13403","3","9","Female","","","","","","","2439.699999988079","<p> <b> That's right! </b> One animal lives in the upper part and one lives in the lower part of every place. </p>","0","comp_answer","","","","","","","","","","","",""
"comp-q","111","561814","0.0-3.0-13.0-0.3-0.3","spark_pilot_norest","13403","3","9","Female","","","","","","","5785.4000000059605","<p> <b> True or False? </b> </p><p> If you see a different picture, it means you are in a new place. </p>","1","comp_question","","","","true","","","","","","","",""
"comp-q","112","574536","0.0-3.0-13.0-0.3-1.3","spark_pilot_norest","13403","3","9","Female","","","","","","","1474.199999988079","<p> <b> That's right! </b> Lots of different images may show the same place. For example,  you may see three different images that all remind you that you are in outer space. </p>","0","comp_answer","","","","","","","","","","","",""
"learning-instructions","113","586472","0.0-3.0-14.0-0.0","spark_pilot_norest","13403","3","9","Female","","","","","","","2081.7999999821186","<p> Good job. Remember to do your best because the amount of treasure you earn will be converted into bonus money. </p>
            <p> It’s time to start the real game! </p>","","instructions","","","","","","","","","","","",""
"learning-instructions","114","590028","0.0-4.0-0.0-0.0","spark_pilot_norest","13403","3","9","Female","","","","","","","848.6999999880791","<p> This time you are searching for treasure in the <b>ocean</b>.</p>","","instructions","","","","","","","","","","","",""
"learning-instructions","115","624306","0.0-4.0-0.0-0.1","spark_pilot_norest","13403","3","9","Female","","","","","","","16960.69999998808","<p><b>New</b> animals with <b>new</b> treasure chests live here. You need to explore to discover where the animal with the best treasure chest is.</p>
                    <p> Like before, once you figure out which animal has the chest with the most treasure, you should try to get to that animal and select that chest! </p>","","instructions","","","","","","","","","","","",""
"learning-instructions","116","640206","0.0-4.0-1.0-0.0","spark_pilot_norest","13403","3","9","Female","","","","","","","1170.5","<p> Remember, when you see a picture of the place, use the up and down keys to <b>find an animal</b>.</p>
            <p> When you encounter an animal, you should use the left and right keys to <b>select a treasure chest</b>.</p>
            <p> Don't forget to look out for the robber! </p>","","instructions","","","","","","","","","","","",""
"revaluation","117","646224","0.0-4.0-2.0-0.0","spark_pilot_norest","13403","3","9","Female","","false","","","","","[1181.5,893.3999999761581]","./assets/img/ocean/memory/26.jpg","[""ArrowDown"",""ArrowRight""]","value training","ocean","30","{""ArrowUp,ArrowLeft"":23,""ArrowUp,ArrowRight"":10,""ArrowDown,ArrowLeft"":8,""ArrowDown,ArrowRight"":30}","true","ArrowDown,ArrowRight","false","original","1","0","","",""
"html-keyboard-response","118","646731","0.0-4.0-2.0-1.0","spark_pilot_norest","13403","3","9","Female","","","","","","","null","<div style=""font-size:60px;"">+</div>","null","fixation","","","","","","","","","1","","",""
"revaluation","119","652767","0.0-4.0-2.0-0.1","spark_pilot_norest","13403","3","9","Female","","false","","","","","[755.8000000119209,533.5999999940395]","./assets/img/ocean/memory/18.jpg","[""ArrowUp"",""ArrowRight""]","value training","ocean","10","{""ArrowUp,ArrowLeft"":23,""ArrowUp,ArrowRight"":10,""ArrowDown,ArrowLeft"":8,""ArrowDown,ArrowRight"":30}","false","ArrowUp,ArrowRight","false","original","1","2","","",""
"html-keyboard-response","120","653283","0.0-4.0-2.0-1.1","spark_pilot_norest","13403","3","9","Female","","","","","","","null","<div style=""font-size:60px;"">+</div>","null","fixation","","","","","","","","","3","","",""
"revaluation","121","659306","0.0-4.0-2.0-0.2","spark_pilot_norest","13403","3","9","Female","","false","","","","","[552.6999999880791,377.5]","./assets/img/ocean/memory/2.jpg","[""ArrowDown"",""ArrowRight""]","value training","ocean","30","{""ArrowUp,ArrowLeft"":23,""ArrowUp,ArrowRight"":10,""ArrowDown,ArrowLeft"":8,""ArrowDown,ArrowRight"":30}","true","ArrowDown,ArrowRight","false","original","1","4","","",""
"html-keyboard-response","122","659824","0.0-4.0-2.0-1.2","spark_pilot_norest","13403","3","9","Female","","","","","","","null","<div style=""font-size:60px;"">+</div>","null","fixation","","","","","","","","","5","","",""
"revaluation","123","665848","0.0-4.0-2.0-0.3","spark_pilot_norest","13403","3","9","Female","","false","","","","","[660.5,460.40000000596046]","./assets/img/ocean/memory/16.jpg","[""ArrowDown"",""ArrowLeft""]","value training","ocean","8","{""ArrowUp,ArrowLeft"":23,""ArrowUp,ArrowRight"":10,""ArrowDown,ArrowLeft"":8,""ArrowDown,ArrowRight"":30}","false","ArrowDown,ArrowLeft","false","original","1","6","","",""
"html-keyboard-response","124","666350","0.0-4.0-2.0-1.3","spark_pilot_norest","13403","3","9","Female","","","","","","","null","<div style=""font-size:60px;"">+</div>","null","fixation","","","","","","","","","7","","",""
"revaluation","125","672371","0.0-4.0-2.0-0.4","spark_pilot_norest","13403","3","9","Female","","false","","","","","[496.09999999403954,417.7999999821186]","./assets/img/ocean/memory/28.jpg","[""ArrowDown"",""ArrowRight""]","value training","ocean","30","{""ArrowUp,ArrowLeft"":23,""ArrowUp,ArrowRight"":10,""ArrowDown,ArrowLeft"":8,""ArrowDown,ArrowRight"":30}","true","ArrowDown,ArrowRight","false","original","1","8","","",""
"html-keyboard-response","126","672874","0.0-4.0-2.0-1.4","spark_pilot_norest","13403","3","9","Female","","","","","","","null","<div style=""font-size:60px;"">+</div>","null","fixation","","","","","","","","","9","","",""
"revaluation","127","678903","0.0-4.0-2.0-0.5","spark_pilot_norest","13403","3","9","Female","","false","","","","","[1847,640.5]","./assets/img/ocean/memory/23.jpg","[""ArrowUp"",""ArrowLeft""]","value training","ocean","23","{""ArrowUp,ArrowLeft"":23,""ArrowUp,ArrowRight"":10,""ArrowDown,ArrowLeft"":8,""ArrowDown,ArrowRight"":30}","false","ArrowUp,ArrowLeft","false","original","1","10","","",""
"html-keyboard-response","128","679409","0.0-4.0-2.0-1.5","spark_pilot_norest","13403","3","9","Female","","","","","","","null","<div style=""font-size:60px;"">+</div>","null","fixation","","","","","","","","","11","","",""
"revaluation","129","685432","0.0-4.0-2.0-0.6","spark_pilot_norest","13403","3","9","Female","","false","","","","","[516.7000000178814,413]","./assets/img/ocean/memory/23.jpg","[""ArrowDown"",""ArrowRight""]","value training","ocean","30","{""ArrowUp,ArrowLeft"":23,""ArrowUp,ArrowRight"":10,""ArrowDown,ArrowLeft"":8,""ArrowDown,ArrowRight"":30}","true","ArrowDown,ArrowRight","false","original","1","12","","",""
"html-keyboard-response","130","685934","0.0-4.0-2.0-1.6","spark_pilot_norest","13403","3","9","Female","","","","","","","null","<div style=""font-size:60px;"">+</div>","null","fixation","","","","","","","","","13","","",""
"revaluation","131","691949","0.0-4.0-2.0-0.7","spark_pilot_norest","13403","3","9","Female","","false","","","","","[1298.5,456.59999999403954]","./assets/img/ocean/memory/20.jpg","[""ArrowDown"",""ArrowRight""]","value training","ocean","30","{""ArrowUp,ArrowLeft"":23,""ArrowUp,ArrowRight"":10,""ArrowDown,ArrowLeft"":8,""ArrowDown,ArrowRight"":30}","true","ArrowDown,ArrowRight","false","original","1","14","","",""
"html-keyboard-response","132","692456","0.0-4.0-2.0-1.7","spark_pilot_norest","13403","3","9","Female","","","","","","","null","<div style=""font-size:60px;"">+</div>","null","fixation","","","","","","","","","15","","",""
"revaluation","133","698473","0.0-4.0-2.0-0.8","spark_pilot_norest","13403","3","9","Female","","false","","","","","[456.59999999403954,400.69999998807907]","./assets/img/ocean/memory/11.jpg","[""ArrowDown"",""ArrowRight""]","value training","ocean","30","{""ArrowUp,ArrowLeft"":23,""ArrowUp,ArrowRight"":10,""ArrowDown,ArrowLeft"":8,""ArrowDown,ArrowRight"":30}","true","ArrowDown,ArrowRight","false","original","1","16","","",""
"html-keyboard-response","134","698975","0.0-4.0-2.0-1.8","spark_pilot_norest","13403","3","9","Female","","","","","","","null","<div style=""font-size:60px;"">+</div>","null","fixation","","","","","","","","","17","","",""
"revaluation","135","702990","0.0-4.0-2.0-0.9","spark_pilot_norest","13403","3","9","Female","","false","","","","","[782.7999999821186]","./assets/img/ocean/catch/6.jpg","[""spaceBar""]","value training","ocean","0","{""ArrowUp,ArrowLeft"":23,""ArrowUp,ArrowRight"":10,""ArrowDown,ArrowLeft"":8,""ArrowDown,ArrowRight"":30}","true","spaceBar","true","original","1","18","","",""
"html-keyboard-response","136","703494","0.0-4.0-2.0-1.9","spark_pilot_norest","13403","3","9","Female","","","","","","","null","<div style=""font-size:60px;"">+</div>","null","fixation","","","","","","","","","19","","",""
"revaluation","137","709522","0.0-4.0-2.0-0.10","spark_pilot_norest","13403","3","9","Female","","false","","","","","[1081.4000000059605,595]","./assets/img/ocean/memory/15.jpg","[""ArrowDown"",""ArrowRight""]","value training","ocean","30","{""ArrowUp,ArrowLeft"":23,""ArrowUp,ArrowRight"":10,""ArrowDown,ArrowLeft"":8,""ArrowDown,ArrowRight"":30}","true","ArrowDown,ArrowRight","false","original","1","20","","",""
"html-keyboard-response","138","710033","0.0-4.0-2.0-1.10","spark_pilot_norest","13403","3","9","Female","","","","","","","null","<div style=""font-size:60px;"">+</div>","null","fixation","","","","","","","","","21","","",""
"revaluation","139","716059","0.0-4.0-2.0-0.11","spark_pilot_norest","13403","3","9","Female","","false","","","","","[797.9000000059605,411.59999999403954]","./assets/img/ocean/memory/7.jpg","[""ArrowDown"",""ArrowRight""]","value training","ocean","30","{""ArrowUp,ArrowLeft"":23,""ArrowUp,ArrowRight"":10,""ArrowDown,ArrowLeft"":8,""ArrowDown,ArrowRight"":30}","true","ArrowDown,ArrowRight","false","original","1","22","","",""
"html-keyboard-response","140","716561","0.0-4.0-2.0-1.11","spark_pilot_norest","13403","3","9","Female","","","","","","","null","<div style=""font-size:60px;"">+</div>","null","fixation","","","","","","","","","23","","",""
"revaluation","141","722586","0.0-4.0-2.0-0.12","spark_pilot_norest","13403","3","9","Female","","false","","","","","[482.09999999403954,465.59999999403954]","./assets/img/ocean/memory/25.jpg","[""ArrowDown"",""ArrowRight""]","value training","ocean","30","{""ArrowUp,ArrowLeft"":23,""ArrowUp,ArrowRight"":10,""ArrowDown,ArrowLeft"":8,""ArrowDown,ArrowRight"":30}","true","ArrowDown,ArrowRight","false","original","1","24","","",""
"html-keyboard-response","142","723093","0.0-4.0-2.0-1.12","spark_pilot_norest","13403","3","9","Female","","","","","","","null","<div style=""font-size:60px;"">+</div>","null","fixation","","","","","","","","","25","","",""
"revaluation","143","729116","0.0-4.0-2.0-0.13","spark_pilot_norest","13403","3","9","Female","","false","","","","","[516.5,538]","./assets/img/ocean/memory/11.jpg","[""ArrowDown"",""ArrowRight""]","value training","ocean","30","{""ArrowUp,ArrowLeft"":23,""ArrowUp,ArrowRight"":10,""ArrowDown,ArrowLeft"":8,""ArrowDown,ArrowRight"":30}","true","ArrowDown,ArrowRight","false","original","1","26","","",""
"html-keyboard-response","144","729625","0.0-4.0-2.0-1.13","spark_pilot_norest","13403","3","9","Female","","","","","","","null","<div style=""font-size:60px;"">+</div>","null","fixation","","","","","","","","","27","","",""
"revaluation","145","735656","0.0-4.0-2.0-0.14","spark_pilot_norest","13403","3","9","Female","","false","","","","","[438.30000001192093,626.4000000059605]","./assets/img/ocean/memory/19.jpg","[""ArrowDown"",""ArrowRight""]","value training","ocean","30","{""ArrowUp,ArrowLeft"":23,""ArrowUp,ArrowRight"":10,""ArrowDown,ArrowLeft"":8,""ArrowDown,ArrowRight"":30}","true","ArrowDown,ArrowRight","false","original","1","28","","",""
"html-keyboard-response","146","736157","0.0-4.0-2.0-1.14","spark_pilot_norest","13403","3","9","Female","","","","","","","null","<div style=""font-size:60px;"">+</div>","null","fixation","","","","","","","","","29","","",""
"revaluation","147","740168","0.0-4.0-2.0-0.15","spark_pilot_norest","13403","3","9","Female","","false","","","","","[614]","./assets/img/ocean/catch/0.jpg","[""spaceBar""]","value training","ocean","0","{""ArrowUp,ArrowLeft"":23,""ArrowUp,ArrowRight"":10,""ArrowDown,ArrowLeft"":8,""ArrowDown,ArrowRight"":30}","true","spaceBar","true","original","1","30","","",""
"html-keyboard-response","148","740670","0.0-4.0-2.0-1.15","spark_pilot_norest","13403","3","9","Female","","","","","","","null","<div style=""font-size:60px;"">+</div>","null","fixation","","","","","","","","","31","","",""
"revaluation","149","746693","0.0-4.0-2.0-0.16","spark_pilot_norest","13403","3","9","Female","","false","","","","","[503,445]","./assets/img/ocean/memory/19.jpg","[""ArrowDown"",""ArrowRight""]","value training","ocean","30","{""ArrowUp,ArrowLeft"":23,""ArrowUp,ArrowRight"":10,""ArrowDown,ArrowLeft"":8,""ArrowDown,ArrowRight"":30}","true","ArrowDown,ArrowRight","false","original","1","32","","",""
"html-keyboard-response","150","747196","0.0-4.0-2.0-1.16","spark_pilot_norest","13403","3","9","Female","","","","","","","null","<div style=""font-size:60px;"">+</div>","null","fixation","","","","","","","","","33","","",""
"revaluation","151","751208","0.0-4.0-2.0-0.17","spark_pilot_norest","13403","3","9","Female","","false","","","","","[670.2000000178814]","./assets/img/ocean/catch/7.jpg","[""ArrowDown""]","value training","ocean","-10","{""ArrowUp,ArrowLeft"":23,""ArrowUp,ArrowRight"":10,""ArrowDown,ArrowLeft"":8,""ArrowDown,ArrowRight"":30}","false","ArrowDown","true","original","1","34","","",""
"html-keyboard-response","152","751718","0.0-4.0-2.0-1.17","spark_pilot_norest","13403","3","9","Female","","","","","","","null","<div style=""font-size:60px;"">+</div>","null","fixation","","","","","","","","","35","","",""
"revaluation","153","757732","0.0-4.0-2.0-0.18","spark_pilot_norest","13403","3","9","Female","","false","","","","","[788,333.5]","./assets/img/ocean/memory/6.jpg","[""ArrowDown"",""ArrowRight""]","value training","ocean","30","{""ArrowUp,ArrowLeft"":23,""ArrowUp,ArrowRight"":10,""ArrowDown,ArrowLeft"":8,""ArrowDown,ArrowRight"":30}","true","ArrowDown,ArrowRight","false","original","1","36","","",""
"html-keyboard-response","154","758235","0.0-4.0-2.0-1.18","spark_pilot_norest","13403","3","9","Female","","","","","","","null","<div style=""font-size:60px;"">+</div>","null","fixation","","","","","","","","","37","","",""
"revaluation","155","764256","0.0-4.0-2.0-0.19","spark_pilot_norest","13403","3","9","Female","","false","","","","","[870.7999999821186,453.09999999403954]","./assets/img/ocean/memory/10.jpg","[""ArrowDown"",""ArrowRight""]","value training","ocean","30","{""ArrowUp,ArrowLeft"":23,""ArrowUp,ArrowRight"":10,""ArrowDown,ArrowLeft"":8,""ArrowDown,ArrowRight"":30}","true","ArrowDown,ArrowRight","false","original","1","38","","",""
"html-keyboard-response","156","764765","0.0-4.0-2.0-1.19","spark_pilot_norest","13403","3","9","Female","","","","","","","null","<div style=""font-size:60px;"">+</div>","null","fixation","","","","","","","","","39","","",""
"revaluation","157","770792","0.0-4.0-2.0-0.20","spark_pilot_norest","13403","3","9","Female","","false","","","","","[478,681.2000000178814]","./assets/img/ocean/memory/10.jpg","[""ArrowDown"",""ArrowRight""]","value training","ocean","30","{""ArrowUp,ArrowLeft"":23,""ArrowUp,ArrowRight"":10,""ArrowDown,ArrowLeft"":8,""ArrowDown,ArrowRight"":30}","true","ArrowDown,ArrowRight","false","original","1","40","","",""
"html-keyboard-response","158","771299","0.0-4.0-2.0-1.20","spark_pilot_norest","13403","3","9","Female","","","","","","","null","<div style=""font-size:60px;"">+</div>","null","fixation","","","","","","","","","41","","",""
"revaluation","159","777317","0.0-4.0-2.0-0.21","spark_pilot_norest","13403","3","9","Female","","false","","","","","[459.7000000178814,370.2999999821186]","./assets/img/ocean/memory/31.jpg","[""ArrowDown"",""ArrowRight""]","value training","ocean","30","{""ArrowUp,ArrowLeft"":23,""ArrowUp,ArrowRight"":10,""ArrowDown,ArrowLeft"":8,""ArrowDown,ArrowRight"":30}","true","ArrowDown,ArrowRight","false","original","1","42","","",""
"html-keyboard-response","160","777822","0.0-4.0-2.0-1.21","spark_pilot_norest","13403","3","9","Female","","","","","","","null","<div style=""font-size:60px;"">+</div>","null","fixation","","","","","","","","","43","","",""
"revaluation","161","781840","0.0-4.0-2.0-0.22","spark_pilot_norest","13403","3","9","Female","","false","","","","","[526.7000000178814]","./assets/img/ocean/catch/4.jpg","[""spaceBar""]","value training","ocean","0","{""ArrowUp,ArrowLeft"":23,""ArrowUp,ArrowRight"":10,""ArrowDown,ArrowLeft"":8,""ArrowDown,ArrowRight"":30}","true","spaceBar","true","original","1","44","","",""
"html-keyboard-response","162","782345","0.0-4.0-2.0-1.22","spark_pilot_norest","13403","3","9","Female","","","","","","","null","<div style=""font-size:60px;"">+</div>","null","fixation","","","","","","","","","45","","",""
"revaluation","163","788367","0.0-4.0-2.0-0.23","spark_pilot_norest","13403","3","9","Female","","false","","","","","[598.5,451.10000002384186]","./assets/img/ocean/memory/3.jpg","[""ArrowDown"",""ArrowRight""]","value training","ocean","30","{""ArrowUp,ArrowLeft"":23,""ArrowUp,ArrowRight"":10,""ArrowDown,ArrowLeft"":8,""ArrowDown,ArrowRight"":30}","true","ArrowDown,ArrowRight","false","original","1","46","","",""
"html-keyboard-response","164","788878","0.0-4.0-2.0-1.23","spark_pilot_norest","13403","3","9","Female","","","","","","","null","<div style=""font-size:60px;"">+</div>","null","fixation","","","","","","","","","47","","",""
"revaluation","165","794903","0.0-4.0-2.0-0.24","spark_pilot_norest","13403","3","9","Female","","false","","","","","[532.5,448.60000002384186]","./assets/img/ocean/memory/29.jpg","[""ArrowDown"",""ArrowRight""]","value training","ocean","30","{""ArrowUp,ArrowLeft"":23,""ArrowUp,ArrowRight"":10,""ArrowDown,ArrowLeft"":8,""ArrowDown,ArrowRight"":30}","true","ArrowDown,ArrowRight","false","original","1","48","","",""
"html-keyboard-response","166","795409","0.0-4.0-2.0-1.24","spark_pilot_norest","13403","3","9","Female","","","","","","","null","<div style=""font-size:60px;"">+</div>","null","fixation","","","","","","","","","49","","",""
"revaluation","167","801426","0.0-4.0-2.0-0.25","spark_pilot_norest","13403","3","9","Female","","false","","","","","[467.5,476.40000000596046]","./assets/img/ocean/memory/40.jpg","[""ArrowDown"",""ArrowRight""]","value training","ocean","30","{""ArrowUp,ArrowLeft"":23,""ArrowUp,ArrowRight"":10,""ArrowDown,ArrowLeft"":8,""ArrowDown,ArrowRight"":30}","true","ArrowDown,ArrowRight","false","original","1","50","","",""
"html-keyboard-response","168","801939","0.0-4.0-2.0-1.25","spark_pilot_norest","13403","3","9","Female","","","","","","","null","<div style=""font-size:60px;"">+</div>","null","fixation","","","","","","","","","51","","",""
"revaluation","169","807960","0.0-4.0-2.0-0.26","spark_pilot_norest","13403","3","9","Female","","false","","","","","[891.0999999940395,472.19999998807907]","./assets/img/ocean/memory/20.jpg","[""ArrowDown"",""ArrowRight""]","value training","ocean","30","{""ArrowUp,ArrowLeft"":23,""ArrowUp,ArrowRight"":10,""ArrowDown,ArrowLeft"":8,""ArrowDown,ArrowRight"":30}","true","ArrowDown,ArrowRight","false","original","1","52","","",""
"html-keyboard-response","170","808468","0.0-4.0-2.0-1.26","spark_pilot_norest","13403","3","9","Female","","","","","","","null","<div style=""font-size:60px;"">+</div>","null","fixation","","","","","","","","","53","","",""
"revaluation","171","814492","0.0-4.0-2.0-0.27","spark_pilot_norest","13403","3","9","Female","","false","","","","","[470.7999999821186,420.80000001192093]","./assets/img/ocean/memory/40.jpg","[""ArrowDown"",""ArrowRight""]","value training","ocean","30","{""ArrowUp,ArrowLeft"":23,""ArrowUp,ArrowRight"":10,""ArrowDown,ArrowLeft"":8,""ArrowDown,ArrowRight"":30}","true","ArrowDown,ArrowRight","false","original","1","54","","",""
"html-keyboard-response","172","814998","0.0-4.0-2.0-1.27","spark_pilot_norest","13403","3","9","Female","","","","","","","null","<div style=""font-size:60px;"">+</div>","null","fixation","","","","","","","","","55","","",""
"revaluation","173","821021","0.0-4.0-2.0-0.28","spark_pilot_norest","13403","3","9","Female","","false","","","","","[728.6000000238419,348]","./assets/img/ocean/memory/32.jpg","[""ArrowDown"",""ArrowRight""]","value training","ocean","30","{""ArrowUp,ArrowLeft"":23,""ArrowUp,ArrowRight"":10,""ArrowDown,ArrowLeft"":8,""ArrowDown,ArrowRight"":30}","true","ArrowDown,ArrowRight","false","original","1","56","","",""
"html-keyboard-response","174","821538","0.0-4.0-2.0-1.28","spark_pilot_norest","13403","3","9","Female","","","","","","","null","<div style=""font-size:60px;"">+</div>","null","fixation","","","","","","","","","57","","",""
"revaluation","175","827567","0.0-4.0-2.0-0.29","spark_pilot_norest","13403","3","9","Female","","false","","","","","[403.59999999403954,393.80000001192093]","./assets/img/ocean/memory/21.jpg","[""ArrowDown"",""ArrowRight""]","value training","ocean","30","{""ArrowUp,ArrowLeft"":23,""ArrowUp,ArrowRight"":10,""ArrowDown,ArrowLeft"":8,""ArrowDown,ArrowRight"":30}","true","ArrowDown,ArrowRight","false","original","1","58","","",""
"html-keyboard-response","176","828073","0.0-4.0-2.0-1.29","spark_pilot_norest","13403","3","9","Female","","","","","","","null","<div style=""font-size:60px;"">+</div>","null","fixation","","","","","","","","","59","","",""
"revaluation","177","834094","0.0-4.0-2.0-0.30","spark_pilot_norest","13403","3","9","Female","","false","","","","","[395.60000002384186,787.5]","./assets/img/ocean/memory/25.jpg","[""ArrowDown"",""ArrowRight""]","value training","ocean","30","{""ArrowUp,ArrowLeft"":23,""ArrowUp,ArrowRight"":10,""ArrowDown,ArrowLeft"":8,""ArrowDown,ArrowRight"":30}","true","ArrowDown,ArrowRight","false","original","1","60","","",""
"html-keyboard-response","178","834601","0.0-4.0-2.0-1.30","spark_pilot_norest","13403","3","9","Female","","","","","","","null","<div style=""font-size:60px;"">+</div>","null","fixation","","","","","","","","","61","","",""
"revaluation","179","840625","0.0-4.0-2.0-0.31","spark_pilot_norest","13403","3","9","Female","","false","","","","","[682.2000000178814,475]","./assets/img/ocean/memory/28.jpg","[""ArrowDown"",""ArrowRight""]","value training","ocean","30","{""ArrowUp,ArrowLeft"":23,""ArrowUp,ArrowRight"":10,""ArrowDown,ArrowLeft"":8,""ArrowDown,ArrowRight"":30}","true","ArrowDown,ArrowRight","false","original","1","62","","",""
"html-keyboard-response","180","841128","0.0-4.0-2.0-1.31","spark_pilot_norest","13403","3","9","Female","","","","","","","null","<div style=""font-size:60px;"">+</div>","null","fixation","","","","","","","","","63","","",""
"revaluation","181","847141","0.0-4.0-2.0-0.32","spark_pilot_norest","13403","3","9","Female","","false","","","","","[1271.7999999821186,1269.4000000059605]","./assets/img/ocean/memory/27.jpg","[""ArrowDown"",""ArrowRight""]","value training","ocean","30","{""ArrowUp,ArrowLeft"":23,""ArrowUp,ArrowRight"":10,""ArrowDown,ArrowLeft"":8,""ArrowDown,ArrowRight"":30}","true","ArrowDown,ArrowRight","false","original","1","64","","",""
"html-keyboard-response","182","847646","0.0-4.0-2.0-1.32","spark_pilot_norest","13403","3","9","Female","","","","","","","null","<div style=""font-size:60px;"">+</div>","null","fixation","","","","","","","","","65","","",""
"revaluation","183","853669","0.0-4.0-2.0-0.33","spark_pilot_norest","13403","3","9","Female","","false","","","","","[695.4000000059605,486.09999999403954]","./assets/img/ocean/memory/31.jpg","[""ArrowDown"",""ArrowRight""]","value training","ocean","30","{""ArrowUp,ArrowLeft"":23,""ArrowUp,ArrowRight"":10,""ArrowDown,ArrowLeft"":8,""ArrowDown,ArrowRight"":30}","true","ArrowDown,ArrowRight","false","original","1","66","","",""
"html-keyboard-response","184","854183","0.0-4.0-2.0-1.33","spark_pilot_norest","13403","3","9","Female","","","","","","","null","<div style=""font-size:60px;"">+</div>","null","fixation","","","","","","","","","67","","",""
"revaluation","185","858202","0.0-4.0-2.0-0.34","spark_pilot_norest","13403","3","9","Female","","false","","","","","[716.2000000178814]","./assets/img/ocean/catch/3.jpg","[""spaceBar""]","value training","ocean","0","{""ArrowUp,ArrowLeft"":23,""ArrowUp,ArrowRight"":10,""ArrowDown,ArrowLeft"":8,""ArrowDown,ArrowRight"":30}","true","spaceBar","true","original","1","68","","",""
"html-keyboard-response","186","858711","0.0-4.0-2.0-1.34","spark_pilot_norest","13403","3","9","Female","","","","","","","null","<div style=""font-size:60px;"">+</div>","null","fixation","","","","","","","","","69","","",""
"revaluation","187","864731","0.0-4.0-2.0-0.35","spark_pilot_norest","13403","3","9","Female","","false","","","","","[1710.300000011921,731.6999999880791]","./assets/img/ocean/memory/29.jpg","[""ArrowDown"",""ArrowRight""]","value training","ocean","30","{""ArrowUp,ArrowLeft"":23,""ArrowUp,ArrowRight"":10,""ArrowDown,ArrowLeft"":8,""ArrowDown,ArrowRight"":30}","true","ArrowDown,ArrowRight","false","original","1","70","","",""
"html-keyboard-response","188","865241","0.0-4.0-2.0-1.35","spark_pilot_norest","13403","3","9","Female","","","","","","","null","<div style=""font-size:60px;"">+</div>","null","fixation","","","","","","","","","71","","",""
"revaluation","189","869256","0.0-4.0-2.0-0.36","spark_pilot_norest","13403","3","9","Female","","false","","","","","[554.2000000178814]","./assets/img/ocean/catch/1.jpg","[""spaceBar""]","value training","ocean","0","{""ArrowUp,ArrowLeft"":23,""ArrowUp,ArrowRight"":10,""ArrowDown,ArrowLeft"":8,""ArrowDown,ArrowRight"":30}","true","spaceBar","true","original","1","72","","",""
"html-keyboard-response","190","869764","0.0-4.0-2.0-1.36","spark_pilot_norest","13403","3","9","Female","","","","","","","null","<div style=""font-size:60px;"">+</div>","null","fixation","","","","","","","","","73","","",""
"revaluation","191","875784","0.0-4.0-2.0-0.37","spark_pilot_norest","13403","3","9","Female","","false","","","","","[679.3999999761581,641.5]","./assets/img/ocean/memory/32.jpg","[""ArrowDown"",""ArrowRight""]","value training","ocean","30","{""ArrowUp,ArrowLeft"":23,""ArrowUp,ArrowRight"":10,""ArrowDown,ArrowLeft"":8,""ArrowDown,ArrowRight"":30}","true","ArrowDown,ArrowRight","false","original","1","74","","",""
"html-keyboard-response","192","876303","0.0-4.0-2.0-1.37","spark_pilot_norest","13403","3","9","Female","","","","","","","null","<div style=""font-size:60px;"">+</div>","null","fixation","","","","","","","","","75","","",""
"revaluation","193","882338","0.0-4.0-2.0-0.38","spark_pilot_norest","13403","3","9","Female","","false","","","","","[784.4000000059605,671.1000000238419]","./assets/img/ocean/memory/7.jpg","[""ArrowDown"",""ArrowRight""]","value training","ocean","30","{""ArrowUp,ArrowLeft"":23,""ArrowUp,ArrowRight"":10,""ArrowDown,ArrowLeft"":8,""ArrowDown,ArrowRight"":30}","true","ArrowDown,ArrowRight","false","original","1","76","","",""
"html-keyboard-response","194","882841","0.0-4.0-2.0-1.38","spark_pilot_norest","13403","3","9","Female","","","","","","","null","<div style=""font-size:60px;"">+</div>","null","fixation","","","","","","","","","77","","",""
"revaluation","195","886852","0.0-4.0-2.0-0.39","spark_pilot_norest","13403","3","9","Female","","false","","","","","[632.9000000059605]","./assets/img/ocean/catch/2.jpg","[""spaceBar""]","value training","ocean","0","{""ArrowUp,ArrowLeft"":23,""ArrowUp,ArrowRight"":10,""ArrowDown,ArrowLeft"":8,""ArrowDown,ArrowRight"":30}","true","spaceBar","true","original","1","78","","",""
"html-keyboard-response","196","887361","0.0-4.0-2.0-1.39","spark_pilot_norest","13403","3","9","Female","","","","","","","null","<div style=""font-size:60px;"">+</div>","null","fixation","","","","","","","","","79","","",""
"revaluation","197","891376","0.0-4.0-2.0-0.40","spark_pilot_norest","13403","3","9","Female","","true","","","","","[]","./assets/img/ocean/memory/27.jpg","[]","value training","ocean","-5","{""ArrowUp,ArrowLeft"":23,""ArrowUp,ArrowRight"":10,""ArrowDown,ArrowLeft"":8,""ArrowDown,ArrowRight"":30}","false","","false","original","1","80","","",""
"html-keyboard-response","198","891881","0.0-4.0-2.0-1.40","spark_pilot_norest","13403","3","9","Female","","","","","","","null","<div style=""font-size:60px;"">+</div>","null","fixation","","","","","","","","","81","","",""
"revaluation","199","897900","0.0-4.0-2.0-0.41","spark_pilot_norest","13403","3","9","Female","","false","","","","","[706,827.2000000178814]","./assets/img/ocean/memory/6.jpg","[""ArrowDown"",""ArrowRight""]","value training","ocean","30","{""ArrowUp,ArrowLeft"":23,""ArrowUp,ArrowRight"":10,""ArrowDown,ArrowLeft"":8,""ArrowDown,ArrowRight"":30}","true","ArrowDown,ArrowRight","false","original","1","82","","",""
"html-keyboard-response","200","898403","0.0-4.0-2.0-1.41","spark_pilot_norest","13403","3","9","Female","","","","","","","null","<div style=""font-size:60px;"">+</div>","null","fixation","","","","","","","","","83","","",""
"revaluation","201","904429","0.0-4.0-2.0-0.42","spark_pilot_norest","13403","3","9","Female","","false","","","","","[1077.300000011921,864.2999999821186]","./assets/img/ocean/memory/2.jpg","[""ArrowDown"",""ArrowRight""]","value training","ocean","30","{""ArrowUp,ArrowLeft"":23,""ArrowUp,ArrowRight"":10,""ArrowDown,ArrowLeft"":8,""ArrowDown,ArrowRight"":30}","true","ArrowDown,ArrowRight","false","original","1","84","","",""
"html-keyboard-response","202","904937","0.0-4.0-2.0-1.42","spark_pilot_norest","13403","3","9","Female","","","","","","","null","<div style=""font-size:60px;"">+</div>","null","fixation","","","","","","","","","85","","",""
"revaluation","203","910959","0.0-4.0-2.0-0.43","spark_pilot_norest","13403","3","9","Female","","false","","","","","[667.5,883.4000000059605]","./assets/img/ocean/memory/18.jpg","[""ArrowDown"",""ArrowRight""]","value training","ocean","30","{""ArrowUp,ArrowLeft"":23,""ArrowUp,ArrowRight"":10,""ArrowDown,ArrowLeft"":8,""ArrowDown,ArrowRight"":30}","true","ArrowDown,ArrowRight","false","original","1","86","","",""
"html-keyboard-response","204","911472","0.0-4.0-2.0-1.43","spark_pilot_norest","13403","3","9","Female","","","","","","","null","<div style=""font-size:60px;"">+</div>","null","fixation","","","","","","","","","87","","",""
"revaluation","205","915489","0.0-4.0-2.0-0.44","spark_pilot_norest","13403","3","9","Female","","false","","","","","[607.8000000119209]","./assets/img/ocean/catch/5.jpg","[""ArrowDown""]","value training","ocean","-10","{""ArrowUp,ArrowLeft"":23,""ArrowUp,ArrowRight"":10,""ArrowDown,ArrowLeft"":8,""ArrowDown,ArrowRight"":30}","false","ArrowDown","true","original","1","88","","",""
"html-keyboard-response","206","915997","0.0-4.0-2.0-1.44","spark_pilot_norest","13403","3","9","Female","","","","","","","null","<div style=""font-size:60px;"">+</div>","null","fixation","","","","","","","","","89","","",""
"revaluation","207","922014","0.0-4.0-2.0-0.45","spark_pilot_norest","13403","3","9","Female","","false","","","","","[989.8000000119209,911]","./assets/img/ocean/memory/15.jpg","[""ArrowDown"",""ArrowRight""]","value training","ocean","30","{""ArrowUp,ArrowLeft"":23,""ArrowUp,ArrowRight"":10,""ArrowDown,ArrowLeft"":8,""ArrowDown,ArrowRight"":30}","true","ArrowDown,ArrowRight","false","original","1","90","","",""
"html-keyboard-response","208","922531","0.0-4.0-2.0-1.45","spark_pilot_norest","13403","3","9","Female","","","","","","","null","<div style=""font-size:60px;"">+</div>","null","fixation","","","","","","","","","91","","",""
"revaluation","209","928547","0.0-4.0-2.0-0.46","spark_pilot_norest","13403","3","9","Female","","false","","","","","[595,606.5999999940395]","./assets/img/ocean/memory/3.jpg","[""ArrowDown"",""ArrowRight""]","value training","ocean","30","{""ArrowUp,ArrowLeft"":23,""ArrowUp,ArrowRight"":10,""ArrowDown,ArrowLeft"":8,""ArrowDown,ArrowRight"":30}","true","ArrowDown,ArrowRight","false","original","1","92","","",""
"html-keyboard-response","210","929053","0.0-4.0-2.0-1.46","spark_pilot_norest","13403","3","9","Female","","","","","","","null","<div style=""font-size:60px;"">+</div>","null","fixation","","","","","","","","","93","","",""
"revaluation","211","935068","0.0-4.0-2.0-0.47","spark_pilot_norest","13403","3","9","Female","","false","","","","","[589.6999999880791,613.7000000178814]","./assets/img/ocean/memory/16.jpg","[""ArrowDown"",""ArrowRight""]","value training","ocean","30","{""ArrowUp,ArrowLeft"":23,""ArrowUp,ArrowRight"":10,""ArrowDown,ArrowLeft"":8,""ArrowDown,ArrowRight"":30}","true","ArrowDown,ArrowRight","false","original","1","94","","",""
"html-keyboard-response","212","935579","0.0-4.0-2.0-1.47","spark_pilot_norest","13403","3","9","Female","","","","","","","null","<div style=""font-size:60px;"">+</div>","null","fixation","","","","","","","","","95","","",""
"revaluation","213","941602","0.0-4.0-2.0-0.48","spark_pilot_norest","13403","3","9","Female","","false","","","","","[588.8000000119209,629.5]","./assets/img/ocean/memory/21.jpg","[""ArrowDown"",""ArrowRight""]","value training","ocean","30","{""ArrowUp,ArrowLeft"":23,""ArrowUp,ArrowRight"":10,""ArrowDown,ArrowLeft"":8,""ArrowDown,ArrowRight"":30}","true","ArrowDown,ArrowRight","false","original","1","96","","",""
"html-keyboard-response","214","942109","0.0-4.0-2.0-1.48","spark_pilot_norest","13403","3","9","Female","","","","","","","null","<div style=""font-size:60px;"">+</div>","null","fixation","","","","","","","","","97","","",""
"revaluation","215","948131","0.0-4.0-2.0-0.49","spark_pilot_norest","13403","3","9","Female","","false","","","","","[902.7999999821186,677.0999999940395]","./assets/img/ocean/memory/26.jpg","[""ArrowDown"",""ArrowRight""]","value training","ocean","30","{""ArrowUp,ArrowLeft"":23,""ArrowUp,ArrowRight"":10,""ArrowDown,ArrowLeft"":8,""ArrowDown,ArrowRight"":30}","true","ArrowDown,ArrowRight","false","original","1","98","","",""
"html-keyboard-response","216","948639","0.0-4.0-2.0-1.49","spark_pilot_norest","13403","3","9","Female","","","","","","","null","<div style=""font-size:60px;"">+</div>","null","fixation","","","","","","","","","99","","",""
"learning-instructions","217","965133","0.0-4.0-3.0-0.0","spark_pilot_norest","13403","3","9","Female","","","","","","","3304.399999976158","<p> Now, you will travel with a friend who will choose whether you go up or down first. </p>
            <p> On these turns, you will just see the animal that they found. You will still get to choose which chest to search for treasure.</p>","","instructions","","","","","","","","","","","",""
"revaluation","218","969151","0.0-4.0-4.0-0.0","spark_pilot_norest","13403","3","9","Female","","false","","","","","[1649.800000011921]","./assets/img/ocean/animals/octopus.jpg","[""ArrowLeft""]","revaluation","ocean","23","{""ArrowUp,ArrowLeft"":23,""ArrowUp,ArrowRight"":10,""ArrowDown,ArrowLeft"":8,""ArrowDown,ArrowRight"":30}","true","ArrowUp,ArrowLeft","","original","1","0","","",""
"html-keyboard-response","219","969670","0.0-4.0-4.0-1.0","spark_pilot_norest","13403","3","9","Female","","","","","","","null","<div style=""font-size:60px;"">+</div>","null","fixation","","","","","","","","","1","","",""
"revaluation","220","973684","0.0-4.0-4.0-0.1","spark_pilot_norest","13403","3","9","Female","","false","","","","","[687.0999999940395]","./assets/img/ocean/animals/seahorse.jpg","[""ArrowRight""]","revaluation","ocean","30","{""ArrowUp,ArrowLeft"":23,""ArrowUp,ArrowRight"":10,""ArrowDown,ArrowLeft"":8,""ArrowDown,ArrowRight"":30}","true","ArrowDown,ArrowRight","","original","1","2","","",""
"html-keyboard-response","221","974191","0.0-4.0-4.0-1.1","spark_pilot_norest","13403","3","9","Female","","","","","","","null","<div style=""font-size:60px;"">+</div>","null","fixation","","","","","","","","","3","","",""
"revaluation","222","978212","0.0-4.0-4.0-0.2","spark_pilot_norest","13403","3","9","Female","","false","","","","","[1435.5]","./assets/img/ocean/animals/octopus.jpg","[""ArrowLeft""]","revaluation","ocean","23","{""ArrowUp,ArrowLeft"":23,""ArrowUp,ArrowRight"":10,""ArrowDown,ArrowLeft"":8,""ArrowDown,ArrowRight"":30}","true","ArrowUp,ArrowLeft","","original","1","4","","",""
"html-keyboard-response","223","978722","0.0-4.0-4.0-1.2","spark_pilot_norest","13403","3","9","Female","","","","","","","null","<div style=""font-size:60px;"">+</div>","null","fixation","","","","","","","","","5","","",""
"revaluation","224","982740","0.0-4.0-4.0-0.3","spark_pilot_norest","13403","3","9","Female","","false","","","","","[425.2000000178814]","./assets/img/ocean/animals/seahorse.jpg","[""ArrowRight""]","revaluation","ocean","30","{""ArrowUp,ArrowLeft"":23,""ArrowUp,ArrowRight"":10,""ArrowDown,ArrowLeft"":8,""ArrowDown,ArrowRight"":30}","true","ArrowDown,ArrowRight","","original","1","6","","",""
"html-keyboard-response","225","983255","0.0-4.0-4.0-1.3","spark_pilot_norest","13403","3","9","Female","","","","","","","null","<div style=""font-size:60px;"">+</div>","null","fixation","","","","","","","","","7","","",""
"revaluation","226","987280","0.0-4.0-4.0-0.4","spark_pilot_norest","13403","3","9","Female","","false","","","","","[874.9000000059605]","./assets/img/ocean/animals/seahorse.jpg","[""ArrowRight""]","revaluation","ocean","30","{""ArrowUp,ArrowLeft"":23,""ArrowUp,ArrowRight"":10,""ArrowDown,ArrowLeft"":8,""ArrowDown,ArrowRight"":30}","true","ArrowDown,ArrowRight","","original","1","8","","",""
"html-keyboard-response","227","987794","0.0-4.0-4.0-1.4","spark_pilot_norest","13403","3","9","Female","","","","","","","null","<div style=""font-size:60px;"">+</div>","null","fixation","","","","","","","","","9","","",""
"revaluation","228","991813","0.0-4.0-4.0-0.5","spark_pilot_norest","13403","3","9","Female","","false","","","","","[516.5999999940395]","./assets/img/ocean/animals/octopus.jpg","[""ArrowLeft""]","revaluation","ocean","23","{""ArrowUp,ArrowLeft"":23,""ArrowUp,ArrowRight"":10,""ArrowDown,ArrowLeft"":8,""ArrowDown,ArrowRight"":30}","true","ArrowUp,ArrowLeft","","original","1","10","","",""
"html-keyboard-response","229","992315","0.0-4.0-4.0-1.5","spark_pilot_norest","13403","3","9","Female","","","","","","","null","<div style=""font-size:60px;"">+</div>","null","fixation","","","","","","","","","11","","",""
"revaluation","230","996332","0.0-4.0-4.0-0.6","spark_pilot_norest","13403","3","9","Female","","false","","","","","[1447.800000011921]","./assets/img/ocean/animals/octopus.jpg","[""ArrowLeft""]","revaluation","ocean","23","{""ArrowUp,ArrowLeft"":23,""ArrowUp,ArrowRight"":10,""ArrowDown,ArrowLeft"":8,""ArrowDown,ArrowRight"":30}","true","ArrowUp,ArrowLeft","","original","1","12","","",""
"html-keyboard-response","231","996835","0.0-4.0-4.0-1.6","spark_pilot_norest","13403","3","9","Female","","","","","","","null","<div style=""font-size:60px;"">+</div>","null","fixation","","","","","","","","","13","","",""
"revaluation","232","1000855","0.0-4.0-4.0-0.7","spark_pilot_norest","13403","3","9","Female","","false","","","","","[1370.0999999940395]","./assets/img/ocean/animals/octopus.jpg","[""ArrowLeft""]","revaluation","ocean","23","{""ArrowUp,ArrowLeft"":23,""ArrowUp,ArrowRight"":10,""ArrowDown,ArrowLeft"":8,""ArrowDown,ArrowRight"":30}","true","ArrowUp,ArrowLeft","","original","1","14","","",""
"html-keyboard-response","233","1001361","0.0-4.0-4.0-1.7","spark_pilot_norest","13403","3","9","Female","","","","","","","null","<div style=""font-size:60px;"">+</div>","null","fixation","","","","","","","","","15","","",""
"revaluation","234","1005385","0.0-4.0-4.0-0.8","spark_pilot_norest","13403","3","9","Female","","false","","","","","[974]","./assets/img/ocean/animals/seahorse.jpg","[""ArrowRight""]","revaluation","ocean","30","{""ArrowUp,ArrowLeft"":23,""ArrowUp,ArrowRight"":10,""ArrowDown,ArrowLeft"":8,""ArrowDown,ArrowRight"":30}","true","ArrowDown,ArrowRight","","original","1","16","","",""
"html-keyboard-response","235","1005893","0.0-4.0-4.0-1.8","spark_pilot_norest","13403","3","9","Female","","","","","","","null","<div style=""font-size:60px;"">+</div>","null","fixation","","","","","","","","","17","","",""
"revaluation","236","1009901","0.0-4.0-4.0-0.9","spark_pilot_norest","13403","3","9","Female","","true","","","","","[]","./assets/img/ocean/animals/octopus.jpg","[]","revaluation","ocean","-5","{""ArrowUp,ArrowLeft"":23,""ArrowUp,ArrowRight"":10,""ArrowDown,ArrowLeft"":8,""ArrowDown,ArrowRight"":30}","false","ArrowUp","","original","1","18","","",""
"html-keyboard-response","237","1010405","0.0-4.0-4.0-1.9","spark_pilot_norest","13403","3","9","Female","","","","","","","null","<div style=""font-size:60px;"">+</div>","null","fixation","","","","","","","","","19","","",""
"revaluation","238","1014425","0.0-4.0-4.0-0.10","spark_pilot_norest","13403","3","9","Female","","false","","","","","[900.0999999940395]","./assets/img/ocean/animals/seahorse.jpg","[""ArrowRight""]","revaluation","ocean","30","{""ArrowUp,ArrowLeft"":23,""ArrowUp,ArrowRight"":10,""ArrowDown,ArrowLeft"":8,""ArrowDown,ArrowRight"":30}","true","ArrowDown,ArrowRight","","original","1","20","","",""
"html-keyboard-response","239","1014938","0.0-4.0-4.0-1.10","spark_pilot_norest","13403","3","9","Female","","","","","","","null","<div style=""font-size:60px;"">+</div>","null","fixation","","","","","","","","","21","","",""
"revaluation","240","1018955","0.0-4.0-4.0-0.11","spark_pilot_norest","13403","3","9","Female","","false","","","","","[513.9000000059605]","./assets/img/ocean/animals/seahorse.jpg","[""ArrowLeft""]","revaluation","ocean","8","{""ArrowUp,ArrowLeft"":23,""ArrowUp,ArrowRight"":10,""ArrowDown,ArrowLeft"":8,""ArrowDown,ArrowRight"":30}","false","ArrowDown,ArrowLeft","","original","1","22","","",""
"html-keyboard-response","241","1019457","0.0-4.0-4.0-1.11","spark_pilot_norest","13403","3","9","Female","","","","","","","null","<div style=""font-size:60px;"">+</div>","null","fixation","","","","","","","","","23","","",""
"revaluation","242","1023480","0.0-4.0-4.0-0.12","spark_pilot_norest","13403","3","9","Female","","false","","","","","[564.5]","./assets/img/ocean/animals/seahorse.jpg","[""ArrowRight""]","revaluation","ocean","30","{""ArrowUp,ArrowLeft"":23,""ArrowUp,ArrowRight"":10,""ArrowDown,ArrowLeft"":8,""ArrowDown,ArrowRight"":30}","true","ArrowDown,ArrowRight","","original","1","24","","",""
"html-keyboard-response","243","1023984","0.0-4.0-4.0-1.12","spark_pilot_norest","13403","3","9","Female","","","","","","","null","<div style=""font-size:60px;"">+</div>","null","fixation","","","","","","","","","25","","",""
"revaluation","244","1027998","0.0-4.0-4.0-0.13","spark_pilot_norest","13403","3","9","Female","","false","","","","","[756]","./assets/img/ocean/animals/octopus.jpg","[""ArrowLeft""]","revaluation","ocean","23","{""ArrowUp,ArrowLeft"":23,""ArrowUp,ArrowRight"":10,""ArrowDown,ArrowLeft"":8,""ArrowDown,ArrowRight"":30}","true","ArrowUp,ArrowLeft","","original","1","26","","",""
"html-keyboard-response","245","1028503","0.0-4.0-4.0-1.13","spark_pilot_norest","13403","3","9","Female","","","","","","","null","<div style=""font-size:60px;"">+</div>","null","fixation","","","","","","","","","27","","",""
"revaluation","246","1032519","0.0-4.0-4.0-0.14","spark_pilot_norest","13403","3","9","Female","","false","","","","","[940.9000000059605]","./assets/img/ocean/animals/octopus.jpg","[""ArrowLeft""]","revaluation","ocean","23","{""ArrowUp,ArrowLeft"":23,""ArrowUp,ArrowRight"":10,""ArrowDown,ArrowLeft"":8,""ArrowDown,ArrowRight"":30}","true","ArrowUp,ArrowLeft","","original","1","28","","",""
"html-keyboard-response","247","1033028","0.0-4.0-4.0-1.14","spark_pilot_norest","13403","3","9","Female","","","","","","","null","<div style=""font-size:60px;"">+</div>","null","fixation","","","","","","","","","29","","",""
"revaluation","248","1037048","0.0-4.0-4.0-0.15","spark_pilot_norest","13403","3","9","Female","","false","","","","","[1949.800000011921]","./assets/img/ocean/animals/octopus.jpg","[""ArrowLeft""]","revaluation","ocean","23","{""ArrowUp,ArrowLeft"":23,""ArrowUp,ArrowRight"":10,""ArrowDown,ArrowLeft"":8,""ArrowDown,ArrowRight"":30}","true","ArrowUp,ArrowLeft","","original","1","30","","",""
"html-keyboard-response","249","1037562","0.0-4.0-4.0-1.15","spark_pilot_norest","13403","3","9","Female","","","","","","","null","<div style=""font-size:60px;"">+</div>","null","fixation","","","","","","","","","31","","",""
"revaluation","250","1041571","0.0-4.0-4.0-0.16","spark_pilot_norest","13403","3","9","Female","","false","","","","","[1319]","./assets/img/ocean/animals/seahorse.jpg","[""ArrowRight""]","revaluation","ocean","30","{""ArrowUp,ArrowLeft"":23,""ArrowUp,ArrowRight"":10,""ArrowDown,ArrowLeft"":8,""ArrowDown,ArrowRight"":30}","true","ArrowDown,ArrowRight","","original","1","32","","",""
"html-keyboard-response","251","1042077","0.0-4.0-4.0-1.16","spark_pilot_norest","13403","3","9","Female","","","","","","","null","<div style=""font-size:60px;"">+</div>","null","fixation","","","","","","","","","33","","",""
"revaluation","252","1046094","0.0-4.0-4.0-0.17","spark_pilot_norest","13403","3","9","Female","","false","","","","","[1040]","./assets/img/ocean/animals/seahorse.jpg","[""ArrowLeft""]","revaluation","ocean","8","{""ArrowUp,ArrowLeft"":23,""ArrowUp,ArrowRight"":10,""ArrowDown,ArrowLeft"":8,""ArrowDown,ArrowRight"":30}","false","ArrowDown,ArrowLeft","","original","1","34","","",""
"html-keyboard-response","253","1046601","0.0-4.0-4.0-1.17","spark_pilot_norest","13403","3","9","Female","","","","","","","null","<div style=""font-size:60px;"">+</div>","null","fixation","","","","","","","","","35","","",""
"learning-instructions","254","1055018","0.0-4.0-5.0-0.0","spark_pilot_norest","13403","3","9","Female","","","","","","","null","<p> You have almost finished this part of the game! </p>
            <p> We are going to ask you to make a few more choices. </p>","","instructions","","","","","","","","","","","",""
"learning-instructions","255","1071006","0.0-4.0-5.0-0.1","spark_pilot_norest","13403","3","9","Female","","","","","","","null","<p> First, you need to decide whether to go up or down. When you see each picture, use the arrow keys to make your choice. </p>
            <p><b>You will not see which animal you found, but try to get to the one that will give you the most treasure.</b></p>","","instructions","","","","","","","","","","","",""
"html-keyboard-response","256","1072017","0.0-4.0-6.0-0.0","spark_pilot_norest","13403","3","9","Female","","","","","","","null","<div style=""font-size:100px;color:red;"">Starting in...</div>","null","","","","","","","","","","","","",""
"html-keyboard-response","257","1073033","0.0-4.0-6.0-1.0","spark_pilot_norest","13403","3","9","Female","","","","","","","null","<div style=""font-size:200px;color:red;"">3</div>","null","","","","","","","","","","","","",""
"html-keyboard-response","258","1074041","0.0-4.0-6.0-2.0","spark_pilot_norest","13403","3","9","Female","","","","","","","null","<div style=""font-size:200px;color:red;"">2</div>","null","","","","","","","","","","","","",""
"html-keyboard-response","259","1075048","0.0-4.0-6.0-3.0","spark_pilot_norest","13403","3","9","Female","","","","","","","null","<div style=""font-size:200px;color:red;"">1</div>","null","","","","","","","","","","","","",""
"revaluation","260","1075873","0.0-4.0-7.0-0.0","spark_pilot_norest","13403","3","9","Female","","false","","","","","[821.2000000178814]","./assets/img/ocean/test/0.jpg","[""ArrowDown""]","first stage test","ocean","0","{""ArrowUp,ArrowLeft"":23,""ArrowUp,ArrowRight"":10,""ArrowDown,ArrowLeft"":8,""ArrowDown,ArrowRight"":30}","true","ArrowDown","false","original","1","","","",""
"html-keyboard-response","261","1076383","0.0-4.0-7.0-1.0","spark_pilot_norest","13403","3","9","Female","","","","","","","null","<div style=""font-size:60px;"">+</div>","null","fixation","","","","","","","","","","","",""
"revaluation","262","1078315","0.0-4.0-7.0-0.1","spark_pilot_norest","13403","3","9","Female","","false","","","","","[1926.0999999940395]","./assets/img/ocean/test/2.jpg","[""ArrowUp""]","first stage test","ocean","0","{""ArrowUp,ArrowLeft"":23,""ArrowUp,ArrowRight"":10,""ArrowDown,ArrowLeft"":8,""ArrowDown,ArrowRight"":30}","false","ArrowUp","false","original","1","","","",""
"html-keyboard-response","263","1078828","0.0-4.0-7.0-1.1","spark_pilot_norest","13403","3","9","Female","","","","","","","null","<div style=""font-size:60px;"">+</div>","null","fixation","","","","","","","","","","","",""
"revaluation","264","1081330","0.0-4.0-7.0-0.2","spark_pilot_norest","13403","3","9","Female","","false","","","","","[2497.7999999821186]","./assets/img/ocean/test/1.jpg","[""ArrowUp""]","first stage test","ocean","0","{""ArrowUp,ArrowLeft"":23,""ArrowUp,ArrowRight"":10,""ArrowDown,ArrowLeft"":8,""ArrowDown,ArrowRight"":30}","false","ArrowUp","false","original","1","","","",""
"html-keyboard-response","265","1081842","0.0-4.0-7.0-1.2","spark_pilot_norest","13403","3","9","Female","","","","","","","null","<div style=""font-size:60px;"">+</div>","null","fixation","","","","","","","","","","","",""
"revaluation","266","1084397","0.0-4.0-7.0-0.3","spark_pilot_norest","13403","3","9","Female","","false","","","","","[2549.800000011921]","./assets/img/ocean/test/3.jpg","[""ArrowUp""]","first stage test","ocean","0","{""ArrowUp,ArrowLeft"":23,""ArrowUp,ArrowRight"":10,""ArrowDown,ArrowLeft"":8,""ArrowDown,ArrowRight"":30}","false","ArrowUp","false","original","1","","","",""
"html-keyboard-response","267","1084903","0.0-4.0-7.0-1.3","spark_pilot_norest","13403","3","9","Female","","","","","","","null","<div style=""font-size:60px;"">+</div>","null","fixation","","","","","","","","","","","",""
"learning-instructions","268","1098264","0.0-4.0-8.0-0.0","spark_pilot_norest","13403","3","9","Female","","","","","","","null","<p> Now you will see the animals again and can search their chests for treasure. </p>
            <p> This time, you will not see how much treasure you earned, but you will earn more bonus money for making better choices. </p>","","instructions","","","","","","","","","","","",""
"html-keyboard-response","269","1099273","0.0-4.0-9.0-0.0","spark_pilot_norest","13403","3","9","Female","","","","","","","null","<div style=""font-size:100px;color:red;"">Starting in...</div>","null","","","","","","","","","","","","",""
"html-keyboard-response","270","1100286","0.0-4.0-9.0-1.0","spark_pilot_norest","13403","3","9","Female","","","","","","","null","<div style=""font-size:200px;color:red;"">3</div>","null","","","","","","","","","","","","",""
"html-keyboard-response","271","1101289","0.0-4.0-9.0-2.0","spark_pilot_norest","13403","3","9","Female","","","","","","","null","<div style=""font-size:200px;color:red;"">2</div>","null","","","","","","","","","","","","",""
"html-keyboard-response","272","1102307","0.0-4.0-9.0-3.0","spark_pilot_norest","13403","3","9","Female","","","","","","","null","<div style=""font-size:200px;color:red;"">1</div>","null","","","","","","","","","","","","",""
"revaluation","273","1103736","0.0-4.0-10.0-0.0","spark_pilot_norest","13403","3","9","Female","","false","","","","","[1426.199999988079]","./assets/img/ocean/animals/octopus.jpg","[""ArrowLeft""]","second stage test","ocean","0","{""ArrowUp,ArrowLeft"":23,""ArrowUp,ArrowRight"":10,""ArrowDown,ArrowLeft"":8,""ArrowDown,ArrowRight"":30}","true","ArrowUp,ArrowLeft","","original","1","","","",""
"html-keyboard-response","274","1104249","0.0-4.0-10.0-1.0","spark_pilot_norest","13403","3","9","Female","","","","","","","null","<div style=""font-size:60px;"">+</div>","null","fixation","","","","","","","","","","","",""
"revaluation","275","1105097","0.0-4.0-10.0-0.1","spark_pilot_norest","13403","3","9","Female","","false","","","","","[843.5]","./assets/img/ocean/animals/octopus.jpg","[""ArrowLeft""]","second stage test","ocean","0","{""ArrowUp,ArrowLeft"":23,""ArrowUp,ArrowRight"":10,""ArrowDown,ArrowLeft"":8,""ArrowDown,ArrowRight"":30}","true","ArrowUp,ArrowLeft","","original","1","","","",""
"html-keyboard-response","276","1105614","0.0-4.0-10.0-1.1","spark_pilot_norest","13403","3","9","Female","","","","","","","null","<div style=""font-size:60px;"">+</div>","null","fixation","","","","","","","","","","","",""
"revaluation","277","1106134","0.0-4.0-10.0-0.2","spark_pilot_norest","13403","3","9","Female","","false","","","","","[516]","./assets/img/ocean/animals/octopus.jpg","[""ArrowLeft""]","second stage test","ocean","0","{""ArrowUp,ArrowLeft"":23,""ArrowUp,ArrowRight"":10,""ArrowDown,ArrowLeft"":8,""ArrowDown,ArrowRight"":30}","true","ArrowUp,ArrowLeft","","original","1","","","",""
"html-keyboard-response","278","1106649","0.0-4.0-10.0-1.2","spark_pilot_norest","13403","3","9","Female","","","","","","","null","<div style=""font-size:60px;"">+</div>","null","fixation","","","","","","","","","","","",""
"revaluation","279","1107390","0.0-4.0-10.0-0.3","spark_pilot_norest","13403","3","9","Female","","false","","","","","[737.5999999940395]","./assets/img/ocean/animals/octopus.jpg","[""ArrowLeft""]","second stage test","ocean","0","{""ArrowUp,ArrowLeft"":23,""ArrowUp,ArrowRight"":10,""ArrowDown,ArrowLeft"":8,""ArrowDown,ArrowRight"":30}","true","ArrowUp,ArrowLeft","","original","1","","","",""
"html-keyboard-response","280","1107899","0.0-4.0-10.0-1.3","spark_pilot_norest","13403","3","9","Female","","","","","","","null","<div style=""font-size:60px;"">+</div>","null","fixation","","","","","","","","","","","",""
"revaluation","281","1108382","0.0-4.0-10.0-0.4","spark_pilot_norest","13403","3","9","Female","","false","","","","","[478.2999999821186]","./assets/img/ocean/animals/seahorse.jpg","[""ArrowLeft""]","second stage test","ocean","0","{""ArrowUp,ArrowLeft"":23,""ArrowUp,ArrowRight"":10,""ArrowDown,ArrowLeft"":8,""ArrowDown,ArrowRight"":30}","false","ArrowDown,ArrowLeft","","original","1","","","",""
"html-keyboard-response","282","1108900","0.0-4.0-10.0-1.4","spark_pilot_norest","13403","3","9","Female","","","","","","","null","<div style=""font-size:60px;"">+</div>","null","fixation","","","","","","","","","","","",""
"revaluation","283","1109479","0.0-4.0-10.0-0.5","spark_pilot_norest","13403","3","9","Female","","false","","","","","[572.3999999761581]","./assets/img/ocean/animals/seahorse.jpg","[""ArrowRight""]","second stage test","ocean","0","{""ArrowUp,ArrowLeft"":23,""ArrowUp,ArrowRight"":10,""ArrowDown,ArrowLeft"":8,""ArrowDown,ArrowRight"":30}","true","ArrowDown,ArrowRight","","original","1","","","",""
"html-keyboard-response","284","1109984","0.0-4.0-10.0-1.5","spark_pilot_norest","13403","3","9","Female","","","","","","","null","<div style=""font-size:60px;"">+</div>","null","fixation","","","","","","","","","","","",""
"revaluation","285","1110435","0.0-4.0-10.0-0.6","spark_pilot_norest","13403","3","9","Female","","false","","","","","[447]","./assets/img/ocean/animals/seahorse.jpg","[""ArrowRight""]","second stage test","ocean","0","{""ArrowUp,ArrowLeft"":23,""ArrowUp,ArrowRight"":10,""ArrowDown,ArrowLeft"":8,""ArrowDown,ArrowRight"":30}","true","ArrowDown,ArrowRight","","original","1","","","",""
"html-keyboard-response","286","1110949","0.0-4.0-10.0-1.6","spark_pilot_norest","13403","3","9","Female","","","","","","","null","<div style=""font-size:60px;"">+</div>","null","fixation","","","","","","","","","","","",""
"revaluation","287","1111259","0.0-4.0-10.0-0.7","spark_pilot_norest","13403","3","9","Female","","false","","","","","[307.30000001192093]","./assets/img/ocean/animals/seahorse.jpg","[""ArrowRight""]","second stage test","ocean","0","{""ArrowUp,ArrowLeft"":23,""ArrowUp,ArrowRight"":10,""ArrowDown,ArrowLeft"":8,""ArrowDown,ArrowRight"":30}","true","ArrowDown,ArrowRight","","original","1","","","",""
"html-keyboard-response","288","1111763","0.0-4.0-10.0-1.7","spark_pilot_norest","13403","3","9","Female","","","","","","","null","<div style=""font-size:60px;"">+</div>","null","fixation","","","","","","","","","","","",""
"learning-instructions","289","1119226","0.0-4.0-0.1-0.2","spark_pilot_norest","13403","3","9","Female","","","","","","","4694.199999988079","<p> This time you are searching for treasure in the <b>canyon</b>.</p>","","instructions","","","","","","","","","","","",""
"learning-instructions","290","1142825","0.0-4.0-0.1-0.3","spark_pilot_norest","13403","3","9","Female","","","","","","","6341.700000017881","<p><b>New</b> animals with <b>new</b> treasure chests live here. You need to explore to discover where the animal with the best treasure chest is.</p>
                    <p> Like before, once you figure out which animal has the chest with the most treasure, you should try to get to that animal and select that chest! </p>","","instructions","","","","","","","","","","","",""
"learning-instructions","291","1160930","0.0-4.0-1.1-0.1","spark_pilot_norest","13403","3","9","Female","","","","","","","3379.2000000178814","<p> Remember, when you see a picture of the place, use the up and down keys to <b>find an animal</b>.</p>
            <p> When you encounter an animal, you should use the left and right keys to <b>select a treasure chest</b>.</p>
            <p> Don't forget to look out for the robber! </p>","","instructions","","","","","","","","","","","",""
"revaluation","292","1166958","0.0-4.0-2.1-0.50","spark_pilot_norest","13403","3","9","Female","","false","","","","","[869.2999999821186,626.8000000119209]","./assets/img/canyon/memory/25.jpg","[""ArrowDown"",""ArrowRight""]","value training","canyon","17","{""ArrowUp,ArrowLeft"":26,""ArrowUp,ArrowRight"":10,""ArrowDown,ArrowLeft"":5,""ArrowDown,ArrowRight"":17}","false","ArrowDown,ArrowRight","false","revaluation","2","0","","",""
"html-keyboard-response","293","1167475","0.0-4.0-2.1-1.50","spark_pilot_norest","13403","3","9","Female","","","","","","","null","<div style=""font-size:60px;"">+</div>","null","fixation","","","","","","","","","1","","",""
"revaluation","294","1173511","0.0-4.0-2.1-0.51","spark_pilot_norest","13403","3","9","Female","","false","","","","","[1225,539.5]","./assets/img/canyon/memory/19.jpg","[""ArrowDown"",""ArrowLeft""]","value training","canyon","5","{""ArrowUp,ArrowLeft"":26,""ArrowUp,ArrowRight"":10,""ArrowDown,ArrowLeft"":5,""ArrowDown,ArrowRight"":17}","false","ArrowDown,ArrowLeft","false","revaluation","2","2","","",""
"html-keyboard-response","295","1174023","0.0-4.0-2.1-1.51","spark_pilot_norest","13403","3","9","Female","","","","","","","null","<div style=""font-size:60px;"">+</div>","null","fixation","","","","","","","","","3","","",""
"revaluation","296","1180055","0.0-4.0-2.1-0.52","spark_pilot_norest","13403","3","9","Female","","false","","","","","[362.40000000596046,401.7000000178814]","./assets/img/canyon/memory/20.jpg","[""ArrowUp"",""ArrowLeft""]","value training","canyon","26","{""ArrowUp,ArrowLeft"":26,""ArrowUp,ArrowRight"":10,""ArrowDown,ArrowLeft"":5,""ArrowDown,ArrowRight"":17}","true","ArrowUp,ArrowLeft","false","revaluation","2","4","","",""
"html-keyboard-response","297","1180556","0.0-4.0-2.1-1.52","spark_pilot_norest","13403","3","9","Female","","","","","","","null","<div style=""font-size:60px;"">+</div>","null","fixation","","","","","","","","","5","","",""
"revaluation","298","1186595","0.0-4.0-2.1-0.53","spark_pilot_norest","13403","3","9","Female","","false","","","","","[389.80000001192093,414.90000000596046]","./assets/img/canyon/memory/11.jpg","[""ArrowUp"",""ArrowRight""]","value training","canyon","10","{""ArrowUp,ArrowLeft"":26,""ArrowUp,ArrowRight"":10,""ArrowDown,ArrowLeft"":5,""ArrowDown,ArrowRight"":17}","false","ArrowUp,ArrowRight","false","revaluation","2","6","","",""
"html-keyboard-response","299","1187106","0.0-4.0-2.1-1.53","spark_pilot_norest","13403","3","9","Female","","","","","","","null","<div style=""font-size:60px;"">+</div>","null","fixation","","","","","","","","","7","","",""
"revaluation","300","1191110","0.0-4.0-2.1-0.54","spark_pilot_norest","13403","3","9","Female","","false","","","","","[1208.2000000178814]","./assets/img/canyon/catch/4.jpg","[""spaceBar""]","value training","canyon","0","{""ArrowUp,ArrowLeft"":26,""ArrowUp,ArrowRight"":10,""ArrowDown,ArrowLeft"":5,""ArrowDown,ArrowRight"":17}","true","spaceBar","true","revaluation","2","8","","",""
"html-keyboard-response","301","1191612","0.0-4.0-2.1-1.54","spark_pilot_norest","13403","3","9","Female","","","","","","","null","<div style=""font-size:60px;"">+</div>","null","fixation","","","","","","","","","9","","",""
"revaluation","302","1197616","0.0-4.0-2.1-0.55","spark_pilot_norest","13403","3","9","Female","","false","","","","","[1057.3999999761581,737.3000000119209]","./assets/img/canyon/memory/10.jpg","[""ArrowUp"",""ArrowLeft""]","value training","canyon","26","{""ArrowUp,ArrowLeft"":26,""ArrowUp,ArrowRight"":10,""ArrowDown,ArrowLeft"":5,""ArrowDown,ArrowRight"":17}","true","ArrowUp,ArrowLeft","false","revaluation","2","10","","",""
"html-keyboard-response","303","1198118","0.0-4.0-2.1-1.55","spark_pilot_norest","13403","3","9","Female","","","","","","","null","<div style=""font-size:60px;"">+</div>","null","fixation","","","","","","","","","11","","",""
"revaluation","304","1204124","0.0-4.0-2.1-0.56","spark_pilot_norest","13403","3","9","Female","","false","","","","","[679.6999999880791,541.3000000119209]","./assets/img/canyon/memory/16.jpg","[""ArrowUp"",""ArrowLeft""]","value training","canyon","26","{""ArrowUp,ArrowLeft"":26,""ArrowUp,ArrowRight"":10,""ArrowDown,ArrowLeft"":5,""ArrowDown,ArrowRight"":17}","true","ArrowUp,ArrowLeft","false","revaluation","2","12","","",""
"html-keyboard-response","305","1204626","0.0-4.0-2.1-1.56","spark_pilot_norest","13403","3","9","Female","","","","","","","null","<div style=""font-size:60px;"">+</div>","null","fixation","","","","","","","","","13","","",""
"revaluation","306","1210631","0.0-4.0-2.1-0.57","spark_pilot_norest","13403","3","9","Female","","false","","","","","[1425.4000000059605,794.5]","./assets/img/canyon/memory/16.jpg","[""ArrowUp"",""ArrowLeft""]","value training","canyon","26","{""ArrowUp,ArrowLeft"":26,""ArrowUp,ArrowRight"":10,""ArrowDown,ArrowLeft"":5,""ArrowDown,ArrowRight"":17}","true","ArrowUp,ArrowLeft","false","revaluation","2","14","","",""
"html-keyboard-response","307","1211133","0.0-4.0-2.1-1.57","spark_pilot_norest","13403","3","9","Female","","","","","","","null","<div style=""font-size:60px;"">+</div>","null","fixation","","","","","","","","","15","","",""
"revaluation","308","1217138","0.0-4.0-2.1-0.58","spark_pilot_norest","13403","3","9","Female","","false","","","","","[876.9000000059605,435]","./assets/img/canyon/memory/28.jpg","[""ArrowUp"",""ArrowLeft""]","value training","canyon","26","{""ArrowUp,ArrowLeft"":26,""ArrowUp,ArrowRight"":10,""ArrowDown,ArrowLeft"":5,""ArrowDown,ArrowRight"":17}","true","ArrowUp,ArrowLeft","false","revaluation","2","16","","",""
"html-keyboard-response","309","1217645","0.0-4.0-2.1-1.58","spark_pilot_norest","13403","3","9","Female","","","","","","","null","<div style=""font-size:60px;"">+</div>","null","fixation","","","","","","","","","17","","",""
"revaluation","310","1223650","0.0-4.0-2.1-0.59","spark_pilot_norest","13403","3","9","Female","","false","","","","","[524,575.5]","./assets/img/canyon/memory/40.jpg","[""ArrowUp"",""ArrowLeft""]","value training","canyon","26","{""ArrowUp,ArrowLeft"":26,""ArrowUp,ArrowRight"":10,""ArrowDown,ArrowLeft"":5,""ArrowDown,ArrowRight"":17}","true","ArrowUp,ArrowLeft","false","revaluation","2","18","","",""
"html-keyboard-response","311","1224151","0.0-4.0-2.1-1.59","spark_pilot_norest","13403","3","9","Female","","","","","","","null","<div style=""font-size:60px;"">+</div>","null","fixation","","","","","","","","","19","","",""
