"trial_type","trial_index","time_elapsed","internal_node_id","task_version","subject_id","assigned_condition","age","gender","browser_interaction","success","timeout","failed_images","failed_audio","failed_video","rt","stimulus","response","task_part","environment","score","rewardMap","correct","fullState","isCatch","condition","order","trial_num","key_press","ground_truth","bonus"
"pavlovia","0","1748","0.0-0.0","spark_pilot_norest","9617","5","21","Male","[{""event"":""blur"",""trial"":0,""time"":922},{""event"":""focus"",""trial"":1,""time"":13758},{""event"":""blur"",""trial"":1,""time"":14474},{""event"":""focus"",""trial"":1,""time"":15357},{""event"":""blur"",""trial"":1,""time"":15882},{""event"":""focus"",""trial"":1,""time"":16468},{""event"":""blur"",""trial"":1,""time"":17666},{""event"":""focus"",""trial"":2,""time"":108284},{""event"":""fullscreenenter"",""trial"":2,""time"":109354},{""event"":""fullscreenexit"",""trial"":3,""time"":113254},{""event"":""blur"",""trial"":4,""time"":114275},{""event"":""focus"",""trial"":4,""time"":118540},{""event"":""blur"",""trial"":5,""time"":124124},{""event"":""focus"",""trial"":5,""time"":131651},{""event"":""blur"",""trial"":6,""time"":133456},{""event"":""focus"",""trial"":6,""time"":136038},{""event"":""blur"",""trial"":10,""time"":180822},{""event"":""focus"",""trial"":10,""time"":181777},{""event"":""blur"",""trial"":10,""time"":183105},{""event"":""focus"",""trial"":10,""time"":190086},{""event"":""blur"",""trial"":25,""time"":236942},{""event"":""focus"",""trial"":25,""time"":238807},{""event"":""blur"",""trial"":26,""time"":244250},{""event"":""focus"",""trial"":26,""time"":248844},{""event"":""blur"",""trial"":27,""time"":256936},{""event"":""focus"",""trial"":27,""time"":257402},{""event"":""blur"",""trial"":27,""time"":259935},{""event"":""focus"",""trial"":27,""time"":261318},{""event"":""blur"",""trial"":28,""time"":264418},{""event"":""focus"",""trial"":28,""time"":265887},{""event"":""blur"",""trial"":38,""time"":310423},{""event"":""focus"",""trial"":38,""time"":311046},{""event"":""blur"",""trial"":38,""time"":313374},{""event"":""focus"",""trial"":38,""time"":314522},{""event"":""blur"",""trial"":38,""time"":315672},{""event"":""focus"",""trial"":38,""time"":316758},{""event"":""blur"",""trial"":49,""time"":358151},{""event"":""focus"",""trial"":49,""time"":362786},{""event"":""blur"",""trial"":53,""time"":380451},{""event"":""focus"",""trial"":53,""time"":381198},{""event"":""blur"",""trial"":55,""time"":384541},{""event"":""focus"",""trial"":57,""time"":394041},{""event"":""blur"",""trial"":58,""time"":395776},{""event"":""focus"",""trial"":58,""time"":400274},{""event"":""blur"",""trial"":58,""time"":400285},{""event"":""focus"",""trial"":58,""time"":400376},{""event"":""blur"",""trial"":59,""time"":406370},{""event"":""focus"",""trial"":59,""time"":411772},{""event"":""blur"",""trial"":87,""time"":509844},{""event"":""focus"",""trial"":87,""time"":510267},{""event"":""blur"",""trial"":87,""time"":510521},{""event"":""focus"",""trial"":87,""time"":513070},{""event"":""blur"",""trial"":88,""time"":517884},{""event"":""focus"",""trial"":88,""time"":518748},{""event"":""blur"",""trial"":88,""time"":519625},{""event"":""focus"",""trial"":88,""time"":521415},{""event"":""blur"",""trial"":106,""time"":571875},{""event"":""focus"",""trial"":106,""time"":574031},{""event"":""blur"",""trial"":108,""time"":587696},{""event"":""focus"",""trial"":108,""time"":591915},{""event"":""blur"",""trial"":110,""time"":604555},{""event"":""focus"",""trial"":110,""time"":604972},{""event"":""blur"",""trial"":112,""time"":618417},{""event"":""focus"",""trial"":112,""time"":619177},{""event"":""blur"",""trial"":112,""time"":619497},{""event"":""focus"",""trial"":112,""time"":623481},{""event"":""blur"",""trial"":113,""time"":628249},{""event"":""focus"",""trial"":113,""time"":629090},{""event"":""blur"",""trial"":114,""time"":633796},{""event"":""focus"",""trial"":114,""time"":641150},{""event"":""blur"",""trial"":115,""time"":643427},{""event"":""focus"",""trial"":115,""time"":648348},{""event"":""blur"",""trial"":115,""time"":649988},{""event"":""focus"",""trial"":115,""time"":652971},{""event"":""blur"",""trial"":117,""time"":672048},{""event"":""focus"",""trial"":117,""time"":672833},{""event"":""blur"",""trial"":165,""time"":833426},{""event"":""focus"",""trial"":165,""time"":834354},{""event"":""blur"",""trial"":219,""time"":1019207},{""event"":""focus"",""trial"":219,""time"":1021788},{""event"":""blur"",""trial"":219,""time"":1624881},{""event"":""focus"",""trial"":219,""time"":12388280},{""event"":""blur"",""trial"":219,""time"":12389162},{""event"":""focus"",""trial"":219,""time"":12554103},{""event"":""blur"",""trial"":219,""time"":12555057},{""event"":""focus"",""trial"":219,""time"":12856465},{""event"":""blur"",""trial"":219,""time"":12861925},{""event"":""focus"",""trial"":219,""time"":12885902},{""event"":""blur"",""trial"":219,""time"":12886419},{""event"":""focus"",""trial"":219,""time"":13277280},{""event"":""blur"",""trial"":219,""time"":13277640},{""event"":""focus"",""trial"":219,""time"":13279445},{""event"":""blur"",""trial"":219,""time"":13279838},{""event"":""focus"",""trial"":219,""time"":16115180},{""event"":""blur"",""trial"":219,""time"":16115749},{""event"":""focus"",""trial"":219,""time"":22399709},{""event"":""blur"",""trial"":219,""time"":22400156},{""event"":""focus"",""trial"":219,""time"":22400389},{""event"":""blur"",""trial"":219,""time"":22400774},{""event"":""focus"",""trial"":219,""time"":27510108},{""event"":""blur"",""trial"":256,""time"":27596788},{""event"":""focus"",""trial"":256,""time"":27599196},{""event"":""blur"",""trial"":310,""time"":27752091},{""event"":""focus"",""trial"":310,""time"":27752531},{""event"":""blur"",""trial"":471,""time"":28210731},{""event"":""focus"",""trial"":471,""time"":28211154},{""event"":""blur"",""trial"":471,""time"":28212675},{""event"":""focus"",""trial"":471,""time"":28213571},{""event"":""blur"",""trial"":471,""time"":28213572},{""event"":""focus"",""trial"":471,""time"":28215652},{""event"":""blur"",""trial"":472,""time"":28220913},{""event"":""focus"",""trial"":472,""time"":28226396},{""event"":""blur"",""trial"":472,""time"":28228273},{""event"":""focus"",""trial"":472,""time"":28228614},{""event"":""blur"",""trial"":481,""time"":28248120},{""event"":""focus"",""trial"":481,""time"":28251188},{""event"":""blur"",""trial"":481,""time"":28251189},{""event"":""focus"",""trial"":481,""time"":28253723},{""event"":""blur"",""trial"":481,""time"":28254503},{""event"":""focus"",""trial"":481,""time"":28255505},{""event"":""blur"",""trial"":482,""time"":28259601},{""event"":""focus"",""trial"":482,""time"":28263372},{""event"":""blur"",""trial"":483,""time"":28265417},{""event"":""focus"",""trial"":483,""time"":28266730},{""event"":""blur"",""trial"":483,""time"":28267372},{""event"":""focus"",""trial"":483,""time"":28271457},{""event"":""blur"",""trial"":483,""time"":28271591},{""event"":""focus"",""trial"":483,""time"":28271888},{""event"":""blur"",""trial"":484,""time"":28275516},{""event"":""focus"",""trial"":484,""time"":28279116},{""event"":""blur"",""trial"":485,""time"":28282270},{""event"":""focus"",""trial"":485,""time"":28282720},{""event"":""blur"",""trial"":485,""time"":28283058},{""event"":""focus"",""trial"":485,""time"":28291660}]","","","","","","","","","","","","","","","","","","","","",""
"preload","1","31195","0.0-1.0","spark_pilot_norest","9617","5","21","Male","[{""event"":""blur"",""trial"":0,""time"":922},{""event"":""focus"",""trial"":1,""time"":13758},{""event"":""blur"",""trial"":1,""time"":14474},{""event"":""focus"",""trial"":1,""time"":15357},{""event"":""blur"",""trial"":1,""time"":15882},{""event"":""focus"",""trial"":1,""time"":16468},{""event"":""blur"",""trial"":1,""time"":17666},{""event"":""focus"",""trial"":2,""time"":108284},{""event"":""fullscreenenter"",""trial"":2,""time"":109354},{""event"":""fullscreenexit"",""trial"":3,""time"":113254},{""event"":""blur"",""trial"":4,""time"":114275},{""event"":""focus"",""trial"":4,""time"":118540},{""event"":""blur"",""trial"":5,""time"":124124},{""event"":""focus"",""trial"":5,""time"":131651},{""event"":""blur"",""trial"":6,""time"":133456},{""event"":""focus"",""trial"":6,""time"":136038},{""event"":""blur"",""trial"":10,""time"":180822},{""event"":""focus"",""trial"":10,""time"":181777},{""event"":""blur"",""trial"":10,""time"":183105},{""event"":""focus"",""trial"":10,""time"":190086},{""event"":""blur"",""trial"":25,""time"":236942},{""event"":""focus"",""trial"":25,""time"":238807},{""event"":""blur"",""trial"":26,""time"":244250},{""event"":""focus"",""trial"":26,""time"":248844},{""event"":""blur"",""trial"":27,""time"":256936},{""event"":""focus"",""trial"":27,""time"":257402},{""event"":""blur"",""trial"":27,""time"":259935},{""event"":""focus"",""trial"":27,""time"":261318},{""event"":""blur"",""trial"":28,""time"":264418},{""event"":""focus"",""trial"":28,""time"":265887},{""event"":""blur"",""trial"":38,""time"":310423},{""event"":""focus"",""trial"":38,""time"":311046},{""event"":""blur"",""trial"":38,""time"":313374},{""event"":""focus"",""trial"":38,""time"":314522},{""event"":""blur"",""trial"":38,""time"":315672},{""event"":""focus"",""trial"":38,""time"":316758},{""event"":""blur"",""trial"":49,""time"":358151},{""event"":""focus"",""trial"":49,""time"":362786},{""event"":""blur"",""trial"":53,""time"":380451},{""event"":""focus"",""trial"":53,""time"":381198},{""event"":""blur"",""trial"":55,""time"":384541},{""event"":""focus"",""trial"":57,""time"":394041},{""event"":""blur"",""trial"":58,""time"":395776},{""event"":""focus"",""trial"":58,""time"":400274},{""event"":""blur"",""trial"":58,""time"":400285},{""event"":""focus"",""trial"":58,""time"":400376},{""event"":""blur"",""trial"":59,""time"":406370},{""event"":""focus"",""trial"":59,""time"":411772},{""event"":""blur"",""trial"":87,""time"":509844},{""event"":""focus"",""trial"":87,""time"":510267},{""event"":""blur"",""trial"":87,""time"":510521},{""event"":""focus"",""trial"":87,""time"":513070},{""event"":""blur"",""trial"":88,""time"":517884},{""event"":""focus"",""trial"":88,""time"":518748},{""event"":""blur"",""trial"":88,""time"":519625},{""event"":""focus"",""trial"":88,""time"":521415},{""event"":""blur"",""trial"":106,""time"":571875},{""event"":""focus"",""trial"":106,""time"":574031},{""event"":""blur"",""trial"":108,""time"":587696},{""event"":""focus"",""trial"":108,""time"":591915},{""event"":""blur"",""trial"":110,""time"":604555},{""event"":""focus"",""trial"":110,""time"":604972},{""event"":""blur"",""trial"":112,""time"":618417},{""event"":""focus"",""trial"":112,""time"":619177},{""event"":""blur"",""trial"":112,""time"":619497},{""event"":""focus"",""trial"":112,""time"":623481},{""event"":""blur"",""trial"":113,""time"":628249},{""event"":""focus"",""trial"":113,""time"":629090},{""event"":""blur"",""trial"":114,""time"":633796},{""event"":""focus"",""trial"":114,""time"":641150},{""event"":""blur"",""trial"":115,""time"":643427},{""event"":""focus"",""trial"":115,""time"":648348},{""event"":""blur"",""trial"":115,""time"":649988},{""event"":""focus"",""trial"":115,""time"":652971},{""event"":""blur"",""trial"":117,""time"":672048},{""event"":""focus"",""trial"":117,""time"":672833},{""event"":""blur"",""trial"":165,""time"":833426},{""event"":""focus"",""trial"":165,""time"":834354},{""event"":""blur"",""trial"":219,""time"":1019207},{""event"":""focus"",""trial"":219,""time"":1021788},{""event"":""blur"",""trial"":219,""time"":1624881},{""event"":""focus"",""trial"":219,""time"":12388280},{""event"":""blur"",""trial"":219,""time"":12389162},{""event"":""focus"",""trial"":219,""time"":12554103},{""event"":""blur"",""trial"":219,""time"":12555057},{""event"":""focus"",""trial"":219,""time"":12856465},{""event"":""blur"",""trial"":219,""time"":12861925},{""event"":""focus"",""trial"":219,""time"":12885902},{""event"":""blur"",""trial"":219,""time"":12886419},{""event"":""focus"",""trial"":219,""time"":13277280},{""event"":""blur"",""trial"":219,""time"":13277640},{""event"":""focus"",""trial"":219,""time"":13279445},{""event"":""blur"",""trial"":219,""time"":13279838},{""event"":""focus"",""trial"":219,""time"":16115180},{""event"":""blur"",""trial"":219,""time"":16115749},{""event"":""focus"",""trial"":219,""time"":22399709},{""event"":""blur"",""trial"":219,""time"":22400156},{""event"":""focus"",""trial"":219,""time"":22400389},{""event"":""blur"",""trial"":219,""time"":22400774},{""event"":""focus"",""trial"":219,""time"":27510108},{""event"":""blur"",""trial"":256,""time"":27596788},{""event"":""focus"",""trial"":256,""time"":27599196},{""event"":""blur"",""trial"":310,""time"":27752091},{""event"":""focus"",""trial"":310,""time"":27752531},{""event"":""blur"",""trial"":471,""time"":28210731},{""event"":""focus"",""trial"":471,""time"":28211154},{""event"":""blur"",""trial"":471,""time"":28212675},{""event"":""focus"",""trial"":471,""time"":28213571},{""event"":""blur"",""trial"":471,""time"":28213572},{""event"":""focus"",""trial"":471,""time"":28215652},{""event"":""blur"",""trial"":472,""time"":28220913},{""event"":""focus"",""trial"":472,""time"":28226396},{""event"":""blur"",""trial"":472,""time"":28228273},{""event"":""focus"",""trial"":472,""time"":28228614},{""event"":""blur"",""trial"":481,""time"":28248120},{""event"":""focus"",""trial"":481,""time"":28251188},{""event"":""blur"",""trial"":481,""time"":28251189},{""event"":""focus"",""trial"":481,""time"":28253723},{""event"":""blur"",""trial"":481,""time"":28254503},{""event"":""focus"",""trial"":481,""time"":28255505},{""event"":""blur"",""trial"":482,""time"":28259601},{""event"":""focus"",""trial"":482,""time"":28263372},{""event"":""blur"",""trial"":483,""time"":28265417},{""event"":""focus"",""trial"":483,""time"":28266730},{""event"":""blur"",""trial"":483,""time"":28267372},{""event"":""focus"",""trial"":483,""time"":28271457},{""event"":""blur"",""trial"":483,""time"":28271591},{""event"":""focus"",""trial"":483,""time"":28271888},{""event"":""blur"",""trial"":484,""time"":28275516},{""event"":""focus"",""trial"":484,""time"":28279116},{""event"":""blur"",""trial"":485,""time"":28282270},{""event"":""focus"",""trial"":485,""time"":28282720},{""event"":""blur"",""trial"":485,""time"":28283058},{""event"":""focus"",""trial"":485,""time"":28291660}]","true","false","[]","[]","[]","","","","","","","","","","","","","","","",""
"fullscreen","2","110349","0.0-2.0","spark_pilot_norest","9617","5","21","Male","","true","","","","","","","","","","","","","","","","","","","",""
"audio-button-response","3","112769","0.0-3.0-0.0-0.0","spark_pilot_norest","9617","5","21","Male","[{""event"":""blur"",""trial"":0,""time"":922},{""event"":""focus"",""trial"":1,""time"":13758},{""event"":""blur"",""trial"":1,""time"":14474},{""event"":""focus"",""trial"":1,""time"":15357},{""event"":""blur"",""trial"":1,""time"":15882},{""event"":""focus"",""trial"":1,""time"":16468},{""event"":""blur"",""trial"":1,""time"":17666},{""event"":""focus"",""trial"":2,""time"":108284},{""event"":""fullscreenenter"",""trial"":2,""time"":109354},{""event"":""fullscreenexit"",""trial"":3,""time"":113254},{""event"":""blur"",""trial"":4,""time"":114275},{""event"":""focus"",""trial"":4,""time"":118540},{""event"":""blur"",""trial"":5,""time"":124124},{""event"":""focus"",""trial"":5,""time"":131651},{""event"":""blur"",""trial"":6,""time"":133456},{""event"":""focus"",""trial"":6,""time"":136038},{""event"":""blur"",""trial"":10,""time"":180822},{""event"":""focus"",""trial"":10,""time"":181777},{""event"":""blur"",""trial"":10,""time"":183105},{""event"":""focus"",""trial"":10,""time"":190086},{""event"":""blur"",""trial"":25,""time"":236942},{""event"":""focus"",""trial"":25,""time"":238807},{""event"":""blur"",""trial"":26,""time"":244250},{""event"":""focus"",""trial"":26,""time"":248844},{""event"":""blur"",""trial"":27,""time"":256936},{""event"":""focus"",""trial"":27,""time"":257402},{""event"":""blur"",""trial"":27,""time"":259935},{""event"":""focus"",""trial"":27,""time"":261318},{""event"":""blur"",""trial"":28,""time"":264418},{""event"":""focus"",""trial"":28,""time"":265887},{""event"":""blur"",""trial"":38,""time"":310423},{""event"":""focus"",""trial"":38,""time"":311046},{""event"":""blur"",""trial"":38,""time"":313374},{""event"":""focus"",""trial"":38,""time"":314522},{""event"":""blur"",""trial"":38,""time"":315672},{""event"":""focus"",""trial"":38,""time"":316758},{""event"":""blur"",""trial"":49,""time"":358151},{""event"":""focus"",""trial"":49,""time"":362786},{""event"":""blur"",""trial"":53,""time"":380451},{""event"":""focus"",""trial"":53,""time"":381198},{""event"":""blur"",""trial"":55,""time"":384541},{""event"":""focus"",""trial"":57,""time"":394041},{""event"":""blur"",""trial"":58,""time"":395776},{""event"":""focus"",""trial"":58,""time"":400274},{""event"":""blur"",""trial"":58,""time"":400285},{""event"":""focus"",""trial"":58,""time"":400376},{""event"":""blur"",""trial"":59,""time"":406370},{""event"":""focus"",""trial"":59,""time"":411772},{""event"":""blur"",""trial"":87,""time"":509844},{""event"":""focus"",""trial"":87,""time"":510267},{""event"":""blur"",""trial"":87,""time"":510521},{""event"":""focus"",""trial"":87,""time"":513070},{""event"":""blur"",""trial"":88,""time"":517884},{""event"":""focus"",""trial"":88,""time"":518748},{""event"":""blur"",""trial"":88,""time"":519625},{""event"":""focus"",""trial"":88,""time"":521415},{""event"":""blur"",""trial"":106,""time"":571875},{""event"":""focus"",""trial"":106,""time"":574031},{""event"":""blur"",""trial"":108,""time"":587696},{""event"":""focus"",""trial"":108,""time"":591915},{""event"":""blur"",""trial"":110,""time"":604555},{""event"":""focus"",""trial"":110,""time"":604972},{""event"":""blur"",""trial"":112,""time"":618417},{""event"":""focus"",""trial"":112,""time"":619177},{""event"":""blur"",""trial"":112,""time"":619497},{""event"":""focus"",""trial"":112,""time"":623481},{""event"":""blur"",""trial"":113,""time"":628249},{""event"":""focus"",""trial"":113,""time"":629090},{""event"":""blur"",""trial"":114,""time"":633796},{""event"":""focus"",""trial"":114,""time"":641150},{""event"":""blur"",""trial"":115,""time"":643427},{""event"":""focus"",""trial"":115,""time"":648348},{""event"":""blur"",""trial"":115,""time"":649988},{""event"":""focus"",""trial"":115,""time"":652971},{""event"":""blur"",""trial"":117,""time"":672048},{""event"":""focus"",""trial"":117,""time"":672833},{""event"":""blur"",""trial"":165,""time"":833426},{""event"":""focus"",""trial"":165,""time"":834354},{""event"":""blur"",""trial"":219,""time"":1019207},{""event"":""focus"",""trial"":219,""time"":1021788},{""event"":""blur"",""trial"":219,""time"":1624881},{""event"":""focus"",""trial"":219,""time"":12388280},{""event"":""blur"",""trial"":219,""time"":12389162},{""event"":""focus"",""trial"":219,""time"":12554103},{""event"":""blur"",""trial"":219,""time"":12555057},{""event"":""focus"",""trial"":219,""time"":12856465},{""event"":""blur"",""trial"":219,""time"":12861925},{""event"":""focus"",""trial"":219,""time"":12885902},{""event"":""blur"",""trial"":219,""time"":12886419},{""event"":""focus"",""trial"":219,""time"":13277280},{""event"":""blur"",""trial"":219,""time"":13277640},{""event"":""focus"",""trial"":219,""time"":13279445},{""event"":""blur"",""trial"":219,""time"":13279838},{""event"":""focus"",""trial"":219,""time"":16115180},{""event"":""blur"",""trial"":219,""time"":16115749},{""event"":""focus"",""trial"":219,""time"":22399709},{""event"":""blur"",""trial"":219,""time"":22400156},{""event"":""focus"",""trial"":219,""time"":22400389},{""event"":""blur"",""trial"":219,""time"":22400774},{""event"":""focus"",""trial"":219,""time"":27510108},{""event"":""blur"",""trial"":256,""time"":27596788},{""event"":""focus"",""trial"":256,""time"":27599196},{""event"":""blur"",""trial"":310,""time"":27752091},{""event"":""focus"",""trial"":310,""time"":27752531},{""event"":""blur"",""trial"":471,""time"":28210731},{""event"":""focus"",""trial"":471,""time"":28211154},{""event"":""blur"",""trial"":471,""time"":28212675},{""event"":""focus"",""trial"":471,""time"":28213571},{""event"":""blur"",""trial"":471,""time"":28213572},{""event"":""focus"",""trial"":471,""time"":28215652},{""event"":""blur"",""trial"":472,""time"":28220913},{""event"":""focus"",""trial"":472,""time"":28226396},{""event"":""blur"",""trial"":472,""time"":28228273},{""event"":""focus"",""trial"":472,""time"":28228614},{""event"":""blur"",""trial"":481,""time"":28248120},{""event"":""focus"",""trial"":481,""time"":28251188},{""event"":""blur"",""trial"":481,""time"":28251189},{""event"":""focus"",""trial"":481,""time"":28253723},{""event"":""blur"",""trial"":481,""time"":28254503},{""event"":""focus"",""trial"":481,""time"":28255505},{""event"":""blur"",""trial"":482,""time"":28259601},{""event"":""focus"",""trial"":482,""time"":28263372},{""event"":""blur"",""trial"":483,""time"":28265417},{""event"":""focus"",""trial"":483,""time"":28266730},{""event"":""blur"",""trial"":483,""time"":28267372},{""event"":""focus"",""trial"":483,""time"":28271457},{""event"":""blur"",""trial"":483,""time"":28271591},{""event"":""focus"",""trial"":483,""time"":28271888},{""event"":""blur"",""trial"":484,""time"":28275516},{""event"":""focus"",""trial"":484,""time"":28279116},{""event"":""blur"",""trial"":485,""time"":28282270},{""event"":""focus"",""trial"":485,""time"":28282720},{""event"":""blur"",""trial"":485,""time"":28283058},{""event"":""focus"",""trial"":485,""time"":28291660}]","","","","","","1429","./assets/audio/audiotest/turtle.mp3","2","audio_test","","","","","","","","","","","",""
"learning-instructions","4","121830","0.0-3.0-1.0-0.0","spark_pilot_norest","9617","5","21","Male","[{""event"":""blur"",""trial"":0,""time"":922},{""event"":""focus"",""trial"":1,""time"":13758},{""event"":""blur"",""trial"":1,""time"":14474},{""event"":""focus"",""trial"":1,""time"":15357},{""event"":""blur"",""trial"":1,""time"":15882},{""event"":""focus"",""trial"":1,""time"":16468},{""event"":""blur"",""trial"":1,""time"":17666},{""event"":""focus"",""trial"":2,""time"":108284},{""event"":""fullscreenenter"",""trial"":2,""time"":109354},{""event"":""fullscreenexit"",""trial"":3,""time"":113254},{""event"":""blur"",""trial"":4,""time"":114275},{""event"":""focus"",""trial"":4,""time"":118540},{""event"":""blur"",""trial"":5,""time"":124124},{""event"":""focus"",""trial"":5,""time"":131651},{""event"":""blur"",""trial"":6,""time"":133456},{""event"":""focus"",""trial"":6,""time"":136038},{""event"":""blur"",""trial"":10,""time"":180822},{""event"":""focus"",""trial"":10,""time"":181777},{""event"":""blur"",""trial"":10,""time"":183105},{""event"":""focus"",""trial"":10,""time"":190086},{""event"":""blur"",""trial"":25,""time"":236942},{""event"":""focus"",""trial"":25,""time"":238807},{""event"":""blur"",""trial"":26,""time"":244250},{""event"":""focus"",""trial"":26,""time"":248844},{""event"":""blur"",""trial"":27,""time"":256936},{""event"":""focus"",""trial"":27,""time"":257402},{""event"":""blur"",""trial"":27,""time"":259935},{""event"":""focus"",""trial"":27,""time"":261318},{""event"":""blur"",""trial"":28,""time"":264418},{""event"":""focus"",""trial"":28,""time"":265887},{""event"":""blur"",""trial"":38,""time"":310423},{""event"":""focus"",""trial"":38,""time"":311046},{""event"":""blur"",""trial"":38,""time"":313374},{""event"":""focus"",""trial"":38,""time"":314522},{""event"":""blur"",""trial"":38,""time"":315672},{""event"":""focus"",""trial"":38,""time"":316758},{""event"":""blur"",""trial"":49,""time"":358151},{""event"":""focus"",""trial"":49,""time"":362786},{""event"":""blur"",""trial"":53,""time"":380451},{""event"":""focus"",""trial"":53,""time"":381198},{""event"":""blur"",""trial"":55,""time"":384541},{""event"":""focus"",""trial"":57,""time"":394041},{""event"":""blur"",""trial"":58,""time"":395776},{""event"":""focus"",""trial"":58,""time"":400274},{""event"":""blur"",""trial"":58,""time"":400285},{""event"":""focus"",""trial"":58,""time"":400376},{""event"":""blur"",""trial"":59,""time"":406370},{""event"":""focus"",""trial"":59,""time"":411772},{""event"":""blur"",""trial"":87,""time"":509844},{""event"":""focus"",""trial"":87,""time"":510267},{""event"":""blur"",""trial"":87,""time"":510521},{""event"":""focus"",""trial"":87,""time"":513070},{""event"":""blur"",""trial"":88,""time"":517884},{""event"":""focus"",""trial"":88,""time"":518748},{""event"":""blur"",""trial"":88,""time"":519625},{""event"":""focus"",""trial"":88,""time"":521415},{""event"":""blur"",""trial"":106,""time"":571875},{""event"":""focus"",""trial"":106,""time"":574031},{""event"":""blur"",""trial"":108,""time"":587696},{""event"":""focus"",""trial"":108,""time"":591915},{""event"":""blur"",""trial"":110,""time"":604555},{""event"":""focus"",""trial"":110,""time"":604972},{""event"":""blur"",""trial"":112,""time"":618417},{""event"":""focus"",""trial"":112,""time"":619177},{""event"":""blur"",""trial"":112,""time"":619497},{""event"":""focus"",""trial"":112,""time"":623481},{""event"":""blur"",""trial"":113,""time"":628249},{""event"":""focus"",""trial"":113,""time"":629090},{""event"":""blur"",""trial"":114,""time"":633796},{""event"":""focus"",""trial"":114,""time"":641150},{""event"":""blur"",""trial"":115,""time"":643427},{""event"":""focus"",""trial"":115,""time"":648348},{""event"":""blur"",""trial"":115,""time"":649988},{""event"":""focus"",""trial"":115,""time"":652971},{""event"":""blur"",""trial"":117,""time"":672048},{""event"":""focus"",""trial"":117,""time"":672833},{""event"":""blur"",""trial"":165,""time"":833426},{""event"":""focus"",""trial"":165,""time"":834354},{""event"":""blur"",""trial"":219,""time"":1019207},{""event"":""focus"",""trial"":219,""time"":1021788},{""event"":""blur"",""trial"":219,""time"":1624881},{""event"":""focus"",""trial"":219,""time"":12388280},{""event"":""blur"",""trial"":219,""time"":12389162},{""event"":""focus"",""trial"":219,""time"":12554103},{""event"":""blur"",""trial"":219,""time"":12555057},{""event"":""focus"",""trial"":219,""time"":12856465},{""event"":""blur"",""trial"":219,""time"":12861925},{""event"":""focus"",""trial"":219,""time"":12885902},{""event"":""blur"",""trial"":219,""time"":12886419},{""event"":""focus"",""trial"":219,""time"":13277280},{""event"":""blur"",""trial"":219,""time"":13277640},{""event"":""focus"",""trial"":219,""time"":13279445},{""event"":""blur"",""trial"":219,""time"":13279838},{""event"":""focus"",""trial"":219,""time"":16115180},{""event"":""blur"",""trial"":219,""time"":16115749},{""event"":""focus"",""trial"":219,""time"":22399709},{""event"":""blur"",""trial"":219,""time"":22400156},{""event"":""focus"",""trial"":219,""time"":22400389},{""event"":""blur"",""trial"":219,""time"":22400774},{""event"":""focus"",""trial"":219,""time"":27510108},{""event"":""blur"",""trial"":256,""time"":27596788},{""event"":""focus"",""trial"":256,""time"":27599196},{""event"":""blur"",""trial"":310,""time"":27752091},{""event"":""focus"",""trial"":310,""time"":27752531},{""event"":""blur"",""trial"":471,""time"":28210731},{""event"":""focus"",""trial"":471,""time"":28211154},{""event"":""blur"",""trial"":471,""time"":28212675},{""event"":""focus"",""trial"":471,""time"":28213571},{""event"":""blur"",""trial"":471,""time"":28213572},{""event"":""focus"",""trial"":471,""time"":28215652},{""event"":""blur"",""trial"":472,""time"":28220913},{""event"":""focus"",""trial"":472,""time"":28226396},{""event"":""blur"",""trial"":472,""time"":28228273},{""event"":""focus"",""trial"":472,""time"":28228614},{""event"":""blur"",""trial"":481,""time"":28248120},{""event"":""focus"",""trial"":481,""time"":28251188},{""event"":""blur"",""trial"":481,""time"":28251189},{""event"":""focus"",""trial"":481,""time"":28253723},{""event"":""blur"",""trial"":481,""time"":28254503},{""event"":""focus"",""trial"":481,""time"":28255505},{""event"":""blur"",""trial"":482,""time"":28259601},{""event"":""focus"",""trial"":482,""time"":28263372},{""event"":""blur"",""trial"":483,""time"":28265417},{""event"":""focus"",""trial"":483,""time"":28266730},{""event"":""blur"",""trial"":483,""time"":28267372},{""event"":""focus"",""trial"":483,""time"":28271457},{""event"":""blur"",""trial"":483,""time"":28271591},{""event"":""focus"",""trial"":483,""time"":28271888},{""event"":""blur"",""trial"":484,""time"":28275516},{""event"":""focus"",""trial"":484,""time"":28279116},{""event"":""blur"",""trial"":485,""time"":28282270},{""event"":""focus"",""trial"":485,""time"":28282720},{""event"":""blur"",""trial"":485,""time"":28283058},{""event"":""focus"",""trial"":485,""time"":28291660}]","","","","","","772.8000000119209","<p> Welcome! Please remember to stay in fullscreen mode and don't click away from the experiment. </p>","","instructions","","","","","","","","","","","",""
"learning-instructions","5","132593","0.0-3.0-1.0-0.1","spark_pilot_norest","9617","5","21","Male","[{""event"":""blur"",""trial"":0,""time"":922},{""event"":""focus"",""trial"":1,""time"":13758},{""event"":""blur"",""trial"":1,""time"":14474},{""event"":""focus"",""trial"":1,""time"":15357},{""event"":""blur"",""trial"":1,""time"":15882},{""event"":""focus"",""trial"":1,""time"":16468},{""event"":""blur"",""trial"":1,""time"":17666},{""event"":""focus"",""trial"":2,""time"":108284},{""event"":""fullscreenenter"",""trial"":2,""time"":109354},{""event"":""fullscreenexit"",""trial"":3,""time"":113254},{""event"":""blur"",""trial"":4,""time"":114275},{""event"":""focus"",""trial"":4,""time"":118540},{""event"":""blur"",""trial"":5,""time"":124124},{""event"":""focus"",""trial"":5,""time"":131651},{""event"":""blur"",""trial"":6,""time"":133456},{""event"":""focus"",""trial"":6,""time"":136038},{""event"":""blur"",""trial"":10,""time"":180822},{""event"":""focus"",""trial"":10,""time"":181777},{""event"":""blur"",""trial"":10,""time"":183105},{""event"":""focus"",""trial"":10,""time"":190086},{""event"":""blur"",""trial"":25,""time"":236942},{""event"":""focus"",""trial"":25,""time"":238807},{""event"":""blur"",""trial"":26,""time"":244250},{""event"":""focus"",""trial"":26,""time"":248844},{""event"":""blur"",""trial"":27,""time"":256936},{""event"":""focus"",""trial"":27,""time"":257402},{""event"":""blur"",""trial"":27,""time"":259935},{""event"":""focus"",""trial"":27,""time"":261318},{""event"":""blur"",""trial"":28,""time"":264418},{""event"":""focus"",""trial"":28,""time"":265887},{""event"":""blur"",""trial"":38,""time"":310423},{""event"":""focus"",""trial"":38,""time"":311046},{""event"":""blur"",""trial"":38,""time"":313374},{""event"":""focus"",""trial"":38,""time"":314522},{""event"":""blur"",""trial"":38,""time"":315672},{""event"":""focus"",""trial"":38,""time"":316758},{""event"":""blur"",""trial"":49,""time"":358151},{""event"":""focus"",""trial"":49,""time"":362786},{""event"":""blur"",""trial"":53,""time"":380451},{""event"":""focus"",""trial"":53,""time"":381198},{""event"":""blur"",""trial"":55,""time"":384541},{""event"":""focus"",""trial"":57,""time"":394041},{""event"":""blur"",""trial"":58,""time"":395776},{""event"":""focus"",""trial"":58,""time"":400274},{""event"":""blur"",""trial"":58,""time"":400285},{""event"":""focus"",""trial"":58,""time"":400376},{""event"":""blur"",""trial"":59,""time"":406370},{""event"":""focus"",""trial"":59,""time"":411772},{""event"":""blur"",""trial"":87,""time"":509844},{""event"":""focus"",""trial"":87,""time"":510267},{""event"":""blur"",""trial"":87,""time"":510521},{""event"":""focus"",""trial"":87,""time"":513070},{""event"":""blur"",""trial"":88,""time"":517884},{""event"":""focus"",""trial"":88,""time"":518748},{""event"":""blur"",""trial"":88,""time"":519625},{""event"":""focus"",""trial"":88,""time"":521415},{""event"":""blur"",""trial"":106,""time"":571875},{""event"":""focus"",""trial"":106,""time"":574031},{""event"":""blur"",""trial"":108,""time"":587696},{""event"":""focus"",""trial"":108,""time"":591915},{""event"":""blur"",""trial"":110,""time"":604555},{""event"":""focus"",""trial"":110,""time"":604972},{""event"":""blur"",""trial"":112,""time"":618417},{""event"":""focus"",""trial"":112,""time"":619177},{""event"":""blur"",""trial"":112,""time"":619497},{""event"":""focus"",""trial"":112,""time"":623481},{""event"":""blur"",""trial"":113,""time"":628249},{""event"":""focus"",""trial"":113,""time"":629090},{""event"":""blur"",""trial"":114,""time"":633796},{""event"":""focus"",""trial"":114,""time"":641150},{""event"":""blur"",""trial"":115,""time"":643427},{""event"":""focus"",""trial"":115,""time"":648348},{""event"":""blur"",""trial"":115,""time"":649988},{""event"":""focus"",""trial"":115,""time"":652971},{""event"":""blur"",""trial"":117,""time"":672048},{""event"":""focus"",""trial"":117,""time"":672833},{""event"":""blur"",""trial"":165,""time"":833426},{""event"":""focus"",""trial"":165,""time"":834354},{""event"":""blur"",""trial"":219,""time"":1019207},{""event"":""focus"",""trial"":219,""time"":1021788},{""event"":""blur"",""trial"":219,""time"":1624881},{""event"":""focus"",""trial"":219,""time"":12388280},{""event"":""blur"",""trial"":219,""time"":12389162},{""event"":""focus"",""trial"":219,""time"":12554103},{""event"":""blur"",""trial"":219,""time"":12555057},{""event"":""focus"",""trial"":219,""time"":12856465},{""event"":""blur"",""trial"":219,""time"":12861925},{""event"":""focus"",""trial"":219,""time"":12885902},{""event"":""blur"",""trial"":219,""time"":12886419},{""event"":""focus"",""trial"":219,""time"":13277280},{""event"":""blur"",""trial"":219,""time"":13277640},{""event"":""focus"",""trial"":219,""time"":13279445},{""event"":""blur"",""trial"":219,""time"":13279838},{""event"":""focus"",""trial"":219,""time"":16115180},{""event"":""blur"",""trial"":219,""time"":16115749},{""event"":""focus"",""trial"":219,""time"":22399709},{""event"":""blur"",""trial"":219,""time"":22400156},{""event"":""focus"",""trial"":219,""time"":22400389},{""event"":""blur"",""trial"":219,""time"":22400774},{""event"":""focus"",""trial"":219,""time"":27510108},{""event"":""blur"",""trial"":256,""time"":27596788},{""event"":""focus"",""trial"":256,""time"":27599196},{""event"":""blur"",""trial"":310,""time"":27752091},{""event"":""focus"",""trial"":310,""time"":27752531},{""event"":""blur"",""trial"":471,""time"":28210731},{""event"":""focus"",""trial"":471,""time"":28211154},{""event"":""blur"",""trial"":471,""time"":28212675},{""event"":""focus"",""trial"":471,""time"":28213571},{""event"":""blur"",""trial"":471,""time"":28213572},{""event"":""focus"",""trial"":471,""time"":28215652},{""event"":""blur"",""trial"":472,""time"":28220913},{""event"":""focus"",""trial"":472,""time"":28226396},{""event"":""blur"",""trial"":472,""time"":28228273},{""event"":""focus"",""trial"":472,""time"":28228614},{""event"":""blur"",""trial"":481,""time"":28248120},{""event"":""focus"",""trial"":481,""time"":28251188},{""event"":""blur"",""trial"":481,""time"":28251189},{""event"":""focus"",""trial"":481,""time"":28253723},{""event"":""blur"",""trial"":481,""time"":28254503},{""event"":""focus"",""trial"":481,""time"":28255505},{""event"":""blur"",""trial"":482,""time"":28259601},{""event"":""focus"",""trial"":482,""time"":28263372},{""event"":""blur"",""trial"":483,""time"":28265417},{""event"":""focus"",""trial"":483,""time"":28266730},{""event"":""blur"",""trial"":483,""time"":28267372},{""event"":""focus"",""trial"":483,""time"":28271457},{""event"":""blur"",""trial"":483,""time"":28271591},{""event"":""focus"",""trial"":483,""time"":28271888},{""event"":""blur"",""trial"":484,""time"":28275516},{""event"":""focus"",""trial"":484,""time"":28279116},{""event"":""blur"",""trial"":485,""time"":28282270},{""event"":""focus"",""trial"":485,""time"":28282720},{""event"":""blur"",""trial"":485,""time"":28283058},{""event"":""focus"",""trial"":485,""time"":28291660}]","","","","","","2376.2000000178814","<p> Today you will be playing a game to earn treasure. </p>
            <p> At the end of the experiment, you will earn a bonus based on how much treasure you find. </p>
            <img src='./assets/img/instructions/treasure.jpg' class='instructions-image'>","","instructions","","","","","","","","","","","",""
"learning-instructions","6","143173","0.0-3.0-1.0-0.2","spark_pilot_norest","9617","5","21","Male","","","","","","","395.59999999403954","<p> Animals have hidden treasure in treasure chests. </p>
            <p> You need to first find an animal and then choose which of their treasure chests to search. </p>
            <img src='./assets/img/space/animals/cat.jpg' class='instructions-image'>","","instructions","","","","","","","","","","","",""
"learning-instructions","7","157278","0.0-3.0-1.0-0.3","spark_pilot_norest","9617","5","21","Male","","","","","","","980.6999999880791","<p> In each round, you will search for treasure in a different place. In the real game, there will be two rounds. </p>
            <p> You will begin with a separate, practice round where you will search for treasure in outer space. </p>
            <img src='./assets/img/space/0.jpg' class='instructions-image'>","","instructions","","","","","","","","","","","",""
"learning-instructions","8","170264","0.0-3.0-1.0-0.4","spark_pilot_norest","9617","5","21","Male","","","","","","","1586.0999999940395","<p> On every turn, you will see a picture of the place that you are in, but the specific image may be different each time. </p>
            <p> For example, both of these images mean you are in outer space. </p>
            <img src='./assets/img/instructions/outerspace.jpg' class='instructions-image'>","","instructions","","","","","","","","","","","",""
"learning-instructions","9","179302","0.0-3.0-1.0-0.5","spark_pilot_norest","9617","5","21","Male","[{""event"":""blur"",""trial"":0,""time"":922},{""event"":""focus"",""trial"":1,""time"":13758},{""event"":""blur"",""trial"":1,""time"":14474},{""event"":""focus"",""trial"":1,""time"":15357},{""event"":""blur"",""trial"":1,""time"":15882},{""event"":""focus"",""trial"":1,""time"":16468},{""event"":""blur"",""trial"":1,""time"":17666},{""event"":""focus"",""trial"":2,""time"":108284},{""event"":""fullscreenenter"",""trial"":2,""time"":109354},{""event"":""fullscreenexit"",""trial"":3,""time"":113254},{""event"":""blur"",""trial"":4,""time"":114275},{""event"":""focus"",""trial"":4,""time"":118540},{""event"":""blur"",""trial"":5,""time"":124124},{""event"":""focus"",""trial"":5,""time"":131651},{""event"":""blur"",""trial"":6,""time"":133456},{""event"":""focus"",""trial"":6,""time"":136038},{""event"":""blur"",""trial"":10,""time"":180822},{""event"":""focus"",""trial"":10,""time"":181777},{""event"":""blur"",""trial"":10,""time"":183105},{""event"":""focus"",""trial"":10,""time"":190086},{""event"":""blur"",""trial"":25,""time"":236942},{""event"":""focus"",""trial"":25,""time"":238807},{""event"":""blur"",""trial"":26,""time"":244250},{""event"":""focus"",""trial"":26,""time"":248844},{""event"":""blur"",""trial"":27,""time"":256936},{""event"":""focus"",""trial"":27,""time"":257402},{""event"":""blur"",""trial"":27,""time"":259935},{""event"":""focus"",""trial"":27,""time"":261318},{""event"":""blur"",""trial"":28,""time"":264418},{""event"":""focus"",""trial"":28,""time"":265887},{""event"":""blur"",""trial"":38,""time"":310423},{""event"":""focus"",""trial"":38,""time"":311046},{""event"":""blur"",""trial"":38,""time"":313374},{""event"":""focus"",""trial"":38,""time"":314522},{""event"":""blur"",""trial"":38,""time"":315672},{""event"":""focus"",""trial"":38,""time"":316758},{""event"":""blur"",""trial"":49,""time"":358151},{""event"":""focus"",""trial"":49,""time"":362786},{""event"":""blur"",""trial"":53,""time"":380451},{""event"":""focus"",""trial"":53,""time"":381198},{""event"":""blur"",""trial"":55,""time"":384541},{""event"":""focus"",""trial"":57,""time"":394041},{""event"":""blur"",""trial"":58,""time"":395776},{""event"":""focus"",""trial"":58,""time"":400274},{""event"":""blur"",""trial"":58,""time"":400285},{""event"":""focus"",""trial"":58,""time"":400376},{""event"":""blur"",""trial"":59,""time"":406370},{""event"":""focus"",""trial"":59,""time"":411772},{""event"":""blur"",""trial"":87,""time"":509844},{""event"":""focus"",""trial"":87,""time"":510267},{""event"":""blur"",""trial"":87,""time"":510521},{""event"":""focus"",""trial"":87,""time"":513070},{""event"":""blur"",""trial"":88,""time"":517884},{""event"":""focus"",""trial"":88,""time"":518748},{""event"":""blur"",""trial"":88,""time"":519625},{""event"":""focus"",""trial"":88,""time"":521415},{""event"":""blur"",""trial"":106,""time"":571875},{""event"":""focus"",""trial"":106,""time"":574031},{""event"":""blur"",""trial"":108,""time"":587696},{""event"":""focus"",""trial"":108,""time"":591915},{""event"":""blur"",""trial"":110,""time"":604555},{""event"":""focus"",""trial"":110,""time"":604972},{""event"":""blur"",""trial"":112,""time"":618417},{""event"":""focus"",""trial"":112,""time"":619177},{""event"":""blur"",""trial"":112,""time"":619497},{""event"":""focus"",""trial"":112,""time"":623481},{""event"":""blur"",""trial"":113,""time"":628249},{""event"":""focus"",""trial"":113,""time"":629090},{""event"":""blur"",""trial"":114,""time"":633796},{""event"":""focus"",""trial"":114,""time"":641150},{""event"":""blur"",""trial"":115,""time"":643427},{""event"":""focus"",""trial"":115,""time"":648348},{""event"":""blur"",""trial"":115,""time"":649988},{""event"":""focus"",""trial"":115,""time"":652971},{""event"":""blur"",""trial"":117,""time"":672048},{""event"":""focus"",""trial"":117,""time"":672833},{""event"":""blur"",""trial"":165,""time"":833426},{""event"":""focus"",""trial"":165,""time"":834354},{""event"":""blur"",""trial"":219,""time"":1019207},{""event"":""focus"",""trial"":219,""time"":1021788},{""event"":""blur"",""trial"":219,""time"":1624881},{""event"":""focus"",""trial"":219,""time"":12388280},{""event"":""blur"",""trial"":219,""time"":12389162},{""event"":""focus"",""trial"":219,""time"":12554103},{""event"":""blur"",""trial"":219,""time"":12555057},{""event"":""focus"",""trial"":219,""time"":12856465},{""event"":""blur"",""trial"":219,""time"":12861925},{""event"":""focus"",""trial"":219,""time"":12885902},{""event"":""blur"",""trial"":219,""time"":12886419},{""event"":""focus"",""trial"":219,""time"":13277280},{""event"":""blur"",""trial"":219,""time"":13277640},{""event"":""focus"",""trial"":219,""time"":13279445},{""event"":""blur"",""trial"":219,""time"":13279838},{""event"":""focus"",""trial"":219,""time"":16115180},{""event"":""blur"",""trial"":219,""time"":16115749},{""event"":""focus"",""trial"":219,""time"":22399709},{""event"":""blur"",""trial"":219,""time"":22400156},{""event"":""focus"",""trial"":219,""time"":22400389},{""event"":""blur"",""trial"":219,""time"":22400774},{""event"":""focus"",""trial"":219,""time"":27510108},{""event"":""blur"",""trial"":256,""time"":27596788},{""event"":""focus"",""trial"":256,""time"":27599196},{""event"":""blur"",""trial"":310,""time"":27752091},{""event"":""focus"",""trial"":310,""time"":27752531},{""event"":""blur"",""trial"":471,""time"":28210731},{""event"":""focus"",""trial"":471,""time"":28211154},{""event"":""blur"",""trial"":471,""time"":28212675},{""event"":""focus"",""trial"":471,""time"":28213571},{""event"":""blur"",""trial"":471,""time"":28213572},{""event"":""focus"",""trial"":471,""time"":28215652},{""event"":""blur"",""trial"":472,""time"":28220913},{""event"":""focus"",""trial"":472,""time"":28226396},{""event"":""blur"",""trial"":472,""time"":28228273},{""event"":""focus"",""trial"":472,""time"":28228614},{""event"":""blur"",""trial"":481,""time"":28248120},{""event"":""focus"",""trial"":481,""time"":28251188},{""event"":""blur"",""trial"":481,""time"":28251189},{""event"":""focus"",""trial"":481,""time"":28253723},{""event"":""blur"",""trial"":481,""time"":28254503},{""event"":""focus"",""trial"":481,""time"":28255505},{""event"":""blur"",""trial"":482,""time"":28259601},{""event"":""focus"",""trial"":482,""time"":28263372},{""event"":""blur"",""trial"":483,""time"":28265417},{""event"":""focus"",""trial"":483,""time"":28266730},{""event"":""blur"",""trial"":483,""time"":28267372},{""event"":""focus"",""trial"":483,""time"":28271457},{""event"":""blur"",""trial"":483,""time"":28271591},{""event"":""focus"",""trial"":483,""time"":28271888},{""event"":""blur"",""trial"":484,""time"":28275516},{""event"":""focus"",""trial"":484,""time"":28279116},{""event"":""blur"",""trial"":485,""time"":28282270},{""event"":""focus"",""trial"":485,""time"":28282720},{""event"":""blur"",""trial"":485,""time"":28283058},{""event"":""focus"",""trial"":485,""time"":28291660}]","","","","","","1224.300000011921","<p> You need to decide which direction to travel in. </p>
            <p> You can choose between going <b>up or down</b> by using the arrow keys. </p>
            <img src='./assets/img/instructions/updown.jpg' class='instructions-image'>","","instructions","","","","","","","","","","","",""
"learning-instructions","10","190778","0.0-3.0-1.0-0.6","spark_pilot_norest","9617","5","21","Male","","","","","","","2689.7999999821186","<p> You will have <b>2 seconds</b> to make your choice. </p>
            <p> If you do not make a choice within 2 seconds, you will not find an animal or earn treasure. </p>
            <img src='./assets/img/instructions/2seconds.jpg' class='instructions-image'>","","instructions","","","","","","","","","","","",""
"learning-instructions","11","198208","0.0-3.0-1.0-0.7","spark_pilot_norest","9617","5","21","Male","","","","","","","409.90000000596046","<p> Let’s try practicing that now! </p>
            <p> When you see a picture of the place you are in, press the <b>up</b> key to travel up. </p>
            <img src='./assets/img/instructions/pressUp.jpg' class='instructions-image'>","","instructions","","","","","","","","","","","",""
"revaluation","12","202229","0.0-3.0-2.0-0.0","spark_pilot_norest","9617","5","21","Male","","","false","","","","[1253.4000000059605]","./assets/img/space/0.jpg","[""ArrowUp""]","first stage practice","space","0","null","null","ArrowUp","false","","","","","",""
"html-keyboard-response","13","202739","0.0-3.0-2.0-1.0","spark_pilot_norest","9617","5","21","Male","","","","","","","null","<div style=""font-size:60px;"">+</div>","null","fixation","","","","","","","","","","","",""
"revaluation","14","206759","0.0-3.0-2.0-0.1","spark_pilot_norest","9617","5","21","Male","","","false","","","","[682.2000000178814]","./assets/img/space/1.jpg","[""ArrowUp""]","first stage practice","space","0","null","null","ArrowUp","false","","","","","",""
"html-keyboard-response","15","207275","0.0-3.0-2.0-1.1","spark_pilot_norest","9617","5","21","Male","","","","","","","null","<div style=""font-size:60px;"">+</div>","null","fixation","","","","","","","","","","","",""
"revaluation","16","211292","0.0-3.0-2.0-0.2","spark_pilot_norest","9617","5","21","Male","","","false","","","","[685.0999999940395]","./assets/img/space/2.jpg","[""ArrowUp""]","first stage practice","space","0","null","null","ArrowUp","false","","","","","",""
"html-keyboard-response","17","211803","0.0-3.0-2.0-1.2","spark_pilot_norest","9617","5","21","Male","","","","","","","null","<div style=""font-size:60px;"">+</div>","null","fixation","","","","","","","","","","","",""
"learning-instructions","18","216771","0.0-3.0-3.0-0.0","spark_pilot_norest","9617","5","21","Male","","","","","","","282.80000001192093","<p> Great job! Now try pressing the <b>down</b> key to travel down. </p>
            <img src='./assets/img/instructions/pressDown.jpg' class='instructions-image'>","","instructions","","","","","","","","","","","",""
"revaluation","19","220797","0.0-3.0-4.0-0.0","spark_pilot_norest","9617","5","21","Male","","","false","","","","[767.1999999880791]","./assets/img/space/3.jpg","[""ArrowDown""]","first stage practice","space","0","null","null","ArrowDown","false","","","","","",""
"html-keyboard-response","20","221302","0.0-3.0-4.0-1.0","spark_pilot_norest","9617","5","21","Male","","","","","","","null","<div style=""font-size:60px;"">+</div>","null","fixation","","","","","","","","","","","",""
"revaluation","21","225323","0.0-3.0-4.0-0.1","spark_pilot_norest","9617","5","21","Male","","","false","","","","[203.5]","./assets/img/space/4.jpg","[""ArrowDown""]","first stage practice","space","0","null","null","ArrowDown","false","","","","","",""
"html-keyboard-response","22","225837","0.0-3.0-4.0-1.1","spark_pilot_norest","9617","5","21","Male","","","","","","","null","<div style=""font-size:60px;"">+</div>","null","fixation","","","","","","","","","","","",""
"revaluation","23","229857","0.0-3.0-4.0-0.2","spark_pilot_norest","9617","5","21","Male","","","false","","","","[290.69999998807907]","./assets/img/space/5.jpg","[""ArrowDown""]","first stage practice","space","0","null","null","ArrowDown","false","","","","","",""
"html-keyboard-response","24","230371","0.0-3.0-4.0-1.2","spark_pilot_norest","9617","5","21","Male","[{""event"":""blur"",""trial"":0,""time"":922},{""event"":""focus"",""trial"":1,""time"":13758},{""event"":""blur"",""trial"":1,""time"":14474},{""event"":""focus"",""trial"":1,""time"":15357},{""event"":""blur"",""trial"":1,""time"":15882},{""event"":""focus"",""trial"":1,""time"":16468},{""event"":""blur"",""trial"":1,""time"":17666},{""event"":""focus"",""trial"":2,""time"":108284},{""event"":""fullscreenenter"",""trial"":2,""time"":109354},{""event"":""fullscreenexit"",""trial"":3,""time"":113254},{""event"":""blur"",""trial"":4,""time"":114275},{""event"":""focus"",""trial"":4,""time"":118540},{""event"":""blur"",""trial"":5,""time"":124124},{""event"":""focus"",""trial"":5,""time"":131651},{""event"":""blur"",""trial"":6,""time"":133456},{""event"":""focus"",""trial"":6,""time"":136038},{""event"":""blur"",""trial"":10,""time"":180822},{""event"":""focus"",""trial"":10,""time"":181777},{""event"":""blur"",""trial"":10,""time"":183105},{""event"":""focus"",""trial"":10,""time"":190086},{""event"":""blur"",""trial"":25,""time"":236942},{""event"":""focus"",""trial"":25,""time"":238807},{""event"":""blur"",""trial"":26,""time"":244250},{""event"":""focus"",""trial"":26,""time"":248844},{""event"":""blur"",""trial"":27,""time"":256936},{""event"":""focus"",""trial"":27,""time"":257402},{""event"":""blur"",""trial"":27,""time"":259935},{""event"":""focus"",""trial"":27,""time"":261318},{""event"":""blur"",""trial"":28,""time"":264418},{""event"":""focus"",""trial"":28,""time"":265887},{""event"":""blur"",""trial"":38,""time"":310423},{""event"":""focus"",""trial"":38,""time"":311046},{""event"":""blur"",""trial"":38,""time"":313374},{""event"":""focus"",""trial"":38,""time"":314522},{""event"":""blur"",""trial"":38,""time"":315672},{""event"":""focus"",""trial"":38,""time"":316758},{""event"":""blur"",""trial"":49,""time"":358151},{""event"":""focus"",""trial"":49,""time"":362786},{""event"":""blur"",""trial"":53,""time"":380451},{""event"":""focus"",""trial"":53,""time"":381198},{""event"":""blur"",""trial"":55,""time"":384541},{""event"":""focus"",""trial"":57,""time"":394041},{""event"":""blur"",""trial"":58,""time"":395776},{""event"":""focus"",""trial"":58,""time"":400274},{""event"":""blur"",""trial"":58,""time"":400285},{""event"":""focus"",""trial"":58,""time"":400376},{""event"":""blur"",""trial"":59,""time"":406370},{""event"":""focus"",""trial"":59,""time"":411772},{""event"":""blur"",""trial"":87,""time"":509844},{""event"":""focus"",""trial"":87,""time"":510267},{""event"":""blur"",""trial"":87,""time"":510521},{""event"":""focus"",""trial"":87,""time"":513070},{""event"":""blur"",""trial"":88,""time"":517884},{""event"":""focus"",""trial"":88,""time"":518748},{""event"":""blur"",""trial"":88,""time"":519625},{""event"":""focus"",""trial"":88,""time"":521415},{""event"":""blur"",""trial"":106,""time"":571875},{""event"":""focus"",""trial"":106,""time"":574031},{""event"":""blur"",""trial"":108,""time"":587696},{""event"":""focus"",""trial"":108,""time"":591915},{""event"":""blur"",""trial"":110,""time"":604555},{""event"":""focus"",""trial"":110,""time"":604972},{""event"":""blur"",""trial"":112,""time"":618417},{""event"":""focus"",""trial"":112,""time"":619177},{""event"":""blur"",""trial"":112,""time"":619497},{""event"":""focus"",""trial"":112,""time"":623481},{""event"":""blur"",""trial"":113,""time"":628249},{""event"":""focus"",""trial"":113,""time"":629090},{""event"":""blur"",""trial"":114,""time"":633796},{""event"":""focus"",""trial"":114,""time"":641150},{""event"":""blur"",""trial"":115,""time"":643427},{""event"":""focus"",""trial"":115,""time"":648348},{""event"":""blur"",""trial"":115,""time"":649988},{""event"":""focus"",""trial"":115,""time"":652971},{""event"":""blur"",""trial"":117,""time"":672048},{""event"":""focus"",""trial"":117,""time"":672833},{""event"":""blur"",""trial"":165,""time"":833426},{""event"":""focus"",""trial"":165,""time"":834354},{""event"":""blur"",""trial"":219,""time"":1019207},{""event"":""focus"",""trial"":219,""time"":1021788},{""event"":""blur"",""trial"":219,""time"":1624881},{""event"":""focus"",""trial"":219,""time"":12388280},{""event"":""blur"",""trial"":219,""time"":12389162},{""event"":""focus"",""trial"":219,""time"":12554103},{""event"":""blur"",""trial"":219,""time"":12555057},{""event"":""focus"",""trial"":219,""time"":12856465},{""event"":""blur"",""trial"":219,""time"":12861925},{""event"":""focus"",""trial"":219,""time"":12885902},{""event"":""blur"",""trial"":219,""time"":12886419},{""event"":""focus"",""trial"":219,""time"":13277280},{""event"":""blur"",""trial"":219,""time"":13277640},{""event"":""focus"",""trial"":219,""time"":13279445},{""event"":""blur"",""trial"":219,""time"":13279838},{""event"":""focus"",""trial"":219,""time"":16115180},{""event"":""blur"",""trial"":219,""time"":16115749},{""event"":""focus"",""trial"":219,""time"":22399709},{""event"":""blur"",""trial"":219,""time"":22400156},{""event"":""focus"",""trial"":219,""time"":22400389},{""event"":""blur"",""trial"":219,""time"":22400774},{""event"":""focus"",""trial"":219,""time"":27510108},{""event"":""blur"",""trial"":256,""time"":27596788},{""event"":""focus"",""trial"":256,""time"":27599196},{""event"":""blur"",""trial"":310,""time"":27752091},{""event"":""focus"",""trial"":310,""time"":27752531},{""event"":""blur"",""trial"":471,""time"":28210731},{""event"":""focus"",""trial"":471,""time"":28211154},{""event"":""blur"",""trial"":471,""time"":28212675},{""event"":""focus"",""trial"":471,""time"":28213571},{""event"":""blur"",""trial"":471,""time"":28213572},{""event"":""focus"",""trial"":471,""time"":28215652},{""event"":""blur"",""trial"":472,""time"":28220913},{""event"":""focus"",""trial"":472,""time"":28226396},{""event"":""blur"",""trial"":472,""time"":28228273},{""event"":""focus"",""trial"":472,""time"":28228614},{""event"":""blur"",""trial"":481,""time"":28248120},{""event"":""focus"",""trial"":481,""time"":28251188},{""event"":""blur"",""trial"":481,""time"":28251189},{""event"":""focus"",""trial"":481,""time"":28253723},{""event"":""blur"",""trial"":481,""time"":28254503},{""event"":""focus"",""trial"":481,""time"":28255505},{""event"":""blur"",""trial"":482,""time"":28259601},{""event"":""focus"",""trial"":482,""time"":28263372},{""event"":""blur"",""trial"":483,""time"":28265417},{""event"":""focus"",""trial"":483,""time"":28266730},{""event"":""blur"",""trial"":483,""time"":28267372},{""event"":""focus"",""trial"":483,""time"":28271457},{""event"":""blur"",""trial"":483,""time"":28271591},{""event"":""focus"",""trial"":483,""time"":28271888},{""event"":""blur"",""trial"":484,""time"":28275516},{""event"":""focus"",""trial"":484,""time"":28279116},{""event"":""blur"",""trial"":485,""time"":28282270},{""event"":""focus"",""trial"":485,""time"":28282720},{""event"":""blur"",""trial"":485,""time"":28283058},{""event"":""focus"",""trial"":485,""time"":28291660}]","","","","","","null","<div style=""font-size:60px;"">+</div>","null","fixation","","","","","","","","","","","",""
"learning-instructions","25","240801","0.0-3.0-5.0-0.0","spark_pilot_norest","9617","5","21","Male","[{""event"":""blur"",""trial"":0,""time"":922},{""event"":""focus"",""trial"":1,""time"":13758},{""event"":""blur"",""trial"":1,""time"":14474},{""event"":""focus"",""trial"":1,""time"":15357},{""event"":""blur"",""trial"":1,""time"":15882},{""event"":""focus"",""trial"":1,""time"":16468},{""event"":""blur"",""trial"":1,""time"":17666},{""event"":""focus"",""trial"":2,""time"":108284},{""event"":""fullscreenenter"",""trial"":2,""time"":109354},{""event"":""fullscreenexit"",""trial"":3,""time"":113254},{""event"":""blur"",""trial"":4,""time"":114275},{""event"":""focus"",""trial"":4,""time"":118540},{""event"":""blur"",""trial"":5,""time"":124124},{""event"":""focus"",""trial"":5,""time"":131651},{""event"":""blur"",""trial"":6,""time"":133456},{""event"":""focus"",""trial"":6,""time"":136038},{""event"":""blur"",""trial"":10,""time"":180822},{""event"":""focus"",""trial"":10,""time"":181777},{""event"":""blur"",""trial"":10,""time"":183105},{""event"":""focus"",""trial"":10,""time"":190086},{""event"":""blur"",""trial"":25,""time"":236942},{""event"":""focus"",""trial"":25,""time"":238807},{""event"":""blur"",""trial"":26,""time"":244250},{""event"":""focus"",""trial"":26,""time"":248844},{""event"":""blur"",""trial"":27,""time"":256936},{""event"":""focus"",""trial"":27,""time"":257402},{""event"":""blur"",""trial"":27,""time"":259935},{""event"":""focus"",""trial"":27,""time"":261318},{""event"":""blur"",""trial"":28,""time"":264418},{""event"":""focus"",""trial"":28,""time"":265887},{""event"":""blur"",""trial"":38,""time"":310423},{""event"":""focus"",""trial"":38,""time"":311046},{""event"":""blur"",""trial"":38,""time"":313374},{""event"":""focus"",""trial"":38,""time"":314522},{""event"":""blur"",""trial"":38,""time"":315672},{""event"":""focus"",""trial"":38,""time"":316758},{""event"":""blur"",""trial"":49,""time"":358151},{""event"":""focus"",""trial"":49,""time"":362786},{""event"":""blur"",""trial"":53,""time"":380451},{""event"":""focus"",""trial"":53,""time"":381198},{""event"":""blur"",""trial"":55,""time"":384541},{""event"":""focus"",""trial"":57,""time"":394041},{""event"":""blur"",""trial"":58,""time"":395776},{""event"":""focus"",""trial"":58,""time"":400274},{""event"":""blur"",""trial"":58,""time"":400285},{""event"":""focus"",""trial"":58,""time"":400376},{""event"":""blur"",""trial"":59,""time"":406370},{""event"":""focus"",""trial"":59,""time"":411772},{""event"":""blur"",""trial"":87,""time"":509844},{""event"":""focus"",""trial"":87,""time"":510267},{""event"":""blur"",""trial"":87,""time"":510521},{""event"":""focus"",""trial"":87,""time"":513070},{""event"":""blur"",""trial"":88,""time"":517884},{""event"":""focus"",""trial"":88,""time"":518748},{""event"":""blur"",""trial"":88,""time"":519625},{""event"":""focus"",""trial"":88,""time"":521415},{""event"":""blur"",""trial"":106,""time"":571875},{""event"":""focus"",""trial"":106,""time"":574031},{""event"":""blur"",""trial"":108,""time"":587696},{""event"":""focus"",""trial"":108,""time"":591915},{""event"":""blur"",""trial"":110,""time"":604555},{""event"":""focus"",""trial"":110,""time"":604972},{""event"":""blur"",""trial"":112,""time"":618417},{""event"":""focus"",""trial"":112,""time"":619177},{""event"":""blur"",""trial"":112,""time"":619497},{""event"":""focus"",""trial"":112,""time"":623481},{""event"":""blur"",""trial"":113,""time"":628249},{""event"":""focus"",""trial"":113,""time"":629090},{""event"":""blur"",""trial"":114,""time"":633796},{""event"":""focus"",""trial"":114,""time"":641150},{""event"":""blur"",""trial"":115,""time"":643427},{""event"":""focus"",""trial"":115,""time"":648348},{""event"":""blur"",""trial"":115,""time"":649988},{""event"":""focus"",""trial"":115,""time"":652971},{""event"":""blur"",""trial"":117,""time"":672048},{""event"":""focus"",""trial"":117,""time"":672833},{""event"":""blur"",""trial"":165,""time"":833426},{""event"":""focus"",""trial"":165,""time"":834354},{""event"":""blur"",""trial"":219,""time"":1019207},{""event"":""focus"",""trial"":219,""time"":1021788},{""event"":""blur"",""trial"":219,""time"":1624881},{""event"":""focus"",""trial"":219,""time"":12388280},{""event"":""blur"",""trial"":219,""time"":12389162},{""event"":""focus"",""trial"":219,""time"":12554103},{""event"":""blur"",""trial"":219,""time"":12555057},{""event"":""focus"",""trial"":219,""time"":12856465},{""event"":""blur"",""trial"":219,""time"":12861925},{""event"":""focus"",""trial"":219,""time"":12885902},{""event"":""blur"",""trial"":219,""time"":12886419},{""event"":""focus"",""trial"":219,""time"":13277280},{""event"":""blur"",""trial"":219,""time"":13277640},{""event"":""focus"",""trial"":219,""time"":13279445},{""event"":""blur"",""trial"":219,""time"":13279838},{""event"":""focus"",""trial"":219,""time"":16115180},{""event"":""blur"",""trial"":219,""time"":16115749},{""event"":""focus"",""trial"":219,""time"":22399709},{""event"":""blur"",""trial"":219,""time"":22400156},{""event"":""focus"",""trial"":219,""time"":22400389},{""event"":""blur"",""trial"":219,""time"":22400774},{""event"":""focus"",""trial"":219,""time"":27510108},{""event"":""blur"",""trial"":256,""time"":27596788},{""event"":""focus"",""trial"":256,""time"":27599196},{""event"":""blur"",""trial"":310,""time"":27752091},{""event"":""focus"",""trial"":310,""time"":27752531},{""event"":""blur"",""trial"":471,""time"":28210731},{""event"":""focus"",""trial"":471,""time"":28211154},{""event"":""blur"",""trial"":471,""time"":28212675},{""event"":""focus"",""trial"":471,""time"":28213571},{""event"":""blur"",""trial"":471,""time"":28213572},{""event"":""focus"",""trial"":471,""time"":28215652},{""event"":""blur"",""trial"":472,""time"":28220913},{""event"":""focus"",""trial"":472,""time"":28226396},{""event"":""blur"",""trial"":472,""time"":28228273},{""event"":""focus"",""trial"":472,""time"":28228614},{""event"":""blur"",""trial"":481,""time"":28248120},{""event"":""focus"",""trial"":481,""time"":28251188},{""event"":""blur"",""trial"":481,""time"":28251189},{""event"":""focus"",""trial"":481,""time"":28253723},{""event"":""blur"",""trial"":481,""time"":28254503},{""event"":""focus"",""trial"":481,""time"":28255505},{""event"":""blur"",""trial"":482,""time"":28259601},{""event"":""focus"",""trial"":482,""time"":28263372},{""event"":""blur"",""trial"":483,""time"":28265417},{""event"":""focus"",""trial"":483,""time"":28266730},{""event"":""blur"",""trial"":483,""time"":28267372},{""event"":""focus"",""trial"":483,""time"":28271457},{""event"":""blur"",""trial"":483,""time"":28271591},{""event"":""focus"",""trial"":483,""time"":28271888},{""event"":""blur"",""trial"":484,""time"":28275516},{""event"":""focus"",""trial"":484,""time"":28279116},{""event"":""blur"",""trial"":485,""time"":28282270},{""event"":""focus"",""trial"":485,""time"":28282720},{""event"":""blur"",""trial"":485,""time"":28283058},{""event"":""focus"",""trial"":485,""time"":28291660}]","","","","","","592.5999999940395","<p> The animals don’t move, so the animal in the upper part of a place will stay in the upper part of a place, and the animal in the lower part of a place will stay in the lower part of a place. </p>","","instructions","","","","","","","","","","","",""
"learning-instructions","26","250281","0.0-3.0-5.0-0.1","spark_pilot_norest","9617","5","21","Male","[{""event"":""blur"",""trial"":0,""time"":922},{""event"":""focus"",""trial"":1,""time"":13758},{""event"":""blur"",""trial"":1,""time"":14474},{""event"":""focus"",""trial"":1,""time"":15357},{""event"":""blur"",""trial"":1,""time"":15882},{""event"":""focus"",""trial"":1,""time"":16468},{""event"":""blur"",""trial"":1,""time"":17666},{""event"":""focus"",""trial"":2,""time"":108284},{""event"":""fullscreenenter"",""trial"":2,""time"":109354},{""event"":""fullscreenexit"",""trial"":3,""time"":113254},{""event"":""blur"",""trial"":4,""time"":114275},{""event"":""focus"",""trial"":4,""time"":118540},{""event"":""blur"",""trial"":5,""time"":124124},{""event"":""focus"",""trial"":5,""time"":131651},{""event"":""blur"",""trial"":6,""time"":133456},{""event"":""focus"",""trial"":6,""time"":136038},{""event"":""blur"",""trial"":10,""time"":180822},{""event"":""focus"",""trial"":10,""time"":181777},{""event"":""blur"",""trial"":10,""time"":183105},{""event"":""focus"",""trial"":10,""time"":190086},{""event"":""blur"",""trial"":25,""time"":236942},{""event"":""focus"",""trial"":25,""time"":238807},{""event"":""blur"",""trial"":26,""time"":244250},{""event"":""focus"",""trial"":26,""time"":248844},{""event"":""blur"",""trial"":27,""time"":256936},{""event"":""focus"",""trial"":27,""time"":257402},{""event"":""blur"",""trial"":27,""time"":259935},{""event"":""focus"",""trial"":27,""time"":261318},{""event"":""blur"",""trial"":28,""time"":264418},{""event"":""focus"",""trial"":28,""time"":265887},{""event"":""blur"",""trial"":38,""time"":310423},{""event"":""focus"",""trial"":38,""time"":311046},{""event"":""blur"",""trial"":38,""time"":313374},{""event"":""focus"",""trial"":38,""time"":314522},{""event"":""blur"",""trial"":38,""time"":315672},{""event"":""focus"",""trial"":38,""time"":316758},{""event"":""blur"",""trial"":49,""time"":358151},{""event"":""focus"",""trial"":49,""time"":362786},{""event"":""blur"",""trial"":53,""time"":380451},{""event"":""focus"",""trial"":53,""time"":381198},{""event"":""blur"",""trial"":55,""time"":384541},{""event"":""focus"",""trial"":57,""time"":394041},{""event"":""blur"",""trial"":58,""time"":395776},{""event"":""focus"",""trial"":58,""time"":400274},{""event"":""blur"",""trial"":58,""time"":400285},{""event"":""focus"",""trial"":58,""time"":400376},{""event"":""blur"",""trial"":59,""time"":406370},{""event"":""focus"",""trial"":59,""time"":411772},{""event"":""blur"",""trial"":87,""time"":509844},{""event"":""focus"",""trial"":87,""time"":510267},{""event"":""blur"",""trial"":87,""time"":510521},{""event"":""focus"",""trial"":87,""time"":513070},{""event"":""blur"",""trial"":88,""time"":517884},{""event"":""focus"",""trial"":88,""time"":518748},{""event"":""blur"",""trial"":88,""time"":519625},{""event"":""focus"",""trial"":88,""time"":521415},{""event"":""blur"",""trial"":106,""time"":571875},{""event"":""focus"",""trial"":106,""time"":574031},{""event"":""blur"",""trial"":108,""time"":587696},{""event"":""focus"",""trial"":108,""time"":591915},{""event"":""blur"",""trial"":110,""time"":604555},{""event"":""focus"",""trial"":110,""time"":604972},{""event"":""blur"",""trial"":112,""time"":618417},{""event"":""focus"",""trial"":112,""time"":619177},{""event"":""blur"",""trial"":112,""time"":619497},{""event"":""focus"",""trial"":112,""time"":623481},{""event"":""blur"",""trial"":113,""time"":628249},{""event"":""focus"",""trial"":113,""time"":629090},{""event"":""blur"",""trial"":114,""time"":633796},{""event"":""focus"",""trial"":114,""time"":641150},{""event"":""blur"",""trial"":115,""time"":643427},{""event"":""focus"",""trial"":115,""time"":648348},{""event"":""blur"",""trial"":115,""time"":649988},{""event"":""focus"",""trial"":115,""time"":652971},{""event"":""blur"",""trial"":117,""time"":672048},{""event"":""focus"",""trial"":117,""time"":672833},{""event"":""blur"",""trial"":165,""time"":833426},{""event"":""focus"",""trial"":165,""time"":834354},{""event"":""blur"",""trial"":219,""time"":1019207},{""event"":""focus"",""trial"":219,""time"":1021788},{""event"":""blur"",""trial"":219,""time"":1624881},{""event"":""focus"",""trial"":219,""time"":12388280},{""event"":""blur"",""trial"":219,""time"":12389162},{""event"":""focus"",""trial"":219,""time"":12554103},{""event"":""blur"",""trial"":219,""time"":12555057},{""event"":""focus"",""trial"":219,""time"":12856465},{""event"":""blur"",""trial"":219,""time"":12861925},{""event"":""focus"",""trial"":219,""time"":12885902},{""event"":""blur"",""trial"":219,""time"":12886419},{""event"":""focus"",""trial"":219,""time"":13277280},{""event"":""blur"",""trial"":219,""time"":13277640},{""event"":""focus"",""trial"":219,""time"":13279445},{""event"":""blur"",""trial"":219,""time"":13279838},{""event"":""focus"",""trial"":219,""time"":16115180},{""event"":""blur"",""trial"":219,""time"":16115749},{""event"":""focus"",""trial"":219,""time"":22399709},{""event"":""blur"",""trial"":219,""time"":22400156},{""event"":""focus"",""trial"":219,""time"":22400389},{""event"":""blur"",""trial"":219,""time"":22400774},{""event"":""focus"",""trial"":219,""time"":27510108},{""event"":""blur"",""trial"":256,""time"":27596788},{""event"":""focus"",""trial"":256,""time"":27599196},{""event"":""blur"",""trial"":310,""time"":27752091},{""event"":""focus"",""trial"":310,""time"":27752531},{""event"":""blur"",""trial"":471,""time"":28210731},{""event"":""focus"",""trial"":471,""time"":28211154},{""event"":""blur"",""trial"":471,""time"":28212675},{""event"":""focus"",""trial"":471,""time"":28213571},{""event"":""blur"",""trial"":471,""time"":28213572},{""event"":""focus"",""trial"":471,""time"":28215652},{""event"":""blur"",""trial"":472,""time"":28220913},{""event"":""focus"",""trial"":472,""time"":28226396},{""event"":""blur"",""trial"":472,""time"":28228273},{""event"":""focus"",""trial"":472,""time"":28228614},{""event"":""blur"",""trial"":481,""time"":28248120},{""event"":""focus"",""trial"":481,""time"":28251188},{""event"":""blur"",""trial"":481,""time"":28251189},{""event"":""focus"",""trial"":481,""time"":28253723},{""event"":""blur"",""trial"":481,""time"":28254503},{""event"":""focus"",""trial"":481,""time"":28255505},{""event"":""blur"",""trial"":482,""time"":28259601},{""event"":""focus"",""trial"":482,""time"":28263372},{""event"":""blur"",""trial"":483,""time"":28265417},{""event"":""focus"",""trial"":483,""time"":28266730},{""event"":""blur"",""trial"":483,""time"":28267372},{""event"":""focus"",""trial"":483,""time"":28271457},{""event"":""blur"",""trial"":483,""time"":28271591},{""event"":""focus"",""trial"":483,""time"":28271888},{""event"":""blur"",""trial"":484,""time"":28275516},{""event"":""focus"",""trial"":484,""time"":28279116},{""event"":""blur"",""trial"":485,""time"":28282270},{""event"":""focus"",""trial"":485,""time"":28282720},{""event"":""blur"",""trial"":485,""time"":28283058},{""event"":""focus"",""trial"":485,""time"":28291660}]","","","","","","361.5","<p> Each animal has two treasure chests for you to choose from. </p>
            <p> The amount of treasure in each chest can range from <b> 0 to 40 pieces.</b></p>","","instructions","","","","","","","","","","","",""
"learning-instructions","27","262823","0.0-3.0-5.0-0.2","spark_pilot_norest","9617","5","21","Male","[{""event"":""blur"",""trial"":0,""time"":922},{""event"":""focus"",""trial"":1,""time"":13758},{""event"":""blur"",""trial"":1,""time"":14474},{""event"":""focus"",""trial"":1,""time"":15357},{""event"":""blur"",""trial"":1,""time"":15882},{""event"":""focus"",""trial"":1,""time"":16468},{""event"":""blur"",""trial"":1,""time"":17666},{""event"":""focus"",""trial"":2,""time"":108284},{""event"":""fullscreenenter"",""trial"":2,""time"":109354},{""event"":""fullscreenexit"",""trial"":3,""time"":113254},{""event"":""blur"",""trial"":4,""time"":114275},{""event"":""focus"",""trial"":4,""time"":118540},{""event"":""blur"",""trial"":5,""time"":124124},{""event"":""focus"",""trial"":5,""time"":131651},{""event"":""blur"",""trial"":6,""time"":133456},{""event"":""focus"",""trial"":6,""time"":136038},{""event"":""blur"",""trial"":10,""time"":180822},{""event"":""focus"",""trial"":10,""time"":181777},{""event"":""blur"",""trial"":10,""time"":183105},{""event"":""focus"",""trial"":10,""time"":190086},{""event"":""blur"",""trial"":25,""time"":236942},{""event"":""focus"",""trial"":25,""time"":238807},{""event"":""blur"",""trial"":26,""time"":244250},{""event"":""focus"",""trial"":26,""time"":248844},{""event"":""blur"",""trial"":27,""time"":256936},{""event"":""focus"",""trial"":27,""time"":257402},{""event"":""blur"",""trial"":27,""time"":259935},{""event"":""focus"",""trial"":27,""time"":261318},{""event"":""blur"",""trial"":28,""time"":264418},{""event"":""focus"",""trial"":28,""time"":265887},{""event"":""blur"",""trial"":38,""time"":310423},{""event"":""focus"",""trial"":38,""time"":311046},{""event"":""blur"",""trial"":38,""time"":313374},{""event"":""focus"",""trial"":38,""time"":314522},{""event"":""blur"",""trial"":38,""time"":315672},{""event"":""focus"",""trial"":38,""time"":316758},{""event"":""blur"",""trial"":49,""time"":358151},{""event"":""focus"",""trial"":49,""time"":362786},{""event"":""blur"",""trial"":53,""time"":380451},{""event"":""focus"",""trial"":53,""time"":381198},{""event"":""blur"",""trial"":55,""time"":384541},{""event"":""focus"",""trial"":57,""time"":394041},{""event"":""blur"",""trial"":58,""time"":395776},{""event"":""focus"",""trial"":58,""time"":400274},{""event"":""blur"",""trial"":58,""time"":400285},{""event"":""focus"",""trial"":58,""time"":400376},{""event"":""blur"",""trial"":59,""time"":406370},{""event"":""focus"",""trial"":59,""time"":411772},{""event"":""blur"",""trial"":87,""time"":509844},{""event"":""focus"",""trial"":87,""time"":510267},{""event"":""blur"",""trial"":87,""time"":510521},{""event"":""focus"",""trial"":87,""time"":513070},{""event"":""blur"",""trial"":88,""time"":517884},{""event"":""focus"",""trial"":88,""time"":518748},{""event"":""blur"",""trial"":88,""time"":519625},{""event"":""focus"",""trial"":88,""time"":521415},{""event"":""blur"",""trial"":106,""time"":571875},{""event"":""focus"",""trial"":106,""time"":574031},{""event"":""blur"",""trial"":108,""time"":587696},{""event"":""focus"",""trial"":108,""time"":591915},{""event"":""blur"",""trial"":110,""time"":604555},{""event"":""focus"",""trial"":110,""time"":604972},{""event"":""blur"",""trial"":112,""time"":618417},{""event"":""focus"",""trial"":112,""time"":619177},{""event"":""blur"",""trial"":112,""time"":619497},{""event"":""focus"",""trial"":112,""time"":623481},{""event"":""blur"",""trial"":113,""time"":628249},{""event"":""focus"",""trial"":113,""time"":629090},{""event"":""blur"",""trial"":114,""time"":633796},{""event"":""focus"",""trial"":114,""time"":641150},{""event"":""blur"",""trial"":115,""time"":643427},{""event"":""focus"",""trial"":115,""time"":648348},{""event"":""blur"",""trial"":115,""time"":649988},{""event"":""focus"",""trial"":115,""time"":652971},{""event"":""blur"",""trial"":117,""time"":672048},{""event"":""focus"",""trial"":117,""time"":672833},{""event"":""blur"",""trial"":165,""time"":833426},{""event"":""focus"",""trial"":165,""time"":834354},{""event"":""blur"",""trial"":219,""time"":1019207},{""event"":""focus"",""trial"":219,""time"":1021788},{""event"":""blur"",""trial"":219,""time"":1624881},{""event"":""focus"",""trial"":219,""time"":12388280},{""event"":""blur"",""trial"":219,""time"":12389162},{""event"":""focus"",""trial"":219,""time"":12554103},{""event"":""blur"",""trial"":219,""time"":12555057},{""event"":""focus"",""trial"":219,""time"":12856465},{""event"":""blur"",""trial"":219,""time"":12861925},{""event"":""focus"",""trial"":219,""time"":12885902},{""event"":""blur"",""trial"":219,""time"":12886419},{""event"":""focus"",""trial"":219,""time"":13277280},{""event"":""blur"",""trial"":219,""time"":13277640},{""event"":""focus"",""trial"":219,""time"":13279445},{""event"":""blur"",""trial"":219,""time"":13279838},{""event"":""focus"",""trial"":219,""time"":16115180},{""event"":""blur"",""trial"":219,""time"":16115749},{""event"":""focus"",""trial"":219,""time"":22399709},{""event"":""blur"",""trial"":219,""time"":22400156},{""event"":""focus"",""trial"":219,""time"":22400389},{""event"":""blur"",""trial"":219,""time"":22400774},{""event"":""focus"",""trial"":219,""time"":27510108},{""event"":""blur"",""trial"":256,""time"":27596788},{""event"":""focus"",""trial"":256,""time"":27599196},{""event"":""blur"",""trial"":310,""time"":27752091},{""event"":""focus"",""trial"":310,""time"":27752531},{""event"":""blur"",""trial"":471,""time"":28210731},{""event"":""focus"",""trial"":471,""time"":28211154},{""event"":""blur"",""trial"":471,""time"":28212675},{""event"":""focus"",""trial"":471,""time"":28213571},{""event"":""blur"",""trial"":471,""time"":28213572},{""event"":""focus"",""trial"":471,""time"":28215652},{""event"":""blur"",""trial"":472,""time"":28220913},{""event"":""focus"",""trial"":472,""time"":28226396},{""event"":""blur"",""trial"":472,""time"":28228273},{""event"":""focus"",""trial"":472,""time"":28228614},{""event"":""blur"",""trial"":481,""time"":28248120},{""event"":""focus"",""trial"":481,""time"":28251188},{""event"":""blur"",""trial"":481,""time"":28251189},{""event"":""focus"",""trial"":481,""time"":28253723},{""event"":""blur"",""trial"":481,""time"":28254503},{""event"":""focus"",""trial"":481,""time"":28255505},{""event"":""blur"",""trial"":482,""time"":28259601},{""event"":""focus"",""trial"":482,""time"":28263372},{""event"":""blur"",""trial"":483,""time"":28265417},{""event"":""focus"",""trial"":483,""time"":28266730},{""event"":""blur"",""trial"":483,""time"":28267372},{""event"":""focus"",""trial"":483,""time"":28271457},{""event"":""blur"",""trial"":483,""time"":28271591},{""event"":""focus"",""trial"":483,""time"":28271888},{""event"":""blur"",""trial"":484,""time"":28275516},{""event"":""focus"",""trial"":484,""time"":28279116},{""event"":""blur"",""trial"":485,""time"":28282270},{""event"":""focus"",""trial"":485,""time"":28282720},{""event"":""blur"",""trial"":485,""time"":28283058},{""event"":""focus"",""trial"":485,""time"":28291660}]","","","","","","1373.199999988079","<p> You should decide which chest to search for treasure by using the <b>left</b> and <b>right</b> arrow keys. </p>
            <p><b> Pay attention to which animal is on the screen, as the animals have different treasure chests. </b></p>
            <img src='./assets/img/instructions/leftright.jpg' class='instructions-image'>","","instructions","","","","","","","","","","","",""
"learning-instructions","28","270605","0.0-3.0-5.0-0.3","spark_pilot_norest","9617","5","21","Male","","","","","","","1435.2999999821186","<p> Let’s try practicing that now. </p>
            <p> When you see an animal, choose which chest to search for treasure. </p>
            <img src='./assets/img/instructions/chooseChest.jpg' class='instructions-image'>","","instructions","","","","","","","","","","","",""
"revaluation","29","274633","0.0-3.0-6.0-0.0","spark_pilot_norest","9617","5","21","Male","","","false","","","","[737.9000000059605]","./assets/img/space/animals/rabbit.jpg","[""ArrowLeft""]","second stage practice","space","15","{""ArrowUp,ArrowLeft"":3,""ArrowUp,ArrowRight"":36,""ArrowDown,ArrowLeft"":15,""ArrowDown,ArrowRight"":23}","false","ArrowDown,ArrowLeft","","","","","","",""
"html-keyboard-response","30","275147","0.0-3.0-6.0-1.0","spark_pilot_norest","9617","5","21","Male","","","","","","","null","<div style=""font-size:60px;"">+</div>","null","fixation","","","","","","","","","","","",""
"revaluation","31","279152","0.0-3.0-6.0-0.1","spark_pilot_norest","9617","5","21","Male","","","false","","","","[310.30000001192093]","./assets/img/space/animals/cat.jpg","[""ArrowRight""]","second stage practice","space","36","{""ArrowUp,ArrowLeft"":3,""ArrowUp,ArrowRight"":36,""ArrowDown,ArrowLeft"":15,""ArrowDown,ArrowRight"":23}","true","ArrowUp,ArrowRight","","","","","","",""
"html-keyboard-response","32","279665","0.0-3.0-6.0-1.1","spark_pilot_norest","9617","5","21","Male","","","","","","","null","<div style=""font-size:60px;"">+</div>","null","fixation","","","","","","","","","","","",""
"revaluation","33","283681","0.0-3.0-6.0-0.2","spark_pilot_norest","9617","5","21","Male","","","false","","","","[248.39999997615814]","./assets/img/space/animals/cat.jpg","[""ArrowRight""]","second stage practice","space","36","{""ArrowUp,ArrowLeft"":3,""ArrowUp,ArrowRight"":36,""ArrowDown,ArrowLeft"":15,""ArrowDown,ArrowRight"":23}","true","ArrowUp,ArrowRight","","","","","","",""
"html-keyboard-response","34","284196","0.0-3.0-6.0-1.2","spark_pilot_norest","9617","5","21","Male","","","","","","","null","<div style=""font-size:60px;"">+</div>","null","fixation","","","","","","","","","","","",""
"revaluation","35","288216","0.0-3.0-6.0-0.3","spark_pilot_norest","9617","5","21","Male","","","false","","","","[346]","./assets/img/space/animals/rabbit.jpg","[""ArrowLeft""]","second stage practice","space","15","{""ArrowUp,ArrowLeft"":3,""ArrowUp,ArrowRight"":36,""ArrowDown,ArrowLeft"":15,""ArrowDown,ArrowRight"":23}","false","ArrowDown,ArrowLeft","","","","","","",""
"html-keyboard-response","36","288730","0.0-3.0-6.0-1.3","spark_pilot_norest","9617","5","21","Male","","","","","","","null","<div style=""font-size:60px;"">+</div>","null","fixation","","","","","","","","","","","",""
"learning-instructions","37","307352","0.0-3.0-7.0-0.0","spark_pilot_norest","9617","5","21","Male","[{""event"":""blur"",""trial"":0,""time"":922},{""event"":""focus"",""trial"":1,""time"":13758},{""event"":""blur"",""trial"":1,""time"":14474},{""event"":""focus"",""trial"":1,""time"":15357},{""event"":""blur"",""trial"":1,""time"":15882},{""event"":""focus"",""trial"":1,""time"":16468},{""event"":""blur"",""trial"":1,""time"":17666},{""event"":""focus"",""trial"":2,""time"":108284},{""event"":""fullscreenenter"",""trial"":2,""time"":109354},{""event"":""fullscreenexit"",""trial"":3,""time"":113254},{""event"":""blur"",""trial"":4,""time"":114275},{""event"":""focus"",""trial"":4,""time"":118540},{""event"":""blur"",""trial"":5,""time"":124124},{""event"":""focus"",""trial"":5,""time"":131651},{""event"":""blur"",""trial"":6,""time"":133456},{""event"":""focus"",""trial"":6,""time"":136038},{""event"":""blur"",""trial"":10,""time"":180822},{""event"":""focus"",""trial"":10,""time"":181777},{""event"":""blur"",""trial"":10,""time"":183105},{""event"":""focus"",""trial"":10,""time"":190086},{""event"":""blur"",""trial"":25,""time"":236942},{""event"":""focus"",""trial"":25,""time"":238807},{""event"":""blur"",""trial"":26,""time"":244250},{""event"":""focus"",""trial"":26,""time"":248844},{""event"":""blur"",""trial"":27,""time"":256936},{""event"":""focus"",""trial"":27,""time"":257402},{""event"":""blur"",""trial"":27,""time"":259935},{""event"":""focus"",""trial"":27,""time"":261318},{""event"":""blur"",""trial"":28,""time"":264418},{""event"":""focus"",""trial"":28,""time"":265887},{""event"":""blur"",""trial"":38,""time"":310423},{""event"":""focus"",""trial"":38,""time"":311046},{""event"":""blur"",""trial"":38,""time"":313374},{""event"":""focus"",""trial"":38,""time"":314522},{""event"":""blur"",""trial"":38,""time"":315672},{""event"":""focus"",""trial"":38,""time"":316758},{""event"":""blur"",""trial"":49,""time"":358151},{""event"":""focus"",""trial"":49,""time"":362786},{""event"":""blur"",""trial"":53,""time"":380451},{""event"":""focus"",""trial"":53,""time"":381198},{""event"":""blur"",""trial"":55,""time"":384541},{""event"":""focus"",""trial"":57,""time"":394041},{""event"":""blur"",""trial"":58,""time"":395776},{""event"":""focus"",""trial"":58,""time"":400274},{""event"":""blur"",""trial"":58,""time"":400285},{""event"":""focus"",""trial"":58,""time"":400376},{""event"":""blur"",""trial"":59,""time"":406370},{""event"":""focus"",""trial"":59,""time"":411772},{""event"":""blur"",""trial"":87,""time"":509844},{""event"":""focus"",""trial"":87,""time"":510267},{""event"":""blur"",""trial"":87,""time"":510521},{""event"":""focus"",""trial"":87,""time"":513070},{""event"":""blur"",""trial"":88,""time"":517884},{""event"":""focus"",""trial"":88,""time"":518748},{""event"":""blur"",""trial"":88,""time"":519625},{""event"":""focus"",""trial"":88,""time"":521415},{""event"":""blur"",""trial"":106,""time"":571875},{""event"":""focus"",""trial"":106,""time"":574031},{""event"":""blur"",""trial"":108,""time"":587696},{""event"":""focus"",""trial"":108,""time"":591915},{""event"":""blur"",""trial"":110,""time"":604555},{""event"":""focus"",""trial"":110,""time"":604972},{""event"":""blur"",""trial"":112,""time"":618417},{""event"":""focus"",""trial"":112,""time"":619177},{""event"":""blur"",""trial"":112,""time"":619497},{""event"":""focus"",""trial"":112,""time"":623481},{""event"":""blur"",""trial"":113,""time"":628249},{""event"":""focus"",""trial"":113,""time"":629090},{""event"":""blur"",""trial"":114,""time"":633796},{""event"":""focus"",""trial"":114,""time"":641150},{""event"":""blur"",""trial"":115,""time"":643427},{""event"":""focus"",""trial"":115,""time"":648348},{""event"":""blur"",""trial"":115,""time"":649988},{""event"":""focus"",""trial"":115,""time"":652971},{""event"":""blur"",""trial"":117,""time"":672048},{""event"":""focus"",""trial"":117,""time"":672833},{""event"":""blur"",""trial"":165,""time"":833426},{""event"":""focus"",""trial"":165,""time"":834354},{""event"":""blur"",""trial"":219,""time"":1019207},{""event"":""focus"",""trial"":219,""time"":1021788},{""event"":""blur"",""trial"":219,""time"":1624881},{""event"":""focus"",""trial"":219,""time"":12388280},{""event"":""blur"",""trial"":219,""time"":12389162},{""event"":""focus"",""trial"":219,""time"":12554103},{""event"":""blur"",""trial"":219,""time"":12555057},{""event"":""focus"",""trial"":219,""time"":12856465},{""event"":""blur"",""trial"":219,""time"":12861925},{""event"":""focus"",""trial"":219,""time"":12885902},{""event"":""blur"",""trial"":219,""time"":12886419},{""event"":""focus"",""trial"":219,""time"":13277280},{""event"":""blur"",""trial"":219,""time"":13277640},{""event"":""focus"",""trial"":219,""time"":13279445},{""event"":""blur"",""trial"":219,""time"":13279838},{""event"":""focus"",""trial"":219,""time"":16115180},{""event"":""blur"",""trial"":219,""time"":16115749},{""event"":""focus"",""trial"":219,""time"":22399709},{""event"":""blur"",""trial"":219,""time"":22400156},{""event"":""focus"",""trial"":219,""time"":22400389},{""event"":""blur"",""trial"":219,""time"":22400774},{""event"":""focus"",""trial"":219,""time"":27510108},{""event"":""blur"",""trial"":256,""time"":27596788},{""event"":""focus"",""trial"":256,""time"":27599196},{""event"":""blur"",""trial"":310,""time"":27752091},{""event"":""focus"",""trial"":310,""time"":27752531},{""event"":""blur"",""trial"":471,""time"":28210731},{""event"":""focus"",""trial"":471,""time"":28211154},{""event"":""blur"",""trial"":471,""time"":28212675},{""event"":""focus"",""trial"":471,""time"":28213571},{""event"":""blur"",""trial"":471,""time"":28213572},{""event"":""focus"",""trial"":471,""time"":28215652},{""event"":""blur"",""trial"":472,""time"":28220913},{""event"":""focus"",""trial"":472,""time"":28226396},{""event"":""blur"",""trial"":472,""time"":28228273},{""event"":""focus"",""trial"":472,""time"":28228614},{""event"":""blur"",""trial"":481,""time"":28248120},{""event"":""focus"",""trial"":481,""time"":28251188},{""event"":""blur"",""trial"":481,""time"":28251189},{""event"":""focus"",""trial"":481,""time"":28253723},{""event"":""blur"",""trial"":481,""time"":28254503},{""event"":""focus"",""trial"":481,""time"":28255505},{""event"":""blur"",""trial"":482,""time"":28259601},{""event"":""focus"",""trial"":482,""time"":28263372},{""event"":""blur"",""trial"":483,""time"":28265417},{""event"":""focus"",""trial"":483,""time"":28266730},{""event"":""blur"",""trial"":483,""time"":28267372},{""event"":""focus"",""trial"":483,""time"":28271457},{""event"":""blur"",""trial"":483,""time"":28271591},{""event"":""focus"",""trial"":483,""time"":28271888},{""event"":""blur"",""trial"":484,""time"":28275516},{""event"":""focus"",""trial"":484,""time"":28279116},{""event"":""blur"",""trial"":485,""time"":28282270},{""event"":""focus"",""trial"":485,""time"":28282720},{""event"":""blur"",""trial"":485,""time"":28283058},{""event"":""focus"",""trial"":485,""time"":28291660}]","","","","","","1832.5","<p> Great job. Now let’s try putting it together. </p>
            <p> On each turn, you will first see a picture to remind you of the place you are in, and you need to choose whether to go up or down. </p>
            <p> Then you will see an animal and choose which of its chests to search for treasure. </p>","","instructions","","","","","","","","","","","",""
"learning-instructions","38","317997","0.0-3.0-7.0-0.1","spark_pilot_norest","9617","5","21","Male","","","","","","","657.6999999880791","<p> When you choose whether to go up or down, try to go to the animal with the chest with the most treasure. </p>
            <p> Try practicing that now! </p>","","instructions","","","","","","","","","","","",""
"revaluation","39","324037","0.0-3.0-8.0-0.0","spark_pilot_norest","9617","5","21","Male","","","false","","","","[1026,487.30000001192093]","./assets/img/space/6.jpg","[""ArrowUp"",""ArrowRight""]","full practice","space","36","{""ArrowUp,ArrowLeft"":3,""ArrowUp,ArrowRight"":36,""ArrowDown,ArrowLeft"":15,""ArrowDown,ArrowRight"":23}","true","ArrowUp,ArrowRight","false","","","","","",""
"html-keyboard-response","40","324551","0.0-3.0-8.0-1.0","spark_pilot_norest","9617","5","21","Male","","","","","","","null","<div style=""font-size:60px;"">+</div>","null","fixation","","","","","","","","","","","",""
"revaluation","41","330578","0.0-3.0-8.0-0.1","spark_pilot_norest","9617","5","21","Male","","","false","","","","[530.0999999940395,417.59999999403954]","./assets/img/space/7.jpg","[""ArrowUp"",""ArrowLeft""]","full practice","space","3","{""ArrowUp,ArrowLeft"":3,""ArrowUp,ArrowRight"":36,""ArrowDown,ArrowLeft"":15,""ArrowDown,ArrowRight"":23}","false","ArrowUp,ArrowLeft","false","","","","","",""
"html-keyboard-response","42","331093","0.0-3.0-8.0-1.1","spark_pilot_norest","9617","5","21","Male","","","","","","","null","<div style=""font-size:60px;"">+</div>","null","fixation","","","","","","","","","","","",""
"revaluation","43","337121","0.0-3.0-8.0-0.2","spark_pilot_norest","9617","5","21","Male","","","false","","","","[342.80000001192093,303.09999999403954]","./assets/img/space/8.jpg","[""ArrowUp"",""ArrowRight""]","full practice","space","36","{""ArrowUp,ArrowLeft"":3,""ArrowUp,ArrowRight"":36,""ArrowDown,ArrowLeft"":15,""ArrowDown,ArrowRight"":23}","true","ArrowUp,ArrowRight","false","","","","","",""
"html-keyboard-response","44","337637","0.0-3.0-8.0-1.2","spark_pilot_norest","9617","5","21","Male","","","","","","","null","<div style=""font-size:60px;"">+</div>","null","fixation","","","","","","","","","","","",""
"revaluation","45","343669","0.0-3.0-8.0-0.3","spark_pilot_norest","9617","5","21","Male","","","false","","","","[715.1999999880791,403.7999999821186]","./assets/img/space/9.jpg","[""ArrowDown"",""ArrowRight""]","full practice","space","23","{""ArrowUp,ArrowLeft"":3,""ArrowUp,ArrowRight"":36,""ArrowDown,ArrowLeft"":15,""ArrowDown,ArrowRight"":23}","false","ArrowDown,ArrowRight","false","","","","","",""
"html-keyboard-response","46","344182","0.0-3.0-8.0-1.3","spark_pilot_norest","9617","5","21","Male","","","","","","","null","<div style=""font-size:60px;"">+</div>","null","fixation","","","","","","","","","","","",""
"revaluation","47","350195","0.0-3.0-8.0-0.4","spark_pilot_norest","9617","5","21","Male","","","false","","","","[540,382.7000000178814]","./assets/img/space/10.jpg","[""ArrowDown"",""ArrowLeft""]","full practice","space","15","{""ArrowUp,ArrowLeft"":3,""ArrowUp,ArrowRight"":36,""ArrowDown,ArrowLeft"":15,""ArrowDown,ArrowRight"":23}","false","ArrowDown,ArrowLeft","false","","","","","",""
"html-keyboard-response","48","350696","0.0-3.0-8.0-1.4","spark_pilot_norest","9617","5","21","Male","[{""event"":""blur"",""trial"":0,""time"":922},{""event"":""focus"",""trial"":1,""time"":13758},{""event"":""blur"",""trial"":1,""time"":14474},{""event"":""focus"",""trial"":1,""time"":15357},{""event"":""blur"",""trial"":1,""time"":15882},{""event"":""focus"",""trial"":1,""time"":16468},{""event"":""blur"",""trial"":1,""time"":17666},{""event"":""focus"",""trial"":2,""time"":108284},{""event"":""fullscreenenter"",""trial"":2,""time"":109354},{""event"":""fullscreenexit"",""trial"":3,""time"":113254},{""event"":""blur"",""trial"":4,""time"":114275},{""event"":""focus"",""trial"":4,""time"":118540},{""event"":""blur"",""trial"":5,""time"":124124},{""event"":""focus"",""trial"":5,""time"":131651},{""event"":""blur"",""trial"":6,""time"":133456},{""event"":""focus"",""trial"":6,""time"":136038},{""event"":""blur"",""trial"":10,""time"":180822},{""event"":""focus"",""trial"":10,""time"":181777},{""event"":""blur"",""trial"":10,""time"":183105},{""event"":""focus"",""trial"":10,""time"":190086},{""event"":""blur"",""trial"":25,""time"":236942},{""event"":""focus"",""trial"":25,""time"":238807},{""event"":""blur"",""trial"":26,""time"":244250},{""event"":""focus"",""trial"":26,""time"":248844},{""event"":""blur"",""trial"":27,""time"":256936},{""event"":""focus"",""trial"":27,""time"":257402},{""event"":""blur"",""trial"":27,""time"":259935},{""event"":""focus"",""trial"":27,""time"":261318},{""event"":""blur"",""trial"":28,""time"":264418},{""event"":""focus"",""trial"":28,""time"":265887},{""event"":""blur"",""trial"":38,""time"":310423},{""event"":""focus"",""trial"":38,""time"":311046},{""event"":""blur"",""trial"":38,""time"":313374},{""event"":""focus"",""trial"":38,""time"":314522},{""event"":""blur"",""trial"":38,""time"":315672},{""event"":""focus"",""trial"":38,""time"":316758},{""event"":""blur"",""trial"":49,""time"":358151},{""event"":""focus"",""trial"":49,""time"":362786},{""event"":""blur"",""trial"":53,""time"":380451},{""event"":""focus"",""trial"":53,""time"":381198},{""event"":""blur"",""trial"":55,""time"":384541},{""event"":""focus"",""trial"":57,""time"":394041},{""event"":""blur"",""trial"":58,""time"":395776},{""event"":""focus"",""trial"":58,""time"":400274},{""event"":""blur"",""trial"":58,""time"":400285},{""event"":""focus"",""trial"":58,""time"":400376},{""event"":""blur"",""trial"":59,""time"":406370},{""event"":""focus"",""trial"":59,""time"":411772},{""event"":""blur"",""trial"":87,""time"":509844},{""event"":""focus"",""trial"":87,""time"":510267},{""event"":""blur"",""trial"":87,""time"":510521},{""event"":""focus"",""trial"":87,""time"":513070},{""event"":""blur"",""trial"":88,""time"":517884},{""event"":""focus"",""trial"":88,""time"":518748},{""event"":""blur"",""trial"":88,""time"":519625},{""event"":""focus"",""trial"":88,""time"":521415},{""event"":""blur"",""trial"":106,""time"":571875},{""event"":""focus"",""trial"":106,""time"":574031},{""event"":""blur"",""trial"":108,""time"":587696},{""event"":""focus"",""trial"":108,""time"":591915},{""event"":""blur"",""trial"":110,""time"":604555},{""event"":""focus"",""trial"":110,""time"":604972},{""event"":""blur"",""trial"":112,""time"":618417},{""event"":""focus"",""trial"":112,""time"":619177},{""event"":""blur"",""trial"":112,""time"":619497},{""event"":""focus"",""trial"":112,""time"":623481},{""event"":""blur"",""trial"":113,""time"":628249},{""event"":""focus"",""trial"":113,""time"":629090},{""event"":""blur"",""trial"":114,""time"":633796},{""event"":""focus"",""trial"":114,""time"":641150},{""event"":""blur"",""trial"":115,""time"":643427},{""event"":""focus"",""trial"":115,""time"":648348},{""event"":""blur"",""trial"":115,""time"":649988},{""event"":""focus"",""trial"":115,""time"":652971},{""event"":""blur"",""trial"":117,""time"":672048},{""event"":""focus"",""trial"":117,""time"":672833},{""event"":""blur"",""trial"":165,""time"":833426},{""event"":""focus"",""trial"":165,""time"":834354},{""event"":""blur"",""trial"":219,""time"":1019207},{""event"":""focus"",""trial"":219,""time"":1021788},{""event"":""blur"",""trial"":219,""time"":1624881},{""event"":""focus"",""trial"":219,""time"":12388280},{""event"":""blur"",""trial"":219,""time"":12389162},{""event"":""focus"",""trial"":219,""time"":12554103},{""event"":""blur"",""trial"":219,""time"":12555057},{""event"":""focus"",""trial"":219,""time"":12856465},{""event"":""blur"",""trial"":219,""time"":12861925},{""event"":""focus"",""trial"":219,""time"":12885902},{""event"":""blur"",""trial"":219,""time"":12886419},{""event"":""focus"",""trial"":219,""time"":13277280},{""event"":""blur"",""trial"":219,""time"":13277640},{""event"":""focus"",""trial"":219,""time"":13279445},{""event"":""blur"",""trial"":219,""time"":13279838},{""event"":""focus"",""trial"":219,""time"":16115180},{""event"":""blur"",""trial"":219,""time"":16115749},{""event"":""focus"",""trial"":219,""time"":22399709},{""event"":""blur"",""trial"":219,""time"":22400156},{""event"":""focus"",""trial"":219,""time"":22400389},{""event"":""blur"",""trial"":219,""time"":22400774},{""event"":""focus"",""trial"":219,""time"":27510108},{""event"":""blur"",""trial"":256,""time"":27596788},{""event"":""focus"",""trial"":256,""time"":27599196},{""event"":""blur"",""trial"":310,""time"":27752091},{""event"":""focus"",""trial"":310,""time"":27752531},{""event"":""blur"",""trial"":471,""time"":28210731},{""event"":""focus"",""trial"":471,""time"":28211154},{""event"":""blur"",""trial"":471,""time"":28212675},{""event"":""focus"",""trial"":471,""time"":28213571},{""event"":""blur"",""trial"":471,""time"":28213572},{""event"":""focus"",""trial"":471,""time"":28215652},{""event"":""blur"",""trial"":472,""time"":28220913},{""event"":""focus"",""trial"":472,""time"":28226396},{""event"":""blur"",""trial"":472,""time"":28228273},{""event"":""focus"",""trial"":472,""time"":28228614},{""event"":""blur"",""trial"":481,""time"":28248120},{""event"":""focus"",""trial"":481,""time"":28251188},{""event"":""blur"",""trial"":481,""time"":28251189},{""event"":""focus"",""trial"":481,""time"":28253723},{""event"":""blur"",""trial"":481,""time"":28254503},{""event"":""focus"",""trial"":481,""time"":28255505},{""event"":""blur"",""trial"":482,""time"":28259601},{""event"":""focus"",""trial"":482,""time"":28263372},{""event"":""blur"",""trial"":483,""time"":28265417},{""event"":""focus"",""trial"":483,""time"":28266730},{""event"":""blur"",""trial"":483,""time"":28267372},{""event"":""focus"",""trial"":483,""time"":28271457},{""event"":""blur"",""trial"":483,""time"":28271591},{""event"":""focus"",""trial"":483,""time"":28271888},{""event"":""blur"",""trial"":484,""time"":28275516},{""event"":""focus"",""trial"":484,""time"":28279116},{""event"":""blur"",""trial"":485,""time"":28282270},{""event"":""focus"",""trial"":485,""time"":28282720},{""event"":""blur"",""trial"":485,""time"":28283058},{""event"":""focus"",""trial"":485,""time"":28291660}]","","","","","","null","<div style=""font-size:60px;"">+</div>","null","fixation","","","","","","","","","","","",""
"learning-instructions","49","363720","0.0-3.0-9.0-0.0","spark_pilot_norest","9617","5","21","Male","","","","","","","1385.699999988079","<p> One last thing: sometimes, you will see a robber. The robber can be anywhere in the picture. </p>
            <p> If you do not stop them, you will lose treasure. </p>
            <img src='./assets/img/instructions/robber.jpg' class='instructions-image'>","","instructions","","","","","","","","","","","",""
