"trial_type","trial_index","time_elapsed","internal_node_id","task_version","subject_id","assigned_condition","age","gender","success","timeout","failed_images","failed_audio","failed_video","browser_interaction","value","rt","stimulus","response","task_part","environment","score","rewardMap","correct","fullState","isCatch","condition","order","trial_num","key_press","ground_truth","bonus"
"pavlovia","0","1959","0.0-0.0","spark_pilot_norest","8584","7","11","Female","","","","","","","","","","","","","","","","","","","","","","",""
"preload","1","38466","0.0-1.0","spark_pilot_norest","8584","7","11","Female","true","false","[]","[]","[]","[{""event"":""fullscreenenter"",""trial"":2,""time"":42749}]","","","","","","","","","","","","","","","","",""
"fullscreen","2","43716","0.0-2.0","spark_pilot_norest","8584","7","11","Female","true","","","","","","","","","","","","","","","","","","","","","",""
"call-function","3","53983","0.0-3.0","spark_pilot_norest","8584","7","11","Female","","","","","","","","","","","","","","","","","","","","","","",""
"audio-button-response","4","56187","0.0-4.0-0.0-0.0","spark_pilot_norest","8584","7","11","Female","","","","","","","","2171","./assets/audio/audiotest/turtle.mp3","2","audio_test","","","","","","","","","","","",""
"learning-instructions","5","65970","0.0-4.0-1.0-0.0","spark_pilot_norest","8584","7","11","Female","","","","","","","","2825.9999999999927","<p> Welcome! Please remember to stay in fullscreen mode and don't click away from the experiment. </p>","","instructions","","","","","","","","","","","",""
"learning-instructions","6","74885","0.0-4.0-1.0-0.1","spark_pilot_norest","8584","7","11","Female","","","","","","","","527","<p> Today you will be playing a game to earn treasure. </p>
            <p> At the end of the experiment, you will earn a bonus based on how much treasure you find. </p>
            <img src='./assets/img/instructions/treasure.jpg' class='instructions-image'>","","instructions","","","","","","","","","","","",""
"learning-instructions","7","86740","0.0-4.0-1.0-0.2","spark_pilot_norest","8584","7","11","Female","","","","","","","","3618","<p> Animals have hidden treasure in treasure chests. </p>
            <p> You need to first find an animal and then choose which of their treasure chests to search. </p>
            <img src='./assets/img/space/animals/cat.jpg' class='instructions-image'>","","instructions","","","","","","","","","","","",""
"learning-instructions","8","101055","0.0-4.0-1.0-0.3","spark_pilot_norest","8584","7","11","Female","","","","","","","","1184","<p> In each round, you will search for treasure in a different place. In the real game, there will be two rounds. </p>
            <p> You will begin with a separate, practice round where you will search for treasure in outer space. </p>
            <img src='./assets/img/space/0.jpg' class='instructions-image'>","","instructions","","","","","","","","","","","",""
"learning-instructions","9","114874","0.0-4.0-1.0-0.4","spark_pilot_norest","8584","7","11","Female","","","","","","","","2421.0000000000146","<p> On every turn, you will see a picture of the place that you are in, but the specific image may be different each time. </p>
            <p> For example, both of these images mean you are in outer space. </p>
            <img src='./assets/img/instructions/outerspace.jpg' class='instructions-image'>","","instructions","","","","","","","","","","","",""
"learning-instructions","10","123544","0.0-4.0-1.0-0.5","spark_pilot_norest","8584","7","11","Female","","","","","","","","864","<p> You need to decide which direction to travel in. </p>
            <p> You can choose between going <b>up or down</b> by using the arrow keys. </p>
            <img src='./assets/img/instructions/updown.jpg' class='instructions-image'>","","instructions","","","","","","","","","","","",""
"learning-instructions","11","135823","0.0-4.0-1.0-0.6","spark_pilot_norest","8584","7","11","Female","","","","","","","","3491","<p> You will have <b>2 seconds</b> to make your choice. </p>
            <p> If you do not make a choice within 2 seconds, you will not find an animal or earn treasure. </p>
            <img src='./assets/img/instructions/2seconds.jpg' class='instructions-image'>","","instructions","","","","","","","","","","","",""
"learning-instructions","12","143426","0.0-4.0-1.0-0.7","spark_pilot_norest","8584","7","11","Female","","","","","","","","587","<p> Let’s try practicing that now! </p>
            <p> When you see a picture of the place you are in, press the <b>up</b> key to travel up. </p>
            <img src='./assets/img/instructions/pressUp.jpg' class='instructions-image'>","","instructions","","","","","","","","","","","",""
"revaluation","13","147443","0.0-4.0-2.0-0.0","spark_pilot_norest","8584","7","11","Female","","false","","","","","","[659.0000000000291]","./assets/img/space/0.jpg","[""ArrowUp""]","first stage practice","space","0","null","null","ArrowUp","false","","","","","",""
"html-keyboard-response","14","147947","0.0-4.0-2.0-1.0","spark_pilot_norest","8584","7","11","Female","","","","","","","","null","<div style=""font-size:60px;"">+</div>","null","fixation","","","","","","","","","","","",""
"revaluation","15","151953","0.0-4.0-2.0-0.1","spark_pilot_norest","8584","7","11","Female","","true","","","","","","[]","./assets/img/space/1.jpg","[]","first stage practice","space","-5","null","null","","false","","","","","",""
"html-keyboard-response","16","152456","0.0-4.0-2.0-1.1","spark_pilot_norest","8584","7","11","Female","","","","","","","","null","<div style=""font-size:60px;"">+</div>","null","fixation","","","","","","","","","","","",""
"revaluation","17","156463","0.0-4.0-2.0-0.2","spark_pilot_norest","8584","7","11","Female","","false","","","","","","[1484]","./assets/img/space/2.jpg","[""ArrowUp""]","first stage practice","space","0","null","null","ArrowUp","false","","","","","",""
"html-keyboard-response","18","156964","0.0-4.0-2.0-1.2","spark_pilot_norest","8584","7","11","Female","","","","","","","","null","<div style=""font-size:60px;"">+</div>","null","fixation","","","","","","","","","","","",""
"learning-instructions","19","162469","0.0-4.0-3.0-0.0","spark_pilot_norest","8584","7","11","Female","","","","","","","","820","<p> Great job! Now try pressing the <b>down</b> key to travel down. </p>
            <img src='./assets/img/instructions/pressDown.jpg' class='instructions-image'>","","instructions","","","","","","","","","","","",""
"revaluation","20","166473","0.0-4.0-4.0-0.0","spark_pilot_norest","8584","7","11","Female","","false","","","","","","[1027]","./assets/img/space/3.jpg","[""ArrowDown""]","first stage practice","space","0","null","null","ArrowDown","false","","","","","",""
"html-keyboard-response","21","166976","0.0-4.0-4.0-1.0","spark_pilot_norest","8584","7","11","Female","","","","","","","","null","<div style=""font-size:60px;"">+</div>","null","fixation","","","","","","","","","","","",""
"revaluation","22","170982","0.0-4.0-4.0-0.1","spark_pilot_norest","8584","7","11","Female","","false","","","","","","[1514.999999999971]","./assets/img/space/4.jpg","[""ArrowDown""]","first stage practice","space","0","null","null","ArrowDown","false","","","","","",""
"html-keyboard-response","23","171485","0.0-4.0-4.0-1.1","spark_pilot_norest","8584","7","11","Female","","","","","","","","null","<div style=""font-size:60px;"">+</div>","null","fixation","","","","","","","","","","","",""
"revaluation","24","175491","0.0-4.0-4.0-0.2","spark_pilot_norest","8584","7","11","Female","","false","","","","","","[1068.000000000029]","./assets/img/space/5.jpg","[""ArrowDown""]","first stage practice","space","0","null","null","ArrowDown","false","","","","","",""
"html-keyboard-response","25","175994","0.0-4.0-4.0-1.2","spark_pilot_norest","8584","7","11","Female","","","","","","","","null","<div style=""font-size:60px;"">+</div>","null","fixation","","","","","","","","","","","",""
"learning-instructions","26","188474","0.0-4.0-5.0-0.0","spark_pilot_norest","8584","7","11","Female","","","","","","","","2654","<p> The animals don’t move, so the animal in the upper part of a place will stay in the upper part of a place, and the animal in the lower part of a place will stay in the lower part of a place. </p>","","instructions","","","","","","","","","","","",""
"learning-instructions","27","198603","0.0-4.0-5.0-0.1","spark_pilot_norest","8584","7","11","Female","","","","","","","","1024","<p> Each animal has two treasure chests for you to choose from. </p>
            <p> The amount of treasure in each chest can range from <b> 0 to 40 pieces.</b></p>","","instructions","","","","","","","","","","","",""
"learning-instructions","28","210582","0.0-4.0-5.0-0.2","spark_pilot_norest","8584","7","11","Female","","","","","","","","810","<p> You should decide which chest to search for treasure by using the <b>left</b> and <b>right</b> arrow keys. </p>
            <p><b> Pay attention to which animal is on the screen, as the animals have different treasure chests. </b></p>
            <img src='./assets/img/instructions/leftright.jpg' class='instructions-image'>","","instructions","","","","","","","","","","","",""
"learning-instructions","29","217931","0.0-4.0-5.0-0.3","spark_pilot_norest","8584","7","11","Female","","","","","","","","1002.0000000000291","<p> Let’s try practicing that now. </p>
            <p> When you see an animal, choose which chest to search for treasure. </p>
            <img src='./assets/img/instructions/chooseChest.jpg' class='instructions-image'>","","instructions","","","","","","","","","","","",""
"revaluation","30","221945","0.0-4.0-6.0-0.0","spark_pilot_norest","8584","7","11","Female","","false","","","","","","[1378]","./assets/img/space/animals/cat.jpg","[""ArrowRight""]","second stage practice","space","36","{""ArrowUp,ArrowLeft"":3,""ArrowUp,ArrowRight"":36,""ArrowDown,ArrowLeft"":15,""ArrowDown,ArrowRight"":23}","true","ArrowUp,ArrowRight","","","","","","",""
"html-keyboard-response","31","222449","0.0-4.0-6.0-1.0","spark_pilot_norest","8584","7","11","Female","","","","","","","","null","<div style=""font-size:60px;"">+</div>","null","fixation","","","","","","","","","","","",""
"revaluation","32","226459","0.0-4.0-6.0-0.1","spark_pilot_norest","8584","7","11","Female","","false","","","","","","[1107.999999999971]","./assets/img/space/animals/cat.jpg","[""ArrowLeft""]","second stage practice","space","3","{""ArrowUp,ArrowLeft"":3,""ArrowUp,ArrowRight"":36,""ArrowDown,ArrowLeft"":15,""ArrowDown,ArrowRight"":23}","false","ArrowUp,ArrowLeft","","","","","","",""
"html-keyboard-response","33","226963","0.0-4.0-6.0-1.1","spark_pilot_norest","8584","7","11","Female","","","","","","","","null","<div style=""font-size:60px;"">+</div>","null","fixation","","","","","","","","","","","",""
"revaluation","34","230970","0.0-4.0-6.0-0.2","spark_pilot_norest","8584","7","11","Female","","false","","","","","","[503.9999999999709]","./assets/img/space/animals/rabbit.jpg","[""ArrowLeft""]","second stage practice","space","15","{""ArrowUp,ArrowLeft"":3,""ArrowUp,ArrowRight"":36,""ArrowDown,ArrowLeft"":15,""ArrowDown,ArrowRight"":23}","false","ArrowDown,ArrowLeft","","","","","","",""
"html-keyboard-response","35","231473","0.0-4.0-6.0-1.2","spark_pilot_norest","8584","7","11","Female","","","","","","","","null","<div style=""font-size:60px;"">+</div>","null","fixation","","","","","","","","","","","",""
"revaluation","36","235479","0.0-4.0-6.0-0.3","spark_pilot_norest","8584","7","11","Female","","false","","","","","","[437]","./assets/img/space/animals/rabbit.jpg","[""ArrowRight""]","second stage practice","space","23","{""ArrowUp,ArrowLeft"":3,""ArrowUp,ArrowRight"":36,""ArrowDown,ArrowLeft"":15,""ArrowDown,ArrowRight"":23}","true","ArrowDown,ArrowRight","","","","","","",""
"html-keyboard-response","37","235982","0.0-4.0-6.0-1.3","spark_pilot_norest","8584","7","11","Female","","","","","","","","null","<div style=""font-size:60px;"">+</div>","null","fixation","","","","","","","","","","","",""
"learning-instructions","38","254832","0.0-4.0-7.0-0.0","spark_pilot_norest","8584","7","11","Female","","","","","","","","2061.999999999971","<p> Great job. Now let’s try putting it together. </p>
            <p> On each turn, you will first see a picture to remind you of the place you are in, and you need to choose whether to go up or down. </p>
            <p> Then you will see an animal and choose which of its chests to search for treasure. </p>","","instructions","","","","","","","","","","","",""
"learning-instructions","39","264271","0.0-4.0-7.0-0.1","spark_pilot_norest","8584","7","11","Female","","","","","","","","1202","<p> When you choose whether to go up or down, try to go to the animal with the chest with the most treasure. </p>
            <p> Try practicing that now! </p>","","instructions","","","","","","","","","","","",""
"revaluation","40","270279","0.0-4.0-8.0-0.0","spark_pilot_norest","8584","7","11","Female","","false","","","","","","[960,533]","./assets/img/space/6.jpg","[""ArrowUp"",""ArrowRight""]","full practice","space","36","{""ArrowUp,ArrowLeft"":3,""ArrowUp,ArrowRight"":36,""ArrowDown,ArrowLeft"":15,""ArrowDown,ArrowRight"":23}","true","ArrowUp,ArrowRight","false","","","","","",""
"html-keyboard-response","41","270781","0.0-4.0-8.0-1.0","spark_pilot_norest","8584","7","11","Female","","","","","","","","null","<div style=""font-size:60px;"">+</div>","null","fixation","","","","","","","","","","","",""
"revaluation","42","276788","0.0-4.0-8.0-0.1","spark_pilot_norest","8584","7","11","Female","","false","","","","","","[1862,686]","./assets/img/space/7.jpg","[""ArrowDown"",""ArrowLeft""]","full practice","space","15","{""ArrowUp,ArrowLeft"":3,""ArrowUp,ArrowRight"":36,""ArrowDown,ArrowLeft"":15,""ArrowDown,ArrowRight"":23}","false","ArrowDown,ArrowLeft","false","","","","","",""
"html-keyboard-response","43","277291","0.0-4.0-8.0-1.1","spark_pilot_norest","8584","7","11","Female","","","","","","","","null","<div style=""font-size:60px;"">+</div>","null","fixation","","","","","","","","","","","",""
"revaluation","44","283299","0.0-4.0-8.0-0.2","spark_pilot_norest","8584","7","11","Female","","false","","","","","","[513,618]","./assets/img/space/8.jpg","[""ArrowUp"",""ArrowRight""]","full practice","space","36","{""ArrowUp,ArrowLeft"":3,""ArrowUp,ArrowRight"":36,""ArrowDown,ArrowLeft"":15,""ArrowDown,ArrowRight"":23}","true","ArrowUp,ArrowRight","false","","","","","",""
"html-keyboard-response","45","283802","0.0-4.0-8.0-1.2","spark_pilot_norest","8584","7","11","Female","","","","","","","","null","<div style=""font-size:60px;"">+</div>","null","fixation","","","","","","","","","","","",""
"revaluation","46","289808","0.0-4.0-8.0-0.3","spark_pilot_norest","8584","7","11","Female","","false","","","","","","[542,482]","./assets/img/space/9.jpg","[""ArrowUp"",""ArrowRight""]","full practice","space","36","{""ArrowUp,ArrowLeft"":3,""ArrowUp,ArrowRight"":36,""ArrowDown,ArrowLeft"":15,""ArrowDown,ArrowRight"":23}","true","ArrowUp,ArrowRight","false","","","","","",""
"html-keyboard-response","47","290310","0.0-4.0-8.0-1.3","spark_pilot_norest","8584","7","11","Female","","","","","","","","null","<div style=""font-size:60px;"">+</div>","null","fixation","","","","","","","","","","","",""
"revaluation","48","296319","0.0-4.0-8.0-0.4","spark_pilot_norest","8584","7","11","Female","","false","","","","","","[561.9999999999418,483]","./assets/img/space/10.jpg","[""ArrowUp"",""ArrowRight""]","full practice","space","36","{""ArrowUp,ArrowLeft"":3,""ArrowUp,ArrowRight"":36,""ArrowDown,ArrowLeft"":15,""ArrowDown,ArrowRight"":23}","true","ArrowUp,ArrowRight","false","","","","","",""
"html-keyboard-response","49","296821","0.0-4.0-8.0-1.4","spark_pilot_norest","8584","7","11","Female","","","","","","","","null","<div style=""font-size:60px;"">+</div>","null","fixation","","","","","","","","","","","",""
"learning-instructions","50","308939","0.0-4.0-9.0-0.0","spark_pilot_norest","8584","7","11","Female","","","","","","","","1819.0000000000582","<p> One last thing: sometimes, you will see a robber. The robber can be anywhere in the picture. </p>
            <p> If you do not stop them, you will lose treasure. </p>
            <img src='./assets/img/instructions/robber.jpg' class='instructions-image'>","","instructions","","","","","","","","","","","",""
"learning-instructions","51","317165","0.0-4.0-9.0-0.1","spark_pilot_norest","8584","7","11","Female","","","","","","","","1070","<p> If you see the robber, you should <b>press the space bar</b> rather than using the arrow keys. </p>
            <p> Try practicing that now! </p>","","instructions","","","","","","","","","","","",""
"revaluation","52","321171","0.0-4.0-10.0-0.0","spark_pilot_norest","8584","7","11","Female","","false","","","","","","[777]","./assets/img/space/catch/0.jpg","[""spaceBar""]","catch practice","space","0","{""ArrowUp,ArrowLeft"":3,""ArrowUp,ArrowRight"":36,""ArrowDown,ArrowLeft"":15,""ArrowDown,ArrowRight"":23}","true","spaceBar","true","","","","","",""
"html-keyboard-response","53","321673","0.0-4.0-10.0-1.0","spark_pilot_norest","8584","7","11","Female","","","","","","","","null","<div style=""font-size:60px;"">+</div>","null","fixation","","","","","","","","","","","",""
"revaluation","54","325680","0.0-4.0-10.0-0.1","spark_pilot_norest","8584","7","11","Female","","false","","","","","","[701.9999999999418]","./assets/img/space/catch/1.jpg","[""spaceBar""]","catch practice","space","0","{""ArrowUp,ArrowLeft"":3,""ArrowUp,ArrowRight"":36,""ArrowDown,ArrowLeft"":15,""ArrowDown,ArrowRight"":23}","true","spaceBar","true","","","","","",""
"html-keyboard-response","55","326183","0.0-4.0-10.0-1.1","spark_pilot_norest","8584","7","11","Female","","","","","","","","null","<div style=""font-size:60px;"">+</div>","null","fixation","","","","","","","","","","","",""
"revaluation","56","330190","0.0-4.0-10.0-0.2","spark_pilot_norest","8584","7","11","Female","","false","","","","","","[407]","./assets/img/space/catch/2.jpg","[""spaceBar""]","catch practice","space","0","{""ArrowUp,ArrowLeft"":3,""ArrowUp,ArrowRight"":36,""ArrowDown,ArrowLeft"":15,""ArrowDown,ArrowRight"":23}","true","spaceBar","true","","","","","",""
"html-keyboard-response","57","330693","0.0-4.0-10.0-1.2","spark_pilot_norest","8584","7","11","Female","","","","","","","","null","<div style=""font-size:60px;"">+</div>","null","fixation","","","","","","","","","","","",""
"learning-instructions","58","337286","0.0-4.0-11.0-0.0-0.0","spark_pilot_norest","8584","7","11","Female","","","","","","","","1363.9999999999418","<p> Now, you will practice a shortened version of the game to get a sense of how it all fits together. </p>","","instructions","","","","","","","","","","","",""
"learning-instructions","59","343861","0.0-4.0-11.0-0.0-0.1","spark_pilot_norest","8584","7","11","Female","","","","","","","","3401","<p>This time you are searching for treasure in outer space.</p>","","instructions","","","","","","","","","","","",""
"learning-instructions","60","359123","0.0-4.0-11.0-1.0-0.0","spark_pilot_norest","8584","7","11","Female","","","","","","","","517.0000000000582","<p> Remember, when you see a picture of the place, use the up and down keys to <b>find an animal</b>.</p>
            <p> When you encounter an animal, you should use the left and right keys to <b>select a treasure chest</b>.</p>
            <p> Don't forget to look out for the robber! </p>","","instructions","","","","","","","","","","","",""
"revaluation","61","365130","0.0-4.0-11.0-2.0-0.0","spark_pilot_norest","8584","7","11","Female","","false","","","","","","[1529,558]","./assets/img/space/11.jpg","[""ArrowUp"",""ArrowRight""]","practice block","space","36","{""ArrowUp,ArrowLeft"":3,""ArrowUp,ArrowRight"":36,""ArrowDown,ArrowLeft"":15,""ArrowDown,ArrowRight"":23}","true","ArrowUp,ArrowRight","false","","","","","",""
"html-keyboard-response","62","365633","0.0-4.0-11.0-2.0-1.0","spark_pilot_norest","8584","7","11","Female","","","","","","","","null","<div style=""font-size:60px;"">+</div>","null","fixation","","","","","","","","","","","",""
"revaluation","63","371640","0.0-4.0-11.0-2.0-0.1","spark_pilot_norest","8584","7","11","Female","","false","","","","","","[1106.9999999999418,516]","./assets/img/space/12.jpg","[""ArrowUp"",""ArrowRight""]","practice block","space","36","{""ArrowUp,ArrowLeft"":3,""ArrowUp,ArrowRight"":36,""ArrowDown,ArrowLeft"":15,""ArrowDown,ArrowRight"":23}","true","ArrowUp,ArrowRight","false","","","","","",""
"html-keyboard-response","64","372142","0.0-4.0-11.0-2.0-1.1","spark_pilot_norest","8584","7","11","Female","","","","","","","","null","<div style=""font-size:60px;"">+</div>","null","fixation","","","","","","","","","","","",""
"revaluation","65","378149","0.0-4.0-11.0-2.0-0.2","spark_pilot_norest","8584","7","11","Female","","false","","","","","","[442.0000000000582,528]","./assets/img/space/13.jpg","[""ArrowUp"",""ArrowRight""]","practice block","space","36","{""ArrowUp,ArrowLeft"":3,""ArrowUp,ArrowRight"":36,""ArrowDown,ArrowLeft"":15,""ArrowDown,ArrowRight"":23}","true","ArrowUp,ArrowRight","false","","","","","",""
"html-keyboard-response","66","378652","0.0-4.0-11.0-2.0-1.2","spark_pilot_norest","8584","7","11","Female","","","","","","","","null","<div style=""font-size:60px;"">+</div>","null","fixation","","","","","","","","","","","",""
"revaluation","67","384659","0.0-4.0-11.0-2.0-0.3","spark_pilot_norest","8584","7","11","Female","","false","","","","","","[563,541]","./assets/img/space/14.jpg","[""ArrowUp"",""ArrowLeft""]","practice block","space","3","{""ArrowUp,ArrowLeft"":3,""ArrowUp,ArrowRight"":36,""ArrowDown,ArrowLeft"":15,""ArrowDown,ArrowRight"":23}","false","ArrowUp,ArrowLeft","false","","","","","",""
"html-keyboard-response","68","385162","0.0-4.0-11.0-2.0-1.3","spark_pilot_norest","8584","7","11","Female","","","","","","","","null","<div style=""font-size:60px;"">+</div>","null","fixation","","","","","","","","","","","",""
"revaluation","69","391167","0.0-4.0-11.0-2.0-0.4","spark_pilot_norest","8584","7","11","Female","","false","","","","","","[505,978]","./assets/img/space/11.jpg","[""ArrowDown"",""ArrowRight""]","practice block","space","23","{""ArrowUp,ArrowLeft"":3,""ArrowUp,ArrowRight"":36,""ArrowDown,ArrowLeft"":15,""ArrowDown,ArrowRight"":23}","false","ArrowDown,ArrowRight","false","","","","","",""
"html-keyboard-response","70","391670","0.0-4.0-11.0-2.0-1.4","spark_pilot_norest","8584","7","11","Female","","","","","","","","null","<div style=""font-size:60px;"">+</div>","null","fixation","","","","","","","","","","","",""
"revaluation","71","397677","0.0-4.0-11.0-2.0-0.5","spark_pilot_norest","8584","7","11","Female","","false","","","","","","[383,548]","./assets/img/space/12.jpg","[""ArrowUp"",""ArrowRight""]","practice block","space","36","{""ArrowUp,ArrowLeft"":3,""ArrowUp,ArrowRight"":36,""ArrowDown,ArrowLeft"":15,""ArrowDown,ArrowRight"":23}","true","ArrowUp,ArrowRight","false","","","","","",""
"html-keyboard-response","72","398180","0.0-4.0-11.0-2.0-1.5","spark_pilot_norest","8584","7","11","Female","","","","","","","","null","<div style=""font-size:60px;"">+</div>","null","fixation","","","","","","","","","","","",""
"revaluation","73","404188","0.0-4.0-11.0-2.0-0.6","spark_pilot_norest","8584","7","11","Female","","false","","","","","","[1433.9999999999418,407]","./assets/img/space/13.jpg","[""ArrowUp"",""ArrowRight""]","practice block","space","36","{""ArrowUp,ArrowLeft"":3,""ArrowUp,ArrowRight"":36,""ArrowDown,ArrowLeft"":15,""ArrowDown,ArrowRight"":23}","true","ArrowUp,ArrowRight","false","","","","","",""
"html-keyboard-response","74","404691","0.0-4.0-11.0-2.0-1.6","spark_pilot_norest","8584","7","11","Female","","","","","","","","null","<div style=""font-size:60px;"">+</div>","null","fixation","","","","","","","","","","","",""
"revaluation","75","410698","0.0-4.0-11.0-2.0-0.7","spark_pilot_norest","8584","7","11","Female","","false","","","","","","[1367,630]","./assets/img/space/14.jpg","[""ArrowUp"",""ArrowRight""]","practice block","space","36","{""ArrowUp,ArrowLeft"":3,""ArrowUp,ArrowRight"":36,""ArrowDown,ArrowLeft"":15,""ArrowDown,ArrowRight"":23}","true","ArrowUp,ArrowRight","false","","","","","",""
"html-keyboard-response","76","411201","0.0-4.0-11.0-2.0-1.7","spark_pilot_norest","8584","7","11","Female","","","","","","","","null","<div style=""font-size:60px;"">+</div>","null","fixation","","","","","","","","","","","",""
"revaluation","77","415207","0.0-4.0-11.0-2.0-0.8","spark_pilot_norest","8584","7","11","Female","","false","","","","","","[1091]","./assets/img/space/catch/3.jpg","[""spaceBar""]","practice block","space","0","{""ArrowUp,ArrowLeft"":3,""ArrowUp,ArrowRight"":36,""ArrowDown,ArrowLeft"":15,""ArrowDown,ArrowRight"":23}","true","spaceBar","true","","","","","",""
"html-keyboard-response","78","415710","0.0-4.0-11.0-2.0-1.8","spark_pilot_norest","8584","7","11","Female","","","","","","","","null","<div style=""font-size:60px;"">+</div>","null","fixation","","","","","","","","","","","",""
"learning-instructions","79","430629","0.0-4.0-11.0-3.0-0.0","spark_pilot_norest","8584","7","11","Female","","","","","","","","2022.9999999999418","<p> Now, you will travel with a friend who will choose whether you go up or down first. </p>
            <p> On these turns, you will just see the animal that they found. You will still get to choose which chest to search for treasure.</p>","","instructions","","","","","","","","","","","",""
"revaluation","80","434633","0.0-4.0-11.0-4.0-0.0","spark_pilot_norest","8584","7","11","Female","","true","","","","","","[]","./assets/img/space/animals/rabbit.jpg","[]","practice block","space","-5","{""ArrowUp,ArrowLeft"":3,""ArrowUp,ArrowRight"":36,""ArrowDown,ArrowLeft"":15,""ArrowDown,ArrowRight"":23}","false","ArrowDown","","","","","","",""
"html-keyboard-response","81","435135","0.0-4.0-11.0-4.0-1.0","spark_pilot_norest","8584","7","11","Female","","","","","","","","null","<div style=""font-size:60px;"">+</div>","null","fixation","","","","","","","","","","","",""
"revaluation","82","439140","0.0-4.0-11.0-4.0-0.1","spark_pilot_norest","8584","7","11","Female","","false","","","","","","[598.0000000000582]","./assets/img/space/animals/rabbit.jpg","[""ArrowRight""]","practice block","space","23","{""ArrowUp,ArrowLeft"":3,""ArrowUp,ArrowRight"":36,""ArrowDown,ArrowLeft"":15,""ArrowDown,ArrowRight"":23}","true","ArrowDown,ArrowRight","","","","","","",""
"html-keyboard-response","83","439642","0.0-4.0-11.0-4.0-1.1","spark_pilot_norest","8584","7","11","Female","","","","","","","","null","<div style=""font-size:60px;"">+</div>","null","fixation","","","","","","","","","","","",""
"revaluation","84","443647","0.0-4.0-11.0-4.0-0.2","spark_pilot_norest","8584","7","11","Female","","false","","","","","","[1693.0000000000582]","./assets/img/space/animals/cat.jpg","[""ArrowRight""]","practice block","space","36","{""ArrowUp,ArrowLeft"":3,""ArrowUp,ArrowRight"":36,""ArrowDown,ArrowLeft"":15,""ArrowDown,ArrowRight"":23}","true","ArrowUp,ArrowRight","","","","","","",""
"html-keyboard-response","85","444149","0.0-4.0-11.0-4.0-1.2","spark_pilot_norest","8584","7","11","Female","","","","","","","","null","<div style=""font-size:60px;"">+</div>","null","fixation","","","","","","","","","","","",""
"revaluation","86","448154","0.0-4.0-11.0-4.0-0.3","spark_pilot_norest","8584","7","11","Female","","false","","","","","","[130]","./assets/img/space/animals/cat.jpg","[""ArrowRight""]","practice block","space","36","{""ArrowUp,ArrowLeft"":3,""ArrowUp,ArrowRight"":36,""ArrowDown,ArrowLeft"":15,""ArrowDown,ArrowRight"":23}","true","ArrowUp,ArrowRight","","","","","","",""
"html-keyboard-response","87","448657","0.0-4.0-11.0-4.0-1.3","spark_pilot_norest","8584","7","11","Female","","","","","","","","null","<div style=""font-size:60px;"">+</div>","null","fixation","","","","","","","","","","","",""
"learning-instructions","88","458199","0.0-4.0-11.0-5.0-0.0","spark_pilot_norest","8584","7","11","Female","","","","","","","","null","<p> You have almost finished this part of the game! </p>
            <p> We are going to ask you to make a few more choices. </p>","","instructions","","","","","","","","","","","",""
"learning-instructions","89","474191","0.0-4.0-11.0-5.0-0.1","spark_pilot_norest","8584","7","11","Female","","","","","","","","null","<p> First, you need to decide whether to go up or down. When you see each picture, use the arrow keys to make your choice. </p>
            <p><b>You will not see which animal you found, but try to get to the one that will give you the most treasure.</b></p>","","instructions","","","","","","","","","","","",""
"html-keyboard-response","90","475192","0.0-4.0-11.0-6.0-0.0","spark_pilot_norest","8584","7","11","Female","","","","","","","","null","<div style=""font-size:100px;color:red;"">Starting in...</div>","null","","","","","","","","","","","","",""
"html-keyboard-response","91","476194","0.0-4.0-11.0-6.0-1.0","spark_pilot_norest","8584","7","11","Female","","","","","","","","null","<div style=""font-size:200px;color:red;"">3</div>","null","","","","","","","","","","","","",""
"html-keyboard-response","92","477197","0.0-4.0-11.0-6.0-2.0","spark_pilot_norest","8584","7","11","Female","","","","","","","","null","<div style=""font-size:200px;color:red;"">2</div>","null","","","","","","","","","","","","",""
"html-keyboard-response","93","478199","0.0-4.0-11.0-6.0-3.0","spark_pilot_norest","8584","7","11","Female","","","","","","","","null","<div style=""font-size:200px;color:red;"">1</div>","null","","","","","","","","","","","","",""
"revaluation","94","478605","0.0-4.0-11.0-7.0","spark_pilot_norest","8584","7","11","Female","","false","","","","","","[403]","./assets/img/space/15.jpg","[""ArrowUp""]","practice block","space","0","{""ArrowUp,ArrowLeft"":3,""ArrowUp,ArrowRight"":36,""ArrowDown,ArrowLeft"":15,""ArrowDown,ArrowRight"":23}","true","ArrowUp","false","","","","","",""
"html-keyboard-response","95","479108","0.0-4.0-11.0-8.0","spark_pilot_norest","8584","7","11","Female","","","","","","","","null","<div style=""font-size:60px;"">+</div>","null","fixation","","","","","","","","","","","",""
"learning-instructions","96","492465","0.0-4.0-11.0-9.0-0.0","spark_pilot_norest","8584","7","11","Female","","","","","","","","null","<p> Now you will see the animals again and can search their chests for treasure. </p>
            <p> This time, you will not see how much treasure you earned, but you will earn more bonus money for making better choices. </p>","","instructions","","","","","","","","","","","",""
"html-keyboard-response","97","493468","0.0-4.0-11.0-10.0-0.0","spark_pilot_norest","8584","7","11","Female","","","","","","","","null","<div style=""font-size:100px;color:red;"">Starting in...</div>","null","","","","","","","","","","","","",""
"html-keyboard-response","98","494470","0.0-4.0-11.0-10.0-1.0","spark_pilot_norest","8584","7","11","Female","","","","","","","","null","<div style=""font-size:200px;color:red;"">3</div>","null","","","","","","","","","","","","",""
"html-keyboard-response","99","495473","0.0-4.0-11.0-10.0-2.0","spark_pilot_norest","8584","7","11","Female","","","","","","","","null","<div style=""font-size:200px;color:red;"">2</div>","null","","","","","","","","","","","","",""
"html-keyboard-response","100","496476","0.0-4.0-11.0-10.0-3.0","spark_pilot_norest","8584","7","11","Female","","","","","","","","null","<div style=""font-size:200px;color:red;"">1</div>","null","","","","","","","","","","","","",""
"revaluation","101","497320","0.0-4.0-11.0-11.0-0.0","spark_pilot_norest","8584","7","11","Female","","false","","","","","","[840]","./assets/img/space/animals/cat.jpg","[""ArrowRight""]","practice block","space","0","{""ArrowUp,ArrowLeft"":3,""ArrowUp,ArrowRight"":36,""ArrowDown,ArrowLeft"":15,""ArrowDown,ArrowRight"":23}","true","ArrowUp,ArrowRight","","","","","","",""
"html-keyboard-response","102","497823","0.0-4.0-11.0-11.0-1.0","spark_pilot_norest","8584","7","11","Female","","","","","","","","null","<div style=""font-size:60px;"">+</div>","null","fixation","","","","","","","","","","","",""
"revaluation","103","499341","0.0-4.0-11.0-11.0-0.1","spark_pilot_norest","8584","7","11","Female","","false","","","","","","[1514]","./assets/img/space/animals/rabbit.jpg","[""ArrowRight""]","practice block","space","0","{""ArrowUp,ArrowLeft"":3,""ArrowUp,ArrowRight"":36,""ArrowDown,ArrowLeft"":15,""ArrowDown,ArrowRight"":23}","true","ArrowDown,ArrowRight","","","","","","",""
"html-keyboard-response","104","499843","0.0-4.0-11.0-11.0-1.1","spark_pilot_norest","8584","7","11","Female","","","","","","","","null","<div style=""font-size:60px;"">+</div>","null","fixation","","","","","","","","","","","",""
"learning-instructions","105","505995","0.0-4.0-12.0-0.0","spark_pilot_norest","8584","7","11","Female","","","","","","","","1589","<p> Before you start, we're going to ask you a few questions about how the game works. </p>","","instructions","","","","","","","","","","","",""
"comp-q","106","512956","0.0-4.0-13.0-0.0-0.0","spark_pilot_norest","8584","7","11","Female","","","","","","","","1340.0000000000582","<p> <b> True or False? </b> </p>
            <p> There can be 50 pieces of treasure in a given animal's chest. </p>","1","comp_question","","","","true","","","","","","","",""
"comp-q","107","520944","0.0-4.0-13.0-0.0-1.0","spark_pilot_norest","8584","7","11","Female","","","","","","","","1328.9999999999418","<p> <b> That's right! </b> The amount of treasure in each chest can range from 0 to 40 pieces. </p>","0","comp_answer","","","","","","","","","","","",""
"comp-q","108","529675","0.0-4.0-13.0-0.1-0.1","spark_pilot_norest","8584","7","11","Female","","","","","","","","762","<p> <b> True or False? </b> </p><p> In this game, all animals have the same amount of treasure in their left and right chests. </p>","1","comp_question","","","","true","","","","","","","",""
"comp-q","109","537624","0.0-4.0-13.0-0.1-1.1","spark_pilot_norest","8584","7","11","Female","","","","","","","","1914.0000000001164","<p> <b> That's right! </b> Animals have different amounts of treasure in their treasure chests. </p>","0","comp_answer","","","","","","","","","","","",""
"comp-q","110","544405","0.0-4.0-13.0-0.2-0.2","spark_pilot_norest","8584","7","11","Female","","","","","","","","949","<p> <b> True or False? </b> </p><p> The same animal will always be there if you go up in the same place. </p>","0","comp_question","","","","true","","","","","","","",""
"comp-q","111","552424","0.0-4.0-13.0-0.2-1.2","spark_pilot_norest","8584","7","11","Female","","","","","","","","1590","<p> <b> That's right! </b> One animal lives in the upper part and one lives in the lower part of every place. </p>","0","comp_answer","","","","","","","","","","","",""
"comp-q","112","558754","0.0-4.0-13.0-0.3-0.3","spark_pilot_norest","8584","7","11","Female","","","","","","","","822.0000000001164","<p> <b> True or False? </b> </p><p> If you see a different picture, it means you are in a new place. </p>","1","comp_question","","","","true","","","","","","","",""
"comp-q","113","571416","0.0-4.0-13.0-0.3-1.3","spark_pilot_norest","8584","7","11","Female","","","","","","","","1456","<p> <b> That's right! </b> Lots of different images may show the same place. For example,  you may see three different images that all remind you that you are in outer space. </p>","0","comp_answer","","","","","","","","","","","",""
"learning-instructions","114","584102","0.0-4.0-14.0-0.0","spark_pilot_norest","8584","7","11","Female","","","","","","","","2850","<p> Good job. Remember to do your best because the amount of treasure you earn will be converted into bonus money. </p>
            <p> It’s time to start the real game! </p>","","instructions","","","","","","","","","","","",""
"learning-instructions","115","588389","0.0-5.0-0.0-0.0","spark_pilot_norest","8584","7","11","Female","","","","","","","","1520","<p> This time you are searching for treasure in the <b>canyon</b>.</p>","","instructions","","","","","","","","","","","",""
"learning-instructions","116","607805","0.0-5.0-0.0-0.1","spark_pilot_norest","8584","7","11","Female","","","","","","","","2147","<p><b>New</b> animals with <b>new</b> treasure chests live here. You need to explore to discover where the animal with the best treasure chest is.</p>
                    <p> Like before, once you figure out which animal has the chest with the most treasure, you should try to get to that animal and select that chest! </p>","","instructions","","","","","","","","","","","",""
"learning-instructions","117","623803","0.0-5.0-1.0-0.0","spark_pilot_norest","8584","7","11","Female","","","","","","","","1265","<p> Remember, when you see a picture of the place, use the up and down keys to <b>find an animal</b>.</p>
            <p> When you encounter an animal, you should use the left and right keys to <b>select a treasure chest</b>.</p>
            <p> Don't forget to look out for the robber! </p>","","instructions","","","","","","","","","","","",""
"revaluation","118","629814","0.0-5.0-2.0-0.0","spark_pilot_norest","8584","7","11","Female","","false","","","","","","[1007,568.0000000001164]","./assets/img/canyon/memory/36.jpg","[""ArrowDown"",""ArrowLeft""]","value training","canyon","8","{""ArrowUp,ArrowLeft"":23,""ArrowUp,ArrowRight"":10,""ArrowDown,ArrowLeft"":8,""ArrowDown,ArrowRight"":30}","false","ArrowDown,ArrowLeft","false","original","1","0","","",""
"html-keyboard-response","119","630318","0.0-5.0-2.0-1.0","spark_pilot_norest","8584","7","11","Female","","","","","","","","null","<div style=""font-size:60px;"">+</div>","null","fixation","","","","","","","","","1","","",""
"revaluation","120","636327","0.0-5.0-2.0-0.1","spark_pilot_norest","8584","7","11","Female","","false","","","","","","[652.0000000001164,514]","./assets/img/canyon/memory/3.jpg","[""ArrowUp"",""ArrowLeft""]","value training","canyon","23","{""ArrowUp,ArrowLeft"":23,""ArrowUp,ArrowRight"":10,""ArrowDown,ArrowLeft"":8,""ArrowDown,ArrowRight"":30}","false","ArrowUp,ArrowLeft","false","original","1","2","","",""
"html-keyboard-response","121","636830","0.0-5.0-2.0-1.1","spark_pilot_norest","8584","7","11","Female","","","","","","","","null","<div style=""font-size:60px;"">+</div>","null","fixation","","","","","","","","","3","","",""
"revaluation","122","642838","0.0-5.0-2.0-0.2","spark_pilot_norest","8584","7","11","Female","","false","","","","","","[559,380]","./assets/img/canyon/memory/1.jpg","[""ArrowDown"",""ArrowRight""]","value training","canyon","30","{""ArrowUp,ArrowLeft"":23,""ArrowUp,ArrowRight"":10,""ArrowDown,ArrowLeft"":8,""ArrowDown,ArrowRight"":30}","true","ArrowDown,ArrowRight","false","original","1","4","","",""
"html-keyboard-response","123","643341","0.0-5.0-2.0-1.2","spark_pilot_norest","8584","7","11","Female","","","","","","","","null","<div style=""font-size:60px;"">+</div>","null","fixation","","","","","","","","","5","","",""
"revaluation","124","649349","0.0-5.0-2.0-0.3","spark_pilot_norest","8584","7","11","Female","","false","","","","","","[483,508.0000000001164]","./assets/img/canyon/memory/38.jpg","[""ArrowUp"",""ArrowRight""]","value training","canyon","10","{""ArrowUp,ArrowLeft"":23,""ArrowUp,ArrowRight"":10,""ArrowDown,ArrowLeft"":8,""ArrowDown,ArrowRight"":30}","false","ArrowUp,ArrowRight","false","original","1","6","","",""
"html-keyboard-response","125","649852","0.0-5.0-2.0-1.3","spark_pilot_norest","8584","7","11","Female","","","","","","","","null","<div style=""font-size:60px;"">+</div>","null","fixation","","","","","","","","","7","","",""
"revaluation","126","655860","0.0-5.0-2.0-0.4","spark_pilot_norest","8584","7","11","Female","","false","","","","","","[991,468]","./assets/img/canyon/memory/32.jpg","[""ArrowDown"",""ArrowRight""]","value training","canyon","30","{""ArrowUp,ArrowLeft"":23,""ArrowUp,ArrowRight"":10,""ArrowDown,ArrowLeft"":8,""ArrowDown,ArrowRight"":30}","true","ArrowDown,ArrowRight","false","original","1","8","","",""
"html-keyboard-response","127","656362","0.0-5.0-2.0-1.4","spark_pilot_norest","8584","7","11","Female","","","","","","","","null","<div style=""font-size:60px;"">+</div>","null","fixation","","","","","","","","","9","","",""
"revaluation","128","662369","0.0-5.0-2.0-0.5","spark_pilot_norest","8584","7","11","Female","","false","","","","","","[1676,517]","./assets/img/canyon/memory/32.jpg","[""ArrowDown"",""ArrowRight""]","value training","canyon","30","{""ArrowUp,ArrowLeft"":23,""ArrowUp,ArrowRight"":10,""ArrowDown,ArrowLeft"":8,""ArrowDown,ArrowRight"":30}","true","ArrowDown,ArrowRight","false","original","1","10","","",""
"html-keyboard-response","129","662873","0.0-5.0-2.0-1.5","spark_pilot_norest","8584","7","11","Female","","","","","","","","null","<div style=""font-size:60px;"">+</div>","null","fixation","","","","","","","","","11","","",""
"revaluation","130","668880","0.0-5.0-2.0-0.6","spark_pilot_norest","8584","7","11","Female","","false","","","","","","[1384,584]","./assets/img/canyon/memory/34.jpg","[""ArrowDown"",""ArrowRight""]","value training","canyon","30","{""ArrowUp,ArrowLeft"":23,""ArrowUp,ArrowRight"":10,""ArrowDown,ArrowLeft"":8,""ArrowDown,ArrowRight"":30}","true","ArrowDown,ArrowRight","false","original","1","12","","",""
"html-keyboard-response","131","669383","0.0-5.0-2.0-1.6","spark_pilot_norest","8584","7","11","Female","","","","","","","","null","<div style=""font-size:60px;"">+</div>","null","fixation","","","","","","","","","13","","",""
"revaluation","132","675391","0.0-5.0-2.0-0.7","spark_pilot_norest","8584","7","11","Female","","false","","","","","","[1008,392]","./assets/img/canyon/memory/35.jpg","[""ArrowDown"",""ArrowRight""]","value training","canyon","30","{""ArrowUp,ArrowLeft"":23,""ArrowUp,ArrowRight"":10,""ArrowDown,ArrowLeft"":8,""ArrowDown,ArrowRight"":30}","true","ArrowDown,ArrowRight","false","original","1","14","","",""
"html-keyboard-response","133","675894","0.0-5.0-2.0-1.7","spark_pilot_norest","8584","7","11","Female","","","","","","","","null","<div style=""font-size:60px;"">+</div>","null","fixation","","","","","","","","","15","","",""
"revaluation","134","681901","0.0-5.0-2.0-0.8","spark_pilot_norest","8584","7","11","Female","","false","","","","","","[142.99999999988358,593]","./assets/img/canyon/memory/1.jpg","[""ArrowDown"",""ArrowRight""]","value training","canyon","30","{""ArrowUp,ArrowLeft"":23,""ArrowUp,ArrowRight"":10,""ArrowDown,ArrowLeft"":8,""ArrowDown,ArrowRight"":30}","true","ArrowDown,ArrowRight","false","original","1","16","","",""
"html-keyboard-response","135","682403","0.0-5.0-2.0-1.8","spark_pilot_norest","8584","7","11","Female","","","","","","","","null","<div style=""font-size:60px;"">+</div>","null","fixation","","","","","","","","","17","","",""
"revaluation","136","688412","0.0-5.0-2.0-0.9","spark_pilot_norest","8584","7","11","Female","","false","","","","","","[1609,518.0000000001164]","./assets/img/canyon/memory/7.jpg","[""ArrowDown"",""ArrowRight""]","value training","canyon","30","{""ArrowUp,ArrowLeft"":23,""ArrowUp,ArrowRight"":10,""ArrowDown,ArrowLeft"":8,""ArrowDown,ArrowRight"":30}","true","ArrowDown,ArrowRight","false","original","1","18","","",""
"html-keyboard-response","137","688915","0.0-5.0-2.0-1.9","spark_pilot_norest","8584","7","11","Female","","","","","","","","null","<div style=""font-size:60px;"">+</div>","null","fixation","","","","","","","","","19","","",""
"revaluation","138","694922","0.0-5.0-2.0-0.10","spark_pilot_norest","8584","7","11","Female","","false","","","","","","[1277.0000000001164,554]","./assets/img/canyon/memory/9.jpg","[""ArrowDown"",""ArrowRight""]","value training","canyon","30","{""ArrowUp,ArrowLeft"":23,""ArrowUp,ArrowRight"":10,""ArrowDown,ArrowLeft"":8,""ArrowDown,ArrowRight"":30}","true","ArrowDown,ArrowRight","false","original","1","20","","",""
"html-keyboard-response","139","695424","0.0-5.0-2.0-1.10","spark_pilot_norest","8584","7","11","Female","","","","","","","","null","<div style=""font-size:60px;"">+</div>","null","fixation","","","","","","","","","21","","",""
"revaluation","140","701432","0.0-5.0-2.0-0.11","spark_pilot_norest","8584","7","11","Female","","false","","","","","","[1128,675]","./assets/img/canyon/memory/39.jpg","[""ArrowDown"",""ArrowRight""]","value training","canyon","30","{""ArrowUp,ArrowLeft"":23,""ArrowUp,ArrowRight"":10,""ArrowDown,ArrowLeft"":8,""ArrowDown,ArrowRight"":30}","true","ArrowDown,ArrowRight","false","original","1","22","","",""
"html-keyboard-response","141","701934","0.0-5.0-2.0-1.11","spark_pilot_norest","8584","7","11","Female","","","","","","","","null","<div style=""font-size:60px;"">+</div>","null","fixation","","","","","","","","","23","","",""
"revaluation","142","707940","0.0-5.0-2.0-0.12","spark_pilot_norest","8584","7","11","Female","","false","","","","","","[921,797]","./assets/img/canyon/memory/31.jpg","[""ArrowDown"",""ArrowRight""]","value training","canyon","30","{""ArrowUp,ArrowLeft"":23,""ArrowUp,ArrowRight"":10,""ArrowDown,ArrowLeft"":8,""ArrowDown,ArrowRight"":30}","true","ArrowDown,ArrowRight","false","original","1","24","","",""
"html-keyboard-response","143","708443","0.0-5.0-2.0-1.12","spark_pilot_norest","8584","7","11","Female","","","","","","","","null","<div style=""font-size:60px;"">+</div>","null","fixation","","","","","","","","","25","","",""
"revaluation","144","712448","0.0-5.0-2.0-0.13","spark_pilot_norest","8584","7","11","Female","","false","","","","","","[1505]","./assets/img/canyon/catch/2.jpg","[""spaceBar""]","value training","canyon","0","{""ArrowUp,ArrowLeft"":23,""ArrowUp,ArrowRight"":10,""ArrowDown,ArrowLeft"":8,""ArrowDown,ArrowRight"":30}","true","spaceBar","true","original","1","26","","",""
"html-keyboard-response","145","712950","0.0-5.0-2.0-1.13","spark_pilot_norest","8584","7","11","Female","","","","","","","","null","<div style=""font-size:60px;"">+</div>","null","fixation","","","","","","","","","27","","",""
"revaluation","146","718957","0.0-5.0-2.0-0.14","spark_pilot_norest","8584","7","11","Female","","false","","","","","","[967,750]","./assets/img/canyon/memory/34.jpg","[""ArrowDown"",""ArrowRight""]","value training","canyon","30","{""ArrowUp,ArrowLeft"":23,""ArrowUp,ArrowRight"":10,""ArrowDown,ArrowLeft"":8,""ArrowDown,ArrowRight"":30}","true","ArrowDown,ArrowRight","false","original","1","28","","",""
"html-keyboard-response","147","719460","0.0-5.0-2.0-1.14","spark_pilot_norest","8584","7","11","Female","","","","","","","","null","<div style=""font-size:60px;"">+</div>","null","fixation","","","","","","","","","29","","",""
"revaluation","148","723466","0.0-5.0-2.0-0.15","spark_pilot_norest","8584","7","11","Female","","false","","","","","","[1087]","./assets/img/canyon/catch/6.jpg","[""spaceBar""]","value training","canyon","0","{""ArrowUp,ArrowLeft"":23,""ArrowUp,ArrowRight"":10,""ArrowDown,ArrowLeft"":8,""ArrowDown,ArrowRight"":30}","true","spaceBar","true","original","1","30","","",""
"html-keyboard-response","149","723968","0.0-5.0-2.0-1.15","spark_pilot_norest","8584","7","11","Female","","","","","","","","null","<div style=""font-size:60px;"">+</div>","null","fixation","","","","","","","","","31","","",""
"revaluation","150","729975","0.0-5.0-2.0-0.16","spark_pilot_norest","8584","7","11","Female","","false","","","","","","[818,613]","./assets/img/canyon/memory/31.jpg","[""ArrowDown"",""ArrowRight""]","value training","canyon","30","{""ArrowUp,ArrowLeft"":23,""ArrowUp,ArrowRight"":10,""ArrowDown,ArrowLeft"":8,""ArrowDown,ArrowRight"":30}","true","ArrowDown,ArrowRight","false","original","1","32","","",""
"html-keyboard-response","151","730477","0.0-5.0-2.0-1.16","spark_pilot_norest","8584","7","11","Female","","","","","","","","null","<div style=""font-size:60px;"">+</div>","null","fixation","","","","","","","","","33","","",""
"revaluation","152","736485","0.0-5.0-2.0-0.17","spark_pilot_norest","8584","7","11","Female","","false","","","","","","[1134,530]","./assets/img/canyon/memory/10.jpg","[""ArrowDown"",""ArrowRight""]","value training","canyon","30","{""ArrowUp,ArrowLeft"":23,""ArrowUp,ArrowRight"":10,""ArrowDown,ArrowLeft"":8,""ArrowDown,ArrowRight"":30}","true","ArrowDown,ArrowRight","false","original","1","34","","",""
"html-keyboard-response","153","736987","0.0-5.0-2.0-1.17","spark_pilot_norest","8584","7","11","Female","","","","","","","","null","<div style=""font-size:60px;"">+</div>","null","fixation","","","","","","","","","35","","",""
"revaluation","154","742994","0.0-5.0-2.0-0.18","spark_pilot_norest","8584","7","11","Female","","false","","","","","","[1205.0000000001164,418]","./assets/img/canyon/memory/27.jpg","[""ArrowDown"",""ArrowRight""]","value training","canyon","30","{""ArrowUp,ArrowLeft"":23,""ArrowUp,ArrowRight"":10,""ArrowDown,ArrowLeft"":8,""ArrowDown,ArrowRight"":30}","true","ArrowDown,ArrowRight","false","original","1","36","","",""
"html-keyboard-response","155","743496","0.0-5.0-2.0-1.18","spark_pilot_norest","8584","7","11","Female","","","","","","","","null","<div style=""font-size:60px;"">+</div>","null","fixation","","","","","","","","","37","","",""
"revaluation","156","749504","0.0-5.0-2.0-0.19","spark_pilot_norest","8584","7","11","Female","","false","","","","","","[1018,365]","./assets/img/canyon/memory/11.jpg","[""ArrowDown"",""ArrowRight""]","value training","canyon","30","{""ArrowUp,ArrowLeft"":23,""ArrowUp,ArrowRight"":10,""ArrowDown,ArrowLeft"":8,""ArrowDown,ArrowRight"":30}","true","ArrowDown,ArrowRight","false","original","1","38","","",""
"html-keyboard-response","157","750006","0.0-5.0-2.0-1.19","spark_pilot_norest","8584","7","11","Female","","","","","","","","null","<div style=""font-size:60px;"">+</div>","null","fixation","","","","","","","","","39","","",""
"revaluation","158","756012","0.0-5.0-2.0-0.20","spark_pilot_norest","8584","7","11","Female","","false","","","","","","[737,428]","./assets/img/canyon/memory/9.jpg","[""ArrowDown"",""ArrowRight""]","value training","canyon","30","{""ArrowUp,ArrowLeft"":23,""ArrowUp,ArrowRight"":10,""ArrowDown,ArrowLeft"":8,""ArrowDown,ArrowRight"":30}","true","ArrowDown,ArrowRight","false","original","1","40","","",""
"html-keyboard-response","159","756515","0.0-5.0-2.0-1.20","spark_pilot_norest","8584","7","11","Female","","","","","","","","null","<div style=""font-size:60px;"">+</div>","null","fixation","","","","","","","","","41","","",""
"revaluation","160","762522","0.0-5.0-2.0-0.21","spark_pilot_norest","8584","7","11","Female","","false","","","","","","[1242,759]","./assets/img/canyon/memory/11.jpg","[""ArrowDown"",""ArrowRight""]","value training","canyon","30","{""ArrowUp,ArrowLeft"":23,""ArrowUp,ArrowRight"":10,""ArrowDown,ArrowLeft"":8,""ArrowDown,ArrowRight"":30}","true","ArrowDown,ArrowRight","false","original","1","42","","",""
"html-keyboard-response","161","763025","0.0-5.0-2.0-1.21","spark_pilot_norest","8584","7","11","Female","","","","","","","","null","<div style=""font-size:60px;"">+</div>","null","fixation","","","","","","","","","43","","",""
"revaluation","162","767030","0.0-5.0-2.0-0.22","spark_pilot_norest","8584","7","11","Female","","false","","","","","","[1475]","./assets/img/canyon/catch/5.jpg","[""spaceBar""]","value training","canyon","0","{""ArrowUp,ArrowLeft"":23,""ArrowUp,ArrowRight"":10,""ArrowDown,ArrowLeft"":8,""ArrowDown,ArrowRight"":30}","true","spaceBar","true","original","1","44","","",""
"html-keyboard-response","163","767532","0.0-5.0-2.0-1.22","spark_pilot_norest","8584","7","11","Female","","","","","","","","null","<div style=""font-size:60px;"">+</div>","null","fixation","","","","","","","","","45","","",""
"revaluation","164","773539","0.0-5.0-2.0-0.23","spark_pilot_norest","8584","7","11","Female","","false","","","","","","[1773,416]","./assets/img/canyon/memory/35.jpg","[""ArrowDown"",""ArrowRight""]","value training","canyon","30","{""ArrowUp,ArrowLeft"":23,""ArrowUp,ArrowRight"":10,""ArrowDown,ArrowLeft"":8,""ArrowDown,ArrowRight"":30}","true","ArrowDown,ArrowRight","false","original","1","46","","",""
"html-keyboard-response","165","774042","0.0-5.0-2.0-1.23","spark_pilot_norest","8584","7","11","Female","","","","","","","","null","<div style=""font-size:60px;"">+</div>","null","fixation","","","","","","","","","47","","",""
"revaluation","166","780049","0.0-5.0-2.0-0.24","spark_pilot_norest","8584","7","11","Female","","false","","","","","","[745,590]","./assets/img/canyon/memory/38.jpg","[""ArrowDown"",""ArrowRight""]","value training","canyon","30","{""ArrowUp,ArrowLeft"":23,""ArrowUp,ArrowRight"":10,""ArrowDown,ArrowLeft"":8,""ArrowDown,ArrowRight"":30}","true","ArrowDown,ArrowRight","false","original","1","48","","",""
"html-keyboard-response","167","780551","0.0-5.0-2.0-1.24","spark_pilot_norest","8584","7","11","Female","","","","","","","","null","<div style=""font-size:60px;"">+</div>","null","fixation","","","","","","","","","49","","",""
"revaluation","168","786558","0.0-5.0-2.0-0.25","spark_pilot_norest","8584","7","11","Female","","false","","","","","","[945,425]","./assets/img/canyon/memory/30.jpg","[""ArrowDown"",""ArrowRight""]","value training","canyon","30","{""ArrowUp,ArrowLeft"":23,""ArrowUp,ArrowRight"":10,""ArrowDown,ArrowLeft"":8,""ArrowDown,ArrowRight"":30}","true","ArrowDown,ArrowRight","false","original","1","50","","",""
"html-keyboard-response","169","787061","0.0-5.0-2.0-1.25","spark_pilot_norest","8584","7","11","Female","","","","","","","","null","<div style=""font-size:60px;"">+</div>","null","fixation","","","","","","","","","51","","",""
"revaluation","170","793068","0.0-5.0-2.0-0.26","spark_pilot_norest","8584","7","11","Female","","false","","","","","","[739.9999999998836,787]","./assets/img/canyon/memory/40.jpg","[""ArrowDown"",""ArrowRight""]","value training","canyon","30","{""ArrowUp,ArrowLeft"":23,""ArrowUp,ArrowRight"":10,""ArrowDown,ArrowLeft"":8,""ArrowDown,ArrowRight"":30}","true","ArrowDown,ArrowRight","false","original","1","52","","",""
"html-keyboard-response","171","793571","0.0-5.0-2.0-1.26","spark_pilot_norest","8584","7","11","Female","","","","","","","","null","<div style=""font-size:60px;"">+</div>","null","fixation","","","","","","","","","53","","",""
"revaluation","172","799578","0.0-5.0-2.0-0.27","spark_pilot_norest","8584","7","11","Female","","false","","","","","","[770.9999999998836,512]","./assets/img/canyon/memory/6.jpg","[""ArrowDown"",""ArrowRight""]","value training","canyon","30","{""ArrowUp,ArrowLeft"":23,""ArrowUp,ArrowRight"":10,""ArrowDown,ArrowLeft"":8,""ArrowDown,ArrowRight"":30}","true","ArrowDown,ArrowRight","false","original","1","54","","",""
"html-keyboard-response","173","800081","0.0-5.0-2.0-1.27","spark_pilot_norest","8584","7","11","Female","","","","","","","","null","<div style=""font-size:60px;"">+</div>","null","fixation","","","","","","","","","55","","",""
"revaluation","174","804087","0.0-5.0-2.0-0.28","spark_pilot_norest","8584","7","11","Female","","false","","","","","","[858]","./assets/img/canyon/catch/3.jpg","[""spaceBar""]","value training","canyon","0","{""ArrowUp,ArrowLeft"":23,""ArrowUp,ArrowRight"":10,""ArrowDown,ArrowLeft"":8,""ArrowDown,ArrowRight"":30}","true","spaceBar","true","original","1","56","","",""
"html-keyboard-response","175","804589","0.0-5.0-2.0-1.28","spark_pilot_norest","8584","7","11","Female","","","","","","","","null","<div style=""font-size:60px;"">+</div>","null","fixation","","","","","","","","","57","","",""
"revaluation","176","808594","0.0-5.0-2.0-0.29","spark_pilot_norest","8584","7","11","Female","","false","","","","","","[1001.9999999998836]","./assets/img/canyon/catch/0.jpg","[""spaceBar""]","value training","canyon","0","{""ArrowUp,ArrowLeft"":23,""ArrowUp,ArrowRight"":10,""ArrowDown,ArrowLeft"":8,""ArrowDown,ArrowRight"":30}","true","spaceBar","true","original","1","58","","",""
"html-keyboard-response","177","809097","0.0-5.0-2.0-1.29","spark_pilot_norest","8584","7","11","Female","","","","","","","","null","<div style=""font-size:60px;"">+</div>","null","fixation","","","","","","","","","59","","",""
"revaluation","178","815103","0.0-5.0-2.0-0.30","spark_pilot_norest","8584","7","11","Female","","false","","","","","","[814,534]","./assets/img/canyon/memory/8.jpg","[""ArrowDown"",""ArrowRight""]","value training","canyon","30","{""ArrowUp,ArrowLeft"":23,""ArrowUp,ArrowRight"":10,""ArrowDown,ArrowLeft"":8,""ArrowDown,ArrowRight"":30}","true","ArrowDown,ArrowRight","false","original","1","60","","",""
"html-keyboard-response","179","815606","0.0-5.0-2.0-1.30","spark_pilot_norest","8584","7","11","Female","","","","","","","","null","<div style=""font-size:60px;"">+</div>","null","fixation","","","","","","","","","61","","",""
"revaluation","180","821613","0.0-5.0-2.0-0.31","spark_pilot_norest","8584","7","11","Female","","false","","","","","","[998,430.0000000001164]","./assets/img/canyon/memory/33.jpg","[""ArrowDown"",""ArrowRight""]","value training","canyon","30","{""ArrowUp,ArrowLeft"":23,""ArrowUp,ArrowRight"":10,""ArrowDown,ArrowLeft"":8,""ArrowDown,ArrowRight"":30}","true","ArrowDown,ArrowRight","false","original","1","62","","",""
"html-keyboard-response","181","822116","0.0-5.0-2.0-1.31","spark_pilot_norest","8584","7","11","Female","","","","","","","","null","<div style=""font-size:60px;"">+</div>","null","fixation","","","","","","","","","63","","",""
"revaluation","182","828123","0.0-5.0-2.0-0.32","spark_pilot_norest","8584","7","11","Female","","false","","","","","","[1430,788]","./assets/img/canyon/memory/6.jpg","[""ArrowDown"",""ArrowRight""]","value training","canyon","30","{""ArrowUp,ArrowLeft"":23,""ArrowUp,ArrowRight"":10,""ArrowDown,ArrowLeft"":8,""ArrowDown,ArrowRight"":30}","true","ArrowDown,ArrowRight","false","original","1","64","","",""
"html-keyboard-response","183","828625","0.0-5.0-2.0-1.32","spark_pilot_norest","8584","7","11","Female","","","","","","","","null","<div style=""font-size:60px;"">+</div>","null","fixation","","","","","","","","","65","","",""
"revaluation","184","834632","0.0-5.0-2.0-0.33","spark_pilot_norest","8584","7","11","Female","","false","","","","","","[817,1069.0000000001164]","./assets/img/canyon/memory/36.jpg","[""ArrowDown"",""ArrowRight""]","value training","canyon","30","{""ArrowUp,ArrowLeft"":23,""ArrowUp,ArrowRight"":10,""ArrowDown,ArrowLeft"":8,""ArrowDown,ArrowRight"":30}","true","ArrowDown,ArrowRight","false","original","1","66","","",""
"html-keyboard-response","185","835135","0.0-5.0-2.0-1.33","spark_pilot_norest","8584","7","11","Female","","","","","","","","null","<div style=""font-size:60px;"">+</div>","null","fixation","","","","","","","","","67","","",""
"revaluation","186","841142","0.0-5.0-2.0-0.34","spark_pilot_norest","8584","7","11","Female","","false","","","","","","[579,883]","./assets/img/canyon/memory/37.jpg","[""ArrowDown"",""ArrowRight""]","value training","canyon","30","{""ArrowUp,ArrowLeft"":23,""ArrowUp,ArrowRight"":10,""ArrowDown,ArrowLeft"":8,""ArrowDown,ArrowRight"":30}","true","ArrowDown,ArrowRight","false","original","1","68","","",""
"html-keyboard-response","187","841644","0.0-5.0-2.0-1.34","spark_pilot_norest","8584","7","11","Female","","","","","","","","null","<div style=""font-size:60px;"">+</div>","null","fixation","","","","","","","","","69","","",""
"revaluation","188","847652","0.0-5.0-2.0-0.35","spark_pilot_norest","8584","7","11","Female","","false","","","","","","[1446,1238]","./assets/img/canyon/memory/41.jpg","[""ArrowDown"",""ArrowRight""]","value training","canyon","30","{""ArrowUp,ArrowLeft"":23,""ArrowUp,ArrowRight"":10,""ArrowDown,ArrowLeft"":8,""ArrowDown,ArrowRight"":30}","true","ArrowDown,ArrowRight","false","original","1","70","","",""
"html-keyboard-response","189","848154","0.0-5.0-2.0-1.35","spark_pilot_norest","8584","7","11","Female","","","","","","","","null","<div style=""font-size:60px;"">+</div>","null","fixation","","","","","","","","","71","","",""
"revaluation","190","852160","0.0-5.0-2.0-0.36","spark_pilot_norest","8584","7","11","Female","","false","","","","","","[1087]","./assets/img/canyon/catch/7.jpg","[""spaceBar""]","value training","canyon","0","{""ArrowUp,ArrowLeft"":23,""ArrowUp,ArrowRight"":10,""ArrowDown,ArrowLeft"":8,""ArrowDown,ArrowRight"":30}","true","spaceBar","true","original","1","72","","",""
"html-keyboard-response","191","852663","0.0-5.0-2.0-1.36","spark_pilot_norest","8584","7","11","Female","","","","","","","","null","<div style=""font-size:60px;"">+</div>","null","fixation","","","","","","","","","73","","",""
"revaluation","192","856669","0.0-5.0-2.0-0.37","spark_pilot_norest","8584","7","11","Female","","false","","","","","","[1122]","./assets/img/canyon/catch/1.jpg","[""spaceBar""]","value training","canyon","0","{""ArrowUp,ArrowLeft"":23,""ArrowUp,ArrowRight"":10,""ArrowDown,ArrowLeft"":8,""ArrowDown,ArrowRight"":30}","true","spaceBar","true","original","1","74","","",""
"html-keyboard-response","193","857171","0.0-5.0-2.0-1.37","spark_pilot_norest","8584","7","11","Female","","","","","","","","null","<div style=""font-size:60px;"">+</div>","null","fixation","","","","","","","","","75","","",""
"revaluation","194","863179","0.0-5.0-2.0-0.38","spark_pilot_norest","8584","7","11","Female","","false","","","","","","[844.9999999998836,696.0000000001164]","./assets/img/canyon/memory/40.jpg","[""ArrowDown"",""ArrowRight""]","value training","canyon","30","{""ArrowUp,ArrowLeft"":23,""ArrowUp,ArrowRight"":10,""ArrowDown,ArrowLeft"":8,""ArrowDown,ArrowRight"":30}","true","ArrowDown,ArrowRight","false","original","1","76","","",""
"html-keyboard-response","195","863681","0.0-5.0-2.0-1.38","spark_pilot_norest","8584","7","11","Female","","","","","","","","null","<div style=""font-size:60px;"">+</div>","null","fixation","","","","","","","","","77","","",""
"revaluation","196","869687","0.0-5.0-2.0-0.39","spark_pilot_norest","8584","7","11","Female","","false","","","","","","[971,507]","./assets/img/canyon/memory/3.jpg","[""ArrowDown"",""ArrowRight""]","value training","canyon","30","{""ArrowUp,ArrowLeft"":23,""ArrowUp,ArrowRight"":10,""ArrowDown,ArrowLeft"":8,""ArrowDown,ArrowRight"":30}","true","ArrowDown,ArrowRight","false","original","1","78","","",""
"html-keyboard-response","197","870190","0.0-5.0-2.0-1.39","spark_pilot_norest","8584","7","11","Female","","","","","","","","null","<div style=""font-size:60px;"">+</div>","null","fixation","","","","","","","","","79","","",""
"revaluation","198","876197","0.0-5.0-2.0-0.40","spark_pilot_norest","8584","7","11","Female","","false","","","","","","[904,952]","./assets/img/canyon/memory/10.jpg","[""ArrowDown"",""ArrowRight""]","value training","canyon","30","{""ArrowUp,ArrowLeft"":23,""ArrowUp,ArrowRight"":10,""ArrowDown,ArrowLeft"":8,""ArrowDown,ArrowRight"":30}","true","ArrowDown,ArrowRight","false","original","1","80","","",""
"html-keyboard-response","199","876700","0.0-5.0-2.0-1.40","spark_pilot_norest","8584","7","11","Female","","","","","","","","null","<div style=""font-size:60px;"">+</div>","null","fixation","","","","","","","","","81","","",""
"revaluation","200","882707","0.0-5.0-2.0-0.41","spark_pilot_norest","8584","7","11","Female","","false","","","","","","[878.9999999998836,715.0000000001164]","./assets/img/canyon/memory/27.jpg","[""ArrowDown"",""ArrowRight""]","value training","canyon","30","{""ArrowUp,ArrowLeft"":23,""ArrowUp,ArrowRight"":10,""ArrowDown,ArrowLeft"":8,""ArrowDown,ArrowRight"":30}","true","ArrowDown,ArrowRight","false","original","1","82","","",""
"html-keyboard-response","201","883210","0.0-5.0-2.0-1.41","spark_pilot_norest","8584","7","11","Female","","","","","","","","null","<div style=""font-size:60px;"">+</div>","null","fixation","","","","","","","","","83","","",""
"revaluation","202","889217","0.0-5.0-2.0-0.42","spark_pilot_norest","8584","7","11","Female","","false","","","","","","[1122,702]","./assets/img/canyon/memory/37.jpg","[""ArrowDown"",""ArrowRight""]","value training","canyon","30","{""ArrowUp,ArrowLeft"":23,""ArrowUp,ArrowRight"":10,""ArrowDown,ArrowLeft"":8,""ArrowDown,ArrowRight"":30}","true","ArrowDown,ArrowRight","false","original","1","84","","",""
"html-keyboard-response","203","889720","0.0-5.0-2.0-1.42","spark_pilot_norest","8584","7","11","Female","","","","","","","","null","<div style=""font-size:60px;"">+</div>","null","fixation","","","","","","","","","85","","",""
"revaluation","204","895727","0.0-5.0-2.0-0.43","spark_pilot_norest","8584","7","11","Female","","false","","","","","","[1125,1312]","./assets/img/canyon/memory/41.jpg","[""ArrowDown"",""ArrowRight""]","value training","canyon","30","{""ArrowUp,ArrowLeft"":23,""ArrowUp,ArrowRight"":10,""ArrowDown,ArrowLeft"":8,""ArrowDown,ArrowRight"":30}","true","ArrowDown,ArrowRight","false","original","1","86","","",""
"html-keyboard-response","205","896230","0.0-5.0-2.0-1.43","spark_pilot_norest","8584","7","11","Female","","","","","","","","null","<div style=""font-size:60px;"">+</div>","null","fixation","","","","","","","","","87","","",""
"revaluation","206","902237","0.0-5.0-2.0-0.44","spark_pilot_norest","8584","7","11","Female","","false","","","","","","[1176,659]","./assets/img/canyon/memory/8.jpg","[""ArrowDown"",""ArrowRight""]","value training","canyon","30","{""ArrowUp,ArrowLeft"":23,""ArrowUp,ArrowRight"":10,""ArrowDown,ArrowLeft"":8,""ArrowDown,ArrowRight"":30}","true","ArrowDown,ArrowRight","false","original","1","88","","",""
"html-keyboard-response","207","902739","0.0-5.0-2.0-1.44","spark_pilot_norest","8584","7","11","Female","","","","","","","","null","<div style=""font-size:60px;"">+</div>","null","fixation","","","","","","","","","89","","",""
"revaluation","208","906744","0.0-5.0-2.0-0.45","spark_pilot_norest","8584","7","11","Female","","true","","","","","","[]","./assets/img/canyon/memory/39.jpg","[]","value training","canyon","-5","{""ArrowUp,ArrowLeft"":23,""ArrowUp,ArrowRight"":10,""ArrowDown,ArrowLeft"":8,""ArrowDown,ArrowRight"":30}","false","","false","original","1","90","","",""
"html-keyboard-response","209","907247","0.0-5.0-2.0-1.45","spark_pilot_norest","8584","7","11","Female","","","","","","","","null","<div style=""font-size:60px;"">+</div>","null","fixation","","","","","","","","","91","","",""
"revaluation","210","911253","0.0-5.0-2.0-0.46","spark_pilot_norest","8584","7","11","Female","","false","","","","","","[572]","./assets/img/canyon/catch/4.jpg","[""ArrowDown""]","value training","canyon","-10","{""ArrowUp,ArrowLeft"":23,""ArrowUp,ArrowRight"":10,""ArrowDown,ArrowLeft"":8,""ArrowDown,ArrowRight"":30}","false","ArrowDown","true","original","1","92","","",""
"html-keyboard-response","211","911755","0.0-5.0-2.0-1.46","spark_pilot_norest","8584","7","11","Female","","","","","","","","null","<div style=""font-size:60px;"">+</div>","null","fixation","","","","","","","","","93","","",""
"revaluation","212","917762","0.0-5.0-2.0-0.47","spark_pilot_norest","8584","7","11","Female","","false","","","","","","[1012.0000000001164,632]","./assets/img/canyon/memory/7.jpg","[""ArrowDown"",""ArrowRight""]","value training","canyon","30","{""ArrowUp,ArrowLeft"":23,""ArrowUp,ArrowRight"":10,""ArrowDown,ArrowLeft"":8,""ArrowDown,ArrowRight"":30}","true","ArrowDown,ArrowRight","false","original","1","94","","",""
"html-keyboard-response","213","918265","0.0-5.0-2.0-1.47","spark_pilot_norest","8584","7","11","Female","","","","","","","","null","<div style=""font-size:60px;"">+</div>","null","fixation","","","","","","","","","95","","",""
"revaluation","214","924272","0.0-5.0-2.0-0.48","spark_pilot_norest","8584","7","11","Female","","false","","","","","","[868,371.0000000001164]","./assets/img/canyon/memory/33.jpg","[""ArrowDown"",""ArrowRight""]","value training","canyon","30","{""ArrowUp,ArrowLeft"":23,""ArrowUp,ArrowRight"":10,""ArrowDown,ArrowLeft"":8,""ArrowDown,ArrowRight"":30}","true","ArrowDown,ArrowRight","false","original","1","96","","",""
"html-keyboard-response","215","924775","0.0-5.0-2.0-1.48","spark_pilot_norest","8584","7","11","Female","","","","","","","","null","<div style=""font-size:60px;"">+</div>","null","fixation","","","","","","","","","97","","",""
"revaluation","216","930782","0.0-5.0-2.0-0.49","spark_pilot_norest","8584","7","11","Female","","false","","","","","","[507,356.0000000001164]","./assets/img/canyon/memory/30.jpg","[""ArrowDown"",""ArrowRight""]","value training","canyon","30","{""ArrowUp,ArrowLeft"":23,""ArrowUp,ArrowRight"":10,""ArrowDown,ArrowLeft"":8,""ArrowDown,ArrowRight"":30}","true","ArrowDown,ArrowRight","false","original","1","98","","",""
"html-keyboard-response","217","931284","0.0-5.0-2.0-1.49","spark_pilot_norest","8584","7","11","Female","","","","","","","","null","<div style=""font-size:60px;"">+</div>","null","fixation","","","","","","","","","99","","",""
"learning-instructions","218","945772","0.0-5.0-3.0-0.0","spark_pilot_norest","8584","7","11","Female","","","","","","","","1606","<p> Now, you will travel with a friend who will choose whether you go up or down first. </p>
            <p> On these turns, you will just see the animal that they found. You will still get to choose which chest to search for treasure.</p>","","instructions","","","","","","","","","","","",""
"revaluation","219","949778","0.0-5.0-4.0-0.0","spark_pilot_norest","8584","7","11","Female","","false","","","","","","[1680.9999999998836]","./assets/img/canyon/animals/lion.jpg","[""ArrowRight""]","revaluation","canyon","30","{""ArrowUp,ArrowLeft"":23,""ArrowUp,ArrowRight"":10,""ArrowDown,ArrowLeft"":8,""ArrowDown,ArrowRight"":30}","true","ArrowDown,ArrowRight","","original","1","0","","",""
"html-keyboard-response","220","950281","0.0-5.0-4.0-1.0","spark_pilot_norest","8584","7","11","Female","","","","","","","","null","<div style=""font-size:60px;"">+</div>","null","fixation","","","","","","","","","1","","",""
"revaluation","221","954286","0.0-5.0-4.0-0.1","spark_pilot_norest","8584","7","11","Female","","false","","","","","","[914.9999999998836]","./assets/img/canyon/animals/lion.jpg","[""ArrowRight""]","revaluation","canyon","30","{""ArrowUp,ArrowLeft"":23,""ArrowUp,ArrowRight"":10,""ArrowDown,ArrowLeft"":8,""ArrowDown,ArrowRight"":30}","true","ArrowDown,ArrowRight","","original","1","2","","",""
"html-keyboard-response","222","954789","0.0-5.0-4.0-1.1","spark_pilot_norest","8584","7","11","Female","","","","","","","","null","<div style=""font-size:60px;"">+</div>","null","fixation","","","","","","","","","3","","",""
"revaluation","223","958794","0.0-5.0-4.0-0.2","spark_pilot_norest","8584","7","11","Female","","false","","","","","","[1739]","./assets/img/canyon/animals/giraffe.jpg","[""ArrowLeft""]","revaluation","canyon","23","{""ArrowUp,ArrowLeft"":23,""ArrowUp,ArrowRight"":10,""ArrowDown,ArrowLeft"":8,""ArrowDown,ArrowRight"":30}","true","ArrowUp,ArrowLeft","","original","1","4","","",""
"html-keyboard-response","224","959297","0.0-5.0-4.0-1.2","spark_pilot_norest","8584","7","11","Female","","","","","","","","null","<div style=""font-size:60px;"">+</div>","null","fixation","","","","","","","","","5","","",""
"revaluation","225","963303","0.0-5.0-4.0-0.3","spark_pilot_norest","8584","7","11","Female","","false","","","","","","[1056]","./assets/img/canyon/animals/giraffe.jpg","[""ArrowLeft""]","revaluation","canyon","23","{""ArrowUp,ArrowLeft"":23,""ArrowUp,ArrowRight"":10,""ArrowDown,ArrowLeft"":8,""ArrowDown,ArrowRight"":30}","true","ArrowUp,ArrowLeft","","original","1","6","","",""
"html-keyboard-response","226","963806","0.0-5.0-4.0-1.3","spark_pilot_norest","8584","7","11","Female","","","","","","","","null","<div style=""font-size:60px;"">+</div>","null","fixation","","","","","","","","","7","","",""
"revaluation","227","967811","0.0-5.0-4.0-0.4","spark_pilot_norest","8584","7","11","Female","","false","","","","","","[777]","./assets/img/canyon/animals/lion.jpg","[""ArrowRight""]","revaluation","canyon","30","{""ArrowUp,ArrowLeft"":23,""ArrowUp,ArrowRight"":10,""ArrowDown,ArrowLeft"":8,""ArrowDown,ArrowRight"":30}","true","ArrowDown,ArrowRight","","original","1","8","","",""
"html-keyboard-response","228","968314","0.0-5.0-4.0-1.4","spark_pilot_norest","8584","7","11","Female","","","","","","","","null","<div style=""font-size:60px;"">+</div>","null","fixation","","","","","","","","","9","","",""
"revaluation","229","972319","0.0-5.0-4.0-0.5","spark_pilot_norest","8584","7","11","Female","","false","","","","","","[1330]","./assets/img/canyon/animals/giraffe.jpg","[""ArrowLeft""]","revaluation","canyon","23","{""ArrowUp,ArrowLeft"":23,""ArrowUp,ArrowRight"":10,""ArrowDown,ArrowLeft"":8,""ArrowDown,ArrowRight"":30}","true","ArrowUp,ArrowLeft","","original","1","10","","",""
"html-keyboard-response","230","972822","0.0-5.0-4.0-1.5","spark_pilot_norest","8584","7","11","Female","","","","","","","","null","<div style=""font-size:60px;"">+</div>","null","fixation","","","","","","","","","11","","",""
"revaluation","231","976827","0.0-5.0-4.0-0.6","spark_pilot_norest","8584","7","11","Female","","false","","","","","","[1083]","./assets/img/canyon/animals/giraffe.jpg","[""ArrowLeft""]","revaluation","canyon","23","{""ArrowUp,ArrowLeft"":23,""ArrowUp,ArrowRight"":10,""ArrowDown,ArrowLeft"":8,""ArrowDown,ArrowRight"":30}","true","ArrowUp,ArrowLeft","","original","1","12","","",""
"html-keyboard-response","232","977329","0.0-5.0-4.0-1.6","spark_pilot_norest","8584","7","11","Female","","","","","","","","null","<div style=""font-size:60px;"">+</div>","null","fixation","","","","","","","","","13","","",""
"revaluation","233","981335","0.0-5.0-4.0-0.7","spark_pilot_norest","8584","7","11","Female","","false","","","","","","[1041]","./assets/img/canyon/animals/lion.jpg","[""ArrowRight""]","revaluation","canyon","30","{""ArrowUp,ArrowLeft"":23,""ArrowUp,ArrowRight"":10,""ArrowDown,ArrowLeft"":8,""ArrowDown,ArrowRight"":30}","true","ArrowDown,ArrowRight","","original","1","14","","",""
"html-keyboard-response","234","981837","0.0-5.0-4.0-1.7","spark_pilot_norest","8584","7","11","Female","","","","","","","","null","<div style=""font-size:60px;"">+</div>","null","fixation","","","","","","","","","15","","",""
"revaluation","235","985843","0.0-5.0-4.0-0.8","spark_pilot_norest","8584","7","11","Female","","false","","","","","","[1118]","./assets/img/canyon/animals/giraffe.jpg","[""ArrowLeft""]","revaluation","canyon","23","{""ArrowUp,ArrowLeft"":23,""ArrowUp,ArrowRight"":10,""ArrowDown,ArrowLeft"":8,""ArrowDown,ArrowRight"":30}","true","ArrowUp,ArrowLeft","","original","1","16","","",""
"html-keyboard-response","236","986345","0.0-5.0-4.0-1.8","spark_pilot_norest","8584","7","11","Female","","","","","","","","null","<div style=""font-size:60px;"">+</div>","null","fixation","","","","","","","","","17","","",""
"revaluation","237","990350","0.0-5.0-4.0-0.9","spark_pilot_norest","8584","7","11","Female","","false","","","","","","[830]","./assets/img/canyon/animals/lion.jpg","[""ArrowRight""]","revaluation","canyon","30","{""ArrowUp,ArrowLeft"":23,""ArrowUp,ArrowRight"":10,""ArrowDown,ArrowLeft"":8,""ArrowDown,ArrowRight"":30}","true","ArrowDown,ArrowRight","","original","1","18","","",""
"html-keyboard-response","238","990853","0.0-5.0-4.0-1.9","spark_pilot_norest","8584","7","11","Female","","","","","","","","null","<div style=""font-size:60px;"">+</div>","null","fixation","","","","","","","","","19","","",""
"revaluation","239","994858","0.0-5.0-4.0-0.10","spark_pilot_norest","8584","7","11","Female","","false","","","","","","[1478]","./assets/img/canyon/animals/lion.jpg","[""ArrowRight""]","revaluation","canyon","30","{""ArrowUp,ArrowLeft"":23,""ArrowUp,ArrowRight"":10,""ArrowDown,ArrowLeft"":8,""ArrowDown,ArrowRight"":30}","true","ArrowDown,ArrowRight","","original","1","20","","",""
"html-keyboard-response","240","995360","0.0-5.0-4.0-1.10","spark_pilot_norest","8584","7","11","Female","","","","","","","","null","<div style=""font-size:60px;"">+</div>","null","fixation","","","","","","","","","21","","",""
"revaluation","241","999365","0.0-5.0-4.0-0.11","spark_pilot_norest","8584","7","11","Female","","false","","","","","","[811.0000000001164]","./assets/img/canyon/animals/lion.jpg","[""ArrowRight""]","revaluation","canyon","30","{""ArrowUp,ArrowLeft"":23,""ArrowUp,ArrowRight"":10,""ArrowDown,ArrowLeft"":8,""ArrowDown,ArrowRight"":30}","true","ArrowDown,ArrowRight","","original","1","22","","",""
"html-keyboard-response","242","999868","0.0-5.0-4.0-1.11","spark_pilot_norest","8584","7","11","Female","","","","","","","","null","<div style=""font-size:60px;"">+</div>","null","fixation","","","","","","","","","23","","",""
"revaluation","243","1003873","0.0-5.0-4.0-0.12","spark_pilot_norest","8584","7","11","Female","","false","","","","","","[1120]","./assets/img/canyon/animals/lion.jpg","[""ArrowRight""]","revaluation","canyon","30","{""ArrowUp,ArrowLeft"":23,""ArrowUp,ArrowRight"":10,""ArrowDown,ArrowLeft"":8,""ArrowDown,ArrowRight"":30}","true","ArrowDown,ArrowRight","","original","1","24","","",""
"html-keyboard-response","244","1004376","0.0-5.0-4.0-1.12","spark_pilot_norest","8584","7","11","Female","","","","","","","","null","<div style=""font-size:60px;"">+</div>","null","fixation","","","","","","","","","25","","",""
"revaluation","245","1008381","0.0-5.0-4.0-0.13","spark_pilot_norest","8584","7","11","Female","","false","","","","","","[655.0000000001164]","./assets/img/canyon/animals/lion.jpg","[""ArrowRight""]","revaluation","canyon","30","{""ArrowUp,ArrowLeft"":23,""ArrowUp,ArrowRight"":10,""ArrowDown,ArrowLeft"":8,""ArrowDown,ArrowRight"":30}","true","ArrowDown,ArrowRight","","original","1","26","","",""
"html-keyboard-response","246","1008884","0.0-5.0-4.0-1.13","spark_pilot_norest","8584","7","11","Female","","","","","","","","null","<div style=""font-size:60px;"">+</div>","null","fixation","","","","","","","","","27","","",""
"revaluation","247","1012889","0.0-5.0-4.0-0.14","spark_pilot_norest","8584","7","11","Female","","false","","","","","","[1403]","./assets/img/canyon/animals/giraffe.jpg","[""ArrowLeft""]","revaluation","canyon","23","{""ArrowUp,ArrowLeft"":23,""ArrowUp,ArrowRight"":10,""ArrowDown,ArrowLeft"":8,""ArrowDown,ArrowRight"":30}","true","ArrowUp,ArrowLeft","","original","1","28","","",""
"html-keyboard-response","248","1013391","0.0-5.0-4.0-1.14","spark_pilot_norest","8584","7","11","Female","","","","","","","","null","<div style=""font-size:60px;"">+</div>","null","fixation","","","","","","","","","29","","",""
"revaluation","249","1017396","0.0-5.0-4.0-0.15","spark_pilot_norest","8584","7","11","Female","","false","","","","","","[764]","./assets/img/canyon/animals/giraffe.jpg","[""ArrowLeft""]","revaluation","canyon","23","{""ArrowUp,ArrowLeft"":23,""ArrowUp,ArrowRight"":10,""ArrowDown,ArrowLeft"":8,""ArrowDown,ArrowRight"":30}","true","ArrowUp,ArrowLeft","","original","1","30","","",""
"html-keyboard-response","250","1017899","0.0-5.0-4.0-1.15","spark_pilot_norest","8584","7","11","Female","","","","","","","","null","<div style=""font-size:60px;"">+</div>","null","fixation","","","","","","","","","31","","",""
"revaluation","251","1021904","0.0-5.0-4.0-0.16","spark_pilot_norest","8584","7","11","Female","","false","","","","","","[634]","./assets/img/canyon/animals/giraffe.jpg","[""ArrowLeft""]","revaluation","canyon","23","{""ArrowUp,ArrowLeft"":23,""ArrowUp,ArrowRight"":10,""ArrowDown,ArrowLeft"":8,""ArrowDown,ArrowRight"":30}","true","ArrowUp,ArrowLeft","","original","1","32","","",""
"html-keyboard-response","252","1022407","0.0-5.0-4.0-1.16","spark_pilot_norest","8584","7","11","Female","","","","","","","","null","<div style=""font-size:60px;"">+</div>","null","fixation","","","","","","","","","33","","",""
"revaluation","253","1026413","0.0-5.0-4.0-0.17","spark_pilot_norest","8584","7","11","Female","","false","","","","","","[106]","./assets/img/canyon/animals/giraffe.jpg","[""ArrowRight""]","revaluation","canyon","10","{""ArrowUp,ArrowLeft"":23,""ArrowUp,ArrowRight"":10,""ArrowDown,ArrowLeft"":8,""ArrowDown,ArrowRight"":30}","false","ArrowUp,ArrowRight","","original","1","34","","",""
"html-keyboard-response","254","1026915","0.0-5.0-4.0-1.17","spark_pilot_norest","8584","7","11","Female","","","","","","","","null","<div style=""font-size:60px;"">+</div>","null","fixation","","","","","","","","","35","","",""
"learning-instructions","255","1035019","0.0-5.0-5.0-0.0","spark_pilot_norest","8584","7","11","Female","","","","","","","","null","<p> You have almost finished this part of the game! </p>
            <p> We are going to ask you to make a few more choices. </p>","","instructions","","","","","","","","","","","",""
"learning-instructions","256","1050992","0.0-5.0-5.0-0.1","spark_pilot_norest","8584","7","11","Female","","","","","","","","null","<p> First, you need to decide whether to go up or down. When you see each picture, use the arrow keys to make your choice. </p>
            <p><b>You will not see which animal you found, but try to get to the one that will give you the most treasure.</b></p>","","instructions","","","","","","","","","","","",""
"html-keyboard-response","257","1051995","0.0-5.0-6.0-0.0","spark_pilot_norest","8584","7","11","Female","","","","","","","","null","<div style=""font-size:100px;color:red;"">Starting in...</div>","null","","","","","","","","","","","","",""
"html-keyboard-response","258","1052998","0.0-5.0-6.0-1.0","spark_pilot_norest","8584","7","11","Female","","","","","","","","null","<div style=""font-size:200px;color:red;"">3</div>","null","","","","","","","","","","","","",""
"html-keyboard-response","259","1054001","0.0-5.0-6.0-2.0","spark_pilot_norest","8584","7","11","Female","","","","","","","","null","<div style=""font-size:200px;color:red;"">2</div>","null","","","","","","","","","","","","",""
"html-keyboard-response","260","1055003","0.0-5.0-6.0-3.0","spark_pilot_norest","8584","7","11","Female","","","","","","","","null","<div style=""font-size:200px;color:red;"">1</div>","null","","","","","","","","","","","","",""
"revaluation","261","1055602","0.0-5.0-7.0-0.0","spark_pilot_norest","8584","7","11","Female","","false","","","","","","[596]","./assets/img/canyon/test/3.jpg","[""ArrowDown""]","first stage test","canyon","0","{""ArrowUp,ArrowLeft"":23,""ArrowUp,ArrowRight"":10,""ArrowDown,ArrowLeft"":8,""ArrowDown,ArrowRight"":30}","true","ArrowDown","false","original","1","","","",""
"html-keyboard-response","262","1056105","0.0-5.0-7.0-1.0","spark_pilot_norest","8584","7","11","Female","","","","","","","","null","<div style=""font-size:60px;"">+</div>","null","fixation","","","","","","","","","","","",""
"revaluation","263","1057077","0.0-5.0-7.0-0.1","spark_pilot_norest","8584","7","11","Female","","false","","","","","","[967]","./assets/img/canyon/test/0.jpg","[""ArrowDown""]","first stage test","canyon","0","{""ArrowUp,ArrowLeft"":23,""ArrowUp,ArrowRight"":10,""ArrowDown,ArrowLeft"":8,""ArrowDown,ArrowRight"":30}","true","ArrowDown","false","original","1","","","",""
"html-keyboard-response","264","1057580","0.0-5.0-7.0-1.1","spark_pilot_norest","8584","7","11","Female","","","","","","","","null","<div style=""font-size:60px;"">+</div>","null","fixation","","","","","","","","","","","",""
"revaluation","265","1058665","0.0-5.0-7.0-0.2","spark_pilot_norest","8584","7","11","Female","","false","","","","","","[1081]","./assets/img/canyon/test/2.jpg","[""ArrowDown""]","first stage test","canyon","0","{""ArrowUp,ArrowLeft"":23,""ArrowUp,ArrowRight"":10,""ArrowDown,ArrowLeft"":8,""ArrowDown,ArrowRight"":30}","true","ArrowDown","false","original","1","","","",""
"html-keyboard-response","266","1059168","0.0-5.0-7.0-1.2","spark_pilot_norest","8584","7","11","Female","","","","","","","","null","<div style=""font-size:60px;"">+</div>","null","fixation","","","","","","","","","","","",""
"revaluation","267","1059819","0.0-5.0-7.0-0.3","spark_pilot_norest","8584","7","11","Female","","false","","","","","","[647]","./assets/img/canyon/test/1.jpg","[""ArrowDown""]","first stage test","canyon","0","{""ArrowUp,ArrowLeft"":23,""ArrowUp,ArrowRight"":10,""ArrowDown,ArrowLeft"":8,""ArrowDown,ArrowRight"":30}","true","ArrowDown","false","original","1","","","",""
"html-keyboard-response","268","1060322","0.0-5.0-7.0-1.3","spark_pilot_norest","8584","7","11","Female","","","","","","","","null","<div style=""font-size:60px;"">+</div>","null","fixation","","","","","","","","","","","",""
"learning-instructions","269","1073664","0.0-5.0-8.0-0.0","spark_pilot_norest","8584","7","11","Female","","","","","","","","null","<p> Now you will see the animals again and can search their chests for treasure. </p>
            <p> This time, you will not see how much treasure you earned, but you will earn more bonus money for making better choices. </p>","","instructions","","","","","","","","","","","",""
"html-keyboard-response","270","1074667","0.0-5.0-9.0-0.0","spark_pilot_norest","8584","7","11","Female","","","","","","","","null","<div style=""font-size:100px;color:red;"">Starting in...</div>","null","","","","","","","","","","","","",""
"html-keyboard-response","271","1075669","0.0-5.0-9.0-1.0","spark_pilot_norest","8584","7","11","Female","","","","","","","","null","<div style=""font-size:200px;color:red;"">3</div>","null","","","","","","","","","","","","",""
"html-keyboard-response","272","1076672","0.0-5.0-9.0-2.0","spark_pilot_norest","8584","7","11","Female","","","","","","","","null","<div style=""font-size:200px;color:red;"">2</div>","null","","","","","","","","","","","","",""
"html-keyboard-response","273","1077674","0.0-5.0-9.0-3.0","spark_pilot_norest","8584","7","11","Female","","","","","","","","null","<div style=""font-size:200px;color:red;"">1</div>","null","","","","","","","","","","","","",""
"revaluation","274","1078928","0.0-5.0-10.0-0.0","spark_pilot_norest","8584","7","11","Female","","false","","","","","","[1251]","./assets/img/canyon/animals/giraffe.jpg","[""ArrowLeft""]","second stage test","canyon","0","{""ArrowUp,ArrowLeft"":23,""ArrowUp,ArrowRight"":10,""ArrowDown,ArrowLeft"":8,""ArrowDown,ArrowRight"":30}","true","ArrowUp,ArrowLeft","","original","1","","","",""
"html-keyboard-response","275","1079431","0.0-5.0-10.0-1.0","spark_pilot_norest","8584","7","11","Female","","","","","","","","null","<div style=""font-size:60px;"">+</div>","null","fixation","","","","","","","","","","","",""
"revaluation","276","1080169","0.0-5.0-10.0-0.1","spark_pilot_norest","8584","7","11","Female","","false","","","","","","[734]","./assets/img/canyon/animals/giraffe.jpg","[""ArrowLeft""]","second stage test","canyon","0","{""ArrowUp,ArrowLeft"":23,""ArrowUp,ArrowRight"":10,""ArrowDown,ArrowLeft"":8,""ArrowDown,ArrowRight"":30}","true","ArrowUp,ArrowLeft","","original","1","","","",""
"html-keyboard-response","277","1080672","0.0-5.0-10.0-1.1","spark_pilot_norest","8584","7","11","Female","","","","","","","","null","<div style=""font-size:60px;"">+</div>","null","fixation","","","","","","","","","","","",""
"revaluation","278","1081279","0.0-5.0-10.0-0.2","spark_pilot_norest","8584","7","11","Female","","false","","","","","","[605]","./assets/img/canyon/animals/giraffe.jpg","[""ArrowLeft""]","second stage test","canyon","0","{""ArrowUp,ArrowLeft"":23,""ArrowUp,ArrowRight"":10,""ArrowDown,ArrowLeft"":8,""ArrowDown,ArrowRight"":30}","true","ArrowUp,ArrowLeft","","original","1","","","",""
"html-keyboard-response","279","1081782","0.0-5.0-10.0-1.2","spark_pilot_norest","8584","7","11","Female","","","","","","","","null","<div style=""font-size:60px;"">+</div>","null","fixation","","","","","","","","","","","",""
"revaluation","280","1082530","0.0-5.0-10.0-0.3","spark_pilot_norest","8584","7","11","Female","","false","","","","","","[745]","./assets/img/canyon/animals/giraffe.jpg","[""ArrowLeft""]","second stage test","canyon","0","{""ArrowUp,ArrowLeft"":23,""ArrowUp,ArrowRight"":10,""ArrowDown,ArrowLeft"":8,""ArrowDown,ArrowRight"":30}","true","ArrowUp,ArrowLeft","","original","1","","","",""
"html-keyboard-response","281","1083033","0.0-5.0-10.0-1.3","spark_pilot_norest","8584","7","11","Female","","","","","","","","null","<div style=""font-size:60px;"">+</div>","null","fixation","","","","","","","","","","","",""
"revaluation","282","1083776","0.0-5.0-10.0-0.4","spark_pilot_norest","8584","7","11","Female","","false","","","","","","[740]","./assets/img/canyon/animals/lion.jpg","[""ArrowRight""]","second stage test","canyon","0","{""ArrowUp,ArrowLeft"":23,""ArrowUp,ArrowRight"":10,""ArrowDown,ArrowLeft"":8,""ArrowDown,ArrowRight"":30}","true","ArrowDown,ArrowRight","","original","1","","","",""
"html-keyboard-response","283","1084279","0.0-5.0-10.0-1.4","spark_pilot_norest","8584","7","11","Female","","","","","","","","null","<div style=""font-size:60px;"">+</div>","null","fixation","","","","","","","","","","","",""
"revaluation","284","1084677","0.0-5.0-10.0-0.5","spark_pilot_norest","8584","7","11","Female","","false","","","","","","[395.99999999976717]","./assets/img/canyon/animals/lion.jpg","[""ArrowRight""]","second stage test","canyon","0","{""ArrowUp,ArrowLeft"":23,""ArrowUp,ArrowRight"":10,""ArrowDown,ArrowLeft"":8,""ArrowDown,ArrowRight"":30}","true","ArrowDown,ArrowRight","","original","1","","","",""
"html-keyboard-response","285","1085180","0.0-5.0-10.0-1.5","spark_pilot_norest","8584","7","11","Female","","","","","","","","null","<div style=""font-size:60px;"">+</div>","null","fixation","","","","","","","","","","","",""
"revaluation","286","1085746","0.0-5.0-10.0-0.6","spark_pilot_norest","8584","7","11","Female","","false","","","","","","[563]","./assets/img/canyon/animals/lion.jpg","[""ArrowRight""]","second stage test","canyon","0","{""ArrowUp,ArrowLeft"":23,""ArrowUp,ArrowRight"":10,""ArrowDown,ArrowLeft"":8,""ArrowDown,ArrowRight"":30}","true","ArrowDown,ArrowRight","","original","1","","","",""
"html-keyboard-response","287","1086249","0.0-5.0-10.0-1.6","spark_pilot_norest","8584","7","11","Female","","","","","","","","null","<div style=""font-size:60px;"">+</div>","null","fixation","","","","","","","","","","","",""
"revaluation","288","1086754","0.0-5.0-10.0-0.7","spark_pilot_norest","8584","7","11","Female","","false","","","","","","[500.99999999976717]","./assets/img/canyon/animals/lion.jpg","[""ArrowRight""]","second stage test","canyon","0","{""ArrowUp,ArrowLeft"":23,""ArrowUp,ArrowRight"":10,""ArrowDown,ArrowLeft"":8,""ArrowDown,ArrowRight"":30}","true","ArrowDown,ArrowRight","","original","1","","","",""
"html-keyboard-response","289","1087257","0.0-5.0-10.0-1.7","spark_pilot_norest","8584","7","11","Female","","","","","","","","null","<div style=""font-size:60px;"">+</div>","null","fixation","","","","","","","","","","","",""
"learning-instructions","290","1092947","0.0-5.0-0.1-0.2","spark_pilot_norest","8584","7","11","Female","","","","","","","","1977","<p> This time you are searching for treasure in the <b>ocean</b>.</p>","","instructions","","","","","","","","","","","",""
"learning-instructions","291","1113515","0.0-5.0-0.1-0.3","spark_pilot_norest","8584","7","11","Female","","","","","","","","3316","<p><b>New</b> animals with <b>new</b> treasure chests live here. You need to explore to discover where the animal with the best treasure chest is.</p>
                    <p> Like before, once you figure out which animal has the chest with the most treasure, you should try to get to that animal and select that chest! </p>","","instructions","","","","","","","","","","","",""
"learning-instructions","292","1129164","0.0-5.0-1.1-0.1","spark_pilot_norest","8584","7","11","Female","","","","","","","","918","<p> Remember, when you see a picture of the place, use the up and down keys to <b>find an animal</b>.</p>
            <p> When you encounter an animal, you should use the left and right keys to <b>select a treasure chest</b>.</p>
            <p> Don't forget to look out for the robber! </p>","","instructions","","","","","","","","","","","",""
"revaluation","293","1133170","0.0-5.0-2.1-0.50","spark_pilot_norest","8584","7","11","Female","","false","","","","","","[1247]","./assets/img/ocean/catch/5.jpg","[""ArrowDown""]","value training","ocean","-10","{""ArrowUp,ArrowLeft"":26,""ArrowUp,ArrowRight"":10,""ArrowDown,ArrowLeft"":5,""ArrowDown,ArrowRight"":17}","false","ArrowDown","true","revaluation","2","0","","",""
"html-keyboard-response","294","1133672","0.0-5.0-2.1-1.50","spark_pilot_norest","8584","7","11","Female","","","","","","","","null","<div style=""font-size:60px;"">+</div>","null","fixation","","","","","","","","","1","","",""
"revaluation","295","1139680","0.0-5.0-2.1-0.51","spark_pilot_norest","8584","7","11","Female","","false","","","","","","[1135,956]","./assets/img/ocean/memory/41.jpg","[""ArrowDown"",""ArrowLeft""]","value training","ocean","5","{""ArrowUp,ArrowLeft"":26,""ArrowUp,ArrowRight"":10,""ArrowDown,ArrowLeft"":5,""ArrowDown,ArrowRight"":17}","false","ArrowDown,ArrowLeft","false","revaluation","2","2","","",""
"html-keyboard-response","296","1140183","0.0-5.0-2.1-1.51","spark_pilot_norest","8584","7","11","Female","","","","","","","","null","<div style=""font-size:60px;"">+</div>","null","fixation","","","","","","","","","3","","",""
"revaluation","297","1144189","0.0-5.0-2.1-0.52","spark_pilot_norest","8584","7","11","Female","","false","","","","","","[1082]","./assets/img/ocean/catch/4.jpg","[""spaceBar""]","value training","ocean","0","{""ArrowUp,ArrowLeft"":26,""ArrowUp,ArrowRight"":10,""ArrowDown,ArrowLeft"":5,""ArrowDown,ArrowRight"":17}","true","spaceBar","true","revaluation","2","4","","",""
"html-keyboard-response","298","1144691","0.0-5.0-2.1-1.52","spark_pilot_norest","8584","7","11","Female","","","","","","","","null","<div style=""font-size:60px;"">+</div>","null","fixation","","","","","","","","","5","","",""
"revaluation","299","1150699","0.0-5.0-2.1-0.53","spark_pilot_norest","8584","7","11","Female","","false","","","","","","[799,769]","./assets/img/ocean/memory/35.jpg","[""ArrowDown"",""ArrowRight""]","value training","ocean","17","{""ArrowUp,ArrowLeft"":26,""ArrowUp,ArrowRight"":10,""ArrowDown,ArrowLeft"":5,""ArrowDown,ArrowRight"":17}","false","ArrowDown,ArrowRight","false","revaluation","2","6","","",""
"html-keyboard-response","300","1151202","0.0-5.0-2.1-1.53","spark_pilot_norest","8584","7","11","Female","","","","","","","","null","<div style=""font-size:60px;"">+</div>","null","fixation","","","","","","","","","7","","",""
"revaluation","301","1157209","0.0-5.0-2.1-0.54","spark_pilot_norest","8584","7","11","Female","","false","","","","","","[1010,1362]","./assets/img/ocean/memory/37.jpg","[""ArrowUp"",""ArrowLeft""]","value training","ocean","26","{""ArrowUp,ArrowLeft"":26,""ArrowUp,ArrowRight"":10,""ArrowDown,ArrowLeft"":5,""ArrowDown,ArrowRight"":17}","true","ArrowUp,ArrowLeft","false","revaluation","2","8","","",""
"html-keyboard-response","302","1157711","0.0-5.0-2.1-1.54","spark_pilot_norest","8584","7","11","Female","","","","","","","","null","<div style=""font-size:60px;"">+</div>","null","fixation","","","","","","","","","9","","",""
"revaluation","303","1163718","0.0-5.0-2.1-0.55","spark_pilot_norest","8584","7","11","Female","","false","","","","","","[997,644]","./assets/img/ocean/memory/3.jpg","[""ArrowUp"",""ArrowRight""]","value training","ocean","10","{""ArrowUp,ArrowLeft"":26,""ArrowUp,ArrowRight"":10,""ArrowDown,ArrowLeft"":5,""ArrowDown,ArrowRight"":17}","false","ArrowUp,ArrowRight","false","revaluation","2","10","","",""
"html-keyboard-response","304","1164221","0.0-5.0-2.1-1.55","spark_pilot_norest","8584","7","11","Female","","","","","","","","null","<div style=""font-size:60px;"">+</div>","null","fixation","","","","","","","","","11","","",""
"revaluation","305","1170228","0.0-5.0-2.1-0.56","spark_pilot_norest","8584","7","11","Female","","false","","","","","","[1529,515]","./assets/img/ocean/memory/11.jpg","[""ArrowDown"",""ArrowRight""]","value training","ocean","17","{""ArrowUp,ArrowLeft"":26,""ArrowUp,ArrowRight"":10,""ArrowDown,ArrowLeft"":5,""ArrowDown,ArrowRight"":17}","false","ArrowDown,ArrowRight","false","revaluation","2","12","","",""
"html-keyboard-response","306","1170731","0.0-5.0-2.1-1.56","spark_pilot_norest","8584","7","11","Female","","","","","","","","null","<div style=""font-size:60px;"">+</div>","null","fixation","","","","","","","","","13","","",""
"revaluation","307","1176738","0.0-5.0-2.1-0.57","spark_pilot_norest","8584","7","11","Female","","false","","","","","","[770,479]","./assets/img/ocean/memory/9.jpg","[""ArrowUp"",""ArrowLeft""]","value training","ocean","26","{""ArrowUp,ArrowLeft"":26,""ArrowUp,ArrowRight"":10,""ArrowDown,ArrowLeft"":5,""ArrowDown,ArrowRight"":17}","true","ArrowUp,ArrowLeft","false","revaluation","2","14","","",""
"html-keyboard-response","308","1177241","0.0-5.0-2.1-1.57","spark_pilot_norest","8584","7","11","Female","","","","","","","","null","<div style=""font-size:60px;"">+</div>","null","fixation","","","","","","","","","15","","",""
"revaluation","309","1183247","0.0-5.0-2.1-0.58","spark_pilot_norest","8584","7","11","Female","","false","","","","","","[841,401.00000000023283]","./assets/img/ocean/memory/8.jpg","[""ArrowUp"",""ArrowLeft""]","value training","ocean","26","{""ArrowUp,ArrowLeft"":26,""ArrowUp,ArrowRight"":10,""ArrowDown,ArrowLeft"":5,""ArrowDown,ArrowRight"":17}","true","ArrowUp,ArrowLeft","false","revaluation","2","16","","",""
"html-keyboard-response","310","1183750","0.0-5.0-2.1-1.58","spark_pilot_norest","8584","7","11","Female","","","","","","","","null","<div style=""font-size:60px;"">+</div>","null","fixation","","","","","","","","","17","","",""
"revaluation","311","1189756","0.0-5.0-2.1-0.59","spark_pilot_norest","8584","7","11","Female","","false","","","","","","[743,878]","./assets/img/ocean/memory/35.jpg","[""ArrowUp"",""ArrowLeft""]","value training","ocean","26","{""ArrowUp,ArrowLeft"":26,""ArrowUp,ArrowRight"":10,""ArrowDown,ArrowLeft"":5,""ArrowDown,ArrowRight"":17}","true","ArrowUp,ArrowLeft","false","revaluation","2","18","","",""
"html-keyboard-response","312","1190259","0.0-5.0-2.1-1.59","spark_pilot_norest","8584","7","11","Female","","","","","","","","null","<div style=""font-size:60px;"">+</div>","null","fixation","","","","","","","","","19","","",""
"revaluation","313","1196265","0.0-5.0-2.1-0.60","spark_pilot_norest","8584","7","11","Female","","false","","","","","","[875.9999999997672,435]","./assets/img/ocean/memory/33.jpg","[""ArrowUp"",""ArrowLeft""]","value training","ocean","26","{""ArrowUp,ArrowLeft"":26,""ArrowUp,ArrowRight"":10,""ArrowDown,ArrowLeft"":5,""ArrowDown,ArrowRight"":17}","true","ArrowUp,ArrowLeft","false","revaluation","2","20","","",""
"html-keyboard-response","314","1196768","0.0-5.0-2.1-1.60","spark_pilot_norest","8584","7","11","Female","","","","","","","","null","<div style=""font-size:60px;"">+</div>","null","fixation","","","","","","","","","21","","",""
